time,gFx,gFy,gFz,ax,ay,az,wx,wy,wz,subject_number,foot
8.921,0.48634348320481346,0.905058570986851,0.07555802906048664,2.8966583653078137,-0.46306887696391213,0.7844482664017989,0.28274276275904575,0.06818316692278407,-0.48098940016728753,1,left
8.922,0.48146246053382075,0.9064231922549649,0.07421351942458922,2.8943383059832395,-0.4659876023246214,0.780310490149512,0.28659308386600374,0.06829972017167119,-0.49069286903257736,1,left
8.925,0.4765868517835254,0.9077602364466852,0.07291460009025595,2.890989314571546,-0.4682199603787447,0.7757347749961648,0.2902975721275967,0.0683135773478619,-0.5001738312058841,1,left
8.926,0.47171844648387257,0.9090689468338565,0.07166104407000241,2.8866149541755823,-0.46977856925148553,0.7707258653307466,0.2938562104497414,0.06822710830597035,-0.5094311854842406,1,left
8.93,0.4668590166990651,0.9103486086324455,0.07045252284309078,2.881219857446526,-0.4706763659487874,0.765289387320226,0.2972691254346568,0.0680427526610822,-0.5184639796661789,1,left
8.931000000000001,0.46201031688547556,0.9115985519579792,0.06928860980122013,2.8748097042746226,-0.4709265942220984,0.7594318311819375,0.3005365871842044,0.06776302007834839,-0.527271403062806,1,left
8.932,0.45717408330272347,0.9128181549779218,0.06816878415699457,2.8673911978341238,-0.4705427947218479,0.7531605315512436,0.3036590087178431,0.06739049032487074,-0.5358527791262687,1,left
8.935,0.45235203298648935,0.9140068471933883,0.06709243529890854,2.8589720397351313,-0.46953879627752837,0.7464836463620259,0.30663694501500244,0.06692781308335534,-0.544207558221553,1,left
8.936,0.44754586230022475,0.9151641127696443,0.06605886756260865,2.8495609048400774,-0.4679287074315954,0.7394101345480556,0.3094710916912626,0.0663777075267357,-0.5523353105669176,1,left
8.94,0.44275724509283637,0.9162894938202109,0.06506730537504461,2.8391674159540075,-0.4657269078766997,0.7319497326771951,0.312162283317312,0.0657429616527011,-0.5602357193676147,1,left
8.941,0.437987830498221,0.9173825935466688,0.06411689872002391,2.8278021184029076,-0.46294803973515986,0.7241129305209246,0.31471149138923854,0.06502643137680685,-0.5679085741668949,1,left
8.945,0.43323924042125805,0.9184430791441325,0.0632067288706605,2.815476454473066,-0.45960699867608373,0.7159109455388947,0.31711982195829813,0.06423103938259224,-0.5753537644376473,1,left
8.945,0.42851306676576784,0.9194706843942586,0.06233581433361065,2.802202737681624,-0.4557189248638425,0.7073556962570967,0.31938851292789394,0.06335977372688889,-0.5825712734373688,1,left
8.95,0.42381086847214194,0.9204652118806845,0.06150311695108955,2.7879941268456983,-0.45129919372994787,0.6984597745171606,0.32151893102509194,0.06241568619826717,-0.5895611723485041,1,left
8.951,0.4191341684416001,0.9214265347753656,0.060707548110360346,2.772864599914691,-0.44636340655876694,0.6892364165732453,0.32351256845359316,0.0614018904263425,-0.5963236147255454,1,left
8.955,0.4144844504276293,0.9223545981582958,0.059947975014696335,2.756828927527686,-0.4409273808759388,0.6796994730119706,0.3253710392346842,0.06032155973944496,-0.6028588312696243,1,left
8.956,0.40986315597428075,0.923249419847575,0.0592232269698371,2.739902646255137,-0.43500714062682866,0.6698633774698645,0.3270960752422878,0.05917792476794694,-0.609167124950679,1,left
8.959,0.40527168147704656,0.9241110907316358,0.05853210163358879,2.7221020314814277,-0.42861890613087533,0.6597431141218575,0.3286895219378456,0.05797427079034316,-0.6152488664966218,1,left
8.959,0.40071137543497864,0.9249397746097078,0.057873371166882556,2.7034440698822615,-0.42177908379625034,0.649354183913461,0.33015333381037504,0.056713934818986664,-0.6211044902682814,1,left
8.964,0.39618353595229805,0.9257357075586924,0.05724578821739312,2.683946431448292,-0.41450425557785553,0.6387125695084027,0.33148956952665964,0.05540030242220242,-0.6267344905382445,1,left
8.965,0.3916894085343873,0.9264991968535677,0.05664809166433023,2.663627441003903,-0.40681116816034346,0.627834698922681,0.33270038679615516,0.05403680427932795,-0.632139418191068,1,left
8.969,0.3872301842086704,0.9272306194742073,0.05607901205534001,2.6425060491675643,-0.39871672184654733,0.6167374078152283,0.3337880369548206,0.05262691246506774,-0.6373198778616835,1,left
8.97,0.3828069979882937,0.9279304202352254,0.05553727667305105,2.6206018026978004,-0.39023795913045767,0.6054379004046482,0.3347548592717174,0.05117413645939496,-0.64227652552817,1,left
8.974,0.37842092768731217,0.9285991095786061,0.05502161417979331,2.5979348141664405,-0.3813920529326821,0.5939537089808111,0.3356032749818603,0.04968201887909116,-0.6470100665744236,1,left
8.975,0.3740729930901181,0.9292372610717645,0.054530758804446765,2.574525730898513,-0.37219629447517166,0.5823026519794695,0.3363357810484498,0.048154130926881096,-0.6515212543376054,1,left
8.98,0.36976415547402425,0.9298455086565504,0.0540634540529297,2.550395703115903,-0.3626680807708933,0.5705027905874677,0.3369549436572674,0.04659406755399707,-0.6558108891546115,1,left
8.981,0.36549531748088254,0.930424543698461,0.05361845593954524,2.525566351219698,-0.3528249017030741,0.5585723838455944,0.3374633914456784,0.04500544233189385,-0.6598798179211612,1,left
8.984,0.36126732333089717,0.9309751118898263,0.05319453574856409,2.5000597321440354,-0.34268432666763793,0.546529842215646,0.3378638084683497,0.04339188202873282,-0.6637289341764676,1,left
8.985,0.35708095936984646,0.9314980100632593,0.05279048234451579,2.4738983047121543,-0.33226399075149926,0.5343936795778428,0.3381589269103794,0.04175702089482898,-0.6673591787134208,1,left
8.986,0.352936954939647,0.9319940829685173,0.052405104054339076,2.4471048939233913,-0.32158158041847656,0.5221824636243633,0.33835151960276205,0.04010449470451043,-0.670771540651616,1,left
8.99,0.3488359835605917,0.9324642200575872,0.05203723014387993,2.419702654097886,-0.31065481867373107,0.5099147646144441,0.33844439247499647,0.038437934679776416,-0.6739670587983891,1,left
8.991,0.3447786644110152,0.9329093523162317,0.05168571190980204,2.3917150308038906,-0.29950144967683395,0.497609102456219,0.33844037712388947,0.03676096146441688,-0.676946823060426,1,left
8.995,0.34076556408609554,0.9333304491795443,0.05134942341051866,2.363165721490763,-0.28813922277281345,0.4852838920802587,0.33834232363276334,0.035077179273867505,-0.6797119757298552,1,left
8.996,0.3367971986109521,0.9337285155683558,0.05102726186476132,2.334078634748983,-0.2765858759098298,0.4729573870696093,0.33815309369479996,0.03339017026802611,-0.6822637125796478,1,left
8.999,0.3328740356748063,0.9341045890761932,0.050718147749962146,2.304477848180903,-0.26485911842962756,0.46064762160161665,0.3378755540494265,0.03170348915088818,-0.6846032837644904,1,left
9.0,0.32899649704760847,0.9344597373245604,0.05042102463170516,2.2743875651847327,-0.25297661330707555,0.4483723512097621,0.3375125702314667,0.030020657992172115,-0.6867319945350812,1,left
9.0,0.3251649611418357,0.93479505549252,0.05013485874945191,2.243832071529378,-0.24095595907792416,0.4361489936891209,0.33706700063252093,0.028345161266095695,-0.6886512057731798,1,left
9.003,0.32137976568577076,0.935111664016708,0.04985863837730672,2.2128356929166624,-0.22881467178417225,0.4239945719220937,0.3365416908737834,0.026680441102465757,-0.6903623343541367,1,left
9.004,0.317641210474421,0.9354107064488419,0.04959137297677233,2.181422754405671,-0.21657016717522662,0.41192565994816993,0.33593946848925965,0.02502989274525441,-0.6918668533430173,1,left
9.008,0.31394956016131376,0.9356933474482912,0.04933209216067759,2.1496175419959402,-0.20423974323927344,0.39995833278623627,0.33526313791811146,0.023396860213855855,-0.6931662920298411,1,left
9.009,0.31030504705245354,0.9359607708778362,0.04907984449186833,2.1174442663445863,-0.19184056304817143,0.3881081200651495,0.3345154758046251,0.021784632162248935,-0.6942622358088513,1,left
9.013,0.30670787386390647,0.9362141779634632,0.04883369614653102,2.0849270285271735,-0.17938963788072954,0.37638996342793724,0.33369922660407936,0.0201964379313309,-0.6951563259061412,1,left
9.014,0.30315821640703855,0.936454785475836,0.048592729478469585,2.052089787751015,-0.16690381058898365,0.3648181776752809,0.3328170984925769,0.018635443789738318,-0.6958502589593759,1,left
9.019,0.2996562261696266,0.9366838238918136,0.04835604152456765,2.0189563309285283,-0.15439973917188982,0.3534064156142708,0.3318717595786963,0.017104749358530517,-0.6963457864527584,1,left
9.019,0.29620203276501034,0.9369025354978338,0.04812274249197326,1.9855502440172828,-0.14189388052070165,0.34216763657880045,0.3308658344146259,0.01560738421517991,-0.6966447140098125,1,left
9.023,0.29279574622504984,0.9371121724019994,0.04789195426505338,1.9518948850324618,-0.1294024743001998,0.3311140785883883,0.3298019008042516,0.01414630467239165,-0.6967489005459816,1,left
9.023,0.28943745911701063,0.937313994426946,0.04766280896686082,1.9180133586366042,-0.11694152692988766,0.32025723411267004,0.3286824869054877,0.012724390727361734,-0.6966602572824689,1,left
9.027999999999999,0.2861272484693912,0.9375092668606845,0.04743444760800287,1.8839284922107071,-0.1045267956292626,0.309607829409303,0.3275100686239673,0.011344443177178512,-0.6963807466221834,1,left
9.03,0.2828651774967276,0.9376992580486997,0.04720601885649537,1.8496628133100599,-0.09217377249131248,0.299175807403553,0.3262870672950413,0.010009180896176422,-0.6959123808880936,1,left
9.033,0.2796512971188681,0.9378852368181804,0.04697667796459188,1.815238528407524,-0.07989766854847445,0.2889703140783982,0.3250158476508748,0.008721238271163266,-0.6952572209237399,1,left
9.033999999999999,0.27648564727475483,0.9380684697335414,0.04674558589043343,1.7806775028263928,-0.06771339779542547,0.27899968834457795,0.32369871606927886,0.0074831627905626325,-0.6944173745551053,1,left
9.038,0.2733682580315951,0.9382502181909144,0.04651190865119325,1.7460012417644404,-0.05563556113324995,0.26927145536063846,0.3223379191007687,0.006297412783641284,-0.6933949949125057,1,left
9.039,0.27029915048712794,0.9384317353683955,0.046274816938628824,1.7112308723103162,-0.04367843019975095,0.25979232327367535,0.3209356422702026,0.005166355306127095,-0.6921922786106198,1,left
9.044,0.26727833745917823,0.9386142630582437,0.04603348601757987,1.6763871263530472,-0.03185593105093413,0.25056818335214687,0.3194940091492211,0.004092264168666173,-0.6908114637842523,1,left
9.045,0.2643058239569901,0.9387990284159976,0.045787095914558436,1.6414903242850747,-0.020181627658998776,0.24160411348282443,0.3180150806955828,0.0030773181047179083,-0.6892548279768965,1,left
9.048,0.2613816074336251,0.9389872406683867,0.04553483188928924,1.6065603593989877,-0.00866870519251628,0.23290438500466315,0.316500854855373,0.0021235990746436284,-0.6875246858786489,1,left
9.048,0.25850567782610284,0.9391800878250078,0.04527588516837339,1.5716166828778997,0.002670046955137666,0.22447247285310457,0.314953266423948,0.001233090702907983,-0.6856233869095103,1,left
9.054,0.2556780173980537,0.9393787334365785,0.04500945390926879,1.5366782892792612,0.01382225242260584,0.2163110689890693,0.31337418715841725,0.0004076768454459456,-0.6835533126493194,1,left
9.055,0.25289860040589385,0.9395843134351104,0.04473474435812643,1.5017637024118056,0.024775965455673312,0.20842209908765513,0.3117654261195964,-0.0003508597157555153,-0.6813168741436085,1,left
9.055,0.2501673926134042,0.9397979330808113,0.044450972167153206,1.466890961505285,0.03551968883323883,0.20080674246232375,0.3101287301946866,-0.0010408384539538744,-0.6789165091655699,1,left
9.057,0.24748435068642224,0.9400206640311335,0.04415736384014829,1.4320776075726687,0.046042392176145384,0.1934654552011347,0.30846578473707714,-0.0016606821579111318,-0.676354679542381,1,left
9.057,0.2448494215116187,0.9402535415409586,0.04385315827476484,1.3973406698645425,0.05633353067031226,0.18639799649236624,0.30677821427435037,-0.002208917873831632,-0.6736338686251139,1,left
9.064,0.24226254149377927,0.9404975617969655,0.043537608371499524,1.3626966523155652,0.06638306423500868,0.1796034581176474,0.30506758326207023,-0.0026841777311718018,-0.6707565789295937,1,left
9.065,0.23972363588823678,0.9407536793828075,0.04320998268718532,1.3281615198830103,0.07618147716647537,0.1730802970915106,0.3033353968756264,-0.003085199654135188,-0.6677253299465643,1,left
9.067,0.23723261822001449,0.9410228048677516,0.04286956712238509,1.293750684724586,0.08571979824615471,0.16682637135595582,0.30158310183528997,-0.003410827960424783,-0.6645426561133484,1,left
9.068,0.2347893898305632,0.9413058025122083,0.04251566664148176,1.259478992397724,0.09498962110069228,0.1608389780838764,0.29981208725956976,-0.003660013848615216,-0.6612111049387418,1,left
9.068,0.23239383957828896,0.9416034880880783,0.04214760702712563,1.2253607086853633,0.10398312423762193,0.15511489350603225,0.298023685541896,-0.00383181577529435,-0.6577332352724412,1,left
9.073,0.230045843704671,0.9419166268182076,0.041764736667072165,1.1914095078883387,0.11269308997849503,0.14965041282150654,0.29621917324560054,-0.003925399722907465,-0.654111615709866,1,left
9.073,0.22774526586612254,0.9422459314469458,0.041366428364639884,1.1576384631901582,0.12111292171185013,0.1444413891078686,0.29439977201210854,-0.003940039359017845,-0.6503488231228101,1,left
9.076,0.22549195732122657,0.9425920604620225,0.04095208115646858,1.1240600392778626,0.12923665925015687,0.13948327078796394,0.29256664947720773,-0.003875116087475515,-0.6464474413059378,1,left
9.077,0.22328575725339836,0.9429556164941736,0.040521122113534924,1.0906860871684099,0.13705899227546012,0.13477113756651912,0.2907209201902132,-0.0037301189917614028,-0.6424100597287252,1,left
9.081,0.22112649320308292,0.9433371449232011,0.04007300809506335,1.0575278411435975,0.14457527189789948,0.13029973482158835,0.28886364653080326,-0.0035046446705476477,-0.6382392723820444,1,left
9.081,0.21901398158298582,0.9437371327174536,0.039607227423070455,1.0245959176970854,0.15178152035043002,0.12606350643658726,0.28699583961826414,-0.0031983969652864554,-0.633937676708186,1,left
9.086,0.21694802825408635,0.9441560075286658,0.03912330144902148,0.9919003163976691,0.1586744388422059,0.12205662605936617,0.2851184602078418,-0.0028111865794100788,-0.6295078726027303,1,left
9.087,0.21492842914709992,0.9445941370566812,0.038620785990896224,0.9594504225735718,0.16525141359221027,0.11827302677546574,0.28323241956886863,-0.0023429305884935703,-0.6249524614762888,1,left
9.091000000000001,0.21295497092010718,0.945051828690271,0.03809927262541951,0.9272550117231719,0.1715105200638263,0.11470642918337261,0.28133858033930087,-0.001793651840500122,-0.6202740453637645,1,left
9.091000000000001,0.21102743164527793,0.9455293294221462,0.03755838982562626,0.89532225555826,0.1774505254201449,0.11135036786025161,0.2794377573512762,-0.0011634782449964681,-0.6154752260684131,1,left
9.096,0.2091455815157917,0.9460268260288965,0.03699780393926906,0.8636597295866251,0.18307088921889902,0.10819821620727164,0.27753071842227445,-0.00045264194999322004,-0.610558604327621,1,left
9.097000000000001,0.20730918356047018,0.9465444455004983,0.03641722000938353,0.8322744221414988,0.1883717623650029,0.1052432096642655,0.2756181851064436,0.00033852159516752214,-0.6055267789869689,1,left
9.101,0.20551799435063786,0.9470822556993539,0.035816382445035745,0.8011727447661388,0.1933539843377587,0.10247846728406798,0.27370083340063095,0.0012095746926871008,-0.6003823461687988,1,left
9.102,0.20377176468256425,0.9476402662248656,0.03519507555754953,0.770360543862609,0.19801907870887697,0.09989701165746293,0.2717792943996439,0.0021599785669890966,-0.5951278984211663,1,left
9.107000000000001,0.20207024022020204,0.9482184294556266,0.03455312398330692,0.7398431135146092,0.20236924696654057,0.097491787180235,0.26985415489524645,0.003189094655473851,-0.5897660238327296,1,left
9.107999999999999,0.20041316208629303,0.9488166417381488,0.033890393016087476,0.7096252093950188,0.206407360659828,0.09525567665436908,0.2679259579133858,0.004296186021849854,-0.584299305098801,1,left
9.111,0.19880026739344003,0.9494347446899737,0.03320678886921384,0.6797110636696524,0.2101369518769023,0.09318151621596606,0.2659952031841293,0.005480418894770884,-0.5787303185234727,1,left
9.112,0.19723128971002288,0.9500725265863076,0.0325022588829854,0.650104400809567,0.21356220206946885,0.0912621085829503,0.26406234753878305,0.006740864334733687,-0.5730616329424191,1,left
9.117,0.195705959460839,0.9507297238021626,0.03177679168985506,0.6208084542251248,0.21668792923511013,0.08949023461612945,0.2621278052286543,0.00807650003241478,-0.5672958085506761,1,left
9.118,0.19422400426998027,0.9514060222851729,0.031030417349573885,0.5918259836358805,0.21951957346822007,0.08785866318763277,0.260191948159911,0.009486212241846356,-0.5614353956194056,1,left
9.121,0.1927851492616607,0.9521010590373493,0.030263207466373915,0.5631592930912511,0.2220631808893888,0.08636015935119823,0.2582551060389878,0.010968797852050027,-0.5554829330853653,1,left
9.122,0.19138911734064132,0.9528144235875339,0.029475275297542337,0.534810249557814,0.22432538596222848,0.084987490809203,0.25631756642672116,0.012522966598153017,-0.5494409470041166,1,left
9.123,0.19003562947534836,0.9535456594409916,0.028666775857953478,0.506780301989978,0.2263133922057878,0.08373343267173433,0.2543795747180857,0.014147343399174624,-0.5433119488956817,1,left
9.126,0.18872440500368654,0.9542942654984378,0.027837906020684516,0.4790705008016819,0.22803495130987703,0.08259077050338073,0.2524413340980563,0.015840470784590818,-0.5370984340794109,1,left
9.127,0.187455161977488,0.9550596974431095,0.026988904611393347,0.4516815176576819,0.22949834065981692,0.0815523016537843,0.25050300554280935,0.0176008113579409,-0.5308028801325142,1,left
9.131,0.18622761755909711,0.9558413691008129,0.026120052493090583,0.42461366550390994,0.23071233927634038,0.08061083486833637,0.2485647079167827,0.019426750259991084,-0.5244277455685091,1,left
9.132,0.18504148848102922,0.9566386537845417,0.025231672635509263,0.39786691875730007,0.23168620217560923,0.07975918817571824,0.24662651818246126,0.021316597619456226,-0.517975468763284,1,left
9.136000000000001,0.18389649157543775,0.9574508856417113,0.024324130157257023,0.371440933579877,0.23242963318305968,0.078990185089511,0.24468847172105834,0.023268590993523384,-0.5114484671182852,1,left
9.137,0.18279234437536623,0.9582773610258027,0.02339783232167002,0.34533506818019305,0.23295275638152638,0.07829664936249095,0.2427505627585254,0.02528089780341892,-0.5048491364425202,1,left
9.137,0.18172876578580502,0.9591173399140323,0.02245322846333108,0.3195484031173902,0.23326608663882012,0.07767139889449004,0.24081274489132204,0.027351617770444415,-0.49817985053484665,1,left
9.141,0.1807054768198482,0.959970047391365,0.02149080982077713,0.29407976160145455,0.2333804998067238,0.07710723959605187,0.23887493170637866,0.029478785358085048,-0.4914429609478007,1,left
9.142000000000001,0.17972220139355094,0.960834675220478,0.02051110924786879,0.26892772976678014,0.233307203035289,0.07659695980921671,0.23693699748968494,0.03166037222596706,-0.484640796914013,1,left
9.145,0.178778667172594,0.9617103835135391,0.019514700773710886,0.2440906768658059,0.23305770538029905,0.07613332552496067,0.23499877801793687,0.033894289701608814,-0.4777756654160573,1,left
9.146,0.17787460646488348,0.9625963025121957,0.018502198985315542,0.21956677531303243,0.23264378873374125,0.07570907643587518,0.23306007142767535,0.036178391276071815,-0.4708498513803847,1,left
9.151,0.17700975715468564,0.9634915344697198,0.017474258219547636,0.1953540205071599,0.23207747907710297,0.07531692282260571,0.23112063915634862,0.03851047512977427,-0.4638656179758063,1,left
9.152000000000001,0.1761838636741709,0.9643951556177434,0.01643157156691376,0.17145025035999376,0.23137101805680016,0.07494954327270188,0.22918020694973038,0.04088828669488011,-0.4568252069968082,1,left
9.156,0.17539667800699635,0.9653062181916876,0.015374869705837473,0.14785316446166225,0.23053683488057491,0.07459958323064464,0.22723846593012345,0.04330952126082024,-0.4497308393118081,1,left
9.156,0.17464796071622962,0.9662237524850258,0.014304919600764495,0.1245603428125846,0.22958751853326195,0.07425965437790817,0.2252950737197773,0.0457718266296407,-0.4425847153562933,1,left
9.161,0.17393748198554265,0.9671467689025195,0.013222523108266333,0.10156926405351634,0.2285357903099209,0.07392233484198522,0.22334965561394388,0.048272805828003564,-0.4353890156506207,1,left
9.162,0.17326502265861565,0.9680742599853037,0.012128515538345208,0.07887732312587749,0.22739447666396528,0.07358017023335475,0.22140180579799323,0.05081001988279098,-0.42814590132210295,1,left
9.164,0.1726303752585626,0.9690052023860877,0.01102376421164166,0.05648184829544493,0.2261764823675884,0.07322567550939921,0.21945108860300538,0.053380990667381,-0.42085751461085663,1,left
9.165,0.17203334496788455,0.9699385587804971,0.00990916703926424,0.0343801174733556,0.22489476398149275,0.07285133766428639,0.21749703979424875,0.05598320382577428,-0.41352597933874574,1,left
9.169,0.17147375054957575,0.9708732797079938,0.008785651134673068,0.012569373769227093,0.22356230363067164,0.07244961924381688,0.2155391678869483,0.058614111781855216,-0.40615340132061695,1,left
9.17,0.17095142519101372,0.9718083053403151,0.007654171451671529,-0.008953159787946566,0.22219208308277197,0.07201296268420249,0.21357695548373914,0.06127113684116782,-0.39874186869689526,1,left
9.174,0.17046621725435693,0.9727425671776488,0.006515709434627677,-0.030190266424622136,0.22079705812538433,0.07153379547368406,0.21160986062819034,0.06395167439267624,-0.39129345216648115,1,left
9.175,0.17001799092075476,0.9736749896748734,0.005371271668991906,-0.051144722755919886,0.2193901332384604,0.07100453613581835,0.20963731816877385,0.06665309621806235,-0.38381020509877556,1,left
9.18,0.16960662672078716,0.9746044918024893,0.004221888528314889,-0.07181928693905634,0.21798413655794918,0.07041760103316325,0.20765874112764035,0.06937275391618769,-0.37629416350354505,1,left
9.181000000000001,0.1692320219495152,0.9755299885482206,0.003068612821230475,-0.09221668790801146,0.21659179512667298,0.06976541198996848,0.20567352206855005,0.07210798245041447,-0.36874734583723473,1,left
9.185,0.16889409096991348,0.9764503923653394,0.0019125184438978596,-0.11233961574963293,0.21522571042842786,0.06904040473233516,0.2036810344582898,0.0748561038265406,-0.36117175262423595,1,left
9.186,0.1685927654117256,0.9773646145738495,0.0007546990409548714,-0.1321907132805758,0.213898334201298,0.06823503814414153,0.20168063401589248,0.07761443090915573,-0.35356936587152105,1,left
9.19,0.1683279942732573,0.978271566722224,-0.00040373332608853273,-0.15177256888367965,0.2126219445262108,0.06734180433684517,0.19967166004395365,0.08038027138427012,-0.34594214825497005,1,left
9.191,0.16809974393226934,0.9791701619199578,-0.0015616495081801959,-0.17108771066159692,0.21140862218683498,0.06635323953106283,0.19765343673631988,0.08315093187610509,-0.33829204205563024,1,left
9.191,0.16790799807051301,0.9800593161528383,-0.002717904603995445,-0.19013860196470436,0.21027022729703543,0.06526193574759778,0.19562527445843025,0.08592372222084646,-0.3306209678349634,1,left
9.196,0.16775275751511076,0.9809379495923943,-0.0038713393105810146,-0.20892763834955713,0.2092183761922434,0.06406055330533289,0.19358647100671122,0.08869595987459795,-0.3229308228925107,1,left
9.197000000000001,0.16763403999967713,0.9818049879094927,-0.005020781298886976,-0.22745714602337794,0.208264418581283,0.06274183412313328,0.19153631287165837,0.0914649743867325,-0.3152234796473432,1,left
9.198,0.16755187985081427,0.9826593636013926,-0.006165046624602326,-0.24572938182931417,0.20741941495540775,0.06129861582260803,0.18947407653935508,0.09422811184426,-0.3075007841390561,1,left
9.199,0.16750632761199216,0.9835000173411927,-0.007302941187377024,-0.2637465348264442,0.20669411425155043,0.059723846628263945,0.18739902985600182,0.09698273921841383,-0.29976455478955943,1,left
9.204,0.16749744962443822,0.9843258993558344,-0.008433262254693152,-0.2815107295177683,0.20609893176706934,0.05801060106124754,0.1853104334617391,0.09972624859070266,-0.2920165814688653,1,left
9.206,0.1675253275905514,0.9851359708333515,-0.009554800067786619,-0.29902403073287753,0.20564392733962947,0.05615209640075324,0.18320754228986663,0.10245606126124274,-0.2842586248535799,1,left
9.206,0.16759005814731562,0.9859292053550677,-0.010666339544448398,-0.31628844994225125,0.2053387838864116,0.05414170977799322,0.181089607125496,0.10516963174727806,-0.2764924160558798,1,left
9.209,0.16769175247489515,0.9867045903458903,-0.011766662088040945,-0.33330595236718663,0.20519278654159748,0.05197299557137814,0.1789558762176351,0.10786445167976443,-0.26871965650071855,1,left
9.21,0.16783053596275613,0.9874611285335247,-0.012854547505401399,-0.3500784640196335,0.20521480271169346,0.04963970266233647,0.17680559693866243,0.11053805360585413,-0.2609420180289806,1,left
9.215,0.16800654795500083,0.9881978394032042,-0.013928776029411383,-0.3666078780345021,0.20541326328847226,0.047135791219568866,0.17463801748510444,0.11318801470507078,-0.25316114320427635,1,left
9.215,0.1682199415944502,0.9889137606308736,-0.014988130435584607,-0.3828960600685216,0.20579614511538716,0.04445544887492829,0.17245238861358517,0.1158119604269107,-0.24537864580105248,1,left
9.219,0.1684708837774853,0.9896079494779947,-0.016031398235779964,-0.398944852768035,0.20637095472358194,0.04159310626244882,0.17024796540576953,0.11840756805754636,-0.2375961114516784,1,left
9.22,0.16875955522024388,0.9902794841346755,-0.017057373924468988,-0.41475607935321823,0.20714471333808465,0.03854345191331784,0.1680240090560713,0.1209725702232391,-0.22981509843015926,1,left
9.222999999999999,0.16908615062439233,0.9909274650026355,-0.018064861245025696,-0.43033154636552,0.2081239431553008,0.03530144649907942,0.16577978867584572,0.12350475833799424,-0.22203713855012275,1,left
9.224,0.1694508789186407,0.9915510159148009,-0.01905267544046686,-0.4456730456244287,0.2093146548934724,0.03186233641483489,0.1635145831077326,0.12600198600291004,-0.21426373815472513,1,left
9.229,0.16985396354163596,0.9921492852934135,-0.020019645458151554,-0.4607823554389932,0.21072233661833975,0.02822166669366883,0.1612276827437589,0.12846217236458438,-0.20649637917612762,1,left
9.23,0.1702956427251354,0.9927214472528738,-0.020964616088632565,-0.47566124111884495,0.21235194384683212,0.024375293242976895,0.158918391340753,0.1308833054398488,-0.198736520242202,1,left
9.234,0.17077616973478446,0.993266702656838,-0.021886450029788472,-0.4903114548287972,0.21420789093221967,0.020319394392806153,0.15658602782656106,0.13326344541399948,-0.1909855978081378,1,left
9.235,0.17129581302774738,0.9937842801403945,-0.022784029874123677,-0.5047347348304304,0.2162940437347808,0.016050481745740388,0.15422992809049477,0.13560072791958785,-0.1832450272906407,1,left
9.238,0.1718548562896419,0.9942734371072138,-0.023656260018321693,-0.5189328041534101,0.21861371358267664,0.011565410317272522,0.15184944675137482,0.13789336730272259,-0.17551620418243327,1,left
9.238999999999999,0.17245359831784804,0.9947334607093085,-0.024502068491736587,-0.5329073687386284,0.22116965252837176,0.006861387955005123,0.1494439588964686,0.1401396598837157,-0.16780050512479466,1,left
9.243,0.17309235272495777,0.9951636688133942,-0.02532040869804982,-0.5466601150946055,0.223964049906602,0.0019359840244088024,0.14701286178455228,0.1423379872187841,-0.16009928891590589,1,left
9.244,0.17377144744380493,0.9955634109527592,-0.026110261064417543,-0.5601927075079434,0.2269985302005586,-0.00321286265175194,0.14455557650625703,0.1444868193693882,-0.15241389743280023,1,left
9.247,0.17449122402265754,0.9959320692586947,-0.02687063459470517,-0.5735067848479788,0.2302741522236362,-0.008586836613844077,0.14207154959478838,0.14658471818565805,-0.14474565644475748,1,left
9.248,0.17525203670501116,0.9962690593627828,-0.027600568324669218,-0.5866039570051506,0.23379140962477532,-0.014187239359796407,0.139560254580033,0.14863034061021793,-0.13709587629602055,1,left
9.253,0.1760542512920432,0.9965738312614515,-0.0282991326742388,-0.5994858010019558,0.2375502327261194,-0.020014983728329796,0.13702119347899305,0.1506224420085802,-0.12946585243575953,1,left
9.253,0.17689824378707628,0.9968458701373045,-0.028965430685671534,-0.6121538568147504,0.24154999170239716,-0.0260705890864281,0.13445389821541087,0.15255987953213151,-0.12185686577325729,1,left
9.257,0.17778439882288194,0.997084697136767,-0.02959859913078145,-0.6246096229440186,0.24578950111213446,-0.03235417733714022,0.13185793196136833,0.1544416155195859,-0.11427018283634342,1,left
9.258,0.17871310787668837,0.9972898701087184,-0.03019780947149579,-0.636854551770123,0.250267025791492,-0.03886546976445594,0.12923289039581962,0.15626672093504312,-0.10670705572097272,1,left
9.259,0.17968476728279983,0.9974609843122546,-0.030762268666864042,-0.6488900447309301,0.2549802881222171,-0.04560378473265195,0.12657840288620076,0.15803437880272814,-0.09916872186896508,1,left
9.262,0.1806997760564437,0.997597673102226,-0.031291219832071004,-0.660717447357096,0.25992647668588426,-0.052568036258158535,0.12389413361945724,0.15974388753009572,-0.09165640379929807,1,left
9.263,0.18175853354689633,0.9976996085989273,-0.03178394276774555,-0.6723380442001906,0.2651022563172826,-0.05975673347265067,0.12117978272001365,0.16139466397291471,-0.08417130896747121,1,left
9.267000000000001,0.18286143694612866,0.9977665023452041,-0.03223975439003355,-0.6837530536882409,0.2705037795704848,-0.06716798099671852,0.11843508738085876,0.16298624613368864,-0.07671462987847205,1,left
9.267999999999999,0.18400887868855198,0.9977981059523866,-0.03265800910147453,-0.6949636229426706,0.2761266996117977,-0.07479948024412074,0.115659823013554,0.16451829545283467,-0.06928754449063859,1,left
9.274,0.18520124378293445,0.9977942117360461,-0.03303809914701198,-0.7059708225900223,0.28196618455445616,-0.08264853167726748,0.11285380441162016,0.16599059868978044,-0.06189121689873027,1,left
9.274,0.18643890711878008,0.9977546533419338,-0.03337945499625961,-0.7167756416012581,0.28801693325056826,-0.0907120380352188,0.11001688691941723,0.16740306939855087,-0.054526798274788915,1,left
9.275,0.18772223078864847,0.997679306361047,-0.03368154578208136,-0.7273789821858917,0.29427319252677014,-0.09898650854244795,0.10714896759854461,0.168755749002245,-0.04719542804545608,1,left
9.277000000000001,0.18905156146452406,0.9975680889319396,-0.03394387981119078,-0.737781654742874,0.3007287757022546,-0.10746806403890372,0.10424998638369994,0.1700488074706324,-0.0398982352845017,1,left
9.277000000000001,0.19042722785969834,0.9974209623283987,-0.034166005150702866,-0.747984372825005,0.30737708196129154,-0.11615244284950937,0.101319927219847,0.17128254360492717,-0.032636340299410475,1,left
9.281,0.19184953830162593,0.9972379315301833,-0.03434751028639251,-0.7579877480483145,0.3142111160045316,-0.1250350071435019,0.09835881917245386,0.17245738493362547,-0.025410856390967282,1,left
9.282,0.19331877843932443,0.9970190457735875,-0.03448802484261248,-0.7677922849020361,0.3212235075523722,-0.1341107496029486,0.09536673750247283,0.1735738872231218,-0.018222891764881143,1,left
9.287,0.19483520910755306,0.996764399078692,-0.03458722035113209,-0.7773983754587757,0.32840653054136987,-0.14337430034337148,0.0923438046976454,0.17463273360664977,-0.011073551574588725,1,left
9.288,0.1963990643644828,0.9964741307523219,-0.03464481105655266,-0.786806294008664,0.33575212200363086,-0.15281993409831768,0.08929019145162553,0.17563473333492233,-0.0039639400744828366,1,left
9.292,0.19801054971049992,0.9961484258690563,-0.03466055474699186,-0.7960161916456606,0.34325190064930966,-0.16244157769393733,0.08620611758232645,0.1765808201516818,0.0031048371370808402,1,left
9.293,0.1996698404856769,0.9957875157351932,-0.03463425359954397,-0.8050280908336025,0.3508971851728313,-0.17223281784016706,0.08309185288080695,0.17747205029720212,0.01013167080553449,1,left
9.297,0.201377080433522,0.995391678341502,-0.03456575503240852,-0.8138418799790265,0.35867901230392263,-0.18218690926564157,0.07994771788192558,0.1783096001426245,0.017115445659028058,1,left
9.298,0.2031323804104063,0.9949612388104484,-0.03445495255950823,-0.8224573080372226,0.3665881546249781,-0.19229678322396004,0.07677408454790348,0.1790947634578459,0.024055038018842588,1,left
9.301,0.20493581721535256,0.9944965698428792,-0.03430178664621413,-0.8308739791774067,0.37461513817670405,-0.20255505639942017,0.07357137685585038,0.17982894831552398,0.030949313401470877,1,left
9.302,0.20678743251354464,0.9939980921673359,-0.03410624556449525,-0.8390913475323317,0.3827502598743756,-0.2129540402407998,0.07034007128022192,0.1805136736336067,0.03779712413242545,1,left
9.306000000000001,0.20868723182719656,0.9934662749918204,-0.033868366241927,-0.8471087120570866,0.3909836047574085,-0.2234857507522139,0.06708069716109233,0.18115056535864538,0.04459730699170711,1,left
9.307,0.21063518356888947,0.9929016364538821,-0.033588235092699384,-0.85492521152126,0.39930506309528296,-0.23414191877049909,0.06379383694904334,0.18174135229200378,0.051348680910736966,1,left
9.312000000000001,0.2126312180965978,0.9923047440615665,-0.033265988812786265,-0.8625398196580741,0.4077043473731685,-0.24491400075898193,0.0604801263173871,0.18228786156093352,0.05805004474042136,1,left
9.312999999999999,0.2146752267766017,0.9916762151149228,-0.03290181511755002,-0.8699513404935175,0.41617100918088046,-0.25579319014786855,0.05714025413236168,0.1827920137363491,0.06470017510988224,1,left
9.316,0.21676706104800036,0.9910167170954175,-0.03249595339900054,-0.8771584038779313,0.42469445602905104,-0.2667704292518492,0.053774962271857844,0.18325581759900403,0.07129782439524539,1,left
9.317,0.21890653148783543,0.9903269680098943,-0.032048695282477654,-0.88415946124192,0.4332639681166214,-0.277836421795844,0.05038504528315935,0.18368136455564188,0.07784171881773491,1,left
9.321,0.22109340687801043,0.989607736677134,-0.031560385067549615,-0.8909527815978745,0.4418687150739548,-0.2889816460801232,0.046971349870103804,0.18407082270657474,0.08433055669017558,1,left
9.322000000000001,0.22332741327548164,0.9888598429478781,-0.031031420042415055,-0.8975364478078087,0.4504977727060334,-0.3001963688163173,0.0435347741999981,0.18442643056602612,0.09076300683085346,1,left
9.326,0.2256082330871838,0.9880841578524905,-0.03046225066336034,-0.9039083531376184,0.4591401397603318,-0.31147065966608545,0.04007626702055204,0.1847504904364658,0.0971377071635307,1,left
9.326,0.22793550415146202,0.9872816036737132,-0.02985338059146961,-0.9100661981172733,0.4677847547440649,-0.32279440651443914,0.03659682657702542,0.18504536143805964,0.10345326352225283,1,left
9.327,0.23030881882819793,0.9864531539444796,-0.02920536657949405,-0.9160074877258505,0.4764205128155741,-0.3341573315099158,0.0330974993250642,0.1853134522041139,0.10970824867442333,1,left
9.331,0.2327277231000704,0.9855998333715261,-0.02851881820380352,-0.9217295289197103,0.4850362827746562,-0.34554900790396936,0.029579378461368384,0.18555721330256533,0.11590120155045372,1,left
9.331,0.2351917156879278,0.9847227176841454,-0.027794397439125103,-0.927229428521497,0.49362092417664394,-0.3569588777220857,0.02604360234238809,0.18577912953215792,0.12203062662312343,1,left
9.336,0.23770024718457472,0.9838229334045504,-0.02703281807559525,-0.9325040914870296,0.5021633045950222,-0.3683762702992422,0.022491352887917024,0.18598171229113375,0.1280949933546083,1,left
9.337,0.24025271921313154,0.9829016575332036,-0.026234844977528197,-0.9375502195665094,0.510652317057308,-0.3797904217124152,0.0189238540396689,0.18616749216693174,0.13409273565395982,1,left
9.341000000000001,0.2428484836183679,0.9819601171402774,-0.025401293181686522,-0.9423643103780199,0.5190768976643049,-0.3911904951132282,0.015342370296757835,0.1863390118066528,0.1400222513326379,1,left
9.342,0.24548684170149593,0.9809995888542462,-0.024533026830919503,-0.9469426569215232,0.5274260433300982,-0.40256560181555096,0.011748205323226707,0.1864988190787315,0.1458819015705151,1,left
9.342,0.24816704350893792,0.9800213982409656,-0.023630957937157686,-0.9512813475804965,0.5356888294492729,-0.4139048227259023,0.008142700617377673,0.1866494605263535,0.15167001040957806,1,left
9.345,0.2508882871824195,0.9790269190713896,-0.022696044966060817,-0.9553762666685722,0.5438544272250277,-0.4251972295561608,0.004527234232619034,0.18679347511311659,0.15738486429235732,1,left
9.346,0.25364971837241873,0.9780175724834024,-0.021729291236697278,-0.9592230955669783,0.5519121204642689,-0.4364319054063254,0.0009032195395062816,0.1869333882614002,0.16302471166191448,1,left
9.35,0.2564504297118105,0.9769948260523721,-0.020731743135977324,-0.9628173144782971,0.559851321776243,-0.4475979645719097,-0.0027278959813773996,0.18707170618388164,0.1685877626400111,1,left
9.351,0.25928946034463946,0.9759601927932225,-0.01970448815737015,-0.9661542048104745,0.5676615881836218,-0.4586845715787257,-0.006364631926084376,0.18721091050861796,0.17407218879987282,1,left
9.356,0.2621657955087645,0.9749152301210513,-0.01864865278320946,-0.9692288522021184,0.5753326361691602,-0.46968095947730854,-0.010005476143917275,0.1873534531981012,0.1794761230497463,1,left
9.357000000000001,0.26507836617991987,0.9738615387964549,-0.01756540023760958,-0.9720361501994027,0.5828543561807144,-0.4805764474290346,-0.013648885914423202,0.18750175176268918,0.18479765964322656,1,left
9.361,0.2680260487949158,0.9728007618763375,-0.016455928141112335,-0.9745708045941547,0.5902168266170336,-0.4913604576157601,-0.017293289135211574,0.1876581847688174,0.19003485433210568,1,left
9.361,0.2710076650788798,0.971734583682793,-0.01532146609791442,-0.9768273384319427,0.597410327316342,-0.5020225315045457,-0.020937085531051426,0.18782508764240652,0.19518572467726322,1,left
9.363999999999999,0.2740219820028207,0.9706647287939638,-0.014163273243555484,-0.9788000976982207,0.6044253525692954,-0.5125523454987454,-0.02457864789471134,0.18800474876789652,0.20024825053288098,1,left
9.365,0.27706771189334467,0.9695929610536208,-0.012982635777689561,-0.9804832576897992,0.6112526236774434,-0.5229397260064153,-0.028216323370007967,0.18819940588336267,0.2052203747190234,1,left
9.37,0.2801435127070489,0.9685210825920388,-0.011780864503124237,-0.9818708300781106,0.6178831010778411,-0.5331746639566507,-0.031848434787527295,0.18841124277219654,0.2101000038973761,1,left
9.37,0.28324798846914123,0.967450932850254,-0.010559292387723749,-0.9829566706699268,0.6243079960539435,-0.5432473287940783,-0.0354732820634763,0.18864238625187385,0.21488500966468135,1,left
9.375,0.28637968986226775,0.9663843876023576,-0.00931927216143457,-0.9837344878703477,0.6305187820523752,-0.5531480819813218,-0.039089143672111505,0.1888949034603729,0.21957322987814998,1,left
9.377,0.2895371149413388,0.9653233579743127,-0.008062173959226515,-0.9841978518520376,0.6365072056246037,-0.5628674900388225,-0.04269427820217481,0.18917079944085635,0.22416247022686214,1,left
9.38,0.2927187099449992,0.9642697894608686,-0.00678938302311381,-0.984340204433811,0.6422652970119562,-0.5723963371509304,-0.04628692600774612,0.1894720150252852,0.22865050606289947,1,left
9.38,0.2959228701734288,0.9632256609431292,-0.005502297481888725,-0.9841548696707918,0.6477853803918034,-0.581725637366687,-0.049865310963896535,0.1898004250176946,0.23303508450567068,1,left
9.385,0.29914794090384916,0.9621929837079108,-0.004202326232367104,-0.9836350651574616,0.6530600838020959,-0.5908466464232016,-0.05342764233749462,0.19015783667792818,0.23731392683261038,1,left
9.386000000000001,0.30239221831832397,0.9611738004666376,-0.002890886944885671,-0.9827739140439912,0.658082348760779,-0.5997508732189762,-0.05697211678348304,0.1905459885067004,0.24148473116913907,1,left
9.389,0.3056539504226159,0.9601701843670374,-0.0015694042059781275,-0.9815644577653093,0.6628454395959267,-0.6084300909639596,-0.060496920476901084,0.19096654933293394,0.24554517549047478,1,left
9.39,0.3089313379397502,0.9591842379864662,-0.00023930779707512158,-0.9799996694813998,0.6673429525017335,-0.6168763480325146,-0.06400023139088311,0.19142111770440295,0.2494929209475834,1,left
9.397,0.3122225351670105,0.9582180922925521,0.0010979689040432107,-0.9780724682263382,0.6715688243347762,-0.625081978544862,-0.06748022173081113,0.19191122158280066,0.25332561552924476,1,left
9.398,0.31552565078952566,0.9572739055563437,0.0024409904196318432,-0.9757757337625793,0.6755173411642165,-0.6330396127019156,-0.07093506052887243,0.19243831834099132,0.25704089806468045,1,left
9.398,0.31883874864736594,0.9563538622057486,0.003788320588599022,-0.9731023221359837,0.679183146588849,-0.6407421868977549,-0.07436291637385532,0.1930037950430448,0.2606364025347993,1,left
9.399,0.3221598484564651,0.9554601716114203,0.005138523922731746,-0.9700450819260328,0.6825612498331252,-0.6481829536332954,-0.07776196019810912,0.19360896895668864,0.26410976259486746,1,left
9.399,0.32548692648554584,0.9545950668014392,0.006490166916936426,-0.9665968711846185,0.6856470336334817,-0.6553554912539971,-0.08113036801416601,0.1942550882306589,0.2674586161750057,1,left
9.405,0.3288179161905536,0.9537608031043814,0.007841819322551019,-0.9627505750557125,0.6884362619254963,-0.6622537135337268,-0.08446632352280117,0.19494333268680106,0.2706806100606389,1,left
9.406,0.33215070880595127,0.9529596567231772,0.009192055385849267,-0.9584991240671166,0.6909250873415635,-0.6688718791261363,-0.08776802056706479,0.19567481470795142,0.2737734044195911,1,left
9.408999999999999,0.3354831538898862,0.952193923244925,0.010539455046217647,-0.9538355130719756,0.6931100585244084,-0.6752046008920628,-0.09103366543608726,0.19645058022000592,0.2767346772782282,1,left
9.41,0.33881305981874915,0.9514659160940127,0.011882605084077822,-0.9487528207546027,0.694988127243223,-0.6812468550502557,-0.09426147902823742,0.1972716097701558,0.27956212895589955,1,left
9.41,0.3421381942268158,0.9507779649368476,0.013220100209619797,-0.9432442295024236,0.6965566552665089,-0.6869939899891806,-0.09744969888311446,0.19813881970339378,0.28225348646655757,1,left
9.413,0.34545628438670567,0.9501324140470838,0.014550544088053117,-0.9373030453826754,0.6978134209271574,-0.6924417345164113,-0.10059658109175111,0.19905306343952134,0.2848065078960579,1,left
9.414,0.34876501752390754,0.949531620641574,0.015872550302138883,-0.9309227180232783,0.6987566253320996,-0.697586205381707,-0.10370040209429707,0.20001513285301778,0.2872189867632573,1,left
9.419,0.3520620410552717,0.9489779531982807,0.01718474325612018,-0.9240968603076569,0.6993848981998064,-0.7024239140177737,-0.10675946037433756,0.2010257597582645,0.28948875637263655,1,left
9.42,0.355344962740367,0.9484737897668925,0.018485759026099807,-0.916819267854031,0.6996973033257067,-0.7069517725022691,-0.10977207805888393,0.2020856175027516,0.2916136941657771,1,left
9.424,0.35861135073634925,0.9480215162821256,0.0197742461599554,-0.909083938260832,0.6996933436782308,-0.7111670987558225,-0.11273660243294865,0.20319532267103338,0.29359172607861767,1,left
9.425,0.36185873355042153,0.9476235248892945,0.02104886642482209,-0.900885090098624,0.6993729661272832,-0.7150676209899587,-0.115651407377489,0.20435543690233662,0.2954208309110069,1,left
9.427999999999999,0.36508459988874,0.9472822122902075,0.022308295494628757,-0.8922171816276114,0.6987365658060387,-0.7186514814179294,-0.1185148947393705,0.20556646882486776,0.2970990447146512,1,left
9.429,0.368286398407401,0.9469999781136832,0.023551223569783244,-0.8830749292184962,0.6977849901060519,-0.7219172392405563,-0.12132549564186292,0.20682887611000847,0.29862446520513636,1,left
9.433,0.37146153738041604,0.9467792233091529,0.024776355928239638,-0.8734533254531214,0.6965195423047612,-0.7248638729182857,-0.12408167174403845,0.20814306764973312,0.2999952562032729,1,left
9.434,0.3746073843096783,0.9466223485542793,0.025982413417177944,-0.8633476568799887,0.6949419848235592,-0.727490781739748,-0.12678191645729536,0.20950940586072783,0.3012096521105827,1,left
9.439,0.3777212655100779,0.9465317526602367,0.027168132901508612,-0.8527535213983773,0.693054542113699,-0.7297977866962024,-0.1294247561270773,0.2109282091188392,0.3022659624233046,1,left
9.44,0.3808004657085955,0.9465098309543726,0.028332267688114626,-0.8416668452434102,0.6908599031664068,-0.7317851306703284,-0.13200875118770322,0.21239975432762834,0.3031625762888529,1,left
9.443,0.3838422277008215,0.9465589736196677,0.029473587943980018,-0.8300838995430297,0.6883612236426713,-0.733453477946912,-0.13453249729806158,0.2139242796249562,0.30389796710821426,1,left
9.443999999999999,0.38684375211202904,0.9466815639710641,0.03059088112138009,-0.8180013164164415,0.6855621276172954,-0.7348039130520533,-0.13699462646575794,0.2155019872316765,0.3044706971873137,1,left
9.449,0.389802197310786,0.9468799766493482,0.03168295239492484,-0.8054161045821648,0.6824667089309108,-0.7358379389266066,-0.13939380816713604,0.2171330464466644,0.30487942243992233,1,left
9.45,0.39271467951968475,0.9471565757151156,0.032748625108713354,-0.7923256644424127,0.679079532142786,-0.7365574744386484,-0.14172875047041958,0.21881759679256035,0.3051228971442164,1,left
9.453,0.39557827316054167,0.9475137126285746,0.03378674123168468,-0.778727802609082,0.6754056330763969,-0.7369648512388542,-0.14399820116904485,0.22055575131676272,0.30519997875462956,1,left
9.454,0.3983900114613861,0.9479537241041603,0.034796161824825186,-0.7646207458351938,0.6714505189488741,-0.7370628099617627,-0.1462009489320735,0.22234760005235413,0.3051096327701703,1,left
9.457,0.4011468873403655,0.9484789298316962,0.03577576753263209,-0.7500031543141751,0.6672201680746112,-0.7368544957749932,-0.14833582447839044,0.22419321364380154,0.30485093765990134,1,left
9.458,0.40384585456894556,0.9490916300587198,0.036724459120382406,-0.734874134307916,0.6627210291324883,-0.7363434532775992,-0.15040170178120402,0.22609264714242372,0.30442308984580035,1,left
9.462,0.4064838292058833,0.9497941030317003,0.037641158084047215,-0.7192332500630716,0.6579600199853646,-0.7355336207478412,-0.15239749930917365,0.2280459439767733,0.3038254087427403,1,left
9.463,0.4090576912858746,0.9505886022970284,0.038524807357648426,-0.7030805349736147,0.6529445260396988,-0.7344293237397906,-0.15432218130896225,0.23005314009631428,0.303057341854095,1,left
9.464,0.4115642867438464,0.9514773538652532,0.03937437213435022,-0.6864165019461769,0.6476823981323898,-0.7330352680273036,-0.15617475912714726,0.23211426825232234,0.30211846991724184,1,left
9.468,0.4140004295578362,0.9524625532431588,0.040188840806735154,-0.6692421529232481,0.6421819499311748,-0.7313565318930497,-0.1579542925572245,0.23422936231779748,0.30100851208599905,1,left
9.468,0.4163629040957942,0.9535463623384905,0.04096722602185727,-0.6515589875178297,0.6364519548341931,-0.7293985577594319,-0.1596598911905689,0.23639846151372487,0.2997273311327981,1,left
9.472000000000001,0.4186484676502405,0.9547309062433872,0.0417085658388507,-0.6333690107116743,0.6305016423536186,-0.7271671431574037,-0.16129071575667547,0.23862161444378327,0.2982749386566503,1,left
9.472000000000001,0.42085385314226587,0.9560182699052684,0.042411924971389604,-0.6146747395677777,0.6243406939675776,-0.7246684310283728,-0.16284597944979223,0.24089888290204756,0.29665150028922005,1,left
9.477,0.422975771977263,0.9574104946963963,0.04307639609489343,-0.5954792089378068,0.617979238435788,-0.7219088993699981,-0.16432494924550917,0.2432303454529955,0.29485734089457505,1,left
9.478,0.42501091703902316,0.9589095748935569,0.04370110119981822,-0.5757859763010871,0.6114278466331085,-0.7188953503180029,-0.16572694721198689,0.24561610079020552,0.2928929497584417,1,left
9.479,0.42695596581417095,0.9605174540771207,0.04428519297586559,-0.5555991261536369,0.6046975260614768,-0.7156348989031269,-0.16705135182029143,0.24805627088028773,0.29075898576230247,1,left
9.482000000000001,0.42880758364297217,0.9622360214561949,0.04482785621327474,-0.5349232745216891,0.597799715259521,-0.7121349618036985,-0.1682975992580819,0.2505510038987456,0.288456282537182,1,left
9.482000000000001,0.43056242709366804,0.9640671081259065,0.045328309205892744,-0.5137635740153177,0.5907462782692051,-0.7084032463314744,-0.16946518475067768,0.2531004769646226,0.2859858535914802,1,left
9.487,0.43221714745579415,0.9660124832642211,0.04578580514035103,-0.49212571955306356,0.5835494992114586,-0.7044477397399146,-0.17055366389330828,0.25570489868094454,0.28334889740672486,1,left
9.488999999999999,0.43376839434410547,0.96807385027765,0.046199633457154395,-0.47001595472965074,0.5762220769628784,-0.7002766988612728,-0.17156265399812543,0.2583645114881233,0.2805468024946288,1,left
9.492,0.4352128193997531,0.9702528429067572,0.04656912116830874,-0.4474410787660209,0.5687771199132653,-0.6958986400618019,-0.17249183545932978,0.26107959383764784,0.2775811524083596,1,left
9.492,0.436547080072221,0.9725510213034014,0.046893634110590415,-0.4244084539795392,0.5612281407833489,-0.6913223295037265,-0.17334095313953893,0.2638504621935441,0.27445373070044776,1,left
9.497,0.4377678434677963,0.9749698680920896,0.04717257810895053,-0.40092601371086994,0.55358905148168,-0.68655677370202,-0.17410981778029475,0.2666774728692444,0.27116652581928813,1,left
9.498,0.4388717902582112,0.9775107844276311,0.04740540002599143,-0.3770022706426877,0.5458741579793305,-0.6816112103634271,-0.1747983074393782,0.26956102370766793,0.2677217359357189,1,left
9.501,0.4398556186528334,0.9801750860605541,0.04759158867940092,-0.3526463254440735,0.5380981551807464,-0.6764950994946062,-0.1754063689573707,0.2725015556124715,0.2641217736906974,1,left
9.501,0.4407160484464695,0.9829639994199103,0.047730675615131744,-0.32786787567315573,0.5302761217688395,-0.67121811476572,-0.17593401945567105,0.2754995539385944,0.26036927085463474,1,left
9.507,0.4414498251629799,0.9858786577195797,0.047822235728932544,-0.30267722486928905,0.5224235150021849,-0.6657901351152878,-0.176381347867945,0.27855554975037994,0.2564670828884987,1,left
9.508,0.4420537243227056,0.9889200970900552,0.04786588773513925,-0.27708529176482366,0.5145561654420198,-0.6602212365816233,-0.17674851650675416,0.2816701209557244,0.2524182933963484,1,left
9.511000000000001,0.4425245558676148,0.9920892527344434,0.04786129449103895,-0.25110361954530575,0.5066902715866067,-0.6545216843457194,-0.1770357626668812,0.2848438933248648,0.24822621845852752,1,left
9.512,0.44285916878177073,0.995386955104988,0.04780816319570987,-0.22474438508576647,0.498842394390435,-0.6487019249700093,-0.1772434002666359,0.28807754140258734,0.2438944108343118,1,left
9.517000000000001,0.44305445594803505,0.9988139260940122,0.04770624549088323,-0.19802040808960514,0.49102945164569656,-0.6427725788170273,-0.1773718215281977,0.2913717893228046,0.23942666402238783,1,left
9.517999999999999,0.44310735928685296,1.0023707752307265,0.04755533749698875,-0.17094516005545518,0.4832687122034739,-0.6367444326316192,-0.1774214986978203,0.2947274115346202,0.2348270161671275,1,left
9.522,0.4430148752292893,1.0060579958728237,0.0473552798210062,-0.1435327729963367,0.4755777900121324,-0.6306284322700053,-0.1773929858064961,0.29814523344917204,0.23009975379822273,1,left
9.522,0.4427740605808349,1.0098759613797084,0.04710595757438713,-0.11579804783435431,0.46797463795050953,-0.624435675558688,-0.17728692047144992,0.30162613201671984,0.22524941539085375,1,left
9.525,0.44238203883090427,1.0138249212542807,0.04680730043756348,-0.08775646239319022,0.46047754143364356,-0.6181774052659073,-0.17710402573860637,0.3051710362436171,0.2202807947331873,1,left
9.526,0.44183600695462233,1.017904997243633,0.04645928280064526,-0.05942417890967669,0.45310511176898777,-0.6118650021681017,-0.17684511196594982,0.3087809276589898,0.21519894408763393,1,left
9.531,0.4411332427410747,1.022116179395412,0.046061923998488234,-0.030818050984805997,0.4458762792413071,-0.6055099781936065,-0.1765110787474746,0.31245684074112234,0.2100091771319413,1,left
9.532,0.440271112668435,1.0264583220741887,0.04561528864569665,-0.0019556298936572406,0.43881028590476046,-0.5991239696256361,-0.17610291687620871,0.3161998633027391,0.20471707166553726,1,left
9.533,0.43924708033292287,1.0309311399487895,0.04511948706740602,0.02714482982711506,0.4319266780610295,-0.5927187303464414,-0.17562171033961835,0.3200111367795713,0.19932847206459678,1,left
9.536,0.43805871542623326,1.0355342039674704,0.04457467581647658,0.05646436559637042,0.4252452984027705,-0.5863061251044108,-0.17506863833155523,0.3238918562678145,0.19384949146608782,1,left
9.537,0.4367037032436034,1.0402669373455553,0.04398105826409064,0.08598330289302468,0.4187862778021311,-0.5798981227857957,-0.17444497725973682,0.3278432701012863,0.18828651365914256,1,left
9.54,0.4351798546902741,1.045128611599771,0.043338885246269075,0.11568125233160213,0.4125700267246008,-0.5735067896726843,-0.17375210273249994,0.3318666788142798,0.18264619466343904,1,left
9.541,0.4334851167392367,1.0501183426715854,0.04264845574764987,0.14553710779298232,0.40661722624904406,-0.5671442826688285,-0.17299149151728963,0.3359634334352798,0.1769354639769285,1,left
9.545,0.4316175832809174,1.055235087186589,0.04191011761128538,0.17552904569509742,0.40094881867540605,-0.5608228424749415,-0.1721647234681025,0.3401349331118982,0.17116152547661845,1,left
9.546,0.4295755062979163,1.0604776388996617,0.04112426827719721,0.20563452548884936,0.39558599770227665,-0.5545547866951313,-0.17127348341989773,0.34438262207859127,0.16533185795622352,1,left
9.546,0.42735730729731086,1.0658446253762544,0.04029135556594323,0.2358302914398624,0.39055019815526526,-0.5483525028575024,-0.17031956304779344,0.3487079859789289,0.15945421528429385,1,left
9.552,0.42496158894075575,1.071334504956183,0.03941187853110189,0.26609237563155136,0.3858630852379894,-0.5422284413384948,-0.1693048626886775,0.35311254755440347,0.15353662616625072,1,left
9.552999999999999,0.42238714682471634,1.076945564038712,0.03848638840670012,0.29639610189936577,0.38154654326042386,-0.5361951081922384,-0.16823139312267618,0.3575978617119842,0.14758739349359812,1,left
9.555,0.4196329813708026,1.0826759147214222,0.03751548967827256,0.3267160902808024,0.37762266379033077,-0.5302650578928046,-0.16710127731174446,0.36216550998284563,0.14161509326344354,1,left
9.556000000000001,0.4166983097854511,1.0885234928214576,0.03649984131208057,0.357026261691493,0.3741137331844589,-0.5244508859910479,-0.16591675209246706,0.36681709438492616,0.1356285730513458,1,left
9.559,0.41358257804475,1.0944860563004934,0.03544015817951327,0.3872998427637372,0.3710422194752013,-0.5187652216764327,-0.1646801698199914,0.3715542307022058,0.12963695002041795,1,left
9.56,0.4102854728587762,1.1005611841011036,0.03433721270684314,0.41750937090942075,0.36843075859949453,-0.5132207202281227,-0.16339399995985052,0.37637854119382863,0.12364960844954752,1,left
9.565,0.40680693356814424,1.1067462753868405,0.033191836765006325,0.4476266996943341,0.3663021399599279,-0.5078300553386569,-0.16206083062427817,0.381291646746435,0.11767619676355572,1,left
9.566,0.4031471639199407,1.1130385491679038,0.03200492379287768,0.4776230046108002,0.36467929130928667,-0.5026059112939053,-0.16068337004946942,0.38629515848331636,0.11172662404810399,1,left
9.57,0.3993066436603717,1.1194350442907324,0.03077743112630282,0.5074687893353355,0.3635852629510773,-0.49756097499340457,-0.15926444801009676,0.39139066884425505,0.10581105603216827,1,left
9.57,0.39528613987051414,1.1259326197711188,0.029510382492904247,0.5371338925577999,0.36304321124996897,-0.4927079277956146,-0.1578070171672587,0.3965797421501665,0.09993991052094257,1,left
9.574,0.39108671796476935,1.1325279554532266,0.028204870634601423,0.5665874954681444,0.3630763814475393,-0.48805943717311645,-0.15631415434590884,0.40186390466692057,0.09412385226210206,1,left
9.575,0.38670975227213716,1.1392175529775779,0.026862060034198262,0.5957981299864299,0.36370808978023084,-0.48362814816328514,-0.15478906173769655,0.40724463418298423,0.08837378722845418,1,left
9.58,0.3821569361280318,1.1459977370372967,0.025483189743343043,0.6247336878212718,0.3649617048980109,-0.4794266746005241,-0.15323506802503842,0.41272334911579533,0.08270085630013481,1,left
9.58,0.3774302914173748,1.1528646568948515,0.024069576327957174,0.6533614304412528,0.3668606285838811,-0.47546759011673373,-0.15165562942213898,0.4183013971620504,0.07711642832966466,1,left
9.584,0.3725321775247916,1.1598142881253923,0.02262261695593353,0.6816480000431513,0.3694282757761008,-0.47176341889731216,-0.1500543306285869,0.4239800435073672,0.07163209257337172,1,left
9.585,0.36746529965903724,1.16684243455077,0.021143792646998654,0.7095594316000382,0.37268805389677745,-0.4683266261806451,-0.1484348856910693,0.429760458611064,0.06625965047290742,1,left
9.59,0.3622327165204281,1.1739447303315844,0.01963467168646682,0.7370611660714099,0.3766633414923277,-0.46516960848973793,-0.14680113876867548,0.4356437055820822,0.06101110677083869,1,left
9.591000000000001,0.35683784727013484,1.1811166421936123,0.018096913178847686,0.7641180648565442,0.3813774661932375,-0.46230468358537724,-0.14515706479719712,0.4416307271623678,0.0558986599445865,1,left
9.595,0.35128447774175303,1.1883534717791022,0.016532270694514788,0.7906944255711866,0.3868536820025345,-0.4597440801309739,-0.1435067700477815,0.4477223323343201,0.050934691943303176,1,left
9.596,0.3455767658142738,1.1956503581298308,0.014942595949197066,0.8167539992264976,0.39311514592444446,-0.45749992706004583,-0.14185449257525293,0.4539191825692107,0.046131757212636904,1,left
9.6,0.33971924584839647,1.2030022803231395,0.013329842450676938,0.842260008887909,0.4001848939468227,-0.4555842426381364,-0.1402046025467959,0.4602217777500494,0.04150257099990095,1,left
9.601,0.3337168320834807,1.2104040602908581,0.01169606904895846,0.8671751698901596,0.40808581639314334,-0.45400892321183905,-0.13856160241871784,0.4666304418840524,0.03705999696847839,1,left
9.601,0.32757482090218587,1.217850365854882,0.01004344333265084,0.8914617116832946,0.4168406326620829,-0.4527857316385061,-0.13693012688767506,0.4731453088666538,0.0328170342153525,1,left
9.604,0.32129889188162203,1.2253357140168615,0.008374244813039111,0.9150814013828167,0.4264718653750571,-0.4519262853911657,-0.1353149425197949,0.47976630864068365,0.028786803822038853,1,left
9.604,0.31489510755371763,1.2328544745438905,0.00669086782008447,0.9379955690954863,0.43700181395445764,-0.45144204433414536,-0.13372094698410558,0.48649315401325993,0.024982535033845166,1,left
9.609,0.3083699118032188,1.2404008738923107,0.004995824014469691,0.960165135090453,0.4484525276577862,-0.451344298165914,-0.13215316785804596,0.49332532824676495,0.021417551098362114,1,left
9.609,0.3017301268518415,1.2479689995044645,0.003291744417926279,0.9815506388834911,0.46084577809540345,-0.4516441535266977,-0.13061676099583386,0.5002620734592026,0.018105254758813343,1,left
9.615,0.2949829488072081,1.2555528045018474,0.0015813808863795393,1.0021122703060472,0.4742030312533469,-0.452352520773251,-0.1291170084551247,0.5073023798532588,0.015059113391364655,1,left
9.616,0.2881359417812569,1.2631461127885542,-0.00013239301551218403,1.0218099026584917,0.4885454190011029,-0.4534801004430144,-0.1276593159774678,0.5144449757936905,0.01229264377617997,1,left
9.617,0.2811970305977382,1.2707426245725837,-0.0018465817513437415,1.0406031280984063,0.5038937099873432,-0.4550373694647639,-0.12624921001815795,0.5216883187529695,0.0098193964927378,1,left
9.62,0.2741744921190088,1.278335922304298,-0.0035580681588322023,1.058451295442197,0.5202682797851903,-0.45703456719277014,-0.12489233432118547,0.529030587145402,0.007652939930686513,1,left
9.621,0.2670769452373187,1.2859194770174551,-0.005263614396163129,1.075313550526013,0.5376890801956183,-0.4594816813239498,-0.1235944460351092,0.5364696730702401,0.005806843908320293,1,left
9.623,0.25991333959084695,1.2934866550428612,-0.006959863482169038,1.0911488792156645,0.556175607700069,-0.462388433724993,-0.12236141136581366,0.5440031759845891,0.004294662891600026,1,left
9.624,0.25269294307005025,1.30103072505369,-0.00864334143448666,1.1059161531226898,0.5757468711005237,-0.465764266178974,-0.1211992007622649,0.5516283973271991,0.0031299188075246944,1,left
9.629,0.2454253281733272,1.3085448653962921,-0.010310460026327009,1.1195741780749222,0.5964213583971187,-0.46961832605849524,-0.12011388363154903,0.5593423361145052,0.0023260834465791288,1,left
9.629,0.23812035725663705,1.316022171659643,-0.011957520194207644,1.132081745386963,0.6182170029564501,-0.4739594519337356,-0.11911162257966433,0.5671416855305536,0.0018965604499431412,1,left
9.634,0.23078816670566715,1.323455664438642,-0.013580716128429907,1.143397685972889,0.641151149026832,-0.4787961591251208,-0.11819866717474124,0.5750228305327106,0.0018546668781450652,1,left
9.635,0.2234391500480036,1.3308382972486628,-0.01517614006782497,1.1534809273403464,0.665240516659941,-0.4841366252117069,-0.11738134722958546,0.5829818464953097,0.002213614358879363,1,left
9.639,0.21608394002004908,1.3381629645493731,-0.016739787807141374,1.1622905535018704,0.6905011661014936,-0.489988675507765,-0.1166660656006787,0.5910144989136321,0.0029864898127830762,1,left
9.639,0.20873338960858714,1.345422509835381,-0.01826756491306106,1.1697858678358515,0.7169484617168793,-0.4963597685214803,-0.11605929050102791,0.5991162441908539,0.004186235757079231,1,left
9.644,0.20139855209768115,1.3526097337505756,-0.019755293634292365,1.1759264589260248,0.7445970355209839,-0.5032569814111244,-0.11556754732452863,0.6072822315308153,0.005825630188146533,1,left
9.645,0.1940906601656496,1.3597174021813916,-0.02119872048277055,1.1806722694047043,0.7734607503848064,-0.5106869954555273,-0.11519740997980199,0.615507305959677,0.007917266045263504,1,left
9.648,0.18682110409167366,1.3667382542821427,-0.02259352445597621,1.1839836678212057,0.8035526629948735,-0.5186560815571668,-0.11495549173177597,0.6237860124997265,0.010473530259001124,1,left
9.648,0.1796014091445688,1.3736650103867571,-0.023935325864386528,1.1858215235530138,0.8348849866449102,-0.5271700857977049,-0.11484843554961256,0.6321126015187856,0.013506582389000649,1,left
9.652999999999999,0.17244321223555958,1.380490379768527,-0.025219695723085828,1.1861472847732406,0.8674690539427133,-0.5362344150673273,-0.1148829039599319,0.6404810352788315,0.01702833285717198,1,left
9.654,0.1653582379223305,1.387207068221478,-0.02644216566121058,1.1849230594838025,0.9013152795186985,-0.5458540227907935,-0.11506556840465233,0.6488849957076034,0.02105042078368224,1,left
9.658999999999999,0.15835827385417464,1.3938077854504614,-0.02759823829634207,1.1821116996195151,0.9364331228261547,-0.5560333947746658,-0.11540309810315365,0.6573178934171015,0.02558419143447339,1,left
9.66,0.15145514574841046,1.4002852522699591,-0.028683398014461185,1.177676888223959,0.9728310511268358,-0.5667765352017686,-0.11590214841887658,0.6657728779930064,0.03064067329045094,1,left
9.662,0.14466069198648937,1.40663220762234,-0.02969312209043037,1.1715832296935178,1.010516502759139,-0.5780869528005218,-0.11656934873089783,0.674242849579146,0.03623055474992266,1,left
9.663,0.13798673791531035,1.4128414154326983,-0.030622892078749707,1.1637963430814362,1.049495850789773,-0.5899676472183996,-0.11741128981146448,0.6827204717812186,0.0423641604773352,1,left
9.669,0.13144506993542468,1.4189056713186372,-0.03146820540112742,1.154282958449082,1.0897743671534939,-0.6024210956303843,-0.11843451071974259,0.6911981858874049,0.04905142742443402,1,left
9.669,0.12504740944925183,1.4248178091714394,-0.03222458706089151,1.1430110162468317,1.1313561873891818,-0.6154492396149135,-0.11964548526655096,0.6996682262703152,0.05630188060938419,1,left
9.67,0.11880538672848179,1.4305707076226122,-0.0328876014244623,1.1299497697021386,1.1742442760842473,-0.6290534723314554,-0.12105060818461393,0.7081226365949407,0.06412460884513704,1,left
9.672,0.11273051475179839,1.4361572964074547,-0.0334528640159631,1.1150698901873832,1.2184403931430874,-0.643234626035493,-0.12265618118342089,0.7165532863240547,0.0725282406677983,1,left
9.673,0.10683416307060277,1.4415705626346762,-0.03391605326501396,1.0983435755350621,1.2639450609990488,-0.6579929599683463,-0.12446839902428604,0.7249518871457094,0.08152092065948911,1,left
9.677,0.10112753177235,1.4468035569688074,-0.03427292213993099,1.0797446612627273,1.3107575328931083,-0.6733281486609151,-0.12649333567249874,0.7333100091872303,0.09111028625764866,1,left
9.677999999999999,0.09562162561658716,1.4518493997309203,-0.03451930960160353,1.0592487346648727,1.3588757623462375,-0.6892392706920816,-0.12873693053999707,0.7416190970132661,0.1013034450865132,1,left
9.684,0.09032722841691071,1.4567012869230342,-0.03465115182593789,1.0368332516011516,1.4082963739318526,-0.7057247979262418,-0.13120497482378354,0.7498704854320007,0.1121069528366217,1,left
9.685,0.08525487773387436,1.4613524961822675,-0.03466449315701664,1.0124776551923904,1.4590146353369038,-0.7227825851664509,-0.13390309794591293,0.7580554151335207,0.12352679171991121,1,left
9.685,0.08041483993217452,1.4657963926706168,-0.03455549676394611,0.986163494527842,1.5110244304850409,-0.7404098599999746,-0.13683675410150997,0.7661650481841893,0.13556834952969812,1,left
9.687999999999999,0.07581708565181014,1.4700264349023098,-0.03432045497847986,0.9578745408690688,1.5643182333774273,-0.7586032125250446,-0.14001120892191893,0.7741904834007122,0.1482363993365937,1,left
9.689,0.07147126575320581,1.474036180503474,-0.033955799286767514,0.9275968994428181,1.618887082432091,-0.7773585847389028,-0.1434315262607482,0.78212277162739,0.16153507985317198,1,left
9.693,0.06738668780884882,1.4778192918932853,-0.03345810993954639,0.895319116012213,1.674720555325297,-0.7966712595301971,-0.14710255511124815,0.7899529309398327,0.1754678765019924,1,left
9.693,0.06357229321663901,1.481369541875665,-0.03282412513442102,0.8610322780224493,1.7318067444636984,-0.8165358493100583,-0.15102891666415313,0.7976719617981743,0.19003760322337754,1,left
9.697000000000001,0.060036635002909816,1.4846808191360816,-0.03205074971561262,0.8247301102339953,1.7901322332440013,-0.8369462843357265,-0.1552149915158235,0.8052708621725546,0.20524638506115775,1,left
9.698,0.05678785637039904,1.4877471336478074,-0.031135063335846667,0.7864090647505522,1.8496820732605197,-0.8578958007821966,-0.1596649070372435,0.8127406426633415,0.22109564156641326,1,left
9.703,0.053833670032199715,1.4905626220045105,-0.03007432803372237,0.7460684053432629,1.9104397626245806,-0.8793769286189348,-0.16438252491516392,0.8200723416382512,0.23758607106107385,1,left
9.704,0.05118133836141949,1.4931215527090518,-0.028865995193256833,0.7037102859668748,1.9723872255633002,-0.9013814793502836,-0.16937142887742354,0.8272570404081765,0.2547176358050696,1,left
9.707,0.04883765438125645,1.4954183314592968,-0.027507711864088145,0.6593398233577702,2.035504793468771,-0.9239005336797256,-0.17463491261524175,0.8342858784631598,0.2724895481125651,1,left
9.708,0.04680892362195982,1.4974475064793793,-0.025997326429504,0.6129651635979796,2.0997711875721556,-0.9469244291596932,-0.18017596791604185,0.8411500687895576,0.29090025746464904,1,left
9.712,0.045100946878222845,1.499203773949259,-0.024332893617715283,0.5645975425235058,2.165163503420607,-0.970442747890123,-0.18599727302114433,0.8478409132890137,0.30994743866769303,1,left
9.713,0.04371900391012139,1.5006819835865532,-0.022512678862540558,0.5142513398495131,2.23165719733829,-0.9944443043304203,-0.19210118122345698,0.8543498183194167,0.32962798110842917,1,left
9.718,0.042667838139686484,1.5018771444318832,-0.020535162033774108,0.46194412687918246,2.299226075056069,-1.018917133290958,-0.1984897097210855,0.8606683103775403,0.3499379791586312,1,left
9.719,0.04195164240239414,1.5027844308826486,-0.01839904057415628,0.407696707657316,2.3678422826976737,-1.0438484781716424,-0.20516452874359306,0.8667880519425689,0.37087272378410924,1,left
9.721,0.041574045818863606,1.5033991890118925,-0.016103232096744084,0.3515331534240991,2.4374763003132958,-1.0692247795164764,-0.2121269509684478,0.8727008574991907,0.3924266954145476,1,left
9.722999999999999,0.041538101856967644,1.503716943201185,-0.013646876509727872,0.2934808302187984,2.5080969381546687,-1.095031663954389,-0.21937792124601446,0.8783987097583892,0.41459355813251947,1,left
9.726,0.04184627765707706,1.503733403110723,-0.01102933774322077,0.23357041947761129,2.5796713358886816,-1.1212539335979292,-0.2269180066522678,0.8838737760934977,0.4373661552418079,1,left
9.726,0.04250044469249935,1.5034444710052095,-0.008250205155855131,0.17183593146438073,2.652164964949501,-1.1478755559726905,-0.23474738688923102,0.8891184252084837,0.4607365062769376,1,left
9.731,0.04350187083548975,1.502846249447658,-0.005309294699183587,0.10831471136747427,2.725541634232005,-1.174879654551568,-0.24286584505397113,0.8941252440548161,0.48469580551758124,1,left
9.732000000000001,0.0448512139004696,1.501935049362237,-0.002206649912742515,0.04304743789079307,2.799763499332063,-1.2022484999691463,-0.25127275879781136,0.8988870550126268,0.5092344220732432,1,left
9.736,0.046548516742178594,1.5007073984500932,0.0010574571891124782,-0.023921885838354986,2.874791075541847,-1.2299635019926556,-0.2599670918982523,0.9033969333512177,0.5343419016053388,1,left
9.737,0.04859320399433353,1.499160049920355,0.004482525293596597,-0.09254594922691022,2.9505832548108812,-1.2580052023270367,-0.2689473862682606,0.9076482249528425,0.5600069697280641,1,left
9.738,0.05098408053597919,1.4972899914793423,0.008067823001490818,-0.16277415922664457,3.02709732688596,-1.286353268332694,-0.27821175443509893,0.9116345641308026,0.5862175369940538,1,left
9.741,0.05371933176520492,1.4950944545086375,0.01181238806329029,-0.23455267358995685,3.1042890048453873,-1.314986487735516,-0.28775787253373486,0.9153498910982376,0.6129607051257481,1,left
9.742,0.05679652575447357,1.4925709233457012,0.015715026640766096,-0.30782444256790936,3.182112455245168,-1.3438827644096751,-0.2975829738673751,0.9187884684910571,0.640222774017928,1,left
9.746,0.06021261736676182,1.4897171445485962,0.019774312605633875,-0.38252925925213677,3.2605203330968684,-1.3730191153145954,-0.3076838430817986,0.9219448964998898,0.6679892491755046,1,left
9.747,0.06396395441562562,1.4865311359918485,0.02398858690029043,-0.45860381876670503,3.339463821898801,-1.402371668668298,-0.3180568109889316,0.9248141264390887,0.6962448494988855,1,left
9.751,0.0680462859418299,1.483011195622945,0.02835595700459813,-0.535981786520281,3.4188926789439753,-1.4319156634400863,-0.32869775006921953,0.9273914727322179,0.7249735154677924,1,left
9.753,0.07245477265559723,1.4791559097121176,0.03287429657510925,-0.614593875733083,3.4987552861299847,-1.461625450246221,-0.3396020706818054,0.9296726233230794,0.7541584178032621,1,left
9.753,0.07718399956455668,1.4749641604471706,0.037541245342540844,-0.6943679343336328,3.578998706350443,-1.4914744937414104,-0.3507647180123059,0.9316536485205117,0.7837819666889684,1,left
9.756,0.08222799078146506,1.470435132756854,0.04235420936069374,-0.7752290407071684,3.6595687448137766,-1.5214353766422957,-0.36218016978874124,0.9333310082843559,0.8138258216343552,1,left
9.756,0.08758022648727706,1.4655683202840208,0.04731036169264135,-0.8570996066707043,3.7404100133130367,-1.5514798055966172,-0.3738424347969351,0.9347015579591328,0.8442709020633871,1,left
9.76,0.09323366200575446,1.460363530461817,0.052406643608527426,-0.9398994854361562,3.8214659947362577,-1.58157861915495,-0.38574505222743966,0.935762552461115,0.8750973987139768,1,left
9.761000000000001,0.09918074891485139,1.4548208886675158,0.05763976636082546,-1.0235460829429677,3.902679105843039,-1.611701798059411,-0.397881091886766,0.9365116489236053,0.9062847859343561,1,left
9.766,0.10541345808226066,1.448940841447135,0.06300621358686337,-1.1079544720549794,3.9839907576572116,-1.6418184779869525,-0.4102431553064083,0.9369469078043542,0.9378118349638084,1,left
9.767000000000001,0.11192330447860946,1.4427241588264237,0.06850224435558067,-1.1930375097358465,4.065341413561277,-1.6718969648421924,-0.4228233777838411,0.9370667924581565,0.9696566282862752,1,left
9.77,0.11870137359393995,1.436171935746243,0.0741238968350808,-1.2787059574431159,4.146670645325778,-1.7019047526862572,-0.435613431390336,0.9368701671767786,1.001796575146385,1,left
9.77,0.1257383492589861,1.4292855926761343,0.0798669925264045,-1.364868604983257,4.2279171873070815,-1.7318085443880848,-0.44860452898109454,0.9363562936974602,1.0342084283184239,1,left
9.775,0.13302454265318858,1.422066875466422,0.08572714099720671,-1.4514323980718788,4.309018989047127,-1.7615742750845267,-0.4617874292438187,0.9355248261803341,1.0668683022196803,1,left
9.776,0.14054992226943802,1.4145178544961838,0.09169974505683612,-1.5383025698450339,4.389913266508652,-1.7911671385353771,-0.4751524428224424,0.9343758046541968,1.0997516924604493,1,left
9.781,0.14830414460282862,1.4066409231633998,0.09778000633460296,-1.6253827765689353,4.470536552179161,-1.8205516164591664,-0.48868943955332433,0.9329096469291545,1.132833496923747,1,left
9.781,0.1562765853361948,1.3984387957479425,0.10396293124647786,-1.712575237796553,4.550824744276479,-1.8496915109351502,-0.5023878568517521,0.9311271389737533,1.1660880384685113,1,left
9.785,0.16445637080713427,1.3899145046602563,0.11024333735504309,-1.7997808812204428,4.630713155288156,-1.8785499799564302,-0.5162367092871302,0.9290294237532969,1.199489089350698,1,left
9.786,0.17283240955781692,1.3810713970710344,0.11661586013963189,-1.8868994924717508,4.710136560076177,-1.9070895762185442,-0.530224599385716,0.9266179885251389,1.2330098974572539,1,left
9.79,0.18139342378730253,1.3719131309044632,0.12307496019604942,-1.973829870115664,4.7890292437774935,-1.935272289227156,-0.5443397297002343,0.9238946505858328,1.2666232144484388,1,left
9.79,0.19012798054319044,1.362443670173944,0.1296149308773252,-2.0604699860936067,4.867325049729737,-1.9630595908076671,-0.5585699161861275,0.9208615414641164,1.3003013259043947,1,left
9.795,0.19902452250281633,1.3526672796453414,0.13622990637322493,-2.1467171518622346,4.94495742765012,-1.990412484098653,-0.5729026029246017,0.9175210895528075,1.334016083572196,1,left
9.796,0.20807139820312692,1.3425885188268163,0.14291387021472388,-2.2324681904787353,5.021859482294042,-2.0172915561100084,-0.5873248782329896,0.913876001171791,1.3677389398098865,1,left
9.8,0.2172568915852759,1.3322122353027233,0.14966066418315663,-2.317619614881107,5.097964022818161,-2.0436570339255358,-0.6018234922032837,0.9099292400533907,1.4014409843241897,1,left
9.801,0.2265692507297545,1.3215435574479204,0.15646399759920157,-2.4020678126109587,5.173203613070815,-2.0694688446284757,-0.6163848757099859,0.9056840052405344,1.4350929832986836,1,left
9.804,0.23599671567439437,1.3105878865752283,0.16331745696204264,-2.48570923722495,5.247510623030569,-2.0946866790271055,-0.6309951609286764,0.9011437073872475,1.4686654210092533,1,left
9.805,0.24552754523169484,1.299350888579427,0.17021451590583345,-2.568440606639262,5.3208172816113475,-2.119270059256064,-0.6456402033675344,0.8963119435067374,1.5021285439453667,1,left
9.805,0.25515004275117786,1.2878384851400646,0.17714854544289596,-2.65015910864948,5.393055731050188,-2.1431784103274634,-0.6603056052172862,0.891192470494437,1.5354524070644882,1,left
9.809,0.2648525808008833,1.2760568445324176,0.18411282447088795,-2.730762613865932,5.4641580830909,-2.166371135704148,-0.6749767394707026,0.8857891782618644,1.568606921102793,1,left
9.81,0.2746236247618384,1.2640123720855245,0.19110055052682812,-2.8101498963019456,5.534056477174093,-2.1888076969656316,-0.6896387740659284,0.8801060635992852,1.6015618994739573,1,left
9.814,0.2844517553372822,1.2517117003300593,0.19810485076871628,-2.8882208618495375,5.602683140840947,-2.2104476976353085,-0.7042766955049249,0.8741472056013695,1.634287103678469,1,left
9.814,0.2943256899785713,1.2391616788885582,0.20511879316027568,-2.96487678487389,5.669970452554825,-2.231250971235479,-0.7188753317528109,0.8679167429798895,1.6667522868493472,1,left
9.818999999999999,0.3042343032252846,1.2263693641630744,0.21213539783228,-3.040020553154441,5.735851007141401,-2.2511776736345572,-0.7334193744208053,0.8614188533037317,1.6989272354506648,1,left
9.82,0.3141666459491067,1.2133420088689058,0.21914764859529468,-3.1135569209989793,5.800257683962637,-2.270188379618451,-0.7478934002747858,0.8546577341491136,1.7307818092228229,1,left
9.821,0.3241119634849045,1.2000870514495825,0.22614850458304803,-3.185392768364631,5.863123717527918,-2.2882441829652835,-0.7622818921113715,0.8476375861421175,1.7622859794677668,1,left
9.825,0.3340597126315332,1.1866121053907723,0.23313091201171993,-3.255437360236129,5.924382769506791,-2.305306798129328,-0.776569259043275,0.8403625978748823,1.7934098657665163,1,left
9.825,0.3439995775010662,1.1729249484383784,0.24008781604117663,-3.323602598518705,5.983969000695304,-2.3213386609869797,-0.7907398562354723,0.8328369326760398,1.8241237712204528,1,left
9.829,0.35392148418053887,1.1590335117248445,0.24701217271545348,-3.3898032606865054,6.04181714189174,-2.3363030267452696,-0.8047780041334919,0.8250647172152377,1.8543982163068011,1,left
9.831,0.36381561415192504,1.1449458688113532,0.25389696094905995,-3.453957223001449,6.097862563367724,-2.3501640642813397,-0.8186680072248301,0.8170500319208593,1.8842039714376546,1,left
9.834,0.37367241640416643,1.130670224654815,0.2607351945212506,-3.5159856681004746,6.1520413430241,-2.3628869468287745,-0.8323941723741706,0.808796903189329,1.9135120883107122,1,left
9.834,0.38348261816729806,1.116214904508369,0.26751993404130703,-3.5758132771411844,6.204290333397615,-2.374437939053698,-0.8459408267727002,0.800309297363684,1.9422939301386322,1,left
9.839,0.3932372342030296,1.1015883427664934,0.27424429885128293,-3.633368406690007,6.254547227679266,-2.3847844805603806,-0.8592923355413901,0.7915911164584009,1.9705212008425692,1,left
9.839,0.40292757460071094,1.0867990717718516,0.2809014788398733,-3.68858325053091,6.302750624899831,-2.3938952658628336,-0.8724331190276394,0.7826461956067711,1.9981659732940236,1,left
9.844,0.41254525105140577,1.0718557106087871,0.28748474615244685,-3.741393986566377,6.348840094432542,-2.4017403208555015,-0.8853476698341654,0.7734783022064547,2.0252007166876274,1,left
9.845,0.42208218160154787,1.056766953914881,0.29398746679351295,-3.7917409089758443,6.392756239957142,-2.408291075812712,-0.8980205696184593,0.7640911367381744,2.0515983231258934,1,left
9.847999999999999,0.4315305939177264,1.0415415607452014,0.30040311212383336,-3.839568545790072,6.4344407630236615,-2.4135204349429866,-0.910436505700528,0.7544883352318618,2.0773321334952852,1,left
9.849,0.44088302712270894,1.0261883435237111,0.30672527025378576,-3.8848257620330404,6.47383652634821,-2.4174028425206933,-0.9225802875159832,0.7446734733539275,2.1023759627112133,1,left
9.853,0.4501323322869098,1.0107161571135062,0.31294765732871815,-3.9274658485758773,6.510887616966802,-2.419914345613793,-0.9344368629508573,0.7346500720886956,2.1267041244077336,1,left
9.854,0.45927167167671606,0.9951338880338451,0.31906412869200124,-3.967446596840112,6.545539409366844,-2.4210326534226585,-0.9459913345937753,0.7244216049864222,2.1502914551458185,1,left
9.857999999999999,0.4682945168703988,0.9794504438490673,0.3250686899004064,-4.004730359480156,6.577738628709332,-2.420737193241056,-0.9572289759403402,0.7139915069497135,2.17311333821209,1,left
9.859,0.4771946458546661,0.9636747427530898,0.3309555075589932,-4.0392840971674255,6.607433414248096,-2.4190091630464656,-0.9681352475837578,0.7033631845295543,2.1951457270778474,1,left
9.862,0.4859661392122152,0.9478157033729312,0.33671891993952036,-4.071079411590862,6.634573383045509,-2.4158315807229034,-0.978695813424863,0.692540027701571,2.2163651685860946,1,left
9.863999999999999,0.4946033755046806,0.931882234815206,0.34235344734391226,-4.100092564780906,6.659109694077039,-2.4111893299153566,-0.9888965569338005,0.6815254230925734,2.236748825932085,1,left
9.868,0.5031010259479767,0.9158832269799627,0.34785380217026485,-4.12630448485611,6.680995112809873,-2.4050692025108322,-0.9987235974946569,0.6703227686268501,2.2562745015006165,1,left
9.869,0.5114540484698152,0.899827541165859,0.3532148986342724,-4.1497007582836885,6.7001840763334295,-2.397459937736859,-1.0081633068633549,0.6589354895611346,2.274920659620988,1,left
9.873,0.5196576812319919,0.8837240009881326,0.35843186209701283,-4.1702716087373055,6.71663275911219,-2.388352257864075,-1.0172023257528597,0.6473670558427234,2.2926664492713345,1,left
9.875,0.527707435691228,0.8675813836233522,0.3635000379551104,-4.1880118626273735,6.7302991394235825,-2.3777389004952987,-1.0258275804825752,0.6356210005552929,2.309491726627599,1,left
9.875,0.5355990892631936,0.8514084113832673,0.3684150000613703,-4.202920901371052,6.741143066535983,-2.3656146474192052,-1.0340262994907008,0.6237009389115045,2.3253770771087017,1,left
9.877,0.543328677651183,0.8352137436127197,0.37317255865368654,-4.215002600461022,6.74912632867396,-2.351976350002421,-1.0417860294310728,0.6116105870815653,2.340303836432902,1,left
9.878,0.5508924869059127,0.8190059689092374,0.37776876776858753,-4.22426525538401,6.754212721809971,-2.336822951089545,-1.049094650650919,0.5993537803158061,2.3542541103316834,1,left
9.883,0.5582870452884937,0.802793597668004,0.38219993210714104,-4.230721494431893,6.756368119313552,-2.320155503376254,-1.0559403919817314,0.5869344901237579,2.3672107928059742,1,left
9.883,0.565509115008498,0.7865850549567148,0.3864626133151129,-4.234388178440109,6.755560542480877,-2.301977184216313,-1.0623118448503006,0.5743568404411238,2.379157582940752,1,left
9.888,0.5725556839041346,0.7703886737199478,0.39055363564050477,-4.23528628768106,6.751760231868308,-2.282293306828427,-1.0681979767308802,0.5616251227494448,2.3900790003180643,1,left
9.889,0.5794239571232833,0.7542126883047715,0.39447009093883845,-4.233440797137323,6.744939718890677,-2.261111327911861,-1.0735881439581256,0.5487438101127895,2.399960399065656,1,left
9.89,0.5861113488536317,0.7380652282905186,0.39820934300679817,-4.228880543180905,6.73507389631842,-2.238440851760614,-1.0784721039190848,0.5357175700953452,2.40878798057549,1,left
9.892000000000001,0.5926154741421815,0.7219543126006605,0.4017690312327303,-4.2216380856819855,6.722140085844574,-2.2142936310089496,-1.0828400266411289,0.5225512765233462,2.4165488049234973,1,left
9.892000000000001,0.598934140842312,0.7058878438766504,0.4051470735553478,-4.211749568557563,6.706118101338531,-2.1886835640894495,-1.0866825057912843,0.5092500200543442,2.423230801018925,1,left
9.897,0.6050653417278982,0.689873603098173,0.4083416687242742,-4.199254579953208,6.686990307212733,-2.16162668939529,-1.0899905691009737,0.4958191175164093,2.428822775508606,1,left
9.898,0.6110072468151587,0.6739192444361529,0.4113512978617281,-4.184196012238245,6.664741671774218,-2.1331411760868715,-1.0927556882286964,0.48226411997945173,2.433314420458416,1,left
9.902999999999999,0.6167581959331159,0.6580322903250522,0.41417472533072575,-4.1666199217860465,6.639359815514953,-2.1032473114692647,-1.0949697880716667,0.46859081952046194,2.4366963198311,1,left
9.902999999999999,0.6223166915830165,0.6422201267424,0.41681099891770557,-4.146575388503623,6.610835054285979,-2.0719674848627765,-1.0966252555358935,0.45480525464410015,2.4389599547765006,1,left
9.907,0.6276813921255818,0.6264899986863861,0.41925944933633147,-4.124114375067366,6.579160437291418,-2.0393261678848607,-1.0977149477726293,0.4409137143197063,2.4400977077470745,1,left
9.908,0.632851105331136,0.6108490058458848,0.4215196890554195,-4.099291585814536,6.5443317798294025,-2.005349891057536,-1.0982321998875295,0.42692274059546426,2.440102865448392,1,left
9.912,0.6378247823205513,0.5953040984616342,0.42359161044820726,-4.072164325233047,6.5063476906979805,-1.9700672166505095,-1.0981708321272654,0.4128391297501319,2.438969620631116,1,left
9.913,0.642601511916996,0.5798620733829286,0.42547538325541134,-4.04279235598513,6.4652095941749845,-1.9335087076662911,-1.0975251565467068,0.3986699319424432,2.436693072727698,1,left
9.918,0.6471805154222217,0.5645295703300894,0.42717145135418383,-4.011237756393687,6.420921746471816,-1.8957068928697565,-1.0962899831581459,0.384422449318007,2.433269227333807,1,left
9.92,0.6515611418234387,0.549313068376752,0.4286805288285392,-3.9775647773135434,6.37349124655202,-1.856696227760867,-1.0944606255623721,0.3701042325332562,2.4286949945312206,1,left
9.921,0.6557428634243424,0.5342188826671589,0.4300035953414328,-3.9418396983033492,6.322928041196502,-1.816513051385593,-1.092032906059735,0.35572307565576106,2.4229681860456256,1,left
9.922,0.6597252718817386,0.5192531613849608,0.43114189081544524,-3.904130683007619,6.269244924188134,-1.7751955388765177,-1.0890031602376358,0.3412870093999928,2.4160875112294935,1,left
9.926,0.6635080746250949,0.504421882992534,0.43209690943960893,-3.864507633652318,6.212457529479555,-1.7327836496111397,-1.0853682410291825,0.32680429265742195,2.4080525718568793,1,left
9.927,0.6670910916393483,0.4897308537611118,0.4328703930315025,-3.8230420445515243,6.152584318198935,-1.6893190708725139,-1.0811255222360265,0.3122834022796553,2.3988638557136928,1,left
9.931000000000001,0.6704742525952289,0.4751857056109627,0.4334643237919499,-3.779806854516974,6.08964655933949,-1.6448451568936266,-1.0762729015066712,0.2977330210731586,2.3885227289636726,1,left
9.932,0.673657594313621,0.4607918942786888,0.43388091649335087,-3.734876298056824,6.023668303969689,-1.5994068631637528,-1.0708088027598046,0.28316202396397827,2.377031427266986,1,left
9.936,0.6766412585523471,0.44655469782584406,0.4341226101432341,-3.6883257552446755,5.954676352792168,-1.5530506758720313,-1.0647321780404628,0.2685794622907662,2.3643930456250537,1,left
9.937000000000001,0.6794254901061164,0.4324792154994518,0.4341920591634904,-3.6402316001348014,5.88270021687062,-1.5058245363605898,-1.058042508795081,0.25399454618432654,2.3506115269219046,1,left
9.941,0.6820106352131797,0.41857036695193145,0.43409212412430015,-3.590671047594679,5.807772071335172,-1.4577777604567894,-1.0507398065497333,0.2394166249918469,2.3356916491290516,1,left
9.942,0.6843971402654142,0.4048328918256552,0.43382586207084495,-3.5397219984212582,5.7299267018681315,-1.4089609525515217,-1.0428246129846939,0.22485516574857145,2.319639011172997,1,left
9.943,0.6865855508217961,0.39127134970286487,0.4333965164789104,-3.4874628826029768,5.649201443763369,-1.3594259142879974,-1.0342979994496662,0.21031972992282133,2.3024600176382264,1,left
9.946,0.6885765109277303,0.37789012041401315,0.43280750687169134,-3.433972500585303,5.565636113344196,-1.3092255477231098,-1.0251615660575968,0.19581994906196365,2.284161862793937,1,left
9.946,0.6903707627435864,0.36469340469245043,0.43206241812891405,-3.379329862393627,5.479272931516185,-1.2584137528212456,-1.0154174405462033,0.1813655001901305,2.264752514606534,1,left
9.951,0.6919691464838086,0.351685225165497,0.4311649895239841,-3.3236140244635317,5.3901564392231025,-1.2070453191383586,-1.0050682770416224,0.16696608158541168,2.2442406992196484,1,left
9.951,0.6933726006625345,0.33886942767706035,0.4301191035303717,-3.2669039240249584,5.298333404565993,-1.1551758115522086,-0.9941172547614979,0.15263138916267102,2.222635886061571,1,left
9.955,0.6945821626346453,0.32624968293840995,0.4289287744385897,-3.209278211098852,5.203852721574725,-1.1028614500709288,-0.9825680766401131,0.13837109346511467,2.19994827355977,1,left
9.956,0.6955989694165915,0.3138294885004594,0.4275981368194811,-3.150815079238751,5.106765301800017,-1.0501589846405668,-0.9704249678458431,0.12419481722326636,2.1761887754035865,1,left
9.956,0.6964242587704482,0.3016121710364592,0.4261314338630545,-3.0915920980854636,5.007123962022047,-0.9971255674729409,-0.9576926741594772,0.11011211344019033,2.1513690072930656,1,left
9.961,0.6970593705331807,0.28960088892263036,0.42453300562194957,-3.031686051877298,4.904983312550711,-0.9438186263039523,-0.9443764601802447,0.0961324439620171,2.1255012741087698,1,left
9.962,0.6975057481681852,0.2777986351063322,0.4228072771966018,-2.9711727869789466,4.800399649398563,-0.890295741101305,-0.9304821073246662,0.08226515849306792,2.0985985574343466,1,left
9.965,0.6977649405114597,0.26620824025279455,0.42095874690825125,-2.910127069551409,4.693430851464178,-0.8366145251374969,-0.9160159115816682,0.06851947401514195,2.0706745033605762,1,left
9.966000000000001,0.6978386036836438,0.25483237616012666,0.4189919745105631,-2.8486224534064233,4.584136282669988,-0.7828325104530856,-0.9009846809857182,0.054904454570827106,2.041743410496615,1,left
9.97,0.6977285031392548,0.24367355942976945,0.41691156949288266,-2.786731157871717,4.472576698754271,-0.7290070375565962,-0.8853957327680799,0.041428991371016896,2.0118202181111786,1,left
9.97,0.6974365158217852,0.23273415537757638,0.41472217952894386,-2.7245239554918803,4.358814158410113,-0.6751951492069821,-0.8692568901446452,0.028101783187165302,1.980920494323484,1,left
9.975,0.6969646323873806,0.22201638217025094,0.41242847911996927,-2.662070069388313,4.242911938457509,-0.6214534881242599,-0.8525764786971777,0.014931316989186516,1.949060424260859,1,left
9.976,0.6963149594525899,0.21152231517175973,0.41003515846933125,-2.599437080100621,4.124934452728265,-0.5678381984738187,-0.8353633223032024,0.0019258487903067538,1.916256798097105,1,left
9.98,0.6954897218150996,0.20125389148205852,0.40754691261240156,-2.5366908417308927,4.00494717433701,-0.514404830969935,-0.8176267385681969,-0.010906615339398986,1.882526998882872,1,left
9.98,0.6944912645924177,0.19121291464633652,0.4049684308158609,-2.473895407211592,3.8830165610055163,-0.46120825144422994,-0.7993765337121842,-0.023558338128602755,1.8478889900765592,1,left
9.985,0.6933220552245288,0.18140105950955634,0.4023043862585047,-2.411112962517283,3.7592099831015386,-0.4083025527251669,-0.7806229968612982,-0.03602186986679606,1.8123613026815433,1,left
9.986,0.6919846852926356,0.17181987718864425,0.3995594260101787,-2.3484037696400684,3.63359565404763,-0.3557409696752057,-0.7613768936933925,-0.0482900671096864,1.7759630218928768,1,left
9.99,0.6904818721146601,0.16247080013159979,0.396738161334444,-2.2858261181484836,3.5062425627498066,-0.30357579723291245,-0.7416494593852829,-0.06035611136424703,1.7387137731539883,1,left
9.991,0.6888164600870622,0.15335514722869314,0.39384515835037387,-2.2234362851496146,3.377220407690543,-0.2518583113081548,-0.7214523908077767,-0.07221352778920882,1.7006337075213664,1,left
9.994,0.6869914217505922,0.14447412893712466,0.3908849290949277,-2.161288503474427,3.246599532325389,-0.2006386923794991,-0.7007978379132217,-0.08385620394622291,1.6617434862327036,1,left
9.995,0.6850098585631815,0.13582885237865058,0.3878619230258456,-2.099434937906648,3.114450861417507,-0.14996595164406484,-0.6796983942589303,-0.09527840863634272,1.6220642643715426,1,left
9.999,0.6828750013657133,0.1274203263707048,0.3847805189971594,-2.037925669276099,2.980845837939637,-0.09988785957137232,-0.6581670866084822,-0.1064748108558754,1.5816176735190706,1,left
10.001,0.6805902105278033,0.11924946635519086,0.3816450177309074,-1.9768086862380478,2.8458563601684053,-0.05045087671415002,-0.6362173635515977,-0.11744049890503652,1.5404258032813858,1,left
10.005,0.6781589757640487,0.111317099194101,0.3784596348032044,-1.9161298845610042,2.7095547185914906,-0.001700086630634535,-0.6138630830819994,-0.12817099968220963,1.498511181578298,1,left
10.006,0.6755849156175793,0.10362396780591406,0.37522849415903736,-1.8559330737463644,2.5720135322440103,0.046320869225397625,-0.5911184990714348,-0.13866229819596446,1.4558967535775178,1,left
10.01,0.6728717766136731,0.09617073562110169,0.3719556221651637,-1.7962599908044288,2.4333056840864797,0.09356985478878858,-0.567998246576834,-0.14891085732632534,1.4126058591559452,1,left
10.011000000000001,0.6700234320870492,0.08895799084037981,0.3686449422036808,-1.737150321012569,2.293504255032942,0.14000630098130212,-0.5445173259516939,-0.15891363782049397,1.3686622088313987,1,left
10.012,0.667043880682657,0.08198625048529956,0.3653002698019412,-1.6786417254827124,2.152682456234314,0.18559126576193172,-0.5206910859080359,-0.1686681182794753,1.3240898584245733,1,left
10.015,0.6639372445255511,0.07525596423511002,0.3619253082907324,-1.6207698753667976,2.010913559218631,0.23028749276485994,-0.4965352059916978,-0.17817231448083723,1.278913183282325,1,left
10.016,0.6607077670537224,0.06876751804694407,0.35852364498392425,-1.5635684925304827,1.8682708234867347,0.27405946865838493,-0.4720656791090624,-0.1874247971540618,1.2331568532099746,1,left
10.02,0.657359810509495,0.06252123756067068,0.35509874787696133,-1.5070693965270963,1.7248274211590202,0.31687347935568744,-0.44729879456595384,-0.19642470755230107,1.186845808940043,1,left
10.021,0.6538978530898729,0.05651739129476901,0.35165396286533485,-1.4513025577056602,1.5806563582661375,0.35869766520576174,-0.4222511217610023,-0.20517177057415606,1.1400052403898602,1,left
10.024,0.6503264857620733,0.05075619364288603,0.3481925114859953,-1.396296156182769,1.4358303924872147,0.3995020751908271,-0.3969394944984922,-0.21366630541644274,1.0926605666403437,1,left
10.025,0.6466504087545152,0.04523780768063647,0.34471748918361605,-1.3420766458803577,1.290421948202818,0.439258719657008,-0.37138099584958084,-0.22190923378379945,1.044837417502965,1,left
10.025,0.6428744277347355,0.03996234778902177,0.34123186409961265,-1.2886688218799027,1.1445030316464624,0.47794162020802416,-0.3455929434899708,-0.22990208568026413,0.9965616165403978,1,left
10.029,0.6390034496873173,0.03492988209841774,0.33773847637662646,-1.236095888815995,0.9981451500025482,0.5155268548919278,-0.3195928754413556,-0.23764700280722587,0.9478591654048923,1,left
10.03,0.6350424785096732,0.030140434758644218,0.33424003796582324,-1.184379528564273,0.8514192372309839,0.5519925973046999,-0.2933985361432565,-0.24514673959143385,0.8987562293570533,1,left
10.035,0.6309966103486635,0.025593988043814412,0.33073913291856394,-1.1335399664346064,0.7043955874785895,0.5873191491256403,-0.26702786278120483,-0.25240466186602967,0.8492791238263876,1,left
10.036,0.6268710287030317,0.021290484301763977,0.32723821813887677,-1.0835960356125949,0.5571437958701783,0.6214889660931243,-0.24049897179661572,-0.2594247432268579,0.7994543018737738,1,left
10.04,0.6226709993157252,0.017229827756802343,0.32373962456991984,-1.034565239700861,0.4097327062579597,0.654486677525436,-0.2138301455031445,-0.26621155908560695,0.7493083424148481,1,left
10.041,0.6184018648776725,0.013411886172390294,0.3202455587850735,-0.9864638132141283,0.26223036550705736,0.6862990994881274,-0.18703981873380718,-0.2727702784406393,0.6988679390622301,1,left
10.044,0.6140690395609902,0.009836492377266075,0.3167581049504345,-0.9393067798846455,0.11470398389427243,0.7169152417060292,-0.160146565442695,-0.2791066533856867,0.6481598894435118,1,left
10.044,0.6096780033942867,0.006503445654876892,0.31327922712032924,-0.8931080086371391,-0.03278009880323232,0.7463263083146796,-0.13316908518470985,-0.2852270063759195,0.5972110848510115,1,left
10.049,0.6052342964843879,0.003412512992190237,0.3098107718238551,-0.8478802670951473,-0.18015644195291802,0.7745256925425342,-0.10612618939639917,-0.2911382152702432,0.5460485000784487,1,left
10.049,0.6007435130785067,0.0005634301804996199,0.306354470902293,-0.8036352724832924,-0.3273605278691863,0.8015089654118926,-0.07903678740067364,-0.29684769616803847,0.4946991832989271,1,left
10.052999999999999,0.5962112954533656,-0.002044097241301347,0.30291194456541654,-0.7603837397928032,-0.47432878119656824,0.8272738585430148,-0.051919872057948846,-0.30236338405794205,0.4431902458379204,1,left
10.054,0.5916433276172234,-0.004410393210879939,0.29948470464589727,-0.7181354270803865,-0.6209985842970199,0.8518202411424312,-0.02479450498606479,-0.3076937112956654,0.391548851694345,1,left
10.058,0.5870453288168846,-0.006535810543641631,0.29607415804044407,-0.6768991777733656,-0.7673082890640649,0.875150091252952,0.0023201987287966067,-0.31284758392727025,0.33980220666226324,1,left
10.059,0.5824230468509528,-0.008420730521162215,0.2926816103300439,-0.6366829598568579,-0.9131972255858509,0.8972674613393954,0.02940508640805458,-0.31783435587376396,0.28797754690530447,1,left
10.064,0.577782251198668,-0.01006556267924363,0.2893082695684159,-0.5974939018216402,-1.0586057080783287,0.9181784382805523,0.0564409843214159,-0.3226638009923474,0.23610212683551138,1,left
10.066,0.5731287259785864,-0.011470744809501355,0.28595525022035007,-0.5593383252542615,-1.2034750385087338,0.937891097834417,0.08340871497015667,-0.3273460830291398,0.18420320614801527,1,left
10.07,0.5684682627544395,-0.012636743186537831,0.2826235772242093,-0.5222217739538849,-1.3477475083283426,0.9564154536402333,0.11028911519076597,-0.33189172347772866,0.1323080358627204,1,left
10.07,0.5638066532091676,-0.013564053027461354,0.279314190148198,-0.4861490394632952,-1.4913663987320915,0.973763400817447,0.1370630551565767,-0.33631156735743933,0.0804438432240329,1,left
10.073,0.5591496817128957,-0.014253199184305001,0.27602794740906766,-0.4511241829044709,-1.6342759798611135,0.9899486542182147,0.16371145835481402,-0.34061674692479804,0.028637815309599805,1,left
10.074,0.5545031178157809,-0.014704737064944342,0.2727656305239778,-0.4171505530121076,-1.776421509362519,1.0049866813867092,0.19021532261623944,-0.3448186433312708,-0.02308291880096298,1,left
10.078,0.5498727087012379,-0.01491925377508852,0.26952794836912264,-0.3842308002614717,-1.9177492307188861,1.018894630275089,0.2165557422300923,-0.34892884629282517,-0.07469130738247734,1,left
10.079,0.5452641716360196,-0.014897369472943378,0.2663155414213609,-0.35236688698997626,-2.0582063717578762,1.031691251762658,0.24271393095580393,-0.35295911210066866,-0.1261603967116468,1,left
10.08,0.5406831864497443,-0.014639738928813914,0.26312898596210377,-0.32156009341488656,-2.1977411437502123,1.0433968170214554,0.2686712453449912,-0.356921320777663,-0.17746335219690046,1,left
10.082,0.5361353880752239,-0.01414705328269128,0.25996879822549945,-0.29181101945259047,-2.3363027415019,1.054033029768269,0.2944092075659027,-0.3608274334487845,-0.22857347886262402,1,left
10.083,0.5316263591886908,-0.013420041992491274,0.256835438473436,-0.26311958224789994,-2.473841344844075,1.0636229334398761,0.31990952714283105,-0.36468945072963693,-0.27946424037841844,1,left
10.087,0.5271616229987676,-0.0124594749646962,0.25372931497825857,-0.23548500932488464,-2.610308121921212,1.0721908133251874,0.3451541214199837,-0.36851937246138644,-0.33010927639784426,1,left
10.089,0.5227466362352928,-0.01126616485872369,0.25065078789268674,-0.20890582727377666,-2.7456552346756484,1.079762093684897,0.3701251347795386,-0.37232915885619244,-0.38048241828961055,1,left
10.093,0.5183867823841585,-0.009840969556090456,0.24760017298683948,-0.18337984600495016,-2.879835846781182,1.0863632300240111,0.3948049566871005,-0.37613069306425506,-0.43055770340734634,1,left
10.095,0.5140873652053226,-0.008184794784817442,0.24457774523514209,-0.15890413917115404,-3.0128041335642957,1.0920215973685412,0.41917623863704123,-0.37993574517350726,-0.48030938804338846,1,left
10.096,0.5098536025603929,-0.0062985968886074975,0.2415837422405194,-0.13547502238305956,-3.1445152921682427,1.0967653766347225,0.4432219100694212,-0.38375593765292126,-0.5297119592112381,1,left
10.097999999999999,0.5056906205694768,-0.00418338572851154,0.23861836748751566,-0.11308803141334939,-3.27492554950072,1.1006234418651781,0.466925193329352,-0.3876027122503754,-0.5787401454004848,1,left
10.099,0.5016034481183365,-0.0018402277011821963,0.23568179341893206,-0.09173790202044865,-3.403992166213546,1.1036252504148958,0.49026961773877786,-0.39148729835603774,-0.6273689264470632,1,left
10.102,0.49759701174032867,0.0007297511466531122,0.23277416433367798,-0.07141855200515183,-3.5316734362392292,1.1058007369273253,0.5132390328497142,-0.3954206828422657,-0.6755735426607129,1,left
10.103,0.49367613089488716,0.003525361931012176,0.2298955991080151,-0.052123065549250114,-3.657928682116734,1.1071802112495164,0.5358176209470022,-0.3994135813910959,-0.7233295033504288,1,left
10.107000000000001,0.48984551365416235,0.00654534969535128,0.22704619374812765,-0.03384367977481292,-3.78271824647713,1.1077942602949822,0.5579899088676078,-0.40347641132050743,-0.7706125948875471,1,left
10.107999999999999,0.4861097527948822,0.00978839015187415,0.2242260237876841,-0.016571773465736635,-3.9060034800558285,1.1076736538606042,0.5797407792024134,-0.4076192659207822,-0.8173988884448943,1,left
10.112,0.48247332227677575,0.013253086424838004,0.22143514654728383,-0.0002978578961130387,-4.0277467265940246,1.1068492544016073,0.6010554809453348,-0.4118518903124536,-0.8636647475491366,1,left
10.112,0.47894057407576907,0.016937965822205768,0.2186736032725243,0.014988430287113039,-4.1479113049877405,1.1053519307664357,0.6219196396534221,-0.4161836588375383,-0.9093868355821091,1,left
10.119,0.47551573533304664,0.020841476661682526,0.21594142116511175,0.029298334176834768,-4.266461489038567,1.1032124758912492,0.6423192671804002,-0.4206235539959716,-0.9545421233654792,1,left
10.12,0.47220290578115487,0.02496198517487082,0.21323861531671884,0.04264397976059609,-4.3833624851557405,1.1004615284517367,0.6622407710448478,-0.4251801469394285,-0.9991078969616023,1,left
10.121,0.46900605541442614,0.029297772510204132,0.21056519054789036,0.05503837716146387,-4.498580408354705,1.097129498468014,0.6816709634929226,-0.4298615795349903,-1.0430617658218706,1,left
10.122,0.4659290223803377,0.03384703185227857,0.20792114314700758,0.06649542000609403,-4.612082256892618,1.0932464968565243,0.7005970703142057,-0.4346755480114338,-1.0863816714122219,1,left
10.127,0.46297551107752555,0.03860786567157968,0.20530646249971074,0.07702988295835833,-4.723835885876583,1.088842268921105,0.719006739467867,-0.439629288201247,-1.1290458964437855,1,left
10.128,0.46014909045256613,0.0435782831144886,0.2027211325977423,0.08665741745416732,-4.833809980175497,1.083946131773714,0.73688804957494,-0.4447295623918379,-1.1710330748348907,1,left
10.131,0.45745319249104,0.04875619754009677,0.2001651334179901,0.09539454567043447,-4.94197402696153,1.0785869156737242,0.7542295183310507,-0.44998264779978164,-1.2123222025288298,1,left
10.133,0.454891110899027,0.0541394242079631,0.19763844216610058,0.10325865275847791,-5.048298288202201,1.0727929092731951,0.7710201108924604,-0.4553943266823506,-1.2528926492898995,1,left
10.136000000000001,0.4524659999676355,0.059725678118560076,0.19514103438233762,0.1102679773695527,-5.152753773418897,1.0665918087541215,0.7872492482867653,-0.46096987810099294,-1.292724171598289,1,left
10.136000000000001,0.4501808736041109,0.06551257200578846,0.19267288491117887,0.11644160049765033,-5.255312213022514,1.0600106708423234,0.8029068158980477,-0.4667140713518628,-1.3317969267623844,1,left
10.142000000000001,0.44803860449978544,0.07149761447973442,0.19023396874178977,0.12179943266219662,-5.355946032531596,1.0530758696813918,0.81798317207469,-0.4726311610789597,-1.3700914883649946,1,left
10.142999999999999,0.4460419233911598,0.07767820831855186,0.18782426173296607,0.12636219945082466,-5.45462832797297,1.0458130575489353,0.8324691569064525,-0.47872488408590486,-1.407588863157881,1,left
10.147,0.4441934183609579,0.084051648910706,0.18544374124165394,0.13015142544000108,-5.551332842759459,1.038247129396278,0.8463561011961096,-0.4849984578346536,-1.4442705094615915,1,left
10.148,0.4424955341260954,0.09061512285222481,0.18309238667684555,0.1331894165089418,-5.646033946333705,1.0304021911917407,0.8596358355509447,-0.491454580478883,-1.480118356849364,1,left
10.149,0.4409505712677303,0.09736570670756887,0.1807701800003447,0.13549924055997145,-5.738706614861516,1.0223015320466962,0.872300699340729,-0.498095432026401,-1.5151148263947531,1,left
10.151,0.4395606853653925,0.10430036594609822,0.1784771061973734,0.13710470665625957,-5.829326414252519,1.013967600102718,0.8843435491687671,-0.5049226760843818,-1.5492428504842948,1,left
10.152000000000001,0.4383278859966665,0.11141595406796667,0.17621315374659097,0.1380303425857109,-5.917869485780086,1.0054219821573325,0.8957577665991675,-0.5119374617828117,-1.5824858914701316,1,left
10.156,0.43725403556121945,0.1187092119344085,0.1739783151268791,0.13830137085769667,-6.0043125345667185,0.9966853870051526,0.9065372650587178,-0.5191404257259602,-1.6148279589318875,1,left
10.156,0.43634084788879546,0.12617676731900132,0.17177258740428214,0.13794368313729144,-6.08863282119517,0.9877776324705013,0.9166764959282829,-0.5265316939632793,-1.646253625590593,1,left
10.162,0.4355898865934905,0.13381513469921297,0.1695959729482626,0.13698381311972915,-6.1708081566996125,0.9787176361070156,0.9261704538565015,-0.5341108839998855,-1.676748041970134,1,left
10.163,0.4350025631396527,0.14162071531185624,0.16744848032663645,0.13544890784591268,-6.250816901185116,0.9695234095391789,0.9350146813267363,-0.5418771068673164,-1.7062969498990894,1,left
10.163,0.4345801345913006,0.14958979750055315,0.16533012541316486,0.13336669748220945,-6.328637966226879,0.9602120563878214,0.9432052725063936,-0.5498289692757931,-1.7348866949432127,1,left
10.166,0.4343237010284814,0.15771855738416368,0.16324093271503715,0.13076546370705047,-6.404250820740696,0.9507997735591206,0.9507388764058777,-0.5579645758697607,-1.7625042378561226,1,left
10.167,0.43423420262737744,0.1660030598705387,0.1611809369059879,0.1276740070630252,-6.4776354991931155,0.9413018553845444,0.9576126993725773,-0.566281531609015,-1.7891371651330654,1,left
10.17,0.4343124164142058,0.1744392600318605,0.1591501845414702,0.12412161375260694,-6.548772610559683,0.9317326999367663,0.9638245069434075,-0.5747769442982522,-1.8147736987498453,1,left
10.171,0.4345589527163145,0.18302300484872386,0.15714873593113002,0.12013802223313996,-6.617643346887111,0.9221058170083657,0.9693726250775421,-0.5834474272884108,-1.839402705166238,1,left
10.175,0.4349742513455328,0.1917500353210195,0.15517666714879386,0.1157533897474871,-6.684229491125603,0.9124338375315776,0.9742559407890786,-0.5922891023736898,-1.8630137036703718,1,left
10.176,0.43555857755620364,0.20061598893451987,0.15323407216960744,0.11099825880439958,-6.748513424344906,0.9027285243792238,0.9784739021974782,-0.6012976029086415,-1.8855968741376958,1,left
10.181000000000001,0.4363120178242029,0.2096164024618621,0.1513210651327858,0.10590352359723025,-6.810478132531887,0.8930007845191931,0.9820265180117149,-0.6104680771702401,-1.9071430642752676,1,left
10.182,0.4372344754956789,0.21874671506487514,0.1494377827335879,0.10050039634846027,-6.870107213160884,0.8832606824947151,0.9849143564621617,-0.6197951919903139,-1.9276437964191682,1,left
10.185,0.43832566635545656,0.22800227165413214,0.14758438674932253,0.09482037356644527,-6.927384881721469,0.8735174552025676,0.9871385436923314,-0.6292731366842109,-1.947091273949899,1,left
10.186,0.43958511416473894,0.23737832645505602,0.1457610667012017,0.08889520219981267,-6.982295978381597,0.8637795279412938,0.9887007616206784,-0.6388956273020313,-1.9654783873876367,1,left
10.19,0.44101214621619733,0.24687004672900903,0.14396804264823912,0.08275684567405613,-7.034825974957389,0.8540545317014699,0.9896032452807606,-0.6486559112292073,-1.9827987202262265,1,left
10.191,0.4426058889517637,0.2564725166007557,0.14220556810404522,0.07643744979407832,-7.084960982354082,0.844349321670052,0.9898487796461531,-0.6585467721636455,-1.9990465545617624,1,left
10.196,0.44436526368463675,0.2661807409496088,0.14047393306280243,0.06996930849572962,-7.13268775863585,0.8346699969208415,0.9894406959446078,-0.6685605354970601,-2.0142168765685633,1,left
10.197000000000001,0.44628898246393534,0.27598964933054176,0.13877346711579971,0.06338482942877766,-7.177993717875364,0.8250219212631497,0.9883828674640571,-0.6786890741285184,-2.02830538187229,1,left
10.201,0.4483755441197112,0.28589409990210185,0.13710454263457153,0.05671649935322386,-7.2208669399271015,0.815409745220792,0.9866797048511743,-0.6889238147385989,-2.0413084808668676,1,left
10.202,0.4506232305270961,0.2958888833479897,0.1354675779913744,0.049996849330455215,-7.261296181261466,0.8058374291136192,0.9843361509013254,-0.6992557445529075,-2.0532233040187835,1,left
10.204,0.4530301031300947,0.3059687267877014,0.13386304078318798,0.043258419690385866,-7.299270886989869,0.7963082672138772,0.9813576748368861,-0.7096754186240342,-2.064047707199227,1,left
10.204,0.455593999767507,0.31612829767831696,0.13229145102254591,0.03653372475550226,-7.334781204203884,0.7868249129497915,0.9777502660690375,-0.720172967661329,-2.073780277081419,1,left
10.209,0.45831253184505644,0.32636220771406566,0.13075338425633246,0.02985521730257823,-7.367817996744618,0.7773894051288861,0.9735204274363243,-0.7307381064381591,-2.0824203366373504,1,left
10.21,0.4611830818993126,0.336665016732293,0.1292494745699215,0.02325525274277229,-7.398372861511349,0.7680031951536662,0.9686751679114288,-0.741360142806559,-2.089967950765032,1,left
10.215,0.4642028016019067,0.3470312366336337,0.12778041742851104,0.01676605300085877,-7.426438146411434,0.7586671752024264,0.963221994765813,-0.7520279873494087,-2.0964239320742015,1,left
10.215,0.46736861025643833,0.3574553353215031,0.1263469723031711,0.010419670074476962,-7.452006970046381,0.749381707348082,0.9571689051868663,-0.7627301637045507,-2.1017898468380376,1,left
10.216000000000001,0.47067719384169926,0.3679317406639057,0.12494996503005237,0.004247949254507681,-7.47507324322182,0.7401466535880602,0.9505243773742953,-0.7734548196158458,-2.1060680210288703,1,left
10.22,0.47412500465194907,0.3784548444798327,0.1235902898572012,-0.0017175080119953931,-7.495631692362014,0.7309614067584349,0.9432973612017083,-0.7841897388030574,-2.109261546197219,1,left
10.221,0.47770826158408725,0.38901900654979155,0.12226891113725438,-0.007445381634482546,-7.5136778849023305,0.7218249223056269,0.9354972685614904,-0.7949223537629784,-2.1113742848639565,1,left
10.225,0.4814229511277261,0.3996185586430376,0.12098686462152798,-0.012904670784854612,-7.5292082567259255,0.7127357508891398,0.9271339634755031,-0.8056397595938519,-2.112410875178672,1,left
10.226,0.4852648291215702,0.4102478085460206,0.11974525830719522,-0.018064732213749046,-7.542220141703688,0.7036920717889433,0.9182177519915052,-0.8163287288984081,-2.112376734749731,1,left
10.23,0.48922942333988634,0.4209010440715445,0.11854527279049303,-0.022895318972577936,-7.552711803328793,0.6946917270748871,0.9087593718496827,-0.8269757278004006,-2.1112780636348267,1,left
10.231,0.4933120369654038,0.4315725370288358,0.11738816108552864,-0.027366619431082324,-7.560682468127443,0.6857322564138382,0.8987699818952856,-0.8375669331054072,-2.1091218464950154,1,left
10.232000000000001,0.4975077529945442,0.44225654714076384,0.11627524787760164,-0.03144929629052958,-7.566132359975632,0.6768109322430717,0.8882611512117792,-0.8480882506365706,-2.1059158539121494,1,left
10.234,0.5018114396139156,0.4529473258985083,0.11520792818743868,-0.03511452518685771,-7.569062734142029,0.6679247949567437,0.8772448479473638,-0.8585253347758348,-2.1016686428665667,1,left
10.235,0.5062177565857421,0.4636391203401555,0.1141876654256395,-0.03833403258191652,-7.5694759101723506,0.6590706878342174,0.8657334278061899,-0.8688636092410743,-2.0963895563688633,1,left
10.241,0.510721162679779,0.4743261767332399,0.11321598881764897,-0.041080132828619484,-7.56737530326785,0.6502452915864125,0.8537396221741061,-0.8790882891293071,-2.090088722236549,1,left
10.242,0.5153159241867886,0.48500274413935873,0.11229449018149613,-0.04332576439949912,-7.562765454105855,0.641445158478281,0.84127652584732,-0.8891844042559462,-2.082777051003412,1,left
10.244000000000002,0.5199961245447557,0.49566307784184105,0.11142482004276433,-0.045044525287854985,-7.555652057103545,0.6326667460019634,0.8283575843309283,-0.899136823819755,-2.074466232946447,1,left
10.245,0.5247556751033934,0.5063014426227187,0.11060868307358594,-0.04621070758932491,-7.546041987118939,0.6239064500752673,0.8149965806728917,-0.9089302824228476,-2.065168734212272,1,left
10.248,0.5295883270425864,0.5169121158819255,0.10984783284624514,-0.04679933127027363,-7.53394332457587,0.6151606377401801,0.8012076217976782,-0.9185494074747056,-2.0548977920220475,1,left
10.249,0.5344876844456948,0.5274893905992045,0.10914406589732685,-0.04678617712788101,-7.519365378992522,0.6064256793361882,0.7870051243024949,-0.9279787480087677,-2.0436674089310576,1,left
10.254000000000001,0.5394472185114366,0.5380275781471969,0.10849921510395007,-0.046147818945226314,-7.502318710885946,0.5976979801232314,0.7724037996777515,-0.9372028049396942,-2.0314923461162704,1,left
10.255,0.5444602828704108,0.548521010972012,0.10791514237862004,-0.04486165484300709,-7.482815152017805,0.5889740113291588,0.7574186389121791,-0.9462060627889061,-2.0183881156623995,1,left
10.258,0.5495201299541318,0.5589640451643647,0.10739373069392341,-0.04290593782780455,-7.4608678239395045,0.580250340596585,0.7420648964418335,-0.9549730229054523,-2.004370971814239,1,left
10.259,0.554619928345721,0.5693510629494214,0.10693687545401592,-0.040259805535012974,-7.436491154787768,0.5715236618040677,0.7263580734010701,-0.9634882382086727,-1.9894579011603288,1,left
10.265,0.5597527810235705,0.5796764751261401,0.1065464752387268,-0.03690330916269133,-7.409700894274637,0.562790824236537,0.710313900132474,-0.9717363494784834,-1.9736666117103405,1,left
10.265999999999998,0.5649117443934225,0.5899347234872065,0.10622442195851899,-0.03281744159067414,-7.380514126808902,0.5540488610799088,0.6939483179116742,-0.979702123218439,-1.957015520825952,1,left
10.267999999999999,0.5700898479898012,0.6001202832502421,0.10597259047188255,-0.027984164677296853,-7.348949282678946,0.5452950172148057,0.6772774598419509,-0.987370491116001,-1.9395237419624105,1,left
10.269,0.57528011471324,0.610227665531145,0.10579282773011635,-0.02238643572405246,-7.315026147220102,0.5365267762842928,0.6603176308725818,-0.9947265911236726,-1.921211070175456,1,left
10.275,0.580475581455574,0.6202514198907053,0.10568694152988435,-0.016008233096402962,-7.278765867882698,0.5277418870105081,0.6430852868939475,-1.0017558101838513,-1.9020979663458153,1,left
10.276,0.585669319954496,0.6301861369850544,0.10565668896957993,-0.008834580986824235,-7.240190959110162,0.5189383887350355,0.6255970128615406,-1.008443828619398,-1.8822055400710556,1,left
10.277000000000001,0.5908544577125157,0.6400264513490836,0.10570376471734583,-0.0008515733039690132,-7.199325304929781,0.5101146361578262,0.6078694999001911,-1.0147766662110203,-1.8615555311722403,1,left
10.277999999999999,0.5960241988128913,0.6497670443400277,0.10582978920701082,0.007953603330407172,-7.156194159152003,0.501269323249427,0.5899195213390431,-1.0207407299816358,-1.8401702897605217,1,left
10.284,0.6011718444675291,0.6594026472661227,0.10603629688206546,0.017592647497395007,-7.110824143067499,0.492401506311224,0.571763907672654,-1.0263228636274282,-1.8180727548378428,1,left
10.285,0.6062908131481143,0.6689280447233269,0.10632472459985261,0.028076121832716017,-7.063243240524662,0.483510626158348,0.5534195206707943,-1.0315103981369593,-1.795286431560114,1,left
10.285,0.6113746601810618,0.6783380781621009,0.10669640028947265,0.03941343283966292,-7.013480790263689,0.4745965293998313,0.5349032272690842,-1.0362912024234363,-1.7718353675705603,1,left
10.288,0.6164170967053023,0.6876276497052816,0.10715253194466083,0.05161281169090888,-6.9615674753769685,0.4656594887905392,0.5162318740999009,-1.040653732396803,-1.747744128965262,1,left
10.289000000000001,0.6214120078824892,0.6967917262364796,0.10769419703748759,0.0646812960493221,-6.9075353097591545,0.4567002226293341,0.4974222632945588,-1.044587077298527,-1.7230377762945643,1,left
10.292,0.6263534702291176,0.7058253437777829,0.10832233244787723,0.07862471294037263,-6.851417621404037,0.447719913177866,0.47849112977707636,-1.048081002835989,-1.6977418407206768,1,left
10.293,0.6312357679321285,0.7147236121775596,0.10903772500385028,0.09344766271119197,-6.793249032399134,0.43872022407431727,0.45945512004150213,-1.0511259910495179,-1.6718823002935788,1,left
10.298,0.6360534080164243,0.7234817201327959,0.10984100271860918,0.10915350411554169,-6.73306543555297,0.42970331671316,0.44033077235880247,-1.0537132769233466,-1.6454855562743143,1,left
10.299000000000001,0.6408011342513664,0.7320949405731882,0.11073262679647129,0.12574434057496375,-6.670903968034436,0.42067186554590447,0.4211344983589626,-1.0558348817505072,-1.6185784094330593,1,left
10.3,0.6454739397099063,0.7405586364356891,0.11171288446285167,0.14322100768422008,-6.606802983208587,0.41162907222891465,0.4018825659336517,-1.0574836432603942,-1.5911880362477369,1,left
10.302,0.6500670779138674,0.7488682668604321,0.11278188266154907,0.1615830620401686,-6.540802022297899,0.4025786785282963,0.38259108340454756,-1.058653242516409,-1.5633419649274012,1,left
10.302999999999999,0.6545760725028028,0.7570193938437092,0.11393954265873152,0.1808287714672563,-6.472941787041859,0.39352497790784596,0.3632759849022099,-1.0593382275897674,-1.535068051183155,1,left
10.307,0.6589967253640243,0.7650076893908201,0.1151855955900576,0.20095510670004185,-6.403264113711401,0.3844728257548619,0.34395301690023233,-1.0595340340141908,-1.5063944536679748,1,left
10.309000000000001,0.6633251231717634,0.7728289432201381,0.11651957897986732,0.22195773457719425,-6.331811948378732,0.3754276482146221,0.3246377258492871,-1.0592370020248325,-1.477349609005508,1,left
10.312999999999999,0.6675576423028625,0.7804790710784146,0.11794083425173878,0.24383101280224864,-6.25862932324772,0.3663954496075308,0.30534544685560944,-1.058444390583394,-1.4479622063266788,1,left
10.314,0.671690952119531,0.7879541237340927,0.11944850524133245,0.2665679863289277,-6.183761333844767,0.3573828184029411,0.2860912933484462,-1.0571543881899867,-1.4182611612317957,1,left
10.317,0.6757220166365341,0.7952502967171381,0.12104153771572647,0.2901603854313513,-6.107254116864978,0.34839693172368236,0.2668901476810127,-1.055366120480881,-1.3882755890947809,1,left
10.318,0.6796480946236956,0.8023639408679473,0.12271867989446769,0.3145986255219558,-6.029154828463524,0.33944555835535845,0.24775665260957055,-1.0530796546098606,-1.3580347776251622,1,left
10.322000000000001,0.6834667382373867,0.8092915737431088,0.12447848394949766,0.33987180878242174,-5.949511622777179,0.3305370602345426,0.22870520359534446,-1.0502960004094741,-1.3275681586025698,1,left
10.323,0.687175790327104,0.816029891901393,0.1263193084320242,0.3659677276753656,-5.8683736304563965,0.32168039239007107,0.20974994187415133,-1.0470171083270483,-1.296905278697656,1,left
10.327,0.6907733806196894,0.8225757840579859,0.12823932154075215,0.39287287040697455,-5.785790936983629,0.31288510131173886,0.19090474823880646,-1.0432458641288958,-1.2660757692926314,1,left
10.328,0.6942579210296883,0.8289263450487852,0.13023650511568158,0.4205724284131624,-5.701814560549233,0.30416132172082444,0.17218323747960773,-1.0389860803647255,-1.2351093152139558,1,left
10.332,0.6976281003626942,0.8350788904918568,0.13230865921428264,0.44905030594418377,-5.616496429251958,0.29551977171702215,0.15359875342847457,-1.0342424845828415,-1.2040356222891642,1,left
10.333,0.7008828786604671,0.8410309719716662,0.13445340708850728,0.47828913182496624,-5.529889357386894,0.28697174627653693,0.13516436455263336,-1.029020704285305,-1.1728843836393246,1,left
10.337,0.7040214813811981,0.846780392502866,0.13666820031969956,0.5082702734706985,-5.442047020579769,0.2785291090763032,0.11689286004409645,-1.023327248610833,-1.141685244618234,1,left
10.338,0.7070433935148484,0.8523252219543873,0.13895032379801636,0.5389738532394479,-5.353023929522582,0.2702042826195283,0.09879674635157429,-1.0171694867318184,-1.1104677663091507,1,left
10.342,0.7099483536031059,0.8576638120379425,0.1412969001952271,0.5703787672057609,-5.262875402061921,0.26201023663802914,0.08088824410189163,-1.0105556229504848,-1.0792613874896355,1,left
10.343,0.7127363474786441,0.8627948104070362,0.14370489362509975,0.6024627064413325,-5.171657533387705,0.2539604747471351,0.06317928535844526,-1.0034946684778354,-1.0480953849749413,1,left
