time,gFx,gFy,gFz,ax,ay,az,wx,wy,wz,subject_number,foot
5.506,-0.39376828077809384,0.9958367132371154,-0.03209492430337014,-2.3177833295477615,0.897273689575495,0.5489217356593593,0.011746368007798921,0.23412130983304952,0.23032319798069092,2,right
5.507000000000001,-0.38905001128630295,0.9949196910977616,-0.03267422282401906,-2.3140547522587602,0.8921802878162645,0.5442285906988721,0.0135506057614892,0.23209579306706823,0.24459154883648038,2,right
5.511,-0.3842867834712934,0.9939991023871501,-0.03323026933800772,-2.3097739981304235,0.8868116598983656,0.5392751462451927,0.015280746441537343,0.22993461272256324,0.25873879704634073,2,right
5.5120000000000005,-0.3794795295736086,0.9930749665150173,-0.03376288529009871,-2.3049292983475063,0.881185928574577,0.5340669451947568,0.016937550421955945,0.2276387463501828,0.27275503346326535,2,right
5.5120000000000005,-0.37462925152703364,0.9921473298535208,-0.03427194777449601,-2.2995101091097743,0.8753198600824921,0.5286097502677529,0.018521835247397703,0.22520935364241865,0.2866306626822657,2,right
5.513999999999999,-0.3697370216842524,0.9912162662516684,-0.03475738988312668,-2.2935070530561403,0.8692289314461291,0.5229095500032245,0.020034474981911767,0.22264777028813176,0.3003564010106402,2,right
5.513999999999999,-0.3648039831453096,0.9902818773167228,-0.03521920086236036,-2.2869118614340813,0.8629273975716074,0.5169725640444831,0.02147639940252411,0.21995550191997842,0.3139232739603628,2,right
5.518,-0.3598313497003175,0.9893442924676815,-0.035657426062132076,-2.2797173181345376,0.8564283569580708,0.5108052475507464,0.0228485930421951,0.21713421814776035,0.3273226133024319,2,right
5.519,-0.354820405405534,0.9884036687706381,-0.03607216667179328,-2.271917205764339,0.8497438158127232,0.5044142946939023,0.024152094086501583,0.21418574667034335,0.3405460537225921,2,right
5.524,-0.34977250381882763,0.9874601905711498,-0.03646357925133442,-2.2635062537371957,0.8428847505519033,0.4978066412233585,0.025387993128187982,0.21111206745841438,0.3535855291173817,2,right
5.525,-0.3446890669263711,0.9865140689441125,-0.036831875079504264,-2.2544800883625626,0.835861168669552,0.4909894660812736,0.02655743178353048,0.2079153069999755,0.36643326856898295,2,right
5.53,-0.3395715837974724,0.9855655409859156,-0.037177319345324915,-2.2448351849099746,0.8286821679538947,0.48397019204982605,0.0276616011742613,0.20459773260010944,0.3790817920368436,2,right
5.53,-0.33442160900892487,0.9846148689762457,-0.037500230205044324,-2.2345688216246646,0.8213559940326571,0.4767564854115542,0.028701740278605985,0.2011617467261909,0.3915239058035128,2,right
5.5329999999999995,-0.32924076088293336,0.9836623394381467,-0.037800977718444956,-2.2236790356685385,0.8138900962266542,0.4693562546031996,0.029679134154795665,0.19760988138936536,0.403752697711583,2,right
5.534,-0.3240307195824591,0.9827082621247978,-0.03807998267215386,-2.2121645809587873,0.8062911816911494,0.46177764784290504,0.030595112040228998,0.19394479255277045,0.4157615322280584,2,right
5.537999999999999,-0.3187932251055482,0.9817529689595311,-0.0383377152939078,-2.200024887874642,0.798565267823953,0.4540290497100624,0.0314510453292746,0.19016925455663344,0.4275440453718773,2,right
5.539,-0.31353007521762255,0.9807968129516745,-0.038574693860092796,-2.1872600248009855,0.7907177329188264,0.44611907665656786,0.032248345432524576,0.18628615455004852,0.4390941395397048,2,right
5.544,-0.308243123359274,0.9798401671056151,-0.038791483198729486,-2.1738706614757426,0.7827533650423768,0.43805657142773113,0.032988461520133544,0.1822984869189099,0.4504059782644802,2,right
5.545,-0.30293427656749466,0.9788834233356416,-0.03898869308961551,-2.1598580341061715,0.7746764091122565,0.4298505963705993,0.03367287815170497,0.1782093476991614,0.46147398094055353,2,right
5.55,-0.29760549345007004,0.9779269913953479,-0.03916697656144498,-2.1452239122173906,0.7664906121541374,0.42151042560698865,0.03430311279501844,0.1740219289642137,0.4722928175485798,2,right
5.55,-0.29225878225499696,0.9769712978267162,-0.0393270280838674,-2.129970567194681,0.7581992667145873,0.4130455360480849,0.034880713235727175,0.16973951317508026,0.48285740341265415,2,right
5.553,-0.2868961990772564,0.9760167849297571,-0.039469581653155256,-2.114100742479308,0.7498052524066544,0.40446559722705655,0.035407254879995256,0.16536546748149203,0.4931628940214717,2,right
5.553,-0.28151984624144577,0.975063909749128,-0.039595408773533604,-2.0976176253758303,0.7413110755646516,0.39578045992574357,0.03588433795188829,0.16090323796196845,0.5032046799445818,2,right
5.558,-0.27613187089048996,0.9741131430700442,-0.03970531633888816,-2.0805248204270876,0.7327189069843256,0.3870001435711242,0.036313584587180314,0.15635634379055013,0.5129783818740747,2,right
5.559,-0.2707344637998708,0.9731649684126252,-0.03980014441877325,-2.062826324311274,0.7240306177243075,0.3781348223769342,0.03669663582509291,0.15172837131763459,0.5224798458212955,2,right
5.564,-0.26532985842460666,0.9722198810117979,-0.039880763949545206,-2.044526502213764,0.715247812944443,0.3691948102055087,0.03703514849934065,0.14702296805210446,0.531705138497423,2,right
5.564,-0.2599203301735679,0.971278386768334,-0.03994807432778312,-2.0256300656245902,0.7063718637563255,0.3601905441246466,0.03733079202971943,0.1422438365316934,0.5406505429059835,2,right
5.568,-0.2545081958943625,0.9703410011553256,-0.040003000898559814,-2.006142051510739,0.6974039370610774,0.35113256663405057,0.0375852451153417,0.1373947280683027,0.5493125541745841,2,right
5.569,-0.2490958135426136,0.9694082480642102,-0.04004649232660992,-1.9860678028107077,0.6883450233491493,0.34203150653568354,0.037800192330494635,0.13247943635475953,0.5576878756523611,2,right
5.5729999999999995,-0.24368558200163692,0.9684806585764366,-0.040079517838461996,-1.9654129501970468,0.6791959624366442,0.3328980584221984,0.03797732062397419,0.12750179091929537,0.5657734152988316,2,right
5.5729999999999995,-0.23827994101204653,0.9675587696519179,-0.04010306433125984,-1.944183395050914,0.6699574671124031,0.32374296075744036,0.038118315722629574,0.1224656504138226,0.5735662823890274,2,right
5.574,-0.23288137116584517,0.9666431227330974,-0.040118133356111516,-1.9223852935909886,0.6606301446698345,0.31457697252290245,0.03822485844354578,0.11737489573249522,0.5810637845508199,2,right
5.577999999999999,-0.22749239391754952,0.965734262270945,-0.04012573799310637,-1.9000250420974172,0.6512145162972014,0.30541084840391775,0.03829862093821465,0.11223342300984833,0.5882634251088047,2,right
5.577999999999999,-0.22211557156690012,0.964832734184102,-0.04012689963743846,-1.8771092631800785,0.6417110343338245,0.29625531253397897,0.038341262926198945,0.10704513664302283,0.5951629006349898,2,right
5.579,-0.2167535071711474,0.9639390842654811,-0.040122644713846384,-1.8536447930900983,0.6321200975693592,0.28712103103887526,0.038354427994726346,0.10181394253541315,0.6017600985649728,2,right
5.582000000000001,-0.21140884434514873,0.9630538565543375,-0.040114001335404666,-1.8296386701642406,0.6224420650689894,0.27801858402433605,0.038339740021524654,0.09654374170594203,0.608053094778148,2,right
5.582999999999999,-0.20608426690189832,0.9621775916983116,-0.04010199592633678,-1.805098124541493,0.6126772691770869,0.2689584378742332,0.03829879974386219,0.0912384243126518,0.6140401511129054,2,right
5.587999999999999,-0.20078249827646533,0.9613108253386595,-0.04008764983636891,-1.7800305692382996,0.6028260281816726,0.259950918503122,0.038233181477641286,0.08590186408619085,0.6197197128276278,2,right
5.5889999999999995,-0.19550630066817598,0.9604540865578125,-0.0400719759816984,-1.7544435925750366,0.5928886588158335,0.25100618580499423,0.03814442998650608,0.08053791315806386,0.6250904060255573,2,right
5.591,-0.19025847383347552,0.9596078964272179,-0.0400559755516453,-1.728344951893501,0.5828654886020375,0.24213420931690338,0.038034057500850295,0.07515039726841291,0.6301510350607319,2,right
5.5920000000000005,-0.18504185346630628,0.9587727666863413,-0.04004063482128288,-1.7017425684934193,0.5727568680110452,0.23334474507160924,0.03790354088653997,0.06974311133800778,0.6349005799413009,2,right
5.597,-0.1798593091140126,0.9579491985741385,-0.04002692210932476,-1.674644523714485,0.5625631824068733,0.22464731361356624,0.037754318963099366,0.06431981538904415,0.6393381937456468,2,right
5.598,-0.17471374159284425,0.9571376818239471,-0.040015784915630355,-1.6470590560889722,0.5522848637490162,0.2160511791527904,0.037587789971046094,0.058884230799280964,0.6434632000658494,2,right
5.602,-0.1696080798853586,0.9563386938220648,-0.040008147263687906,-1.6189945594885187,0.5419224020228868,0.2075653298313752,0.03740530918800378,0.0534400368739916,0.6472750904921344,2,right
5.603,-0.16454527752212988,0.9555526989198021,-0.0400049072629355,-1.590459582187247,0.5314763563691942,0.19919845907769157,0.03720818669316643,0.04799086772015698,0.6507735221510521,2,right
5.607,-0.15952830847257535,0.9547801478795426,-0.04000693489649196,-1.5614628267620019,0.5209473658827326,0.19095894802359614,0.03699768527963921,0.042540309407293614,0.6539583153092372,2,right
5.608,-0.1545601625922481,0.9540214774286974,-0.04001507003229356,-1.5320131507491017,0.5103361600508132,0.18285484896028933,0.03677501851413403,0.03709189739928469,0.656829451053697,2,right
5.612,-0.14964384069341594,0.9532771098923467,-0.04003012064882248,-1.5021195679756396,0.4996435688013323,0.17489386980880545,0.036541348943456536,0.031649114241567945,0.6593870690586803,2,right
5.6129999999999995,-0.14478234932075626,0.9525474528757044,-0.040052861260393056,-1.4717912504820636,0.4888705321302308,0.1670833595814825,0.036297786447182366,0.026215387488029925,0.6616314654482732,2,right
5.6160000000000005,-0.1399786953242381,0.951832898970488,-0.040084031522019725,-1.4410375309514494,0.4780181092778621,0.1594302948111469,0.03604538673588546,0.020794087851962236,0.6635630907629734,2,right
5.617000000000001,-0.1352358803255302,0.9511338254640997,-0.04012433499089358,-1.4098679055596104,0.4670874874235558,0.1519412669251594,0.03578514999424962,0.015388527565451596,0.6651825480375873,2,right
5.622000000000001,-0.13055689517158303,0.9504505940368041,-0.04017443802102756,-1.3782920371589382,0.4560799898674289,0.1446224705418997,0.035518019668365854,0.010001958931601227,0.666490590996902,2,right
5.622999999999999,-0.12594471446075425,0.9497835504397991,-0.0402349687688976,-1.3463197587076507,0.44499708366827295,0.13747969266771876,0.03524488139649258,0.004637573054016827,0.6674881223746805,2,right
5.627000000000001,-0.1214022912157379,0.949133024156528,-0.040306516288373145,-1.3139610768549217,0.43384038670611763,0.13051830277285822,0.03496656208253318,-0.0007015012719646328,0.6681761923606326,2,right
5.627999999999999,-0.11693255176488566,0.948499328060153,-0.04038962969170994,-1.281226175591207,0.4226116741378539,0.12374324372532418,0.03468382911146533,-0.006012198521770587,0.6685559971791252,2,right
5.632999999999999,-0.11253839087910328,0.9478827580896196,-0.040484817352411426,-1.248125419871942,0.41131288421408074,0.11715902356220793,0.03439738970593934,-0.011291517273216731,0.6686288778024959,2,right
5.632999999999999,-0.10822266719602608,0.9472835929726687,-0.04059254612989468,-1.2146693591216708,0.3999461234251298,0.11076970807846596,0.034107890423247536,-0.016536520922590205,0.6683963188009526,2,right
5.636,-0.10398819894807666,0.946702094025616,-0.04071324060652331,-1.1808687305245933,0.3885136709440149,0.10457891421370588,0.033815916791854035,-0.021744338300441833,0.6678599473301492,2,right
5.6370000000000005,-0.09983775999709786,0.9461385050582749,-0.04084728233990304,-1.1467344620064648,0.37701798233385203,0.09858980421807237,0.033521993086663426,-0.026912164202247194,0.6670215322566526,2,right
5.641,-0.09577407616597487,0.945593052410532,-0.04099500914141547,-1.112277674811756,0.3654616924871014,0.09280508057888624,0.03322658224219794,-0.032037259848997815,0.6658829834206371,2,right
5.642,-0.09179982184813501,0.9450659451448671,-0.04115671439500989,-1.077509685579001,0.35384761776379503,0.08722698169025879,0.03293008590245055,-0.037116953290181436,0.6644463510331262,2,right
5.642,-0.0879176168708121,0.9445573754142133,-0.04133264643077384,-1.0424420078162981,0.3421787572957302,0.0818572782484823,0.03263284460420054,-0.0421486397490171,0.6627138251985389,2,right
5.646,-0.08413002358731864,0.9440675190167905,-0.04152300796746048,-1.0070863526780018,0.3304582934234381,0.07669727035658343,0.03233513808701884,-0.04712978188722708,0.660687735542172,2,right
5.647,-0.08043954417300851,0.9435965361417514,-0.041727955638783606,-0.9714546289427497,0.3186895912325687,0.07174778532201875,0.032037185721212016,-0.052057909954018836,0.6583705509156929,2,right
5.647,-0.07684861809545156,0.9431445723032621,-0.041947599620809635,-0.9355589421278873,0.30687619717093306,0.06700917614146669,0.03173914704692661,-0.05693062179629096,0.6557648791585706,2,right
5.652,-0.07335961972467116,0.9427117594557612,-0.04218200337897975,-0.8994115928533951,0.29502183680106364,0.062481320714154694,0.031441122421189176,-0.06174558272939308,0.6528734669027877,2,right
5.652,-0.06997485604861847,0.9422982172793654,-0.042431183550145773,-0.8630250748896003,0.28313041187580573,0.05816362191015566,0.031143153771631276,-0.06650052528009616,0.6496991994130424,2,right
5.6579999999999995,-0.06669656445949107,0.9419040546198963,-0.04269510996931784,-0.8264120735010712,0.27120599699809494,0.05405500866757623,0.030845225456043568,-0.07119324881576612,0.6462451004549615,2,right
5.659,-0.0635269105731787,0.9415293710608036,-0.04297370584510572,-0.7895854645194971,0.25925283605218724,0.05015393824628014,0.030547265226902855,-0.07582161907356803,0.6425143321830249,2,right
5.66,-0.060467986039381645,0.9411742585963139,-0.04326684808283655,-0.752558314255702,0.24727533846071406,0.04645839968200132,0.03024914530001615,-0.08038356760335574,0.6385101950390881,2,right
5.6610000000000005,-0.057521806299404524,0.9408388033698462,-0.04357436775136273,-0.7153438801814103,0.23527807524807098,0.0429659184384173,0.029950683526425683,-0.08487709113772338,0.6342361276515871,2,right
5.665,-0.05469030825335759,0.9405230874402178,-0.043896050688821096,-0.6779556122750037,0.22326577487581073,0.03967356224597177,0.02965164466671865,-0.08930025090251022,0.6296957067247159,2,right
5.666,-0.05197534780572283,0.9402271905407924,-0.04423163824211185,-0.6404071549249257,0.21124331881564204,0.036577948116824896,0.029351741766884838,-0.09365117188086011,0.6248926469060809,2,right
5.67,-0.04937869726628239,0.9399511918029144,-0.04458082813437744,-0.6027123492838581,0.19921573682557991,0.03367525052589181,0.029050637634864276,-0.09792804204373962,0.6198308006205617,2,right
5.671,-0.046902042592744775,0.9396951714224999,-0.04494327545641373,-0.5648852359662901,0.18718820189474977,0.03096121074850417,0.028747946416925255,-0.10212911155961765,0.6145141578573421,2,right
5.6739999999999995,-0.04454698047154179,0.9394592122557737,-0.04531859378255909,-0.5269400579816458,0.1751660248223187,0.028431147345793533,0.02844323527301034,-0.10625269199580177,0.6089468458963229,2,right
5.675,-0.04231501524240705,0.9392434013360936,-0.04570635641680864,-0.48889126379470943,0.16315464839601276,0.026079967789448766,0.028136026150184634,-0.11029715552371343,0.6031331289593834,2,right
5.68,-0.040207555680801844,0.9390478313079672,-0.04610609777672481,-0.4507535104047159,0.1511596411356807,0.023902181218040667,0.027825797653315824,-0.11426093414016739,0.5970774077712264,2,right
5.68,-0.03822591166182356,0.9388726017762786,-0.04651731491882048,-0.4125416663341282,0.13918669056737812,0.021891912317634665,0.027511987012109607,-0.11814251891649748,0.5907842190138229,2,right
5.686,-0.03637129073945987,0.938717820568506,-0.046939469200423016,-0.37427081441783094,0.12724159599347973,0.02004291631992541,0.027193992143616796,-0.12194045928714414,0.5842582346577663,2,right
5.686,-0.034644794684395595,0.9385836049070821,-0.04737198806291313,-0.3359562542832118,0.11533026072437258,0.018348595111624445,0.026871173809319783,-0.12565336238908734,0.577504261153146,2,right
5.69,-0.03304741603252755,0.9384700824904725,-0.04781426691409252,-0.29761350441139106,0.10345868373734833,0.016802014449312556,0.026542857865895473,-0.12927989246327246,0.5705272384618757,2,right
5.691,-0.03158003470552262,0.9383773924847438,-0.04826567108636575,-0.25925830366969077,0.09163295072839178,0.0153959222744309,0.02620833760873987,-0.13281877032893674,0.5633322389127366,2,right
5.696000000000001,-0.030243414771882256,0.9383056864301077,-0.04872553785192684,-0.2209066122053083,0.0798592245226607,0.014122768123528608,0.02586687620732544,-0.1362687729414995,0.5559244658597448,2,right
5.697,-0.029038201419183136,0.9382551290684001,-0.04919317848417225,-0.18257461159008068,0.06814373480956608,0.01297472362930844,0.02551770923144662,-0.13962873304443124,0.5483092521238099,2,right
5.7010000000000005,-0.027964918205866097,0.938225899098571,-0.049667880364094905,-0.14427870410618937,0.05649276716849393,0.01194370410841478,0.02516004726739087,-0.14289753892526574,0.5404920581970283,2,right
5.702000000000001,-0.02702396465603773,0.938218189867867,-0.050148909137894056,-0.10603551106266622,0.04491265135135926,0.011021391232289806,0.024793078623052658,-0.14607413428566313,0.5324784701883405,2,right
5.704,-0.026215614252813307,0.9382322100054872,-0.050635510933763526,-0.06786187003261844,0.033409748788350326,0.010199256777782271,0.02441597212098569,-0.14915751823517379,0.5242741974886888,2,right
5.704,-0.025540012873441518,0.9382681840031644,-0.05112691464041897,-0.029774830901194423,0.021990439283406632,0.009468587454529281,0.024027879978364138,-0.15214674541809164,0.5158850701332299,2,right
5.71,-0.02499717769374391,0.9383263527449112,-0.05162233423884238,0.008208349385535912,0.010661106866177742,0.008820510806443032,0.0236279407727968,-0.1550409262825199,0.5073170358375947,2,right
5.711,-0.024586996573358846,0.9384069739872275,-0.05212097116732355,0.04607021348041216,-0.0005718752325680619,0.00824602218492205,0.023215282490256395,-0.15783922749647392,0.4985761566952486,2,right
5.711,-0.024309227920495526,0.9385103227908228,-0.052622016695142756,0.08379311181310262,-0.011702160514876193,0.0077360127916687735,0.022789025638090418,-0.1605408724954223,0.48966860557553493,2,right
5.7139999999999995,-0.024163501027227596,0.9386366919041904,-0.053124654283958406,0.12135921235445957,-0.02272344605251754,0.0072812987556572705,0.022348286382170887,-0.16314514210911593,0.4806006623569662,2,right
5.715,-0.02414931686232896,0.938786392098348,-0.05362806192338311,0.15875051183165984,-0.033629490025770606,0.006872651041130717,0.021892179653939938,-0.1656513751951267,0.4713787101828899,2,right
5.715,-0.02426604930467138,0.9389597524521289,-0.054131414433980375,0.1959488478915104,-0.044414129412623,0.0065008256815176,0.02141982218633289,-0.1680589692263925,0.4620092318731217,2,right
5.72,-0.024512946792372974,0.9391571205892825,-0.05463388573713132,0.23293591150519807,-0.05507129708215764,0.006156593666439042,0.020930335461394067,-0.17036738081606415,0.4524988065291756,2,right
5.72,-0.024889134350610614,0.9393788628712972,-0.05513465109776725,0.26969325911090997,-0.06559503774002877,0.0058307699769873,0.020422848565620363,-0.17257612618282228,0.44285410631722516,2,right
5.724,-0.025393615949162614,0.9396253645520997,-0.055632889351228954,0.3062023243567662,-0.07597952252363145,0.005514241566736984,0.019896500951673796,-0.17468478156357847,0.4330818934018926,2,right
5.725,-0.02602527713296133,0.9398970299029552,-0.05612778512760274,0.34244442950954906,-0.08621906223867272,0.005197994253905243,0.0193504451050549,-0.17669298358019161,0.4231890170035612,2,right
5.729,-0.026782887863026884,0.9401942823184997,-0.05661853108572492,0.3784007966347827,-0.09630811926736378,0.004873138523705296,0.018783849114277284,-0.1786004295665437,0.4131824105515163,2,right
5.73,-0.027665105499614432,0.9405175644163276,-0.057104330163814165,0.41405255865300417,-0.10624131817805285,0.004530934239964616,0.01819589914302949,-0.18040687786203188,0.4030690889048594,2,right
5.734,-0.028670477856239912,0.9408673381410646,-0.05758439784207422,0.44938077037629887,-0.11601345506570222,0.00416281426508011,0.01758580180275363,-0.18211214807724485,0.3928561456127891,2,right
5.736000000000001,-0.029797446253085707,0.9412440848799359,-0.05805796439807649,0.484366419628353,-0.12561950565218108,0.003760406987358266,0.016952786424011445,-0.18371612133730286,0.3825507501855178,2,right
5.74,-0.03104434850000529,0.9416483055920298,-0.05852427712856325,0.5189904385504006,-0.13505463217489846,0.003315557754738761,0.016296107224947003,-0.18521874050805076,0.3721601453467868,2,right
5.7410000000000005,-0.032409421742936,0.9420805209481175,-0.05898260251543404,0.5532337151945127,-0.14431418909183796,0.0028203492138259784,0.015615045375091724,-0.18662001041000195,0.36169164423865613,2,right
5.742999999999999,-0.03389080511316558,0.9425412714724234,-0.05943222832169847,0.5870771055046906,-0.15339372763057982,0.0022671205530548875,0.014908910952691676,-0.18791999802464115,0.35115262754898025,2,right
5.744,-0.03548654212614169,0.9430311176733821,-0.059872465608203154,0.6205014457851897,-0.16228899920840453,0.0016484856486962912,0.014177044793669111,-0.18911883269740268,0.3405505405317358,2,right
5.747999999999999,-0.03719458278627889,0.9435506401476567,-0.06030265066392826,0.6534875657544037,-0.17099595775006907,0.000957350112262346,0.013418820230260252,-0.19021670634134996,0.3298928898901437,2,right
5.749,-0.03901278536837207,0.9441004396397531,-0.0607221468428132,0.6860163022814894,-0.17951076092932927,0.00018692723770717356,0.01263364471729936,-0.19121387364529097,0.319187240492327,2,right
5.752999999999999,-0.04093891786423896,0.9446811370376551,-0.06113034629823009,0.7180685139017127,-0.18782977035975373,-0.0006692471533698902,0.011820961344045307,-0.1921106522897738,0.308441211889062,2,right
5.752999999999999,-0.0429706591018459,0.9452933732829483,-0.061526671603205775,0.7496250962052332,-0.19594955075983353,-0.0016173009705184652,0.010980250229371172,-0.19290742317411708,0.29766247460302364,2,right
5.757999999999999,-0.045105599560605954,0.9459378091727247,-0.06191057724235284,0.7806669981927334,-0.2038668681168407,-0.002663013219455861,0.010111029798060063,-0.19360463065734027,0.2868587461587869,2,right
5.7589999999999995,-0.04734124191958733,0.9466151250314739,-0.06228155096207031,0.811175239689927,-0.21157868687332645,-0.0038118024757831308,0.009212857935871446,-0.19420278281557102,0.2760377868227296,2,right
5.763,-0.04967500138441686,0.9473260202345168,-0.06263911496874588,0.8411309299115604,-0.21908216615957798,-0.005068716470134393,0.008285333020961788,-0.19470245171821954,0.26520739502188917,2,right
5.763,-0.05210420584329142,0.948071212568862,-0.06298282696779328,0.8705152872640433,-0.22637465509477198,-0.006438422787775146,0.007328094829161524,-0.19510427372492356,0.25437540241075485,2,right
5.769,-0.05462609590300547,0.9488514374217093,-0.06331228103850278,0.8993096604743063,-0.23345368717897216,-0.007925200685960613,0.00634082531052726,-0.19540894980498402,0.24354966855492444,2,right
5.77,-0.05723782485393141,0.9496674467928252,-0.06362710834343306,0.9274955511309015,-0.2403169737975212,-0.009532934032674937,0.005323249234503946,-0.19561724588072776,0.2327380752005313,2,right
5.773,-0.059936458610982006,0.9505200081356634,-0.06392697767752777,0.9550546377217195,-0.24696239685877092,-0.01126510537069526,0.004275134700946404,-0.1957299931959534,0.22194852009834004,2,right
5.773,-0.06271897567706897,0.9514099030411185,-0.06421159586902961,0.9819688012510012,-0.2533880005854818,-0.013124791111260168,0.0031962935141634746,-0.19574808871033733,0.21118891035142928,2,right
5.78,-0.06558226717522855,0.9523379257854039,-0.06448070804872093,1.0082201525165762,-0.25959198247960363,-0.01511465786196857,0.0020865814170610503,-0.19567249552039936,0.200467155255419,2,right
5.781000000000001,-0.06852313699283574,0.9533048817700289,-0.06473409780427708,1.033791061126457,-0.26557268347952406,-0.017236959893891724,0.000945898184450885,-0.1955042433071798,0.18979115861602383,2,right
5.782,-0.07153830207485,0.9543115858852617,-0.06497158723296986,1.058664186332069,-0.2713285773282395,-0.01949353775324654,-0.00022581241510489684,-0.195244428809631,0.17916881060759793,2,right
5.782,-0.07462439289415557,0.9553588608263571,-0.0651930369012994,1.0828225096888107,-0.27685825918435797,-0.021885818015226884,-0.0014285627609280694,-0.19489421632088252,0.16860797937828184,2,right
5.7829999999999995,-0.07777795411900928,0.9564475353870648,-0.06539834571720152,1.1062493692292745,-0.28216043357764947,-0.024414814137347023,-0.002662321587049485,-0.19445483820339804,0.15811650268629213,2,right
5.7829999999999995,-0.08099544549299231,0.9575784427528945,-0.06558745072047244,1.1289284942503273,-0.2872339019370251,-0.027081128296916043,-0.003927014226417557,-0.19392759541965435,0.14770217977325006,2,right
5.787000000000001,-0.08427324294087984,0.9587524188194478,-0.06576032679982134,1.1508440394897845,-0.292077549988624,-0.029884954057028793,-0.005222522883475703,-0.19331385807628862,0.13737276353878522,2,right
5.789,-0.08760763991023462,0.9599703005664397,-0.06591698634896773,1.1719806177897245,-0.29669033525058575,-0.03282607974647312,-0.006548686936574597,-0.19261506598027925,0.12713595300205166,2,right
5.792000000000001,-0.09099484894885207,0.9612329245205448,-0.06605747887687913,1.1923233309234682,-0.30107127472361833,-0.035903892512466645,-0.007905303273852115,-0.19183272920564906,0.11699938602025574,2,right
5.792999999999999,-0.09443100350157001,0.9625411253358935,-0.06618189058780852,1.2118577985844685,-0.30521943280536584,-0.03911738304615285,-0.009292126666302268,-0.1909684286689302,0.10697063223453829,2,right
5.797999999999999,-0.09791215988950266,0.9638957345098239,-0.06629034394710315,1.2305701855977986,-0.30913390944182306,-0.04246515098930427,-0.010708870181842401,-0.19002381671138704,0.09705718621382009,2,right
5.797999999999999,-0.10143429941429326,0.9652975792362535,-0.06638299725035328,1.2484472274126448,-0.3128138285283817,-0.04594541103107229,-0.012155205644275337,-0.18900061768575316,0.08726646076750742,2,right
5.8020000000000005,-0.10499333051255601,0.9667474813844358,-0.06646004421536461,1.2654762539318933,-0.31625832657242187,-0.04955599970401204,-0.01363076414112982,-0.18790062854500236,0.0776057803982636,2,right
5.803,-0.10858509087514717,0.9682462565810531,-0.0665217136161051,1.2816452117325372,-0.31946654162869303,-0.053294382888995843,-0.01513513658444846,-0.18672571943044475,0.06808237486638397,2,right
5.807,-0.11220534944613877,0.9697947133700389,-0.06656826897375015,1.2969426847282324,-0.32243760251805315,-0.057157664039008405,-0.01666787432867734,-0.1854778342562115,0.05870337283766407,2,right
5.808,-0.11584980822846382,0.9713936524268908,-0.06660000831295712,1.311357913322897,-0.32517061833945987,-0.061142593132190455,-0.018228489849895297,-0.18415899128697313,0.04947579558702382,2,right
5.812,-0.11951410384524057,0.973043865811184,-0.06661726398285099,1.3248808121017777,-0.32766466828442803,-0.06524557636486414,-0.019816457490703546,-0.18277128370551962,0.0404065507305449,2,right
5.813,-0.12319380883378468,0.9747461362488075,-0.06662040253345194,1.3375019861039075,-0.32991879176248634,-0.06946268659563125,-0.021431214275177763,-0.1813168801666222,0.03150242595899308,2,right
5.818,-0.12688443267810548,0.9765012364399993,-0.06660982463207908,1.3492127457173413,-0.3319319788454829,-0.07378967455198422,-0.023072160798364716,-0.17979802533339273,0.02277008274633212,2,right
5.818,-0.13058142261152716,0.978309928390045,-0.0665859650027687,1.3600051202359977,-0.3337031610379024,-0.07822198081120812,-0.024738662194884083,-0.17821704039215874,0.014216050007190187,2,right
5.821000000000001,-0.13428016424330677,0.9801729627591292,-0.06654929237320868,1.3698718701143475,-0.33523120237966736,-0.08275474856767932,-0.02643004919127286,-0.17657632354168062,0.0058467176777140225,2,right
5.822,-0.13797598208188822,0.9820910782280832,-0.06650030941243484,1.3788064979535721,-0.33651489088720565,-0.08738283719898109,-0.028145619246785013,-0.174878350452353,-0.0023316698052607355,2,right
5.8260000000000005,-0.14166414004201008,0.9840650008769989,-0.06643955263503702,1.3868032582501801,-0.3375529303378691,-0.09210083664355863,-0.029884637787432403,-0.17312567469085363,-0.010313020151282845,2,right
5.827000000000001,-0.14533984203314312,0.9860954435724802,-0.06636759223745921,1.3938571659354115,-0.3383439324020905,-0.09690308260292393,-0.03164633953812431,-0.17132092810553157,-0.018091400013631718,2,right
5.831,-0.14899823273417456,0.9881831053566359,-0.06628503182518768,1.3999640037310863,-0.3388864091269642,-0.10178367258169399,-0.033429929957832415,-0.1694668211676627,-0.025661041960417887,2,right
5.832000000000001,-0.1526343986660537,0.9903286708282245,-0.066192507988079,1.4051203283448563,-0.339178765774229,-0.10673648277900374,-0.03523458678277525,-0.1675661432635433,-0.03301635164235316,2,right
5.836,-0.15624336968056268,0.9925328095053325,-0.06609068968352542,1.4093234755251187,-0.3392192940149222,-0.11175518584507671,-0.03705946168268136,-0.16562176293224232,-0.04015191517952331,2,right
5.837000000000001,-0.1598201209863164,0.9947961751600684,-0.06598027739204418,1.4125715639931251,-0.3390061654822603,-0.1168332695169606,-0.03890368203525315,-0.16363662804369286,-0.04706250678889671,2,right
5.84,-0.16335957582812483,0.9971194051178622,-0.06586200201598504,1.4148634982670911,-0.33853742568358236,-0.1219640561476426,-0.04076635282401394,-0.16161376591166818,-0.053743096673687256,2,right
5.841,-0.16685660891995555,0.999503119515472,-0.06573662350002214,1.4161989703903812,-0.3378109882714682,-0.12714072314294728,-0.04264655866477867,-0.15955628333606348,-0.060188859195058696,2,right
5.846,-0.17030605070522556,1.0019479205121606,-0.06560492916313193,1.4165784605730944,-0.3368246296734158,-0.13235632432079145,-0.044543365962229006,-0.15746736656880025,-0.06639518133465575,2,right
5.847,-0.17370269248731926,1.0044543914487523,-0.06546773174319562,1.416003236753637,-0.3355759840787253,-0.13760381220752002,-0.04645582517904964,-0.15535028119762975,-0.0723576713990054,2,right
5.848,-0.17704129244548464,1.0070230959499638,-0.06532586716341975,1.4144753530841143,-0.33406253878049963,-0.14287606128617927,-0.04838297316579494,-0.15320837194213388,-0.07807216781395136,2,right
5.852,-0.18031658252566762,1.0096545769645018,-0.06518019203586799,1.4119976473406413,-0.33228162986992243,-0.14816589221169552,-0.05032383548062591,-0.15104506235619863,-0.0835347477998157,2,right
5.853,-0.18352327616919217,1.0123493557343222,-0.06503158092365235,1.4085737372859344,-0.33023043828452125,-0.1534660969754353,-0.052277428647179165,-0.14886385443108796,-0.08874173577406333,2,right
5.853,-0.18665607682264887,1.015107930683427,-0.06488092338585032,1.404208016153888,-0.3279059862378704,-0.15876946483877902,-0.05424276233320981,-0.14666832809305272,-0.0936897114297394,2,right
5.856,-0.18970968716833553,1.0179307762203544,-0.06472912082519044,1.3989056476842505,-0.32530513410512635,-0.1640688085621421,-0.05621884145176648,-0.1444621405892812,-0.09837551749400812,2,right
5.856,-0.1926788190148945,1.020818341453092,-0.0645770831529524,1.3926725612778585,-0.3224245778645202,-0.16935699029299328,-0.058204668190508506,-0.14224902575593296,-0.10279626718174366,2,right
5.86,-0.19555820377717822,1.0237710488155891,-0.06442572528337571,1.3855154476951235,-0.31926084716763714,-0.17462694663934292,-0.06019924397480891,-0.1400327931619567,-0.10694935135838085,2,right
5.861000000000001,-0.19834260345748175,1.0267892926013193,-0.06427596347108515,1.3774417554566363,-0.3158103040628126,-0.17987171274841124,-0.0622015713703178,-0.13781732712236222,-0.1108324454254802,2,right
5.867000000000001,-0.20102682202831754,1.029873437394038,-0.06412871151047952,1.3684596879570121,-0.31206914236866273,-0.1850844453730698,-0.06421065593068888,-0.13560658557459737,-0.11444351594170142,2,right
5.869,-0.20360571710961725,1.0330238163816812,-0.06398487682819318,1.3585782012714336,-0.3080333876886533,-0.19025844494118044,-0.06622550799619667,-0.1334045988116713,-0.11778082699111143,2,right
5.87,-0.206074211826113,1.036240729538919,-0.06384535651583959,1.347807002631713,-0.30369889805678546,-0.19538717664288344,-0.06824514444899457,-0.1312154680656684,-0.12084294630997704,2,right
5.871,-0.20842730672355406,1.0395244416678258,-0.06371103336253962,1.3361565495460945,-0.29906136520364396,-0.20046429055079573,-0.07026859043078322,-0.12904336393531052,-0.12362875118241243,2,right
5.876,-0.21066009161886268,1.0428751802915548,-0.06358277195034202,1.3236380495344255,-0.2941163164312038,-0.20548364078796816,-0.072294881028675,-0.12689252465125084,-0.1261374341144659,2,right
5.877999999999999,-0.2127677572645415,1.046293133399968,-0.0634614148719258,1.3102634604477803,-0.2888591170839346,-0.21043930375832212,-0.07432306293505463,-0.12476725417281934,-0.12836850829543953,2,right
5.88,-0.21474560672581058,1.049778447049772,-0.06334777912275386,1.2960454913390898,-0.2832849736028713,-0.215325595454137,-0.07635219608724651,-0.12267192010998923,-0.1303218128544432,2,right
5.881,-0.2165890663998801,1.0533312228276395,-0.06324265271144781,1.2809976038488409,-0.2773889371484343,-0.2201370878549952,-0.07838135529280779,-0.12061095146439477,-0.13199751791938877,2,right
5.885,-0.21829369664505677,1.0569515151933326,-0.06314679152234859,1.2651340140674527,-0.27116590777688737,-0.22486862443240896,-0.08040963184627148,-0.11858883618330467,-0.13339612948483331,2,right
5.886,-0.21985520202487124,1.0606393287277003,-0.06306091645128578,1.2484696948335114,-0.26461063915440847,-0.2295153347741538,-0.08243613514316689,-0.1166101185205412,-0.13451849409428288,2,right
5.89,-0.22126944120084946,1.0643946153137551,-0.06298571081966892,1.2310203784246694,-0.257717743791826,-0.23407264834212047,-0.08445999429714465,-0.11467939619843395,-0.135365803341772,2,right
5.891,-0.22253243652165533,1.0682172712777511,-0.06292181805652276,1.212802559595665,-0.25048169878213083,-0.23853630737726622,-0.086480359766031,-0.1128013173650093,-0.1359395981967386,2,right
5.896,-0.2236403833570207,1.072107134514933,-0.06286983962701263,1.1938334989156294,-0.2428968520219219,-0.24290237896500536,-0.08849640499263117,-0.11098057734074093,-0.1362417731554209,2,right
5.897,-0.2245896592177774,1.0760639816241426,-0.0628303331824677,1.1741312263545838,-0.23495742889697163,-0.2471672662741213,-0.09050732806609404,-0.10922191514932508,-0.13627458022121386,2,right
5.9,-0.2253768326935804,1.0800875250769897,-0.0628038109112518,1.1537145450668338,-0.2266575394111114,-0.2513277189820146,-0.09251235340964017,-0.10753010982709528,-0.13604063271563768,2,right
5.901,-0.22599867222908698,1.0841774104509636,-0.06279073807730756,1.1326030353168028,-0.21799118573663634,-0.2553808428988221,-0.09451073350044312,-0.10590997650585657,-0.1355429089207913,2,right
5.905,-0.22645215474652874,1.088333213760765,-0.06279153173880586,1.110817058490749,-0.20895227016340828,-0.25932410880265166,-0.09650175062743928,-0.10436636226409701,-0.13478475555339045,2,right
5.905,-0.22673447410774186,1.0925544389253041,-0.06280655964327041,1.0883777611357532,-0.19953460342280033,-0.2631553604978784,-0.09848471869282434,-0.10290414174172675,-0.13376989106972514,2,right
5.91,-0.22684304939307112,1.0968405154075562,-0.0628361392993114,1.0653070789653767,-0.1897319133615744,-0.26687282210814056,-0.10045898506297578,-0.1015282125137013,-0.1325024088001134,2,right
5.9110000000000005,-0.2267755329593348,1.1011907960614793,-0.06288053722749382,1.0416277407694476,-0.17953785393971186,-0.2704751046153578,-0.10242393247451959,-0.10024349021810458,-0.13098677991068178,2,right
5.914,-0.22652981822532314,1.1056045552151497,-0.06293996839250751,1.0173632721635604,-0.16894601452512872,-0.2739612116557747,-0.10437898100123631,-0.0990549034345023,-0.12922785618956573,2,right
5.915,-0.2261040471226547,1.1100809870123531,-0.0630145958152477,0.9925379991120641,-0.15794992945710198,-0.2773305445837064,-0.10632359008277696,-0.09796738831481715,-0.127230872648961,2,right
5.915,-0.22549661714556724,1.11461920402751,-0.0631045303567242,0.9671770511565626,-0.14654308784910822,-0.28058290681333126,-0.1082572605926348,-0.0969858830002125,-0.12500144990905723,2,right
5.92,-0.22470618793714212,1.119218236163022,-0.06320983065775314,0.9413063642664011,-0.13471894360657577,-0.2837185074419873,-0.11017953688049376,-0.09611532191349528,-0.12254559628474973,2,right
5.922000000000001,-0.2237316873562705,1.123877029833925,-0.06333050321160089,0.9149526831566305,-0.12247092566360561,-0.28673796412530217,-0.11209000870054667,-0.09536063004781134,-0.11986970947065421,2,right
5.922999999999999,-0.22257231697150043,1.1285944474394263,-0.06346650254164996,0.8881435627925326,-0.10979244849502254,-0.28964230511513356,-0.11398831296084311,-0.09472671734173917,-0.11698057774397048,2,right
5.925,-0.22122755692122012,1.1333692671110909,-0.06361773145199504,0.860907368728958,-0.09667692298863415,-0.2924329703381691,-0.1158741352709902,-0.0942184731754579,-0.11388538064852881,2,right
5.926,-0.2196971700683723,1.13820018271466,-0.06378404131770912,0.8332732760007118,-0.0831177677316428,-0.29511181142549464,-0.1177472112889946,-0.09384076099202615,-0.11059168914740868,2,right
5.928999999999999,-0.21798120537444154,1.1430858040747531,-0.0639652323893694,0.8052712664037855,-0.06910842071043223,-0.297681090662129,-0.1196073278726981,-0.09359841304196154,-0.10710746523584598,2,right
5.93,-0.2160800004310649,1.148024657393843,-0.06416105410690863,0.776932124075384,-0.054642351391980024,-0.3001434788579889,-0.12145432404122383,-0.09349622524967101,-0.10344106100555321,2,right
5.934,-0.21399418311303967,1.153015185845624,-0.06437120544553773,0.748287429293424,-0.03971307314793022,-0.30250205214798404,-0.12328809175181342,-0.09353895220065746,-0.09960121715100778,2,right
5.935,-0.21172467234200515,1.1580557503332427,-0.06459533533673527,0.7193695504151282,-0.02431415598106676,-0.30476028772862884,-0.12510857649739832,-0.09373130224881675,-0.09559706090771748,2,right
5.939,-0.2092726779696659,1.1631446304113808,-0.06483304320568567,0.6902116338733749,-0.008439239512616653,-0.30692205853825205,-0.12691577773021112,-0.09407793274354179,-0.09143810341194913,2,right
5.94,-0.20663969980513844,1.1682800253741323,-0.0650838796428709,0.660847592148581,0.007917953812518837,-0.30899162688758613,-0.12870974911670466,-0.09458344537676666,-0.08713423647090911,2,right
5.944,-0.20382752582864208,1.1734600555061054,-0.06534734719626542,0.6313120896331191,0.024763605346855656,-0.3109736370472328,-0.13049059862900855,-0.0952523816505132,-0.08269572873189358,2,right
5.945,-0.2008382296577164,1.1786827634848551,-0.0656229012495715,0.6016405263045771,0.04210378673335901,-0.3128731067982241,-0.13225848847811497,-0.09608921846594576,-0.0781332212384822,2,right
5.9479999999999995,-0.197674167363359,1.18394611591474,-0.06590995095366631,0.5718690191235802,0.0599444463174191,-0.314695417951634,-0.13401363489394744,-0.09709836383539644,-0.07345772236143329,2,right
5.949,-0.19433797376864792,1.1892480049710716,-0.06620786020004514,0.5420343810714053,0.07829139552617685,-0.3164463058429455,-0.1357563077574291,-0.09828415271929167,-0.06868060209155305,2,right
5.952999999999999,-0.19083255839217994,1.194586250138261,-0.0665159486451533,0.5121740977422246,0.09715029526502594,-0.3181318478066406,-0.1374868300896293,-0.099650842990394,-0.06381358568145543,2,right
5.954,-0.18716110120971366,1.1999586000290532,-0.06683349279417256,0.4823263014045346,0.11652664238255532,-0.31975845063626246,-0.13920557740303127,-0.10120261152826719,-0.05886874662280587,2,right
5.957999999999999,-0.1833270483915612,1.2053627342675186,-0.06715972713692048,0.45252974244614297,0.13642575625665013,-0.3213328370349899,-0.140912976919928,-0.10294355044738035,-0.053858498945350664,2,right
5.96,-0.17933410813430012,1.2107962654089122,-0.06749384531679845,0.42282375811701467,0.15685276555593963,-0.3228620310615826,-0.1426095066629181,-0.10487766346278629,-0.04879558882377631,2,right
5.962999999999999,-0.175186246656021,1.216256740863214,-0.06783500131805612,0.39324823848431695,0.17781259523226647,-0.32435334257638343,-0.1442956944224405,-0.10700886239784058,-0.04369308547822042,2,right
5.9639999999999995,-0.17088768437876067,1.2217416447906677,-0.06818231067267126,0.3638435895141492,0.19930995380135338,-0.32581435069191467,-0.14597211660625345,-0.10934096383897131,-0.03856437135406858,2,right
5.968,-0.16644289229006612,1.2272483999446056,-0.06853485170302849,0.3346506931947073,0.22134932097035906,-0.3272528862324789,-0.14763939697573308,-0.11187768594306424,-0.03342313156652082,2,right
5.968999999999999,-0.1618565884603499,1.2327743694452518,-0.06889166682079742,0.3057108646160062,0.2439349356725458,-0.3286770132070637,-0.1492982052738363,-0.11462264540359378,-0.028283342595298473,2,right
5.974,-0.1571337346883198,1.2383168584769604,-0.06925176389676807,0.2770658059217774,0.26707078457082395,-0.33009500929976404,-0.15094925574954562,-0.11757935458220728,-0.023159260214787432,2,right
5.975,-0.1522795332442681,1.2438731159111713,-0.0696141177096613,0.24875755704976646,0.2907605910934964,-0.331515345381873,-0.152593305583587,-0.12075121881305803,-0.01806540664487851,2,right
5.978,-0.1472994236741268,1.249440335868586,-0.06997767148066437,0.22082844317738526,0.31500780506709336,-0.3329466640497494,-0.15423115322018716,-0.12414153388777965,-0.013016556907770378,2,right
5.979,-0.14219907961345865,1.2550156592447423,-0.0703413385020674,0.193321018790518,0.3398155930127695,-0.33439775719255366,-0.15586363660961575,-0.1277534837296035,-0.008027724376046203,2,right
5.982,-0.13698440554138785,1.2605961752287782,-0.07070400386649765,0.16627800829425146,0.36518682917432427,-0.3358775425939516,-0.15749163136650993,-0.1315901382553105,-0.003114145509690055,2,right
5.983,-0.13166153338860465,1.2661789228433338,-0.07106452629797759,0.13974224308538763,0.39112408734750903,-0.33739503957191636,-0.15911604885033195,-0.1356544513722015,0.0017087361588237972,2,right
5.984,-0.1262368189080173,1.2717608925301689,-0.07142174008294064,0.11375659500780963,0.4176296335818926,-0.33895934366081637,-0.16073783417675777,-0.1399492589640616,0.006425286621655424,2,right
5.9879999999999995,-0.12071683771337945,1.2773390278096655,-0.0717744570961706,0.08836390611310542,0.4447054198281757,-0.3405796003400599,-0.1623579641701519,-0.14447727666860433,0.011019698343670314,2,right
5.9879999999999995,-0.11510838088414148,1.282910227051853,-0.07212146890400284,0.06360691475107275,0.4723530785713614,-0.34226497784308885,-0.1639774452659044,-0.14924109730167034,0.015476007391266148,2,right
5.989,-0.10941845003693788,1.2884713454007195,-0.07246154890978049,0.0395281785201147,0.5005739183212733,-0.34402463922772053,-0.1655973113689333,-0.15424318787796185,0.01977811068186575,2,right
5.992999999999999,-0.10365425178264338,1.294019196884626,-0.07279345450164891,0.016169995516088227,0.5293689195265677,-0.34586771415372297,-0.1672186216732832,-0.15948588623089863,0.023909783354972933,2,right
5.994,-0.09782319150705852,1.2995505567277261,-0.07311592917204193,-0.006425674176200406,0.5587387303094836,-0.34780327096076663,-0.16884245844747428,-0.16497139724528667,0.027854696277558304,2,right
5.997000000000001,-0.09193286642223605,1.3050621638604794,-0.07342770459055577,-0.028217285306516727,0.5886836615907638,-0.3498402894930394,-0.17046992479025766,-0.17070178871717362,0.0315964336960989,2,right
5.997000000000001,-0.08599105784421442,1.31055072361834,-0.07372750262424409,-0.04916378206018063,0.6192036814828152,-0.35198763485232304,-0.17210214236143676,-0.17667898685595693,0.03511851104710564,2,right
6.002000000000001,-0.0800057226701044,1.3160129106147131,-0.07401403730687303,-0.06922467040057104,0.6502984090013706,-0.35425403211452533,-0.17374024909242217,-0.18290477144450762,0.03840439293743595,2,right
6.004,-0.07398498404619752,1.321445371769754,-0.07428601674786212,-0.08836008821566577,0.6819671071816745,-0.3566480420155386,-0.17538539688119764,-0.1893807706737755,0.04143751130510513,2,right
6.007000000000001,-0.06793712122990642,1.3268447294679202,-0.07454214494501665,-0.10653087332870316,0.7142086756868702,-0.3591780376126124,-0.17703874927638852,-0.19610845566905072,0.04420128377067866,2,right
6.007999999999999,-0.06187055865317363,1.3322075848106587,-0.07478112344708342,-0.12369862943050904,0.7470216429979118,-0.3618521819277688,-0.17870147915514087,-0.20308913472576992,0.04667913218864941,2,right
6.0120000000000005,-0.055793854201392545,1.3375305209324888,-0.07500165281733115,-0.13982578998837575,0.780404158275976,-0.3646784065801564,-0.18037476639954,-0.21032394727347456,0.04885450140747726,2,right
6.013,-0.04971568673504332,1.3428101063569748,-0.07520243386551127,-0.15487568018361048,0.8143539829899895,-0.3676643914146289,-0.18205979557632065,-0.21781385758725033,0.050710878246195114,2,right
6.017,-0.04364484290099296,1.348042898375783,-0.07538216862621036,-0.16881257692699017,0.8488684824035341,-0.37081754513424664,-0.18375775362464764,-0.22555964826670452,0.052231810694663636,2,right
6.018,-0.037590203304730556,1.3532254464338955,-0.07553956107127534,-0.18160176699837313,0.8839446170170207,-0.37414498694483667,-0.18546982755677677,-0.23356191350326622,0.05340092734368867,2,right
6.022,-0.03156072814039017,1.3583542954980188,-0.07567331756659437,-0.19320960335362478,0.9195789340626576,-0.37765352922020595,-0.1871972021764389,-0.24182105215732824,0.054201957050298566,2,right
6.023,-0.025565442394915417,1.3634259893768084,-0.07578214711242125,-0.2036035596388197,0.9557675591513562,-0.38134966119708025,-0.1889410578198279,-0.2503372606674837,0.05461874884251554,2,right
6.027,-0.019613420747179484,1.3684370739546796,-0.07586476141562662,-0.2127522829483875,0.9925061881723324,-0.3852395337093433,-0.19070256812411285,-0.25911052581484567,0.054635292066944396,2,right
6.028,-0.013713772268367027,1.373384100298291,-0.07591987481982515,-0.2206256448604787,1.0297900795477601,-0.3893289449716684,-0.19248289782843975,-0.26814061736617756,0.054235736781445235,2,right
6.032,-0.007875625000559607,1.3782636275941178,-0.07594620408430264,-0.22719479077934213,1.0676140469464324,-0.3936233274231745,-0.19428320061243468,-0.2774270806202985,0.053404414394052746,2,right
6.034,-0.0021081104554399642,1.3830722258721784,-0.07594246798456533,-0.23243218761093082,1.105972452561956,-0.3981277356422924,-0.19610461697727155,-0.28696922888296655,0.05212585854815556,2,right
6.037000000000001,0.0035796519570609735,1.387806478464216,-0.07590738671904212,-0.23631166979429227,1.144859201062579,-0.4028468353446027,-0.19794827217442096,-0.2967661358961796,0.05038482625275413,2,right
6.037000000000001,0.009178570584897301,1.3924629841398473,-0.07583968113911883,-0.23880848370755528,1.1842677343212946,-0.4077848934759911,-0.19981527418725445,-0.3068166282485706,0.04816631925537564,2,right
6.041,0.014679597304504195,1.3970383588682673,-0.0757380718535313,-0.23989933046350254,1.2241910270364003,-0.41294576941407213,-0.20170671177073923,-0.31711927779430654,0.045455605653940134,2,right
6.042000000000001,0.02007374343846599,1.4015292371681358,-0.07560127827472518,-0.23956240710582058,1.2646215833542136,-0.4183329072914465,-0.2036236525545222,-0.32767239410863314,0.042238241742544036,2,right
6.046,0.025352095841447007,1.4059322730297297,-0.07542801766812485,-0.2377774462131492,1.3055514346071377,-0.4239493294549875,-0.20556714121476857,-0.3384740170089337,0.038500094084756326,2,right
6.047999999999999,0.030505833151608215,1.4102441404145034,-0.07521700424630444,-0.2345257539140175,1.3469721382817474,-0.429797631075987,-0.20753819772019136,-0.34952190917089637,0.03422736180660877,2,right
6.051,0.035526242175330534,1.414461533353353,-0.07496694833547685,-0.2297902463116551,1.388874778333028,-0.4358799759266469,-0.20953781565778057,-0.3608135488701007,0.02940659910000744,2,right
6.0520000000000005,0.040404734348198156,1.4185811656743514,-0.07467655563781891,-0.22355548431350977,1.4312499669623264,-0.44219809333905263,-0.2115669606396883,-0.37234612288096114,0.024024737920204087,2,right
6.053,0.04513286220467969,1.4225997703932391,-0.07434452661414685,-0.21580770685609457,1.4740878479779889,-0.44875327636343676,-0.21362656877215636,-0.38411651957022597,0.01806911083146694,2,right
6.057,0.049702335793064496,1.4265140987974916,-0.07396955601180163,-0.20653486251152656,1.5173781018590382,-0.45554638114320767,-0.21571754513028973,-0.39612132223113217,0.011527473903181167,2,right
6.058,0.05410503897707355,1.4303209192515691,-0.07355033256410828,-0.19572663945563537,1.5611099525894747,-0.46257782750620163,-0.2178407621619163,-0.408356802709563,0.004388029529034042,2,right
6.059,0.058333045563925316,1.4340170157492234,-0.07308553889099348,-0.18337449376226989,1.605272176061467,-0.46984760067882053,-0.21999705796450775,-0.4208189153696814,-0.0033605509317432736,2,right
6.061,0.0623786351994834,1.4375991862367858,-0.07257385163039252,-0.1694716759644193,1.6498531093598434,-0.4773552538621423,-0.22218723441639326,-0.43350329143898686,-0.011729104743452293,2,right
6.061,0.06623430897455258,1.441064240729161,-0.07201394182696509,-0.15401325580745268,1.6948406599709183,-0.4850999113162994,-0.2244120551642372,-0.44640523376884483,-0.020727955639449028,2,right
6.065,0.06989280468296644,1.444408999240323,-0.07140447560329588,-0.13699614512625422,1.7402223142305646,-0.49308027169358076,-0.22667224347297807,-0.45951971204628295,-0.030366891946394036,2,right
6.066,0.07334711166696718,1.447630289552007,-0.07074411513898106,-0.11841911879321704,1.7859851448148043,-0.50129461152965,-0.22896847994452094,-0.47284135849347925,-0.04065514501129356,2,right
6.071000000000001,0.07659048518890928,1.4507249448452952,-0.07003151998188414,-0.09828283369049878,1.8321158173479997,-0.509740788896433,-0.23130140011157718,-0.4863644640919978,-0.05160136795720413,2,right
6.0729999999999995,0.07961646027768104,1.4536898012195512,-0.06926534871296905,-0.07658984565765085,1.8786005962589876,-0.5184162472395933,-0.23367159191314504,-0.5000829753694337,-0.06321361479531058,2,right
6.075,0.08241886500628885,1.4565216951235518,-0.06844426098058065,-0.053344624361255914,1.9254253500165877,-0.5273180194241908,-0.2360795930582297,-0.5139904917867248,-0.07549931992295159,2,right
6.0760000000000005,0.08499183316303681,1.4592174607257002,-0.0675669199098752,-0.0285535660287329,1.972575555876984,-0.536442732012781,-0.2385258882845055,-0.5280802637649654,-0.08846527803905554,2,right
6.081,0.08732981628479468,1.4617739272529449,-0.06663199487935224,-0.0022250039840011953,2.02003630427648,-0.5457866098008708,-0.24101090651873033,-0.5423451913911176,-0.10211762451036181,2,right
6.082000000000001,0.08942759502733306,1.464187916331399,-0.06563816464406842,0.025630783081759815,2.067792303004115,-0.5553454806352948,-0.2435350179458313,-0.5567778238425587,-0.11646181622373536,2,right
6.085,0.0912802898542912,1.4664562393669656,-0.06458412077795016,0.05500156517545578,2.1158278812895595,-0.5651147805417193,-0.2460985309936893,-0.5713703595709253,-0.13150261296183594,2,right
6.086,0.09288337103351889,1.4685756950114437,-0.06346857140515808,0.08587315747913984,2.1641269939425976,-0.5750895591881054,-0.24870168924076314,-0.5861146472862174,-0.14724405934137294,2,right
6.091,0.09423266793730598,1.4705430667659811,-0.062290245191988204,0.11822941931878855,2.212673225681355,-0.5852644857115826,-0.2513446682538038,-0.6010021877826068,-0.16368946735516332,2,right
6.0920000000000005,0.09532437765004781,1.4723551207758718,-0.061047895577575145,0.15205225570913483,2.261449795787227,-0.5956338549367861,-0.25402757236302487,-0.6160241366478524,-0.18084139956120943,2,right
6.093999999999999,0.09615507289181244,1.4740086038670877,-0.05974030523259044,0.1873216215632094,2.310439563225228,-0.6061915940143014,-0.25675043138220666,-0.6311713078986613,-0.1987016529640249,2,right
6.095,0.09672170927012932,1.4755002418673568,-0.05836629074580717,0.2240155286595023,2.3596250323691805,-0.6169312695084345,-0.2595131972813275,-0.6464341785847436,-0.21727124363545747,2,right
6.101,0.09702163187853792,1.4768267382471734,-0.05692470754420583,0.2621100554638656,2.4089883594718344,-0.6278460949640812,-0.2623157408194293,-0.6618028944046961,-0.2365503921242851,2,right
6.101,0.09705258126977155,1.4779847731126758,-0.05541445504904806,0.3015793599074294,2.458511360020608,-0.6389289389830141,-0.2651578481455393,-0.6772672763772071,-0.25653850970589614,2,right
6.104,0.09681269883933948,1.4789710025841003,-0.05383448205691221,0.34239569522589075,2.5081755171202134,-0.6501723338404221,-0.2680392173755838,-0.6928168286114085,-0.2772341855253984,2,right
6.105,0.09630053165675287,1.4797820585981554,-0.05218379231714704,0.3845294289695566,2.5579619910439306,-0.661568484673044,-0.270959455153346,-0.7084407472205024,-0.298635174689541,2,right
6.111000000000001,0.09551503677623728,1.4804145491759906,-0.05046145026530497,0.42794906529746435,2.6078516300957637,-0.6731092792707173,-0.27391807320363043,-0.7241279304230656,-0.32073838736486526,2,right
6.111000000000001,0.09445558504919382,1.4808650591985368,-0.048666586870820795,0.4726212706727712,2.657824982926101,-0.6847862985036256,-0.2769144848859108,-0.739866989876677,-0.3435398789415338,2,right
6.114,0.09312196444902399,1.4811301517296693,-0.046798405563000516,0.5185109030803844,2.707862312443869,-0.6965908274179647,-0.2799480017568499,-0.7556462632887301,-0.3670348413243101,2,right
6.115,0.09151438290557934,1.4812063699265132,-0.044856188204268996,0.5655810448914915,2.7579436114684532,-0.7085138670331628,-0.2830178301501891,-0.7714538283494673,-0.3912175954141766,2,right
6.12,0.08963347063291513,1.4810902395742185,-0.04283930107926895,0.6137930395032487,2.8080486202649104,-0.720546146874181,-0.2861230677833542,-0.7872775179925109,-0.4160815848257642,2,right
6.121,0.08748028192418142,1.4807782722783147,-0.04074720086607476,0.6631065318853744,2.8581568461061604,-0.7326781382727874,-0.28926270040393504,-0.8031049367886872,-0.4416193707861541,2,right
6.122999999999999,0.0850562963813939,1.480266969342704,-0.03857944055575595,0.7134795131687858,2.908247585005999,-0.744900068472033,-0.2924355984959642,-0.8189234779197673,-0.4678226279797078,2,right
6.125,0.08236341953878314,1.4795528263590727,-0.036335675286908016,0.7648683693450818,2.9582999456665404,-0.7572019355358919,-0.2956405140697266,-0.8347203399792036,-0.4946821410039335,2,right
6.126,0.07940398282539014,1.4786323385337194,-0.03401566806034053,0.8172279338007868,3.0082928751823705,-0.7695735239033659,-0.29887607755522544,-0.85048254304654,-0.5221878012049346,2,right
6.127000000000001,0.07618074280089192,1.477502006775329,-0.03161929529848215,0.8705115427868201,3.0582051851411847,-0.782004420133333,-0.3021407948128607,-0.8661969438414047,-0.5503286038457733,2,right
6.129,0.07269687958217652,1.47615834456102,-0.029146552213480656,0.9246710925785214,3.108015576259208,-0.7944840282237049,-0.3054330442712647,-0.8818502499625211,-0.5790926456645685,2,right
6.13,0.06895599434796798,1.4745978855910462,-0.026597557942743513,0.9796570974324004,3.157702660190898,-0.807001584051596,-0.3087510742015869,-0.8974290332569905,-0.6084671229013201,2,right
6.136,0.0649621057751742,1.4728171922333404,-0.023972560401889824,1.0354187480749129,3.207244978054632,-0.8195461687746701,-0.3120930001376025,-0.9129197423649578,-0.6384383298742746,2,right
6.1370000000000005,0.060719645239657276,1.4708128647441967,-0.02127194079759856,1.0919039708091371,3.256621015717155,-0.8321067211968995,-0.31545680245109947,-0.9283087144846022,-0.6689916581884383,2,right
6.138999999999999,0.056233450607570894,1.4685815512320055,-0.018496217737928276,1.1490594873971982,3.305809215979483,-0.8446720491346789,-0.31884032409207075,-0.9435821864021761,-0.7001115966605908,2,right
6.14,0.05150875844645844,1.4661199583102889,-0.015646050875463776,1.2068308758785167,3.354787987806534,-0.857230839819302,-0.32224126850330864,-0.9587263048315633,-0.7317817320468678,2,right
6.144,0.04655119449680611,1.4634248623667343,-0.012722244022072815,1.2651626324860357,3.4035357127422845,-0.8697716693718625,-0.32565719771905965,-0.9737271361075359,-0.763984750660652,2,right
6.145,0.0413667622654924,1.4604931213591592,-0.00972574768639087,1.3239982348245012,3.452030748651707,-0.8822830113866509,-0.3290855306574549,-0.9885706752765561,-0.7967024409701334,2,right
6.149,0.035961829632351304,1.4573216870394567,-0.006657661004935345,1.3832802064766372,3.5002514309301485,-0.8947532446591024,-0.3325235416164809,-1.0032428546285974,-0.8299156972664863,2,right
6.15,0.030343113399498682,1.4539076175019932,-0.0035192330583486706,1.4429501832046643,3.5481760713201442,-0.9071706600942946,-0.33596835898329824,-1.0177295517130505,-0.8636045244951296,2,right
6.154,0.024517661761100023,1.4502480899524604,-0.0003118635789636221,1.5029489809160588,3.5957829544749327,-0.9195234668319143,-0.33941696416675066,-1.0320165968813233,-0.8977480443440208,2,right
6.156000000000001,0.01849283472946643,1.4463404135962128,0.0029628969372066756,1.5632166655637287,3.6430503324071437,-0.9317997976234915,-0.342866190762935,-1.046089780398254,-0.9323245026843536,2,right
6.159,0.01227628262056708,1.4421820425497747,0.006303347699483571,1.6236926251518935,3.6899564169602934,-0.9439877134975446,-0.34631272396372176,-1.059934859163924,-0.9673112784603926,2,right
6.16,0.005875922776287514,1.4377705886824854,0.00970763865959715,1.6843156440198992,3.7364793704398034,-0.9560752077481008,-0.34975310021812583,-1.073537563086881,-1.002684894126483,2,right
6.164,-0.0007000852228373698,1.4331038342965645,0.013173772107802397,1.7450239795769709,3.7825972945392783,-0.9680502092818309,-0.35318370715643005,-1.0868836011491743,-1.038421027730517,2,right
6.164,-0.007443365534167849,1.4281797445553632,0.016699604823737117,1.8057554416615027,3.828288217696745,-0.9799005853587858,-0.35660078378695376,-1.0999586672029382,-1.0744945267443122,2,right
6.169,-0.014345352857047307,1.4229964795723467,0.02028285077879783,1.866447474698908,3.873530081014457,-0.9916141437614325,-0.36000042097534274,-1.1127484455375771,-1.1108794237424706,2,right
6.17,-0.02139731969337346,1.4175524060772975,0.023921084379890645,1.9270372428322897,3.9183007228746938,-1.0031786344263647,-0.3633785622162274,-1.1252386162558554,-1.147548954032322,2,right
6.1739999999999995,-0.028590403711852466,1.4118461085830531,0.027611744232362654,1.9874617182002678,3.9625778623827803,-1.0145817505727044,-0.36673100470705694,-1.1374148604964243,-1.1844755753385274,2,right
6.1739999999999995,-0.0359156348994687,1.405876399987288,0.03135213739226045,2.047657772536174,4.006339081767226,-1.0258111293608188,-0.3700534007338675,-1.149262865539498,-1.2216309896468074,2,right
6.178999999999999,-0.04336396222999425,1.3996423315566846,0.03513944408027572,2.107562272262543,4.049561807865571,-1.036854352114546,-0.37334125937867924,-1.1607683298315272,-1.2589861673120801,2,right
6.18,-0.05092627963076261,1.3931432022506898,0.03897072283807553,2.1671121772543405,4.092223292823063,-1.0476989441396638,-0.3765899485581441,-1.1719169679638177,-1.296511373537025,2,right
6.184,-0.058593451083802865,1.3863785673475144,0.042842916115972955,2.226244643443727,4.134300594129866,-1.0583323741708306,-0.379794697402978,-1.182694515639103,-1.334176197327751,2,right
6.184,-0.06635633475499192,1.3793482463380606,0.04675285628577732,2.2848971294383027,4.175770554120874,-1.0687420534786984,-0.38295059898761435,-1.1930867346590883,-1.3719495830338146,2,right
6.19,-0.07420580610109317,1.3720523300561842,0.05069727207172089,2.343007507323778,4.216609779060679,-1.0789153346683222,-0.38605261341856917,-1.2030794179801942,-1.4097998645187457,2,right
6.191,-0.08213277995084674,1.3644911870174907,0.054672795385092475,2.4005141778208006,4.256794617934491,-1.0888395101993884,-0.3890955712857316,-1.2126583949598095,-1.4476948016997662,2,right
6.191,-0.09012823158596504,1.3566654689449107,0.05867596853660129,2.457356189964299,4.2963011410641005,-1.0985018106581375,-0.39207417747317985,-1.2218095370513273,-1.485601618641517,2,right
6.194,-0.09818321686336232,1.3485761154690137,0.06270325178223451,2.5134733654721493,4.3351051186661556,-1.1078894028101787,-0.3949830153218141,-1.230518764281239,-1.5234870420809525,2,right
6.195,-0.1062888914268615,1.340224358004118,0.06675103113367492,2.568806427767764,4.37318199949411,-1.1169893874899426,-0.39781655114008013,-1.238772052764223,-1.5613173395685624,2,right
6.195,-0.11443652905519439,1.3316117228126017,0.07081562634888475,2.623297134616959,4.410506889833117,-1.1257887975180865,-0.4005691390663472,-1.2465554433738675,-1.5990583569652996,2,right
6.197,-0.12261753918304757,1.3227400332746975,0.07489329902337391,2.6768884115331777,4.447054533348843,-1.1342745960827523,-0.4032350262904537,-1.2538550516092448,-1.6366755553423957,2,right
6.1979999999999995,-0.13082348361602425,1.3136114113846573,0.07898026071153198,2.729524482100545,4.482799292418978,-1.1424336761560716,-0.40580835864254855,-1.260657078681017,-1.6741340473926698,2,right
6.202000000000001,-0.13904609243894847,1.3042282785036379,0.08307268100106388,2.781150992364164,4.5177151314441675,-1.1502528613801302,-0.4082831865571232,-1.266947823839405,-1.7113986334616758,2,right
6.202999999999999,-0.14727727908984814,1.2945933554099989,0.08716669544799566,2.8317151282386743,4.551775602399139,-1.1577189086103234,-0.4106534714198806,-1.2727136979649576,-1.7484338373066761,2,right
6.207999999999999,-0.1555091545444902,1.2847096616899674,0.09125841327012363,2.8811657258857037,4.584953832752618,-1.164818512166778,-0.41291309230481976,-1.2779412384416349,-1.7852039416909742,2,right
6.209,-0.16373404053387594,1.2745805145059574,0.09534392469986626,2.929453375208409,4.617222515856282,-1.1715383098162748,-0.4150558531086338,-1.2826171253302439,-1.821673023920584,2,right
6.212999999999999,-0.17194448169998194,1.2642095267708462,0.09941930791658649,2.976530516608247,4.648553903900545,-1.1778648905060904,-0.4170754900892162,-1.286728198858766,-1.857804991429547,2,right
6.2139999999999995,-0.18013325658324383,1.253600604746143,0.10348063551516667,3.0223515311459344,4.67891980353242,-1.1837848038701257,-0.41896567981475386,-1.2902614782445625,-1.8935636175194497,2,right
6.2170000000000005,-0.18829338733188364,1.2427579450711084,0.10752398051679235,3.0668728242452064,4.708291574228096,-1.1892845715265938,-0.42072004752954884,-1.2932041818618623,-1.9289125773578388,2,right
6.218,-0.19641814803134247,1.2316860312198918,0.11154542197923459,3.1100529030745205,4.736640129510195,-1.194350700185418,-0.42233217594235783,-1.2955437487663142,-1.9638154843392415,2,right
6.223,-0.2045010715724193,1.2203896293755394,0.11554105030691378,3.151852447738241,4.76393594109685,-1.1989696965823093,-0.42379561444266395,-1.2972678615867275,-1.9982359269114451,2,right
6.224,-0.21253595500718808,1.2088737837042096,0.1195069723877367,3.1922343764051107,4.7901490460669525,-1.2031280842553034,-0.4251038887499084,-1.2983644707924247,-2.032137505968506,2,right
6.227,-0.22051686337797902,1.1971438110118156,0.12343931669038279,3.231163904497973,4.815249057122911,-1.2068124221782737,-0.42625051100029904,-1.2988218203429038,-2.0654838729106704,2,right
6.228,-0.22843813204098767,1.1852052947689273,0.12733423844300998,3.268608598064744,4.839205176029297,-1.210009325264665,-0.42722899027538497,-1.298628474724736,-2.098238768470016,2,right
6.232,-0.23629436753749297,1.1730640784968611,0.1311879249853945,3.3045384214465634,4.861986210302593,-1.2127054867533629,-0.42803284357614296,-1.2977733473788227,-2.130366062399121,2,right
6.234,-0.2440804470899931,1.1607262585179774,0.13499660134664845,3.33892577935489,4.883560593224104,-1.2148877024872538,-0.42865560724585483,-1.2962457305193023,-2.1618297941184825,2,right
6.237,-0.25179151681862927,1.1481981760865836,0.13875653605832258,3.3717455534650433,4.903896407244765,-1.2165428970936332,-0.42909084884457255,-1.2940353263435274,-2.192594214416699,2,right
6.2379999999999995,-0.2594229887866507,1.1354864089325174,0.1424640471765572,3.4029751336293543,4.9229614108472335,-1.2176581520741774,-0.42933217947746705,-1.2911322796306328,-2.2226238282956334,2,right
6.2410000000000005,-0.2669705369920783,1.1225977622649737,0.14611550846042212,3.4325944438086515,4.9407230689271735,-1.2182207358107178,-0.4293732665788357,-1.2875272117242829,-2.251883439050867,2,right
6.242000000000001,-0.27443009242457733,1.109539259296188,0.14970735563413598,3.460585962816315,4.957148586752071,-1.2182181354915493,-0.42920784715300453,-1.283211255893226,-2.280338193675747,2,right
6.246,-0.2817978373023201,1.0963181313511692,0.15323609264645807,3.4869347399645783,4.972204947552299,-1.2176380909614444,-0.42882974147280545,-1.2781760940613023,-2.307953629675216,2,right
6.247000000000001,-0.2890701985968679,1.0829418076317407,0.15669829783519634,3.5116284056981213,4.985858953795366,-1.2164686304969659,-0.42823286723573284,-1.2724139948965212,-2.3346957233734034,2,right
6.252000000000001,-0.29624384094828476,1.069417904703148,0.1600906299146221,3.534657177295333,4.998077272190469,-1.2146981085070414,-0.42741125417729076,-1.2659178532467978,-2.3605309397966563,2,right
6.252999999999999,-0.3033156590691693,1.0557542157701876,0.1634098337290403,3.5560138597129165,5.008826482466545,-1.2123152451571115,-0.4263590591404319,-1.2586812309078634,-2.3854262842112544,2,right
6.263,-0.31028276973475444,1.0419586998046424,0.16665274574879885,3.575693841644748,5.018073129962955,-1.209309167913462,-0.4250705815849829,-1.250698398642875,-2.4093493553196725,2,right
6.267,-0.31714250345285144,1.0280394705724374,0.1698162993128864,3.5936950868611337,5.025783782067844,-1.2056694550026328,-0.42354027944842204,-1.241964379051591,-2.4322683997521635,2,right
6.268,-0.3238923958993419,1.0140047855895034,0.17289752963605418,3.610018120889807,5.031925088534966,-1.2013861807790347,-0.4217627851393152,-1.2324749893096718,-2.4541523668316705,2,right
6.27,-0.33053017919987693,0.9998630350220818,0.17589357859890617,3.62466601309519,5.036463845705487,-1.1964499629921161,-0.4197329213721547,-1.222226882476976,-2.4749709622228213,2,right
6.271,-0.3370537731435312,0.9856227305461516,0.1788016993324042,3.637644354208006,5.039367064576559,-1.1908520118653856,-0.4174457166235373,-1.211217586391111,-2.4946946994373316,2,right
6.272,-0.3434612764186097,0.9712924941805086,0.18161926059861802,3.648961229354314,5.040602042252619,-1.1845841805116872,-0.41489642011830086,-1.1994455397355155,-2.5132949488212577,2,right
6.272,-0.34975095795290795,0.9568810470997964,0.1843437509610777,3.658627186631522,5.040136435588325,-1.177639015512323,-0.4120805163253991,-1.1869101251887193,-2.530743984010935,2,right
6.273,-0.3559212484291311,0.9423971984250864,0.186972782731684,3.6666552012759377,5.037938335425981,-1.1700098060996476,-0.40899373895693536,-1.1736116996231485,-2.547015025914211,2,right
6.273,-0.3619707320424964,0.9278498339874004,0.189504095676164,3.6730606354598567,5.033976340226886,-1.1616906307669097,-0.4056320844630217,-1.1595516213196577,-2.5620822842703395,2,right
6.274,-0.36789813856723286,0.9132479050584139,0.19193556045828392,3.6778611937481545,5.028219628613566,-1.1526764008220938,-0.40199182501436426,-1.144732274161781,-2.575920996838609,2,right
6.276,-0.3737023357939033,0.8986004170375057,0.1942651818047007,3.6810768742378457,5.0206380307362375,-1.1429629007866136,-0.39806952096369963,-1.1291570887714995,-2.5885074662623895,2,right
6.279,-0.37938232239102415,0.883916418078599,0.1964911013740688,3.6827299153990523,5.01120209845207,-1.1325468256149522,-0.39386203277641646,-1.1128305605461404,-2.5998190946518296,2,right
6.281000000000001,-0.38493722123554963,0.8692049876381014,0.19861160031449537,3.682844738631207,4.999883174300617,-1.1214258147093443,-0.3893665324198976,-1.0957582645538437,-2.60983441592491,2,right
6.282,-0.39036627324887563,0.8544752249271633,0.20062510149410506,3.6814478865437903,4.986653459253597,-1.1095984827015872,-0.3845805142003085,-1.077946867242862,-2.618533125942957,2,right
6.285,-0.3956688317692577,0.839736237256233,0.20253017139069987,3.678567956966387,4.971486079211847,-1.0970644469720523,-0.37950180503473785,-1.0594041349178027,-2.6258961104730734,2,right
6.285,-0.40084435748823377,0.8249971282673702,0.20432552162786222,3.674235532688461,4.954355150216867,-1.0838243518739503,-0.374128574145773,-1.0401389389337856,-2.6319054710062013,2,right
6.291,-0.4058924139764635,0.810266986060963,0.2060100101471994,3.66848310692489,4.935235842338897,-1.0698798896288675,-0.36845934216475323,-1.0201612575573629,-2.636544548455781,2,right
6.292000000000001,-0.4108126638213344,0.7955548712377002,0.20758264201074908,3.661345004499061,4.9141044421979085,-1.0552338178575704,-0.36249298962910925,-0.9994821744409526,-2.639797944758105,2,right
6.295,-0.41560486539292996,0.7808698048912727,0.20904256983219674,3.65285729873114,4.890938414068228,-1.0398899737080478,-0.35622876485835037,-0.9781138736554643,-2.641651542391605,2,right
6.296,-0.42026887024544124,0.7662207566006024,0.21038909383715929,3.643057724015073,4.86571645951182,-1.0238532845407358,-0.34966629119240894,-0.9560696312237505,-2.642092521828359,2,right
6.301,-0.42480462114912404,0.7516166324821025,0.21162166155068124,3.6319855840638886,4.8384185754794915,-1.0071297751288606,-0.3428055735752021,-0.9333638030955015,-2.641109376927136,2,right
6.3020000000000005,-0.42921215073643537,0.7370662633720814,0.2127398671065392,3.6196816557989946,4.809026110813402,-0.9897265713298308,-0.3356470044654139,-0.9100118095022302,-2.6386919282732757,2,right
6.305,-0.4334915807356242,0.7225783932160944,0.2137434501693661,3.606188088855408,4.7775218210783885,-0.9716519001816224,-0.32819136905564616,-0.8860301156290507,-2.6348313344666483,2,right
6.306,-0.4376431217542551,0.7081616677454552,0.21463229445692705,3.5915483006711995,4.743889921643653,-0.9529150863761312,-0.32043984978022905,-0.8614362085380536,-2.6295201013548413,2,right
6.31,-0.4416670735642493,0.6938246235213413,0.21540642584690128,3.5758068671258916,4.708116138930324,-0.9335265450595135,-0.31239403009112915,-0.8362485702762306,-2.6227520892046168,2,right
6.312,-0.4455638258303826,0.6795756774242692,0.21606601005232204,3.5590094086891453,4.670187759734363,-0.9134977709076134,-0.30405589748053913,-0.8104866470990935,-2.614522517800527,2,right
6.315,-0.4493338592155626,0.6654231166617416,0.21661134985441188,3.5412024720377735,4.630093678528178,-0.8928413234226729,-0.29542784572788444,-0.7841708147393753,-2.6048279694554215,2,right
6.316,-0.4529777467879881,0.6513750893600655,0.21704288189135226,3.5224334070959564,4.587824442638127,-0.8715708083956494,-0.2865126763481383,-0.7573223396484977,-2.593666389913392,2,right
6.321000000000001,-0.45649615564772406,0.6374395957974752,0.21736117301383356,3.5027502394505095,4.543372295188951,-0.8497008554766332,-0.2773135992174961,-0.7299633361368421,-2.5810370871215023,2,right
6.3260000000000005,-0.4598898486844792,0.6236244803248131,0.21756691622896737,3.4822015380901474,4.496731215699922,-0.8272470917940525,-0.26783423235162956,-0.7021167193372707,-2.5669407278424536,2,right
6.329,-0.4631596863758472,0.6099374240077995,0.2176609262631585,3.460836278414929,4.447896958211272,-0.8042261115615916,-0.25807860081091677,-0.6738061539148186,-2.5513793320761184,2,right
6.331,-0.4663066285360098,0.5963859380112054,0.21764413478461223,3.4387037004594445,4.396867086813177,-0.7806554416100325,-0.2480511347062291,-0.6450559984440084,-2.5343562652536606,2,right
6.332999999999999,-0.4693317359294888,0.5829773577294924,0.21751758533502777,3.4158531622708206,4.3436410084433135,-0.7565535027795489,-0.2377566662899294,-0.6158912454866632,-2.5158762282012503,2,right
6.335,-0.4722361716761274,0.5697188376521889,0.2172824280206366,3.3923339883802677,4.288220002812683,-0.7319395671063594,-0.22720042617532685,-0.5863374579658447,-2.495945245053635,2,right
6.335,-0.4750212023915872,0.5566173469388845,0.21693991400382612,3.3681953135349016,4.230607249350294,-0.7068337108306195,-0.2163880388339474,-0.5564207034456453,-2.474570649631079,2,right
6.336,-0.47768819902384724,0.5436796656705895,0.21649138982581617,3.3434859230055,4.170807851236804,-0.6812567637236744,-0.20532551757859682,-0.5261674884894575,-2.451761070976472,2,right
6.337000000000001,-0.48023863735310923,0.5309123817397126,0.21593829158584776,3.318254092855738,4.108828856925486,-0.6552302560823091,-0.19401925918005777,-0.49560469470414226,-2.4275264185577687,2,right
6.337000000000001,-0.482674098120652,0.5183218883363826,0.21528213900526796,3.2925474347076684,4.04467927972844,-0.6287763652089841,-0.1824760381576341,-0.46475951706111673,-2.401877867299337,2,right
6.3389999999999995,-0.4849962667476059,0.5059143819836084,0.21452452941381894,3.2664127483855747,3.9783701158538123,-0.6019178627229248,-0.17070300072365382,-0.4336594045203262,-2.3748278424142044,2,right
6.34,-0.4872069326048923,0.4936958610704257,0.21366713170484797,3.239895883747008,3.909914360939046,-0.5746780631946696,-0.15870765834946512,-0.4023320028693607,-2.3463900039676076,2,right
6.345,-0.489307987802945,0.481672124832288,0.21271168031021284,3.213041611857472,3.839327024933046,-0.5470807741226793,-0.14649788091978067,-0.3708050996891656,-2.316579231098187,2,right
6.346,-0.4913014254799248,0.4698487727304569,0.21165996924335123,3.1858935054337594,3.766625145136811,-0.5191502471749044,-0.1340818894415651,-0.3391065713570629,-2.2854116058191565,2,right
6.35,-0.49318933757715055,0.4582312041845537,0.21051384625437722,3.1584938284798825,3.6918277972059093,-0.49091113061710695,-0.1214682482730236,-0.3072643319971487,-2.252904396317774,2,right
6.35,-0.49497391210119274,0.4468246186130886,0.20927520713958397,3.130883435038528,3.6149561039120526,-0.46238842284870996,-0.10866585683763363,-0.275306284287557,-2.219076039667521,2,right
6.355,-0.4966574298840343,0.43563401573669025,0.20794599025036387,3.10310167698015,3.5360332414549593,-0.4336074269659908,-0.09568394078757049,-0.2432602720335896,-2.183946123863482,2,right
6.356,-0.4982422608660459,0.4246641960998815,0.2065281712476549,3.075186320751063,3.455084443109674,-0.40459370627154845,-0.08253204258031031,-0.2111540344152982,-2.1475353690875867,2,right
6.359,-0.4997308599408103,0.4139197617699732,0.20502375814168886,3.047173473001321,3.3721369999885726,-0.3753730406481616,-0.06922001143165232,-0.17901516181777052,-2.1098656081065736,2,right
6.359,-0.501125762413476,0.4034051171759308,0.20343478664336717,3.0190975150126396,3.2872202586913652,-0.345971383714412,-0.0557579926078875,-0.14687105315212143,-2.070959765701801,2,right
6.364,-0.5024295791319286,0.3931244700563571,0.2017633158374442,2.990991045846255,3.200365615610631,-0.31641482067877974,-0.04215641601935287,-0.11474887457501562,-2.0308418370263523,2,right
6.364,-0.503644991351089,0.3830818324935308,0.2000114241725661,2.9628848341303096,3.1116065076546513,-0.28672952680832364,-0.0284259840771514,-0.0826755195144543,-1.9895368647812772,2,right
6.369,-0.5047747453860095,0.37328102201801333,0.19818120575227238,2.934807778406189,3.020978399143667,-0.2569417264275397,-0.01457765877438718,-0.05067756990954324,-1.9470709150992418,2,right
6.37,-0.5058216471012685,0.36372566277422463,0.19627476690806808,2.906786875953132,2.92851876463012,-0.2270776523625458,-0.0006226479528651943,-0.018781258572021287,-1.9034710520204061,2,right
6.375,-0.5067885562750841,0.35441918674086753,0.1942942230414091,2.8788472000104375,2.83426706738798,-0.197163505745371,0.013427609284164543,0.012987567422531395,-1.8587653104419206,2,right
6.375,-0.5076783808696029,0.3453648350017358,0.19224169573021013,2.851011885316659,2.7382647333108783,-0.16722541609283403,0.02756145805297695,0.044603482405670546,-1.8129826674191067,2,right
6.386,-0.5084940712349606,0.3365656590640607,0.19011931009862623,2.823302121885351,2.6405551199535324,-0.13728940157427505,0.04176704410412026,0.07604151694082432,-1.7661530116931312,2,right
6.388,-0.5092386142718749,0.32802452222360795,0.18792919244210715,2.7957371569371543,2.5411834804457825,-0.10738132938226243,0.05603233121128041,0.10727719189299781,-1.7183071113168091,2,right
6.388999999999999,-0.5099150275740106,0.31974410097710715,0.18567346808692553,2.768334304908298,2.4401969220035418,-0.07752687612032587,0.07034511957483867,0.13828655183421587,-1.6694765792470818,2,right
6.388999999999999,-0.5105263535679619,0.31172688648300123,0.18335425945371822,2.741108965455964,2.337644358756077,-0.04775148812177361,0.08469306528090549,0.16904619787496455,-1.6196938367697022,2,right
6.391,-0.5110756536665838,0.3039751860716374,0.18097368429525038,2.7140746493813617,2.2335764586042397,-0.01808034161373113,0.09906370085678456,0.19953332001131133,-1.5689920746187478,2,right
6.391,-0.5115660024507072,0.2964911248061551,0.1785338540891036,2.687243012391814,2.1280455838196533,0.011461697359307878,0.11344445696395752,0.2297257290767355,-1.517405211650757,2,right
6.394,-0.5120004818944474,0.2892766470949696,0.1760368725787326,2.6606238966236906,2.0211057250903526,0.04085011333790078,0.12782268523148743,0.25960188833982145,-1.4649678510200923,2,right
6.396,-0.5123821756491846,0.2823335183550649,0.1734848344634404,2.6342253798485404,1.9128124287140384,0.07006078226122908,0.14218568204134122,0.28914094455237555,-1.411715234247207,2,right
6.396,-0.5127141634003259,0.27566332672225,0.17087982423795262,2.608053832285367,1.8032227166358918,0.09907001277663918,0.15652071273252627,0.31832275782722114,-1.3576831943748662,2,right
6.398,-0.5129995153107509,0.2692674848020162,0.16822391517981233,2.5821139809425926,1.692394999023864,0.12785458812952374,0.17081503549946597,0.34712792948820986,-1.3029081098526265,2,right
6.398,-0.5132412865666651,0.2631472314546492,0.1655191684806219,2.5564089814138944,1.5803889790704653,0.15639180871740727,0.18505592445145788,0.37553782726983026,-1.2474268603398457,2,right
6.399,-0.5134425120434827,0.2573036336097565,0.16276763251420506,2.530940496899381,1.467265549954026,0.18465953531449633,0.19923069164461246,0.4035346076672295,-1.191276784809332,2,right
6.403,-0.5136062011087511,0.25173758810589236,0.15997134223095757,2.5057087834575045,1.353086685127201,0.2126362325871852,0.21332670808901552,0.4311012354721968,-1.134495641883909,2,right
6.403,-0.5137353325773257,0.24644982355028786,0.157132318664557,2.480712779113613,1.2379153253261344,0.24030101182707117,0.22733142377199797,0.4582215005766834,-1.0771215722465939,2,right
6.407,-0.5138328498348922,0.24144090219430234,0.154252568534697,2.4559501936849766,1.1218152669288468,0.267633671442136,0.24123238673820532,0.4848800321242493,-1.0191930629631636,2,right
6.407,-0.5139016561493222,0.2367112218244309,0.15133408392792463,2.431417596949551,1.0048510550500256,0.29461473413103995,0.2550172612669346,0.5110623100885944,-0.9607489135540734,2,right
6.412000000000001,-0.5139446101906052,0.23226101767566387,0.14837884204028284,2.407110504166567,0.8870878825275175,0.3212254803578074,0.2686738451869432,0.5367546743570497,-0.9018282036509945,2,right
6.412999999999999,-0.513964521777548,0.22809036438059482,0.1453888049705577,2.3830234587244514,0.7685914947148093,0.34744797812835765,0.2821900863686377,0.5619443313955801,-0.842470262071637,2,right
6.416,-0.5139641478653462,0.22419917797128508,0.14236591955947248,2.3591501118455906,0.6494280997436295,0.3732651091463478,0.295554098433215,0.5866193585704832,-0.7827146371450506,2,right
6.417000000000001,-0.5139461887836244,0.2205872179503126,0.13931211727673415,2.335483299278105,0.5296642839185114,0.39866059142473687,0.30875417571796376,0.6107687062005666,-0.7226010681182223,2,right
6.425,-0.5139132847295831,0.21725408944352317,0.13622931416245082,2.3120151149054156,0.40936693190305035,0.4236189984283627,0.3217788075365269,0.6343821974121385,-0.6621694574735381,2,right
6.426,-0.5138680125159538,0.21419924544209878,0.13311941082846082,2.2887369812050133,0.2886031513556738,0.4481257748216637,0.3346166917724926,0.6574505258676735,-0.6014598439855317,2,right
6.428,-0.5138128825683641,0.21142198913685703,0.1299842925174795,2.265639716488422,0.16744020167102022,0.472167248894466,0.3472567478442093,0.6799652514375054,-0.5405123763443156,2,right
6.43,-0.5137503361604369,0.20892147634283145,0.1268258292087426,2.242713598854921,0.045945426481487826,0.4957306417375035,0.35968812907821573,0.7019187938823647,-0.4793672871721782,2,right
6.432,-0.5136827428663053,0.20669671800780184,0.12364587575465415,2.2199484267921297,-0.07581381042782366,0.5188040732380432,0.3719002345281429,0.7233044246130087,-0.4180648672590288,2,right
6.434,-0.5136123981992217,0.20474658279635927,0.12044627203590844,2.197333576357092,-0.1977701861387022,0.541376564964653,0.3838827202753755,0.7441162565916096,-0.3566454398416933,2,right
6.436,-0.5135415213952998,0.20306979974132316,0.11722884313102606,2.174858054871964,-0.3198564769028204,0.5634380400087765,0.3956255102471623,0.7643492324379504,-0.29514933475149274,2,right
6.438,-0.513472253298171,0.20166496095466813,0.11399539950720619,2.1525105510688975,-0.44200561407777716,0.5849793198493766,0.40711880658723526,0.7839991108018516,-0.23361686225408645,2,right
6.442,-0.5134066543043373,0.20053052438901486,0.11074773724771216,2.13027948161912,-0.5641507380463878,0.6059921183054706,0.4183530996133379,0.8030624510616067,-0.1720882864052247,2,right
6.443,-0.5133467023372679,0.19966481663852803,0.10748763833118066,2.1081530339816243,-0.6862252504697985,0.6264690326399135,0.429319177395377,0.8215365964065379,-0.11060379774583626,2,right
6.446000000000001,-0.5132942908275863,0.1990660357650193,0.10421687096953595,2.0861192055072415,-0.8081628652251843,0.6464035318762924,0.4400081349871922,0.8394196553601164,-0.049203485159770695,2,right
6.447,-0.5132512266852313,0.19873225413119877,0.10093718999972073,2.064165838734213,-0.9298976583787767,0.6657899423892839,0.45041138334419817,0.8567104817984045,0.012072693282472924,2,right
6.452000000000001,-0.5132192282565929,0.198661421220252,0.09765033731832055,2.0422806528116695,-1.0513641175447657,0.684623430827282,0.4605206579583829,0.8734086535168852,0.07318494067057314,2,right
6.452000000000001,-0.5131999232659008,0.19885136642185747,0.09435804234968029,2.0204512709876905,-1.1724971909802286,0.7028999844245519,0.4703280272413496,0.8895144493970525,0.13409365296806985,2,right
6.456,-0.5131948467472452,0.19929980176957804,0.09106202254275854,1.9986652440988582,-1.2932323367656577,0.7206163887585904,0.47982590068527015,0.9050288252224319,0.194759452268849,2,right
6.457000000000001,-0.5132054389829919,0.20000432462134712,0.08776398389467874,1.9769100699984028,-1.413505572419884,0.73777020300679,0.4890070368307748,0.9199533881920017,0.25514322177190196,2,right
6.462000000000001,-0.5132330434746574,0.20096242028158892,0.08446562149821081,1.9551732088602056,-1.5332535252972432,0.7543597327549014,0.4978645510585023,0.9342903701970704,0.315206142564854,2,right
6.465,-0.5132789049782608,0.20217146456923155,0.08116862010695483,1.9334420942960477,-1.652413484113687,0.7703840004081848,0.5063919231629853,0.9480426000248984,0.3749097318840813,2,right
6.468999999999999,-0.5133441676347338,0.20362872634025656,0.07787465470643071,1.9117041402235786,-1.770923451947215,0.7858427132545227,0.5145830045637418,0.9612134748287321,0.43421588175886583,2,right
6.472,-0.5134298732218293,0.2053313699766081,0.0745853910717993,1.8899467435262027,-1.8887222009192814,0.8007362292771238,0.522432024950352,0.9738069313011615,0.4930868965241397,2,right
6.473,-0.5135369595513045,0.20727645785472737,0.0713024862859503,1.868157283064452,-2.0057493280760785,0.815065521062683,0.5299335982145157,0.9858274168871053,0.5514855281073168,2,right
6.474,-0.5136662590314562,0.20946095280612043,0.06802758918963678,1.8463231165314116,-2.121945310751813,0.8288321385989873,0.5370827276240132,0.997279861192984,0.6093750087531279,2,right
6.475,-0.5138184974090024,0.21188172058023505,0.06476234073853168,1.8244315771630668,-2.2372515590079773,0.8420381720041975,0.543874810249674,1.0081696476480524,0.6667190812711049,2,right
6.475,-0.5139942926981051,0.2145355323179034,0.0615083742471097,1.8024699717959936,-2.351610463426477,0.8546862149785547,0.5503056406668917,1.0185025854524365,0.7234820269733967,2,right
6.476,-0.5141941542986193,0.21741906704160072,0.05826731550565873,1.7804255808316618,-2.4649654377670056,0.8667793293178973,0.5563714139522136,1.0282848818447847,0.779628691469142,2,right
6.476,-0.5144184823013785,0.22052891416615503,0.055040782765196444,1.7582856601481045,-2.577260956682573,0.8783210105769018,0.5620687279945076,1.0375231147208281,0.835124508480056,2,right
6.48,-0.5146675669784817,0.22386157603040105,0.051830386593601036,1.7360374448958358,-2.688442588821593,0.8893151549183894,0.5673945851391716,1.0462242056325504,0.8899355218402173,2,right
6.481,-0.5149415884610365,0.22741347044690893,0.04863772961307594,1.7136681551146598,-2.798457025642044,0.8997660271834464,0.5723463931828038,1.0543953931960794,0.9440284058412787,2,right
6.486000000000001,-0.5152406166127794,0.23118093326300376,0.045464406133634325,1.6911650031077474,-2.907252106260181,0.9096782302155237,0.5769219657346946,1.062044206934858,0.9973704840824521,2,right
6.486000000000001,-0.5155646111142304,0.2351602209220172,0.04231200169930616,1.668515202509034,-3.01477683865308,0.9190566754701056,0.5811195219604337,1.069178441583102,1.0499297469826514,2,right
6.49,-0.5159134217776122,0.23934751301113152,0.03918209256409546,1.6457059789796524,-3.1209814175309507,0.9279065549399819,0.5849376857218547,1.0758061318730388,1.1016748681101198,2,right
6.4910000000000005,-0.5162867891154235,0.24373891478305745,0.03607624511413322,1.622724582468726,-3.2258172391916307,0.9362333144246094,0.5883754841264547,1.0819355278279132,1.1525752194827106,2,right
6.496,-0.5166843451859343,0.24833045964247277,0.032996015249910506,1.5995583009734302,-3.3292369136660667,0.9440426281705148,0.5914323454983468,1.0875750705812743,1.2026008859897381,2,right
6.496,-0.5171056147401287,0.25311811159309733,0.029942947736067996,1.5761944757327695,-3.431194274459756,0.9513403749081734,0.5941080967817112,1.0927333687416017,1.251722679083989,2,right
6.501,-0.5175500166969064,0.25809776764675824,0.026918575515568557,1.5526205177890204,-3.531644386191218,0.9581326153092986,0.5964029603866192,1.097419175319894,1.2999121498900492,2,right
6.502000000000001,-0.518016865972664,0.26326526020132895,0.023924418973850472,1.5288239258502665,-3.630543550424498,0.9644255708869868,0.5983175504860123,1.1016413652364436,1.3471416018725937,2,right
6.506,-0.5185053756842423,0.26861635939869716,0.020961985133784923,1.5047923053868784,-3.727849309988493,0.9702256043596967,0.5998528687715223,1.1054089134216292,1.3933841032056922,2,right
6.507000000000001,-0.5190146597329605,0.27414677547516814,0.01803276676805305,1.4805133888941877,-3.823520452071589,0.9755392014985887,0.6010102996747271,1.1087308735242123,1.4386134989815071,2,right
6.513,-0.5195437357678726,0.27985216111463257,0.015138241428015639,1.4559750572529735,-3.9175170103756054,0.9803729544763142,0.6017916050593445,1.111616357239282,1.4828044233940043,2,right
6.516,-0.5200915285206703,0.2857281138113874,0.012279870398563243,1.4311653621186913,-4.009800266608514,0.9847335467339321,0.6021989183887771,1.1140745142666935,1.5259323120304602,2,right
6.517,-0.5206568735016754,0.2917701782466917,0.009459097591353478,1.4060725492696753,-4.100332751590666,0.9886277393812317,0.6022347383723377,1.1161145129095604,1.5679734144006439,2,right
6.519,-0.5212385210454967,0.29797384868096183,0.006677348385651546,1.3806850828437962,-4.189078246244485,0.9920623591443617,0.6019019220924026,1.1177455213211127,1.6089048068305711,2,right
6.52,-0.521835140695491,0.30433457136124487,0.00393602842154697,1.354991670392276,-4.2760017827326395,0.9950442878733067,0.6012036776136714,1.118976689406999,1.6487044058446718,2,right
6.521,-0.5224453259164157,0.31084774694164835,0.0012365223480439462,1.3289812886785515,-4.361069646004701,0.9975804536204127,0.6001435560746388,1.1198171313889145,1.6873509821570967,2,right
6.524,-0.5230675991235583,0.3175087329137017,-0.0014198074713292759,1.3026432101492305,-4.444249376007148,0.9996778232998453,0.5987254432603315,1.1202759090342593,1.7248241753896978,2,right
6.525,-0.5237004170139599,0.3243128460441299,-0.004031622291885351,1.275967030003305,-4.525509770806353,1.0013433969365582,0.5969535506543118,1.1203620155553853,1.7611045096309745,2,right
6.529,-0.5243421761813388,0.3312553648187882,-0.006597608357060524,1.2489426937848804,-4.604820890868868,1.0025842035120751,0.594832405976583,1.1200843601875463,1.7961734098978006,2,right
6.53,-0.52499121899317,0.338331531894192,-0.009116478303015376,1.221560525423732,-4.682154064737878,1.003407298413125,0.5923668432613712,1.1194517534869926,1.8300132193125813,2,right
6.531000000000001,-0.5256458397079186,0.34553655656164556,-0.011586972601053515,1.193811255647038,-4.757481896339216,1.0038197624879301,0.5895619926147959,1.1184728934497286,1.8626072163626337,2,right
6.534,-0.5263042908094766,0.3528656172304899,-0.014007861042461829,1.165686050680748,-4.830778274058275,1.0038287026877821,0.586423269839811,1.1171563525838288,1.8939396313592975,2,right
6.535,-0.526964789532431,0.3603138639361693,-0.016377944271160766,1.1371765411386132,-4.902018381291389,1.0034412541406212,0.5829563660664365,1.1155105660337663,1.9239956614565643,2,right
6.535,-0.5276255245497711,0.36787642087790806,-0.018696055368812792,1.1082748509608977,-4.971178707391639,1.002664583268651,0.5791672374372752,1.1135438207940611,1.952761484027862,2,right
6.539,-0.5282846627938498,0.37554838898835297,-0.0209610614938828,1.0789736262443077,-5.038237057491116,1.0015058914311432,0.575062094848981,1.1112642460151687,1.980224268441815,2,right
6.539,-0.5289403563769821,0.38332484853142024,-0.023171865570921685,1.0492660638229792,-5.103172560107871,0.9999724187021698,0.5706473937397345,1.1086798043969,2.006372186323294,2,right
6.544,-0.5295907495713134,0.3912008617180234,-0.02532740802149111,1.0191459394941853,-5.1659656722176335,0.9980714476253791,0.5659298239118524,1.1057982846637375,2.03119442038236,2,right
6.545,-0.5302339858031261,0.3991714753261419,-0.027426668525413797,0.9886076358006924,-5.226598181896493,0.9958103069165612,0.5609162993777521,1.1026272951155194,2.054681171889979,2,right
6.5489999999999995,-0.5308682146154267,0.4072317233111836,-0.029468667799652896,0.9576461692844088,-5.285053208721013,0.9931963751096095,0.5556139482166037,1.0991742582460804,2.076823666875588,2,right
6.55,-0.5314915985539987,0.41537662939274184,-0.031452469381704824,0.9262572171247868,-5.341315202106146,0.9902370841404352,0.5500301024281319,1.0954464064215923,2.097614161117812,2,right
6.555,-0.5321023199351922,0.4236012096040502,-0.03337718140688118,0.894437143074239,-5.39536993775508,0.9869399228623558,0.5441722877691808,1.0914507786095062,2.117045943995773,2,right
6.555,-0.5326985874559962,0.43190047479066646,-0.035241958374642945,0.862183022601617,-5.447204512388931,0.9833124404854628,0.5380482135578251,1.0871942181481962,2.135113341264592,2,right
6.561,-0.5332786426069467,0.4402694330450193,-0.03704600290447714,0.8294926671535698,-5.496807336917856,0.9793622499314856,0.5316657624290029,1.0826833715466078,2.1518117168147883,2,right
6.561,-0.5338407658473263,0.4487030920637532,-0.03878856748309082,0.7963646474423667,-5.544168128208846,0.9750970310946916,0.5250329800248587,1.0779246883024494,2.167137473471392,2,right
6.563,-0.5343832825017965,0.4571964614164663,-0.04046895620231221,0.7627983156675232,-5.58927789959909,0.970524533998424,0.5181580646022208,1.0729244217267102,2.1810880528846615,2,right
6.563,-0.5349045683388902,0.4657445547182947,-0.042086526483058814,0.728793826577315,-5.632128950297374,0.9656525818359413,0.511049356538896,1.0676886307615652,2.193661934560363,2,right
6.568,-0.5354030547953272,0.4743423917030534,-0.043640690775892124,0.6943521572750103,-5.672714853809561,0.9604890738833256,0.5037153277197434,1.0622231827780049,2.20485863407364,2,right
6.57,-0.5358772338170441,0.4829850001953385,-0.04513091822361613,0.6594751256733958,-5.711030445517721,0.9550419882713386,0.49616457078279685,1.0565337573388414,2.2146787005065405,2,right
6.574,-0.5363256622985313,0.4916674179796119,-0.04655673626787987,0.6241654074999098,-5.747071809535984,0.949319384602247,0.4884057882050339,1.0506258509120625,2.223123713145329,2,right
6.574,-0.536746966114853,0.5003846945650842,-0.04791773218169196,0.588426551753446,-5.780836264959709,0.9433294063968033,0.4804477812067373,1.0445047825188427,2.2301962774697417,2,right
6.579,-0.5371398437530159,0.5091318928483631,-0.04921355451285733,0.5522629945126427,-5.8123223516180405,0.9370802833557482,0.47229943845278066,1.038175700299882,2.235900020462403,2,right
6.579,-0.5375030695603054,0.5179040906793976,-0.050443914426896254,0.5156800709942266,-5.841529815433358,0.9305803334194138,0.4639697245285658,1.03164358898311,2.240239585262669,2,right
6.582999999999999,-0.5378354966380292,0.5266963823380413,-0.051608586939533935,0.4786840257587562,-5.868459593484628,0.923837964608239,0.4554676681677701,1.024913278235183,2.243220625185222,2,right
6.584,-0.5381360594197119,0.5355038799288361,-0.052707412028648655,0.4412820209598839,-5.893113798865122,0.9168616766262614,0.44680235020851683,1.0179894518786043,2.2448497971198145,2,right
6.587000000000001,-0.538403775980584,0.5443217147026491,-0.053740295616294266,0.4034821425320611,-5.915495705418375,0.9096600622089323,0.437982891254056,1.0108766579557091,2.2451347543246363,2,right
6.587999999999999,-0.5386377501285055,0.5531450383162313,-0.054707210415138104,0.3652934042104199,-5.935609732429776,0.902241808195902,0.4290184390135529,1.0035793196201945,2.2440841386218895,2,right
6.593999999999999,-0.5388371733264928,0.5619690240421656,-0.05560819663910435,0.3267257492754026,-5.95346142934462,0.8946156963087566,0.4199181552981114,0.9961017468363115,2.2417075720002613,2,right
6.597,-0.5390013264958499,0.5707888679404572,-0.056443362581549104,0.28779004991357054,-5.969057460576924,0.8867906036130315,0.4106912026467135,0.9884481488652953,2.238015647625135,2,right
6.602,-0.5391295817460285,0.5795997900009716,-0.05721288506449893,0.24849810408490738,-5.982405590466797,0.878775502643216,0.40134673057754927,0.9806226475039278,2.2330199202586054,2,right
6.605,-0.5392214040704965,0.5883970352656865,-0.057917009762039784,0.20886262978584502,-5.993514668437663,0.870579461168855,0.3918938615658391,0.9726292909688443,2.2267328961128707,2,right
6.607,-0.5392763530380832,0.5971758749421504,-0.058556051402706484,0.16889725659618657,-6.0023946143981615,0.8622116415792902,0.3823416770397267,0.9644720681923153,2.2191680222023735,2,right
6.609,-0.5392940845016051,0.6059316075228348,-0.05913039385952992,0.1286165143970775,-6.009056404427098,0.8536812998640366,0.37269920379150623,0.956154923223979,2.2103396752816225,2,right
6.609,-0.5392743523414784,0.6146595599264909,-0.059640490140062105,0.08803581914619284,-6.013512056773364,0.8449977841652647,0.3629754010951125,0.9476817695032772,2.200263150426617,2,right
6.61,-0.5392170102567512,0.623355088676653,-0.060086862290002936,0.04717145564284254,-6.015774618191317,0.8361705328819425,0.3531791486296799,0.9390565038942561,2.188954649268549,2,right
6.611000000000001,-0.5391220136073706,0.632013581131002,-0.0604701012225427,0.0060405574521979295,-6.015858150600551,0.8272090723225604,0.34331923520269175,0.9302830204446929,2.176431267859518,2,right
6.612,-0.5389894213032629,0.6406304567751426,-0.060790866482773376,-0.03533891541568986,-6.013777718007275,0.8181230139350415,0.33340434824480714,0.921365223845216,2.162710984141352,2,right
6.612,-0.5388193977296063,0.6492011685948901,-0.06104988595387898,-0.07694820023981709,-6.009549373593006,0.8089220511598705,0.32344306404824097,0.9123070425636504,2.1478126449850743,2,right
6.6129999999999995,-0.5386122146912562,0.6577212045404606,-0.06124795550882876,-0.1187677561410059,-6.0031901468952515,0.7996159559342428,0.31344383872039194,0.9031124416293904,2.1317559527650856,2,right
6.617000000000001,-0.5383682533529653,0.6661860890942018,-0.06138593860717208,-0.16077728928748075,-5.994718031043971,0.790214574842565,0.3034149998242531,0.8937854350421925,2.1145614514286897,2,right
6.617999999999999,-0.5380880061486993,0.6745913849531198,-0.06146476583237084,-0.20295577882525215,-5.984151970036686,0.7807278248904633,0.29336473867700763,0.8843300977793715,2.0962505120181985,2,right
6.622999999999999,-0.5377720786333174,0.6829326948395781,-0.06148543436269025,-0.24528150365340023,-5.971511846034005,0.7711656888755903,0.283301103278103,0.8747505773749997,2.076845317599541,2,right
6.624,-0.5374211912514351,0.6912056634572391,-0.061449007368285576,-0.28773207016489516,-5.9568184666512565,0.7615382103282392,0.2732319918380098,0.8650511050443195,2.0563688475480215,2,right
6.627000000000001,-0.537036181000647,0.6994059796139231,-0.061356613328429295,-0.33028444107407545,-5.9400935522159335,0.7518554879945369,0.2631651468788126,0.8552360063262179,2.0348448611386787,2,right
6.627999999999999,-0.5366180029694467,0.7075293785387952,-0.061209445265977915,-0.372914965452326,-5.921359722954674,0.7421276698347685,0.253108149877738,0.8453097112162528,2.012297880385543,2,right
6.632000000000001,-0.5361677317333106,0.7155716444271697,-0.06100875990069076,-0.41559941009385565,-5.900640486067613,0.7323649465091966,0.24306841642471164,0.8352767637623748,1.988753172071022,2,right
6.632000000000001,-0.5356865625941374,0.7235286132501684,-0.06075587672754334,-0.4583129923337653,-5.87796022264212,0.7225775443235815,0.23305319186504098,0.8251418310951601,1.964236728903637,2,right
6.6370000000000005,-0.5351758126480082,0.7313961758672698,-0.0604521770298581,-0.5010304144408197,-5.853344174352135,0.712775717606478,0.22306954739834894,0.8149097118640471,1.938775249739389,2,right
6.638,-0.5346369216654298,0.7391702814775235,-0.060099102837793045,-0.5437258997074916,-5.826818429883662,0.7029697404902879,0.2131243766049317,0.804585344050765,1.912396118799177,2,right
6.643,-0.5340714527706633,0.7468469414416361,-0.05969815583586789,-0.5863732303599273,-5.798409911021285,0.6931698980679709,0.20322439237078577,0.7941738121308501,1.885127383811893,2,right
6.65,-0.5334810929164149,0.754422233505897,-0.05925089620823583,-0.628945787410495,-5.768146358325081,0.6833864768972788,0.19337612418263853,0.7836803535538666,1.8569977330101102,2,right
6.651,-0.5328676531655733,0.7618923064623562,-0.05875894139659035,-0.671416592575512,-5.736056316321771,0.6736297548243664,0.1835859157644266,0.7731103645126823,1.8280364709026438,2,right
6.652,-0.532233068803818,0.7692533852860359,-0.058223964744844134,-0.7137583523806067,-5.702169118128549,0.6639099900986469,0.1738599230267963,0.7624694049719037,1.7982734927457138,2,right
6.654,-0.5315793993050901,0.7765017767934106,-0.057647694020182216,-0.7559435045759588,-5.666514869422742,0.6542374097508105,0.16420411230134857,0.7517632029253339,1.767739257631959,2,right
6.655,-0.5309088281511501,0.7836338758600604,-0.057031909826244356,-0.7979442669833644,-5.629124431665142,0.6446221972059987,0.15462425883151673,0.7409976578521015,1.736464760114173,2,right
6.656000000000001,-0.5302236624724795,0.7906461722167363,-0.05637844395382781,-0.8397326888967048,-5.590029404479743,0.6350744791042342,0.14512594549214972,0.7301788433409064,1.704481500278322,2,right
6.657,-0.5295263324450384,0.797535257816049,-0.05568917773748621,-0.8812807051569448,-5.549262107087532,0.625604311300343,0.13571456171007493,0.7193130088516375,1.6718214521782004,2,right
6.6610000000000005,-0.5288193903587771,0.8042978347336943,-0.05496604048562707,-0.9225601930222579,-5.506855558686979,0.6162216640157664,0.126395302558132,0.7084065805834471,1.6385170305419434,2,right
6.662000000000001,-0.5281055092723798,0.8109307235457109,-0.0542110080131795,-0.9635430319532643,-5.462843457668986,0.6069364061148578,0.11717316799540327,0.6974661614182195,1.6046010556585877,2,right
6.666,-0.5273874811793541,0.8174308721141098,-0.053426101239835704,-1.0042011664326784,-5.4172601595492536,0.59775828847848,0.10805296223244636,0.6864985299138366,1.5701067164104439,2,right
6.666,-0.5266682146253207,0.8237953647229518,-0.052613384761602856,-1.0445066719378893,-5.370140653496319,0.588696926447971,0.09903929322975248,0.6755106383495618,1.5350675317127622,2,right
6.667000000000001,-0.5259507317238669,0.8300214315325932,-0.05177496528818349,-1.0844318241841475,-5.321520537328904,0.5797617813128246,0.09013657239040918,0.6645096098762238,1.4995173111560602,2,right
6.671,-0.5252381645022972,0.8361064583479969,-0.05091298984956931,-1.1239491717550982,-5.271435990851686,0.5709621408157409,0.08134901453739267,0.6535027348518339,1.463490115942386,2,right
6.6739999999999995,-0.524533750461078,0.8420479967129614,-0.05002964368617755,-1.1630316122363848,-5.219923747394237,0.5623070986490354,0.07268063823706683,0.6424974664151812,1.4270202209076603,2,right
6.675,-0.5238408271701619,0.8478437743388354,-0.049127147749505995,-1.2016524718313524,-5.167021063495216,0.553805532954679,0.06413526647830702,0.6315014152994576,1.3901420778851323,2,right
6.676,-0.5231628256885259,0.8534917058568657,-0.04820775576245211,-1.2397855877586457,-5.112765687078375,0.5454660840302302,0.05571652768784391,0.6205223438599129,1.3528902803660432,2,right
6.6770000000000005,-0.5225032625910125,0.8589899038494269,-0.047273750808852974,-1.2774053915097554,-5.057195825198246,0.5372971317846145,0.047427857056933746,0.6095681592839444,1.315299529352798,2,right
6.681,-0.5218657303791253,0.8643366900507657,-0.04632744142238523,-1.3144869903651808,-5.000350112838059,0.5293067736777516,0.03927249815481409,0.5986469059520453,1.277404600298785,2,right
6.683,-0.521253886010413,0.8695306064999413,-0.045371157116085324,-1.3510062452445402,-4.94226758382989,0.5215028036888902,0.03125350480476783,0.5877667569180923,1.2392403110279018,2,right
6.685,-0.5206714372420118,0.8745704263059174,-0.04440724324262288,-1.3869398441849776,-4.882987644227811,0.513892692517722,0.023373743198991253,0.5769360044775189,1.2008414905258729,2,right
6.686,-0.5201221265003575,0.8794551635998926,-0.04343805502825809,-1.4222653714187292,-4.822550048052543,0.506483569033257,0.01563589422884448,0.5661630497920195,1.162242948494574,2,right
6.692,-0.5196097120720173,0.8841840822360012,-0.042465950610952076,-1.4569613721547097,-4.760994875240858,0.4992822029480591,0.008042456007454152,0.5554563915395458,1.123479445559799,2,right
6.695,-0.5191379465470023,0.888756702862401,-0.0414932829533537,-1.491007413167297,-4.698362511629493,0.49229498869599314,0.0005957465620376134,0.5448246135585005,1.0845856640222373,2,right
6.6979999999999995,-0.5187105526177815,0.8931728081050938,-0.040522390593410736,-1.5243841392937534,-4.6346936308000615,0.4855279304922157,-0.0067020933262748085,0.5342763714551968,1.0455961790408552,2,right
6.699,-0.5183311965173302,0.8974324457590994,-0.03955558732109463,-1.5570733259399059,-4.570029177608208,0.47898662855473406,-0.013849097156928305,0.5238203781438482,1.0065454301373933,2,right
6.702000000000001,-0.5180034595355903,0.9015359300337867,-0.038595151002015674,-1.5890579276918566,-4.504410353217177,0.47267626646747535,-0.020843469640130712,0.5134653882885611,0.9674676929103273,2,right
6.702999999999999,-0.5177308081601432,0.905483841023242,-0.037643311883476006,-1.6203221231295584,-4.437878601452971,0.46660159966543735,-0.02768358354369876,0.5032201816170498,0.9283970508463589,2,right
6.706,-0.5175165634339204,0.9092770226512693,-0.03670224080041974,-1.6508513559361304,-4.370475596295421,0.4607669450231398,-0.03436797647709101,0.4930935450760534,0.8893673671173277,2,right
6.707000000000001,-0.5173638701186108,0.912916579368374,-0.035774037736955734,-1.6806323723947634,-4.302243230316766,0.45517617152826007,-0.04089534763271692,0.48309425379872734,0.8504122562503578,2,right
6.71,-0.5172756662167971,0.9164038718583282,-0.034860721185314705,-1.709653255362997,-4.233223603876692,0.44983269202301096,-0.0472645545041688,0.4732310508545976,0.8115650555590737,2,right
6.711,-0.5172546533605096,0.9197405119565499,-0.033964218677876405,-1.7379034548120404,-4.163459014880291,0.4447394559965066,-0.053474609600576165,0.463512625753003,0.7728587962238325,2,right
6.715,-0.5173032685369384,0.9229283569106033,-0.033086358759278026,-1.7653738150166662,-4.092991948903027,0.4398989434120646,-0.05952467717583163,0.4539475916713208,0.7343261739091417,2,right
6.716,-0.5174236576055042,0.9259695030445781,-0.03222886453184655,-1.792056598479024,-4.02186506948451,0.43531315955409916,-0.06541406999098304,0.44454446137966025,0.6959995188067316,2,right
6.72,-0.5176176510643304,0.9288662788372352,-0.031393348772326836,-1.817945506667505,-3.950121208390767,0.4309836308799799,-0.07114224612763004,0.435311621834123,0.6579107649931629,2,right
6.721,-0.5178867425324607,0.9316212373923262,-0.030581310507882185,-1.843035697649563,-3.8778033556426648,0.4269114018629539,-0.07670880586970373,0.4262573074111711,0.6200914189913427,2,right
6.725,-0.5182320704039537,0.9342371482662156,-0.029794132872288274,-1.8673238006951272,-3.804954649106245,0.4230970328129629,-0.08211348867054699,0.41738957175610963,0.5825725274259176,2,right
6.725,-0.5186544030859831,0.9367169886204051,-0.029033082040035064,-1.8908079279249648,-3.731618363438971,0.41954059866291704,-0.08735617022174998,0.40871625821917507,0.545384643663192,2,right
6.73,-0.5191541281529407,0.9390639336843323,-0.028299307048305203,-1.9134876830760696,-3.6578378981842126,0.4162416887087308,-0.09243685963973163,0.4002449688532396,0.5085577933269935,2,right
6.73,-0.5197312456388493,0.9412813465444712,-0.027593840354465465,-1.9353641674538427,-3.583656764804811,0.41319940729216226,-0.0973556967855931,0.39198303194767076,0.47212143858277,2,right
6.736000000000001,-0.5203853655624251,0.9433727673110106,-0.02691759902434876,-1.9564399831385282,-3.509118572445124,0.410412375416238,-0.1021129497333038,0.38393746807344836,0.4361044410831513,2,right
6.737,-0.521115709652142,0.9453419017401483,-0.02627138648384838,-1.9767192335110606,-3.4342670122097005,0.4078787332837858,-0.10670901239386318,0.3761149546887468,0.4005350235458349,2,right
6.7379999999999995,-0.5219211171435262,0.9471926093961264,-0.025655894782644652,-1.996207521161173,-3.3591458397455716,0.40559614375033154,-0.11114440226785166,0.368521789722434,0.3654407303187266,2,right
6.739,-0.522800054476465,0.9489288914207697,-0.025071707319569404,-2.014911943200503,-3.283798855963231,0.4035617966843014,-0.11541975823574414,0.36116385521531724,0.330848387977773,2,right
6.74,-0.5237506287072045,0.9505548779517268,-0.024519301972457684,-2.0328410838120696,-3.208269885975974,0.40177241423295684,-0.11953583826013253,0.35404658246724663,0.29678406738716157,2,right
6.74,-0.5247706044278073,0.9520748152041232,-0.023999054561177263,-2.0500050035248565,-3.132602756778407,0.40022425700177067,-0.12349351690830615,0.3471749197712045,0.2632730482699755,2,right
6.745,-0.5258574239189622,0.9534930521979682,-0.02351124254288336,-2.0664152245109304,-3.056841274429795,0.3989131311604271,-0.12729378266575664,0.34055330315442595,0.23033978664952268,2,right
6.745,-0.5270082301414816,0.9548140270700052,-0.02305604879529923,-2.0820847113893604,-2.9810292012618884,0.3978343964845704,-0.13093773504548037,0.33418563017964265,0.19800788514012652,2,right
6.749,-0.5282198920419723,0.956042252871596,-0.02263356531499946,-2.0970278473593704,-2.905210233188562,0.396982975334554,-0.13442658150445008,0.3280752367867205,0.16630006599116184,2,right
6.75,-0.5294890315672993,0.9571823027533437,-0.022243796675235853,-2.1112604056720796,-2.8294279769488107,0.396353362568367,-0.13776163417817502,0.32222487715567627,0.13523814678977958,2,right
6.754,-0.5308120517667454,0.958238794484427,-0.021886663155398885,-2.124799516485876,-2.7537259270654135,0.39593963638562724,-0.1409443064438206,0.3166367065727878,0.10484301872948677,2,right
6.755,-0.5321851653956563,0.9592163743343667,-0.021562003548038014,-2.137663629148384,-2.678147442301557,0.3957354701001834,-0.14397610932191282,0.311312267282251,0.07513462735354214,2,right
6.7589999999999995,-0.5336044235013648,0.9601197004292158,-0.021269577735868933,-2.1498724699459486,-2.6027357213978037,0.3957341448395046,-0.14685864772621096,0.30625247730658073,0.04613195568397855,2,right
6.7589999999999995,-0.5350657435525772,0.9609534257610084,-0.02100906918341592,-2.1614469953595736,-2.5275337778720237,0.3959285631696553,-0.14959361657089507,0.3014576222197067,0.01785300964897895,2,right
6.763,-0.5365649367519368,0.9617221810684384,-0.02078008749798644,-2.172409340864305,-2.4525844136652766,0.3963112636452546,-0.15218279674378116,0.2969273498574692,-0.009685194276698178,2,right
6.763999999999999,-0.5380977342401845,0.962430557815747,-0.02058217119275086,-2.182782765307183,-2.3779301914170867,0.39687443628440106,-0.1546280509538484,0.29266066795098156,-0.03646663930152155,2,right
6.769,-0.5396598119575897,0.9630830914776535,-0.020414790749537705,-2.192591590897062,-2.3036134051541763,0.3976099389691049,-0.15693131946093922,0.28865594466908245,-0.062476316498419546,2,right
6.77,-0.5412468139764859,0.9636842452966017,-0.020277352048509122,-2.2018611388378337,-2.229676049177438,0.39850931477231105,-0.15909461569507427,0.2849109120568633,-0.0877002310165176,2,right
6.775,-0.5428543741614094,0.964238394624081,-0.02016920021342325,-2.2106176606349117,-2.1561597849327727,0.3995638102131122,-0.16112002177241086,0.28142267235800916,-0.1121254064002843,2,right
6.78,-0.5444781360520373,0.9647498119026632,-0.020089623906245194,-2.218888265103209,-2.0831059056523933,0.4007643944422476,-0.16300968391446607,0.27818770720944375,-0.1357398870907749,2,right
6.782,-0.5461137708971524,0.9652226523019332,-0.020037860077703747,-2.2267008411032907,-2.0105552985542814,0.40210177936045155,-0.16476580777682348,0.27520188969751447,-0.15853273918140565,2,right
6.7829999999999995,-0.5477569937941452,0.9656609399983077,-0.020013099133577517,-2.2340839760309223,-1.9385484043886925,0.4035664406726626,-0.1663906536931465,0.2724604992656886,-0.18049404949840073,2,right
6.784,-0.5494035779101267,0.9660685550896447,-0.020014490418775878,-2.241066870083823,-1.867125174121937,0.40514863988152144,-0.16788653183993182,0.26995823946445857,-0.20161492307372555,2,right
6.7860000000000005,-0.551049366781471,0.9664492211602026,-0.020041147871841206,-2.247679246328139,-1.796325022549099,0.4068384472239789,-0.1692557973270525,0.26768925853486936,-0.22188747907596368,2,right
6.787999999999999,-0.5526902847132563,0.9668064935552566,-0.020092155678728133,-2.2539512565859,-1.7261867786289269,0.408625765555201,-0.1705008452187634,0.2656471728177805,-0.24130484526220666,2,right
6.789,-0.5543223453323015,0.9671437484782172,-0.020166573765334463,-2.259913383163597,-1.6567486323358025,0.41050035518429506,-0.17162410548947157,0.2638250929816618,-0.2598611510116148,2,right
6.794,-0.5559416583870048,0.9674641730739777,-0.02026344301198744,-2.265596336440924,-1.5880480778254769,0.412451859666689,-0.17262803791820988,0.26221565306239164,-0.2775515189988708,2,right
6.794,-0.5575444349281224,0.9677707566977528,-0.02038179013727492,-2.2710309483377773,-1.520121852713169,0.41446983255827696,-0.17351512692539625,0.26081104230917584,-0.2943720555632964,2,right
6.797000000000001,-0.5591269910370749,0.968066283579561,-0.02052063226247959,-2.276248061676708,-1.4530058732646345,0.41654376513669306,-0.17428787635511017,0.2596030398313376,-0.3103198398269265,2,right
6.797999999999999,-0.5606857502844419,0.9683533270783726,-0.02067898121256522,-2.2812784154572148,-1.386735165302919,0.4186631150952986,-0.17494880420577605,0.2585830520413373,-0.3253929116123545,2,right
6.803,-0.5622172450984513,0.9686342456821565,-0.020855847626544372,-2.2861525260575566,-1.3213437906357421,0.4208173362156554,-0.17550043731703227,0.2577421528181611,-0.3395902582119017,2,right
6.803,-0.5637181172015698,0.968911180860572,-0.021050244942090235,-2.290900564379137,-1.2568647688107846,0.42299590902442197,-0.17594530604635955,0.25707112595673254,-0.35291180007336737,2,right
6.803999999999999,-0.5651851172416688,0.9691860568256825,-0.021261193297155388,-2.295552228947984,-1.193329994008568,0.4251883724407363,-0.1762859390157446,0.25656050882325776,-0.36535837549426914,2,right
6.807,-0.5666151037260282,0.9694605822078974,-0.021487723365783213,-2.3001366149873834,-1.1307701468851492,0.42738435642025346,-0.17652485803446497,0.25620063577788144,-0.3769317244301745,2,right
6.808,-0.5680050413749516,0.9697362536075226,-0.021728880120153355,-2.3046820794753735,-1.0692146011794672,0.4295736156020719,-0.17666457327765026,0.25598168028556506,-0.3876344715040075,2,right
6.808,-0.5693519990289112,0.9700143609364585,-0.021983726488183766,-2.3092161024301685,-1.008691325167997,0.4317460639150779,-0.17670757875295237,0.2558936952828438,-0.39747010827153395,2,right
6.813,-0.5706531472430985,0.9702959944320024,-0.02225134686369044,-2.3137651458145707,-0.9492267793777092,0.4338918098515086,-0.17665634806124134,0.255926651727597,-0.4064429747795192,2,right
6.814,-0.5719057556848478,0.9705820532122895,-0.02253085042972996,-2.318354513517081,-0.8908458143571858,0.4360011916677851,-0.17651333045173342,0.25607047533118293,-0.41455824044731215,2,right
6.821000000000001,-0.573107190434736,0.970873255227452,-0.02282137426742838,-2.3230082170155675,-0.8335715736342523,0.43806481152388344,-0.1762809471716806,0.25631508147266246,-0.42182188430011985,2,right
6.827000000000001,-0.5742549112946018,0.9711701484204389,-0.023122086230752202,-2.3277488501812047,-0.7774254056659807,0.4400735678211702,-0.17596158811047907,0.2566504082951854,-0.4282406745797603,2,right
6.829,-0.5753464692112166,0.9714731228653738,-0.023432187571100303,-2.3325974746137526,-0.72242678620405,0.4420186854462577,-0.17555760873779166,0.2570664479849301,-0.43382214775621986,2,right
6.83,-0.5763795039155203,0.9717824236270065,-0.023750915299878248,-2.337573515751237,-0.6685932511760831,0.44389174387703867,-0.17507132733502112,0.25755327623327895,-0.43857458696089585,2,right
6.83,-0.5773517418555739,0.9720981640832668,-0.024077544285325193,-2.3426946697676865,-0.6159403399217129,0.4456847031566518,-0.1745050225192226,0.25810107988316905,-0.4425069998599803,2,right
6.831,-0.5782609944756343,0.972420339464435,-0.02441138909073076,-2.347976821272905,-0.5644815486254152,0.44738992774095,-0.17386093105829944,0.2587001827607943,-0.4456290959840364,2,right
6.834,-0.5791051568693153,0.9727488403825841,-0.02475180557114652,-2.353433971828607,-0.5142282937914961,0.4490002082248314,-0.1731412459760902,0.259341069694035,-0.4479512635274402,2,right
6.834,-0.579882206813539,0.9730834661495179,-0.025098192249911905,-2.3590781792956648,-0.46518988561000196,0.4505087809525713,-0.17234811494572483,0.2600144087191677,-0.44948454562900503,2,right
6.837000000000001,-0.580590204170927,0.9734239377046123,-0.025449991493780973,-2.36491950802767,-0.41737351106575077,0.45190934551703504,-0.17148363896940455,0.26071107147755695,-0.45024061614277944,2,right
6.837999999999999,-0.5812272906301068,0.9737699099924603,-0.025806690502547077,-2.370965989926513,-0.3707842266461405,0.4531960801523848,-0.17054987134254274,0.2614221518041487,-0.4502317549057137,2,right
6.8420000000000005,-0.5817916897370055,0.9741209836440834,-0.0261678221329128,-2.3772235963762154,-0.3254249605068751,0.45436365502459936,-0.1695488168999926,0.2621389825096807,-0.449470822506625,2,right
6.8420000000000005,-0.5822817071574204,0.9744767158268831,-0.026532965584824854,-2.3836962210718164,-0.2812965239582559,0.4554072434238191,-0.16848243154188294,0.26285315035859236,-0.4479712345586596,2,right
6.847,-0.5826957311038853,0.9748366301418563,-0.026901746982022398,-2.3903856737606946,-0.23839763213820644,0.45632253086220026,-0.16735262203638354,0.26355650924465707,-0.4457469354752535,2,right
6.848,-0.5830322328602304,0.975200225467403,-0.027273839870386337,-2.3972916849143067,-0.19672493374172642,0.4571057220806224,-0.16616124609652871,0.2642411915663793,-0.44281237174743615,2,right
6.852,-0.5832897673461469,0.9755669836795777,-0.02764896563734163,-2.4044119213489434,-0.15627304968000352,0.4577535459672377,-0.16491011272803993,0.2648996178041897,-0.439182464718198,2,right
6.852,-0.5834669736793406,0.9759363762168158,-0.028026893826080326,-2.4117420128147202,-0.11703462054593854,0.4582632583904836,-0.16360098284490568,0.265524504301442,-0.43487258284756297,2,right
6.857,-0.5835625757092345,0.9763078694990268,-0.028407442286791647,-2.419275589572638,-0.07900036276635786,0.4586326429488009,-0.16223557014929987,0.2661088692511629,-0.4298985134599694,2,right
6.859,-0.5835753825076656,0.9766809292508741,-0.028790477084570124,-2.427004330980154,-0.04215913332468982,0.4588600096389131,-0.16081554227224884,0.2666460368904301,-0.4242764339635628,2,right
6.861000000000001,-0.5835042888045142,0.9770550238110208,-0.029175912079636733,-2.4349180251063096,-0.006498002941363359,0.45894419144412635,-0.1593425221712891,0.2671296399041585,-0.41802288252905456,2,right
6.862,-0.5833482753482077,0.9774296265306696,-0.029563708111189954,-2.443004639398041,0.027997662397357057,0.4588845388437073,-0.15781808978119768,0.2675536200399592,-0.411154728213892,2,right
6.875,-0.5831064091543673,0.9778042173775104,-0.029953871743852025,-2.451250402419851,0.061344111667963226,0.4586809122439902,-0.15624378391371885,0.267912226935601,-0.40368914051562454,2,right
6.876,-0.5827778435855291,0.9781782838673112,-0.03034645356443239,-2.459639896689551,0.09355911089819814,0.4583336723314528,-0.15462110440205915,0.26820001516045006,-0.3956435583365375,2,right
6.877000000000001,-0.5823618181885841,0.9785513214440057,-0.030741546039611364,-2.46815616263327,0.1246618372145858,0.4578436683475891,-0.15295151448149705,0.26841183950287656,-0.38703565837246107,2,right
6.877999999999999,-0.5818576582131595,0.978922833416441,-0.031139280959059833,-2.4767808136833938,0.15467276494482968,0.4572122242849961,-0.15123644337592165,0.2685428486893461,-0.37788332309995165,2,right
6.877999999999999,-0.5812647737439797,0.9792923305389981,-0.031539826493607884,-2.485494162543491,0.18361354386766618,0.45644112300367784,-0.14947728902147722,0.2685884779977576,-0.36820460882778705,2,right
6.879,-0.5805826583907061,0.9796593303098986,-0.03194338390114386,-2.494275358644657,0.21150686969956697,0.4555325882661623,-0.1476754208369665,0.26854444138128936,-0.3580177144401056,2,right
6.879,-0.5798108874824521,0.9800233560623196,-0.03235018392006096,-2.5031025365196733,0.23837634712384745,0.45448926472359497,-0.14583218247192367,0.2684067235648668,-0.34734095129395226,2,right
6.88,-0.5789491157200991,0.9803839359234202,-0.032760482896028634,-2.511952973330005,0.264246346761153,0.45331419605444745,-0.14394889450164028,0.2681715722990716,-0.3361927144390715,2,right
6.881,-0.5779970742545143,0.9807406017034425,-0.03317455868756488,-2.5208032510958733,0.2891418594509637,0.4520108017628537,-0.1420268570596932,0.2678354908021415,-0.32459145516332455,2,right
6.881,-0.5769545671775539,0.9810928877624862,-0.033592706397618834,-2.5296294176881418,0.3130883523073044,0.45058285331307535,-0.14006735240268212,0.2673952303896555,-0.3125556548330987,2,right
6.886,-0.5758214674315628,0.9814403298954714,-0.034015233989043325,-2.5384071421324492,0.3361116299124918,0.44903445010634635,-0.13807164740176942,0.2668477832912235,-0.30010379999672254,2,right
6.8870000000000005,-0.574597712163959,0.9817824642681277,-0.03444245785335267,-2.547111862460998,0.3582377020362743,0.4473699955002075,-0.1360409959555035,0.2661903756532057,-0.28725435871759886,2,right
6.891,-0.5732832975772834,0.982118826422158,-0.03487469840492402,-2.5557189258389643,0.3794926581685099,0.4455941729002126,-0.13397664131829928,0.26542046072619196,-0.27402575810252094,2,right
6.891,-0.5718782733506693,0.9824489503510817,-0.03531227576740458,-2.564203720990698,0.3999025489315782,0.44371192191956776,-0.13187981833884516,0.2645357122356622,-0.26043636298943923,2,right
