time,gFx,gFy,gFz,ax,ay,az,wx,wy,wz,subject_number,foot
6.644,0.572254280678305,0.7885895944545048,0.2494119538625163,0.3491887682540056,-6.532206587043707,0.7756434107062841,0.38099697940287924,-0.9012015194689876,-1.5506857435000354,3,left
6.645,0.5751162014270124,0.7955667959337085,0.2513234812883698,0.3615097198789233,-6.4460516786879225,0.7777945219633711,0.3636967570497941,-0.8984741505850863,-1.5238680401230003,3,left
6.65,0.5779777234866054,0.8023301650825096,0.25323764884228667,0.3741436593201672,-6.3582999497656045,0.7801481548858138,0.34637115942761015,-0.8955050711810024,-1.4964955793639263,3,left
6.65,0.580838177028561,0.808877279347872,0.2551517202370155,0.3870940045020004,-6.269020694600325,0.782701748734065,0.329038756971903,-0.8922948149516792,-1.4685936478330677,3,left
6.654,0.5836969611464388,0.8152059891480719,0.25706296848215604,0.4003637037781688,-6.178284027500752,0.7854525024758208,0.3117179055966245,-0.8888443560075738,-1.4401879660934571,3,left
6.655,0.5865535410545173,0.821314432625707,0.2589686830559124,0.41395524570103354,-6.08616084107519,0.7883973781438502,0.294426723151256,-0.8851551059564593,-1.411304669586317,3,left
6.6579999999999995,0.5894074455652588,0.8272010505242405,0.2608661766782485,0.4278706701947044,-5.992722762207235,0.7915331040997408,0.27718306545151944,-0.8812289097838771,-1.38197028829308,3,left
6.659,0.5922582649677944,0.8328646009569746,0.2627527915657156,0.44211158117029953,-5.898042105431994,0.7948561782114563,0.26000450205296344,-0.8770680405687902,-1.3522117252351247,3,left
6.66,0.5951056493927402,0.8383041738361569,0.26462590507462996,0.456679160622381,-5.802191823448433,0.79836287095316,0.2429082922653832,-0.8726751931399849,-1.3220562341849378,3,left
6.666,0.5979493077074515,0.8435192047037221,0.2664829346095855,0.4715741842465456,-5.705245454499539,0.8020492284363038,0.2259113620886977,-0.8680534768168073,-1.2915313971133326,3,left
6.667000000000001,0.6007890069376818,0.8485094876047256,0.2683213415784582,0.48679703861908297,-5.607277066348488,0.8059110753815201,0.2090302825685652,-0.863206407338429,-1.260665101743925,3,left
6.669,0.6036245721477153,0.8532751865058303,0.2701386340606631,0.5023477399805514,-5.508361196575609,0.8099440180413852,0.19228124974169775,-0.858137898015488,-1.2294855193109477,3,left
6.67,0.6064558866276613,0.8578168446578143,0.27193236781945146,0.5182259546660624,-5.408572788917814,0.8141434470846317,0.17568006615858772,-0.8528522500985785,-1.1980210824632165,3,left
6.672999999999999,0.609282892147835,0.8621353912741497,0.27370014540183213,0.5344310211758803,-5.30798712550792,0.8185045404590543,0.15924212393518758,-0.8473541423496727,-1.1663004632256353,3,left
6.672999999999999,0.6121055889806123,0.8662321449676835,0.27543961328899413,0.5509619736302599,-5.2066797555620825,0.8230222662816349,0.1429823892854611,-0.8416486198019244,-1.1343525509287362,3,left
6.6739999999999995,0.6149240353689758,0.8701088135485634,0.2771484572898836,0.5678175659022654,-5.104726422309389,0.8276913858603168,0.12691538848714812,-0.835741081692679,-1.1022064300159236,3,left
6.678,0.6177383460743282,0.8737674899907968,0.2788243966080693,0.5849962954726267,-5.0022029906489065,0.8325064569831139,0.11105519523355346,-0.8296372685539071,-1.069891357637359,3,left
6.678999999999999,0.6205486895177503,0.8772106445899188,0.28046517729026016,0.6024964263022478,-4.899185377323858,0.8374618375798993,0.09541541932468144,-0.8233432484436818,-1.0374367409387752,3,left
6.683,0.6233552829195799,0.8804411135640013,0.28206856599219293,0.620316010470039,-4.79574948415243,0.842551689807223,0.08000919665158995,-0.816865402301744,-1.0048721139529315,3,left
6.684,0.6261583848645264,0.8834620845636533,0.28363234503777435,0.6384529085752935,-4.691971134159568,0.8477699845761385,0.0648491804284316,-0.8102104084116307,-0.9722271140009425,3,left
6.69,0.6289582849039663,0.8862770796923695,0.28515430958648064,0.6569048089548765,-4.587926010313965,0.8531105065372623,0.049947533627280855,-0.8033852259513017,-0.9395314575103118,3,left
6.691,0.6317552900942477,0.8888899366825211,0.2866322674495338,0.6756692457664153,-4.483689596573277,0.8585668595376736,0.035315922571516854,-0.7963970776136676,-0.9068149151561816,3,left
6.692,0.6345497086704864,0.8913047888573424,0.2880640417988204,0.694743615989586,-4.379337120939585,0.8641324725646324,0.020965511644237284,-0.7892534312779179,-0.8741072862320862,3,left
6.693,0.637341831291472,0.8935260444658316,0.2894474767546464,0.7141251953985,-4.274943500226391,0.8698006061914432,0.006906959068919872,-0.7819619807120568,-0.8414383721563442,3,left
6.6979999999999995,0.6401319104245407,0.8955583659208666,0.2907804456471387,0.7338111535590889,-4.170583286237854,0.875564359541126,-0.006849586279677005,-0.7745306252865889,-0.808837949020169,3,left
6.699,0.6429201384764641,0.8974066494086077,0.29206086162085343,0.7537985679062791,-4.066330613060648,0.8814166777838673,-0.020294487075576618,-0.7669674486788483,-0.7763357390836008,3,left
6.704,0.6457066252496523,0.8990760052722561,0.29328669017699033,0.7740844369566261,-3.9622591451687263,0.8873503601845208,-0.0334186187929737,-0.7592806965470413,-0.7439613811254764,3,left
6.705,0.648491375247136,0.90057173950646,0.29445596320412853,0.7946656927129571,-3.858442026041321,0.8933580687166991,-0.04621337004844989,-0.7514787531526743,-0.7117443995538477,3,left
6.707000000000001,0.6512742652934166,0.9018993366297675,0.2955667940214156,0.8155392123184312,-3.754951826994879,0.8994323372602535,-0.05867064207261881,-0.7435701169096539,-0.6797141721835419,3,left
6.707999999999999,0.6540550229020621,0.9030644441262142,0.29661739293697414,0.8367018290182885,-3.6518604959301024,0.9055655813991721,-0.07078284734888425,-0.735563374838,-0.647899896587926,3,left
6.712000000000001,0.6568332058141949,0.9040728585531055,0.2976060828042424,0.858150342488406,-3.549239305696017,0.9117501088371383,-0.08254290745605003,-0.7274671758997722,-0.6163305549323858,3,left
6.712999999999999,0.6596081831500094,0.9049305132941111,0.2985313140456244,0.879881528590617,-3.4471588017739254,0.9179781304481834,-0.09394425015055152,-0.7192902031945125,-0.5850348771975694,3,left
6.7170000000000005,0.6623791186409698,0.9056434678049109,0.29939167862246807,0.901892148615579,-3.345688748985239,0.924241771980036,-0.1049808057230889,-0.7110411449912206,-0.5540413027010634,3,left
6.7170000000000005,0.6651449564171411,0.9062178980765295,0.3001859224771371,0.9241789580748042,-3.244898076928546,0.9305330864279168,-0.11564700266343125,-0.70272866457362,-0.5233779398268733,3,left
6.722,0.6679044097853825,0.9066600879471528,0.3009129560541261,0.9467387151042704,-3.1448548238528042,0.936844067096656,-0.12593776266613158,-0.694361368875247,-0.4930725238728651,3,left
6.723,0.6706559533359041,0.9069764208271069,0.30157186260691693,0.9695681885428354,-3.045626078675323,0.9431666613691068,-0.13584849500884574,-0.6859477758806816,-0.4631523729271928,3,left
6.727,0.6733978185605736,0.9071733713562709,0.30216190410334587,0.9926641657494737,-2.9472779208551274,0.9494927851989124,-0.14537509033388563,-0.6774962807690597,-0.43364434168568317,3,left
6.728,0.6761279929813883,0.9072574964938038,0.30268252464955997,1.0160234602241356,-2.849875357834454,0.9558143383457405,-0.1545139138643457,-0.6690151208422438,-0.4045747732129729,3,left
6.729,0.6788442226270968,0.9072354255726558,0.3031333514485257,1.039642919097806,-2.7534822597634663,0.9621232203711271,-0.16326179809398392,-0.6605123396118777,-0.37596944910027624,3,left
6.733,0.6815440175995756,0.9071138489400137,0.30351419338165736,1.0635194305581033,-2.658161291225795,0.9684113474130908,-0.17161603500501346,-0.6519957510170036,-0.34785353928200013,3,left
6.734,0.6842246603968462,0.9068995048988083,0.3038250373696983,1.087649931277516,-2.5639738396852327,0.9746706697576543,-0.17957436787578193,-0.6434729050758161,-0.3202515532236622,3,left
6.736000000000001,0.6868832165534596,0.9065991647352087,0.3040660427560203,1.1120314139121268,-2.4709799403768087,0.9808931902253843,-0.18713498273025933,-0.6349510559430854,-0.29318729374591984,3,left
6.737,0.6895165470641401,0.9062196157127193,0.3042375340454377,1.1366609347394026,-2.3792381973685424,0.9870709833909944,-0.19429649946404876,-0.6264371327471755,-0.2666838139427664,3,left
6.742000000000001,0.692121322045461,0.9057676420750759,0.3043399923883083,1.16153562150437,-2.288805700523426,0.9931962156539741,-0.20105796267156403,-0.617937713248585,-0.2407633772044477,3,left
6.742000000000001,0.6946940351666229,0.9052500042908967,0.3043740462092637,1.1866526815442058,-2.199737938094621,0.9992611661781059,-0.20741883219609153,-0.6094590002955459,-0.21544742026739966,3,left
6.742999999999999,0.6972310185048762,0.9046734169264177,0.30434046134511966,1.2120094102000343,-2.1120887048844685,1.0052582486817379,-0.21337897342330675,-0.6010068010522339,-0.19075651921511858,3,left
6.746,0.6997284576161393,0.9040445255942603,0.3042401309826272,1.2376031992156133,-2.0259100068718343,1.0111800338812336,-0.2189386473376686,-0.59258650897519,-0.16671035835554704,3,left
6.747000000000001,0.7021824067250089,0.9033698833970608,0.3040740655914033,1.2634315442656399,-1.9412519649624882,1.0170192720671083,-0.224098500359964,-0.5842030885136057,-0.14332770190229374,3,left
6.752000000000001,0.7045888040117215,0.9026559272522212,0.3038433829627566,1.2894920504472853,-1.858162721491461,1.02276891511287,-0.2288595539831256,-0.575861062509205,-0.12062636838879966,3,left
6.752000000000001,0.7069434870079524,0.9019089545174277,0.3035492984069179,1.3157824348790625,-1.776688352140371,1.028422137395662,-0.23322319422229507,-0.5675645022715439,-0.09862320774641227,3,left
6.756,0.7092422081202973,0.9011351003900308,0.3031931151137408,1.3423005261094494,-1.6968727841908122,1.033972355430307,-0.2371911608939573,-0.5593170203046521,-0.07733408097923448,3,left
6.757000000000001,0.7114806502916461,0.9003403165573411,0.30277621463161153,1.3690442603481658,-1.618757721069242,1.0394132461974002,-0.2407655367378256,-0.5511217656610644,-0.0567738423705694,3,left
6.76,0.7136544427988767,0.8995303515286118,0.3023000473740801,1.3960116745956261,-1.542382572949405,1.04473876418167,-0.2439487363940174,-0.5429814218994121,-0.03695632415778596,3,left
6.761,0.7157591771823886,0.8987107330086852,0.30176612303485784,1.4232008967467433,-1.467784393183096,1.049943157136545,-0.24674349524692335,-0.534898207621893,-0.01789432361447954,3,left
6.766,0.7177904233138049,0.8978867525890556,0.3011760007825623,1.4506101327459038,-1.3949978203349451,1.0550209805905368,-0.24915285814604424,-0.5268738795680776,0.0004004075191068677,3,left
6.767,0.7197437456292908,0.8970634529392855,0.300531279115261,1.478237650870583,-1.3240550256018941,1.0599671111107332,-0.25118016801294485,-0.5189097382416761,0.017917171314303794,3,left
6.772,0.7216147195806856,0.8962456175850935,0.29983358527738224,1.5060817632217058,-1.2549856654031444,1.0647767583383323,-0.25282905434236075,-0.5110066360470455,0.03464632969561342,3,left
6.773,0.7233989483759492,0.8954377632639465,0.2990845641746715,1.5341408044994862,-1.1878168389315442,1.0694454758108007,-0.2541034216043863,-0.5031649879123903,0.050579308298217586,3,left
6.776,0.725092080081645,0.8946441347615245,0.2982858667658958,1.5624131081441044,-1.1225730504626825,1.0739691705848504,-0.25500743755357624,-0.4953847843767777,0.0657085981916959,3,left
6.777,0.7266898251336084,0.8938687020599715,0.2974391379630314,1.5908969799212147,-1.0592761762233267,1.0783441116740426,-0.2555455214497048,-0.48766560711826684,0.08002775551799385,3,left
6.78,0.7281879742487561,0.8931151595756839,0.2965460041344548,1.6195906690328832,-0.9979454356263034,1.0825669373144233,-0.25572233219385404,-0.4800066469006235,0.093531399089396,3,left
6.781000000000001,0.729582416661483,0.8923869272327475,0.2956080603757017,1.648492336835166,-0.9385973666844379,1.0866346610711743,-0.25554275638243584,-0.4724067239162697,0.10621520598995277,3,left
6.7860000000000005,0.730869158533936,0.8916871531098504,0.2946268577815675,1.6776000232441595,-0.8812458054217586,1.0905446767988454,-0.2550118962807052,-0.46486431050329075,0.1180759052214844,3,left
6.7860000000000005,0.7320443413189042,0.8910187174129509,0.2936038910089773,1.706911610912941,-0.8259018691058165,1.094294762467287,-0.25413505771628186,-0.4573775562144956,0.12911126943294493,3,left
6.79,0.7331042597917711,0.8903842375580792,0.2925405864494563,1.7364247872624252,-0.7725739431306594,1.0978830828649677,-0.25291773789217675,-0.44994431521669453,0.13932010476957674,3,left
6.791,0.7340453794189402,0.8897860741907085,0.2914382913235234,1.7661370044497486,-0.7212676713857253,1.1013081911909017,-0.2513656131178083,-0.4425621759985227,0.14870223887592304,3,left
6.795,0.7348643527060359,0.889226338013195,0.2902982639637738,1.7960454373583834,-0.6719859499516893,1.1045690295459563,-0.24948452646601937,-0.43522849330745694,0.15725850710013034,3,left
6.795,0.7355580341886566,0.8887068973346616,0.2891216654777541,1.8261469396947583,-0.624728923970075,1.1076649283338433,-0.24728047541571097,-0.4279404219476225,0.16499073702326406,3,left
6.796,0.7361234937879827,0.8882293862929938,0.28790955289725,1.856437998276736,-0.5794939875392503,1.1105956045816334,-0.24475959963340002,-0.42069495154956693,0.17190173157658184,3,left
6.8,0.7365580283067747,0.8877952137200569,0.28666287384839184,1.8869146855998573,-0.5362757864952332,1.1133611591891581,-0.24192816909864828,-0.4134889411341135,0.17799525108600261,3,left
6.801,0.7368591708578962,0.8874055726264488,0.28538246272355206,1.9175726107678175,-0.49506622394154565,1.1159620731161928,-0.23879257272479756,-0.4063191525817402,0.1832759945019805,3,left
6.806,0.737024698032456,0.8870614502743613,0.2840690382975617,1.9484068688741911,-0.4558544683981563,1.1183992025158414,-0.2353593075308838,-0.39918228263961925,0.1877495799290415,3,left
6.807,0.7370526346685695,0.886763638789979,0.2827232027076133,1.9794119889229382,-0.41862696444533964,1.1206737728220644,-0.2316349683671275,-0.39207499338776935,0.19142252448823074,3,left
6.811,0.736941256167514,0.8865127462414999,0.2813454417114405,2.010581880375761,-0.3833674457440443,1.1227873717988297,-0.22762623818500605,-0.3849939411437147,0.1943022235276527,3,left
6.812,0.7366890883929346,0.88630920808043,0.2799361261482458,2.0419097785068545,-0.3500569504023646,1.1247419415561617,-0.2233398788420598,-0.3779358037851429,0.19639692919396945,3,left
6.813,0.736294905253697,0.8861532988261308,0.27849551454294397,2.0733881892060353,-0.31867383907474284,1.1265397695292858,-0.21878272243074715,-0.3708973064701367,0.19771572837542506,3,left
6.814,0.735757724102063,0.8860451438727145,0.2770237568085827,2.105008834699552,-0.289193816926589,1.1281834784010913,-0.21396166311984677,-0.3638752457346311,0.19826852002468523,3,left
6.815,0.7350767991029822,0.8859847312921891,0.27552089900637894,2.13676260211828,-0.2615899610139373,1.1296760149390577,-0.20888364949610866,-0.35686651194681124,0.1980659918675305,3,left
6.819,0.7342516127753657,0.8859719234785447,0.2739868891136632,2.1686394963834994,-0.2358327542219497,1.1310206377259608,-0.2035556773930772,-0.3498681100982255,0.19711959650121225,3,left
6.82,0.7332818659558525,0.8860064684410588,0.2724215837322374,2.2006285980529863,-0.21189012617112932,1.132220903778746,-0.1979847831932514,-0.3428771789114348,0.19544152688408295,3,left
6.825,0.7321674664615637,0.8860880105382603,0.2708247556523778,2.232718026310606,-0.18972750109414785,1.133280654058138,-0.19217803758900998,-0.33589100824405654,0.19304469121594298,3,left
6.8260000000000005,0.7309085167314495,0.886216100449395,0.26919610217730716,2.264894907190956,-0.16930785260922523,1.1342039978728584,-0.18614253978700984,-0.32890705476909315,0.18994268720641183,3,left
6.829,0.7295053007196453,0.8863902041992404,0.2675352541108989,2.2971453471309267,-0.15059176532120638,1.134995296181909,-0.17988541214007073,-0.3219229559114562,0.18614977572653077,3,left
6.83,0.7279582703043742,0.8866097110822518,0.26584178531284275,2.329454411940341,-0.13353750318658722,1.1356591437979702,-0.1734137951898787,-0.3149365420206108,0.18168085383674126,3,left
6.834,0.7262680314627878,0.8868739403738531,0.26411522272315235,2.3618061112840767,-0.11810108458374571,1.1362003504945812,-0.1667348431031867,-0.3079458467592728,0.17655142718235767,3,left
6.836,0.7244353304458022,0.8871821467676118,0.2623550567499791,2.3941833887682855,-0.10423636403452109,1.1366239210193794,-0.15985571948355146,-0.3009491156880904,0.1707775817456711,3,left
6.84,0.7224610401673063,0.8875335245317855,0.2605607519049743,2.4265681177234937,-0.09189512052805462,1.136935034015321,-0.15278359354003143,-0.2939448130262357,0.16437595494187937,3,left
6.841,0.7203461469986098,0.8879272104324302,0.25873175756161126,2.4589411027774757,-0.08102715240244741,1.1371390198514488,-0.14552563659367468,-0.28693162656782,0.15736370604414254,3,left
6.843999999999999,0.718091738132689,0.8883622855198406,0.25686751870467756,2.4912820873108847,-0.07158037874430219,1.1372413373644297,-0.13808901890204933,-0.2799084707340301,0.1497584859212127,3,left
6.845,0.7156989896559702,0.8888377759181336,0.25496748653562473,2.5235697668886243,-0.06350094727058747,1.137247549511773,-0.1304809067815167,-0.27287448774086076,0.1415784060692852,3,left
6.85,0.7131691554393871,0.88935265279175,0.2530311288004091,2.555781808759918,-0.05673334866149153,1.1371632979373247,-0.12270846000641168,-0.26582904686229486,0.1328420069179649,3,left
6.851,0.7105035569347474,0.8899058316854044,0.2510579397119002,2.587894877519939,-0.051220537317011816,1.1369942764493421,-0.11477882946378283,-0.25877174176875245,0.12356822538853868,3,left
6.854,0.7077035739359316,0.8904961714452183,0.2490474493446565,2.619884667025707,-0.04690405851395046,1.1367462034111824,-0.10669915504185112,-0.2517023859206019,0.11377636168109462,3,left
6.856,0.7047706363378149,0.8911224729299109,0.24699923238683882,2.651725938658731,-0.04372418194375148,1.1364247930443736,-0.0984765637298749,-0.24462100599649172,0.10348604526543198,3,left
6.86,0.7017062169028074,0.891783477713095,0.244912916147413,2.6833925660266096,-0.041620041615216846,1.1360357256435927,-0.09011816790665668,-0.2375278333362292,0.09271720004916174,3,left
6.86,0.6985118250288513,0.8924778669608101,0.2427881877403155,2.7148575861954223,-0.04052978210957282,1.1355846167028536,-0.08163106379449614,-0.2304232933778977,0.08149000869491106,3,left
6.8629999999999995,0.6951890015017177,0.8932042606434086,0.24062480039893153,2.7460932575443344,-0.040390711178620635,1.1350769849519928,-0.07302233005498363,-0.22330799306886945,0.06982487605711285,3,left
6.864,0.6917393142051002,0.8939612172105702,0.23842257890691518,2.7770711243333226,-0.04113945867979343,1.1345182193023466,-0.06429902650454555,-0.21618270628169395,0.05774239175083948,3,left
6.865,0.6881643547556602,0.8947472338248667,0.23618142415568882,2.8077620880743543,-0.042712141844852745,1.133913544700337,-0.05546819293682177,-0.20904835752257975,0.04526329208057982,3,left
6.869,0.6844657360275965,0.8955607472169642,0.23390131685042956,2.8381364857956903,-0.045044536881688406,1.133267986887518,-0.046536848055774696,-0.20190600468235115,0.03240842194576342,3,left
6.87,0.6806450905258158,0.8964001352019517,0.23158232039189436,2.8681641752882387,-0.04807225691123525,1.1325863360654884,-0.03751198853263908,-0.19475682183650458,0.01919869755539352,3,left
6.872999999999999,0.6767040695540553,0.8972637188834421,0.22922458297084863,2.8978146274220657,-0.051730936243886375,1.1318731094639485,-0.0284005881899741,-0.1876020828441903,0.005655070566254814,3,left
6.874,0.6726443431100523,0.898149765560814,0.2268283389256396,2.9270570256202535,-0.05595642100196454,1.13113251281005,-0.019209597298621466,-0.18044314603373207,-0.008201506132079452,3,left
6.877999999999999,0.6684676004308621,0.8990564923386417,0.22439390942518053,2.955860372353987,-0.06068496582402256,1.1303684007673933,-0.00994594196356624,-0.1732814400055043,-0.02235011097999259,3,left
6.877999999999999,0.6641755511102708,0.8999820704222258,0.22192170254179425,2.9841936014101043,-0.06585343502461398,1.1295842367644096,-0.0006165235725406912,-0.16611845053161559,-0.03676988469718395,3,left
6.877999999999999,0.6597699267149424,0.9009246300755747,0.21941221276853215,3.0120256926803344,-0.07139950412970798,1.1287830532644587,0.008771781719017106,-0.15895570853183655,-0.05144005965840397,3,left
6.882999999999999,0.6552524828266363,0.9018822662119155,0.21686602002319386,3.0393257851086375,-0.07726185634542655,1.1279674138813898,0.018212123493247103,-0.15179477910520095,-0.06633998773616494,3,left
6.882999999999999,0.6506250014281921,0.9028530445724117,0.21428378817660446,3.066063284543261,-0.08338036988298983,1.1271393783927686,0.027697677592179674,-0.14463725159670662,-0.0814491666518071,3,left
6.888,0.645889293540915,0.9038350084281499,0.21166626314350537,3.092207965239524,-0.08969629451893915,1.1263004710702555,0.03722164668403189,-0.1374847306785422,-0.0967472648770189,3,left
6.888999999999999,0.6410472020221368,0.904826185721817,0.2090142705761368,3.1177300648693698,-0.09615241713456073,1.1254516523950928,0.04677726090059256,-0.1303388284252723,-0.11221414512857088,3,left
6.892,0.6361006044425775,0.9058245965520897,0.20632871320450444,3.142600373114438,-0.10269321625196026,1.1245932941563233,0.0563577785729309,-0.12320115736242257,-0.12782988649962412,3,left
6.893,0.6310514159770867,0.9068282608945855,0.20361056787362575,3.1667903139176934,-0.10926500558480948,1.1237251579293366,0.06595648709277402,-0.11607332446792064,-0.14357480527151706,3,left
6.899,0.6259015922559845,0.9078352064478714,0.200860882335553,3.1902720214668707,-0.11581606662219153,1.122846376932301,0.07556670392698944,-0.10895692610586877,-0.15942947445042013,3,left
6.899,0.6206531321357467,0.9088434764924164,0.19808077186243706,3.2130184099811143,-0.12229677026421981,1.1219554412580177,0.08518177781268053,-0.10185354387214642,-0.1753747420736756,3,left
6.903,0.615308080355887,0.9098511376553197,0.195271415753846,3.23500323737025,-0.1286596875281977,1.1210501864787008,0.09479509016045486,-0.09476474133137001,-0.1913917483310118,3,left
6.903,0.6098685300533826,0.9108562874836897,0.1924340538137017,3.256201162834085,-0.13485968934403192,1.120127785621154,0.10440005669345888,-0.08769206162477007,-0.20746194154613662,3,left
6.9079999999999995,0.6043366251073944,0.9118570617424084,0.18956998286869917,3.2765877984670206,-0.14085403545741482,1.1191847445097824,0.11399012934978618,-0.08063702592858249,-0.22356709306447642,3,left
6.909,0.5987145622863351,0.9128516413652362,0.18668055339038317,3.2961397549310867,-0.14660245245895687,1.1182169004748295,0.12355879847586147,-0.07360113274259335,-0.23968931109303263,3,left
6.912999999999999,0.5930045931684683,0.9138382590007881,0.18376716626613576,3.3148346812582345,-0.15206720095698892,1.1172194244231852,0.13309959533837892,-0.06658585798852239,-0.2558110535384822,3,left
6.912999999999999,0.5872090258079897,0.9148152051067173,0.18083126974122887,3.332651298840407,-0.1572131319111672,1.1161868262690455,0.14260609498233034,-0.0595926558979815,-0.27191513988974975,3,left
6.917999999999999,0.5813302261207605,0.9157808335561779,0.1778743565287571,3.349569429663503,-0.16200773214331357,1.1151129637216315,0.15207191946259768,-0.05262296066979878,-0.28798476219132724,3,left
6.917999999999999,0.5753706189666704,0.9167335667301733,0.1748979610623866,3.3655700188389024,-0.16642115904111426,1.1139910544270932,0.16149074147650422,-0.045678188876558445,-0.304003495153619,3,left
6.922000000000001,0.5693326889092765,0.9176719000783218,0.17190365685343295,3.380635151483678,-0.17042626446938963,1.1128136914616185,0.17085628842462,-0.038759742600270077,-0.31995530544653816,3,left
6.922999999999999,0.5632189806390951,0.9185944061398559,0.16889305390922854,3.3947480639980627,-0.17399860790264457,1.111572862172643,0.1801623469270011,-0.031869013277148216,-0.3358245602224821,3,left
6.9270000000000005,0.5570320990556541,0.9194997380265822,0.16586779616988453,3.407893149786105,-0.17711645879151958,1.1102599703649285,0.18940276782190663,-0.025007386231554737,-0.35159603491467084,3,left
6.928,0.5507747090141891,0.9203866323794256,0.16282955892200618,3.4200559594627404,-0.17976078817459526,1.1088658618281053,0.19857147167388514,-0.018176245879232254,-0.3672549203566401,3,left
6.934,0.544449534752943,0.9212539118193043,0.15978004615055688,3.4312231955878003,-0.18191524954576604,1.107380853202099,0.20766245481795065,-0.011376981580036262,-0.3827868292684433,3,left
6.935,0.5380593590236342,0.922100486919965,0.15672098779413177,3.44138270196468,-0.1835661489860987,1.1057947641766492,0.2166697959471919,-0.004610994105160087,-0.39817780214670107,3,left
6.936,0.5316070219488231,0.9229253577326854,0.1536541368741386,3.450523447538585,-0.1847024045677371,1.1040969530208922,0.22558766315500703,0.0021202973925522586,-0.413414312554623,3,left
6.936,0.5250954196267764,0.9237276148913167,0.15058126647534886,3.4586355049264066,-0.18531549503601272,1.1022763554387227,0.23441032117023267,0.008815448154194341,-0.42848327173452216,3,left
6.937,0.5185275025036952,0.924506440326725,0.14750416656333934,3.4657100236073886,-0.1853993977744796,1.100321526745354,0.2431321384272511,0.015472980661666651,-0.4433720324242486,3,left
6.942,0.511906273538882,0.9252611076247944,0.1444246406309059,3.471739197800823,-0.1849505160561195,1.0982206873601765,0.25174759370884764,0.02209137780462072,-0.4580683917992158,3,left
6.942,0.5052347861955908,0.9259909820668522,0.14134450217000835,3.476716229054061,-0.18396759558246562,1.0959617716106567,0.2602512822720174,0.02866907647849203,-0.4725605935344546,3,left
6.946000000000001,0.4985161422942917,0.9266955203916653,0.1382655709706888,3.4806352835611394,-0.1824516303108778,1.0935324798416404,0.2686379214625756,0.035204461648041085,-0.4868373290213008,3,left
6.9479999999999995,0.4917534897661654,0.9273742703150192,0.1351896692546757,3.483491444358808,-0.18040575778478335,1.0909203337379199,0.2769023558433106,0.041695860895412135,-0.5008877377809111,3,left
6.9479999999999995,0.4849500203408067,0.9280268698371871,0.13211861765575456,3.485280659191057,-0.1778351452606965,1.088112734337108,0.2850395618600961,0.04814153947160208,-0.5147014071162148,3,left
6.952000000000001,0.4781089671920403,0.9286530463608372,0.12905423105935865,3.485999685995459,-0.1747468698692569,1.0850970214346958,0.29304465207004476,0.05453969587011037,-0.5282683710432907,3,left
6.952999999999999,0.47123360255689356,0.9292526156350993,0.12599831431480216,3.485646038608925,-0.17114979712653805,1.0818605326522794,0.3009128789554335,0.06088845794141417,-0.5415791085425107,3,left
6.957000000000001,0.46432723534254305,0.9298254805378179,0.12295265784008706,3.4842179346400632,-0.1670544610298444,1.078390660869747,0.30863963834676605,0.06718587956678171,-0.5546245411691103,3,left
6.957999999999999,0.45739320874047673,0.930371629705619,0.1199190331489252,3.4817142462870363,-0.1624729470257795,1.0746749094962926,0.31622047247795926,0.07342993790979989,-0.5673960300621415,3,left
6.961,0.4504348978681872,0.930891136017647,0.11689918833791388,3.478134454229353,-0.15741877805638055,1.070700945484855,0.32365107269624627,0.0796185312638503,-0.5798853723900247,3,left
6.962000000000001,0.4434557074548812,0.931384154933084,0.11389484357821579,3.473478604589496,-0.1519068036715803,1.0664566500799886,0.3309272818489841,0.08574947751362008,-0.592084797270159,3,left
6.9670000000000005,0.4364590695816099,0.931850922675542,0.11090768666193658,3.467747268957195,-0.14595309219486388,1.0619301672884633,0.33804509636913377,0.09182051322858074,-0.603986961199261,3,left
6.968,0.4294484414802192,0.9322917542508687,0.10793936865865802,3.460941507466055,-0.13957482592763334,1.0571099500611547,0.3450006680807501,0.09782929340620818,-0.6155849430302952,3,left
6.971,0.422427303390511,0.9327070412805839,0.1049914997417718,3.4530628349091734,-0.13279019937648004,1.0519848041740014,0.35179030574537606,0.10377339188255169,-0.6268722385310237,3,left
6.972,0.41539915647041065,0.9330972496307697,0.10206564524658894,3.4441131898772714,-0.1256183204862981,1.0465439297950054,0.3584104763697802,0.10965030242758762,-0.637842754558354,3,left
6.98,0.408367520749427,0.9334629168153171,0.09916332202047161,3.434094906899811,-0.11807911486095535,1.0407769607234034,0.36485780629500963,0.11545744054261362,-0.6484908028817885,3,left
6.981,0.4013359331121471,0.9338046491539668,0.09628599511712779,3.4230106915664464,-0.11019323295207273,1.0346740012862623,0.37112908208625883,0.1211921459767543,-0.658811093688387,3,left
6.981,0.3943079452965509,0.9341231186695503,0.09343507487348379,3.410863598603125,-0.10198196019535127,1.028225660876843,0.37722125124256173,0.12685168597945537,-0.6687987288007463,3,left
6.982,0.38728712189167247,0.9344190597133551,0.09061191439256149,3.3976570128740464,-0.09346713007283365,1.0214230861181508,0.38313142274482365,0.13243325930564281,-0.6784491946385743,3,left
6.986000000000001,0.38027703832035653,0.9346932653113467,0.08781780744367276,3.383394633277661,-0.08467104007849209,1.0142579906341151,0.3888568674602011,0.1379340009900157,-0.6877583549534948,3,left
6.986000000000001,0.37328127879453,0.9349465832277951,0.08505398678266483,3.3680804595018037,-0.07561637056360042,1.006722682409857,0.3943950184203255,0.14335098790672465,-0.6967224433657659,3,left
6.99,0.36630343423231,0.9351799117474415,0.08232162288889402,3.351718781600044,-0.06632610643747772,0.9988100887214835,0.3997434709903417,0.14868124513046435,-0.7053380557306265,3,left
6.9910000000000005,0.359347100130141,0.9353941951821663,0.07962182311175227,3.3343141723482814,-0.05682346169838355,0.9905137786148096,0.4048999829452053,0.15392175311477616,-0.7136021423610034,3,left
6.996,0.35241587438966254,0.9355904191129677,0.0769556312168476,3.315871482337607,-0.04713180676860247,0.9818279829113468,0.40986247446914215,0.1590694557031156,-0.7215120001323267,3,left
6.997000000000001,0.3455133551058646,0.9357696053848762,0.07432402731742936,3.2963958377564384,-0.037274598607079455,0.9727476117188103,0.4146290280936297,0.16412126898799084,-0.729065264494194,3,left
7.0,0.33864313832752607,0.9359328068828991,0.07172792816875209,3.2758926408119295,-0.027275313572357966,0.9632682694223036,0.41919788858870966,0.1690740910332202,-0.7362599014126201,3,left
7.001,0.331808815802289,0.9360811021299954,0.06916818779445671,3.254367572737699,-0.01715738300802955,0.9533862671312134,0.423567462821883,0.17392481247408978,-0.7430941992655892,3,left
7.002000000000001,0.3250139727174729,0.9362155897600207,0.06664559840918163,3.231826599331938,-0.006944131522428504,0.9430986325557238,0.42773631959404484,0.17867032798391935,-0.7495667607132704,3,left
7.006,0.3182621854435277,0.9363373829240591,0.06416089160240555,3.2082759789669986,0.003341282066103321,0.9324031172857069,0.43170318944018304,0.18330754846526762,-0.7556764945615719,3,left
7.007000000000001,0.3115570192804162,0.9364476036861368,0.0617147397521784,3.1837222730086525,0.013675921147397432,0.9212982014435971,0.435466964343899,0.18783341358973263,-0.7614226076336775,3,left
7.0120000000000005,0.30490202620206414,0.9365473774635069,0.05930775763845047,3.1581723585802743,0.02403712513037542,0.909783095681689,0.43902669729306737,0.19224490418000742,-0.7668045966615149,3,left
7.013,0.2983007425930058,0.9366378275749917,0.05694050422295044,3.1316334436043074,0.03440256067619939,0.8978577404931329,0.44238160162453655,0.19653905405753253,-0.7718222402097252,3,left
7.015,0.2917566869717501,0.9367200699696752,0.0546134845608735,3.104113084018373,0.04475027038431027,0.8855228028419811,0.44553105014328315,0.20071296121275142,-0.7764755906466445,3,left
7.015,0.28527335769407813,0.9367952082055911,0.05232715181253172,3.075619202899908,0.05505871896715778,0.872779670302771,0.44847457402201285,0.2047637982846368,-0.780764966177427,3,left
7.016,0.2788542306275461,0.9368643287351709,0.050081909328412846,3.0461601109413134,0.06530683695856797,0.8596304432342887,0.45121186149084314,0.20868882236181793,-0.7846909429537232,3,left
7.021,0.27250275678841096,0.9369284965425749,0.04787811278451254,3.0157445275541415,0.07547406200571737,0.8460779256972861,0.4537427563261148,0.21248538411729287,-0.7882543472732836,3,left
7.022,0.2662223599343868,0.9369887511740776,0.04571607234548771,2.984381602038677,0.08554037778949786,0.8321256156384551,0.45606725614678817,0.2161509362883571,-0.7914562478818086,3,left
7.025,0.2600164341093465,0.9370461032006112,0.04359605483418064,2.952080934541582,0.095486350608755,0.8177776945264478,0.4581855105262856,0.21968304151301835,-0.7942979483883267,3,left
7.026,0.25388834113789366,0.9371015311440523,0.04151828588892065,2.9188525966821244,0.10529316365857873,0.8030390164382822,0.4600978189270528,0.22307937953379833,-0.7967809798043389,3,left
7.031000000000001,0.24784140806836497,0.9371559788859348,0.039482952093119354,2.8847071517569134,0.11494264903152245,0.7879150965560587,0.4618046284645153,0.22633775377944682,-0.7989070932159323,3,left
7.0329999999999995,0.24187892456209795,0.9372103535624468,0.0374902030642112,2.8496556744303763,0.12441731747028215,0.7724120990327795,0.46330653150651707,0.2294560973347093,-0.800678252597027,3,left
7.035,0.23600414022501326,0.9372655239359781,0.03554015349209693,2.8137097698155378,0.1337003858999687,0.7565368241849444,0.46460426311373465,0.23243247830790068,-0.8020966277708946,3,left
7.0360000000000005,0.23022026187549396,0.9373223192226676,0.03363288512241059,2.7768815918470366,0.1427758027676562,0.7402966949684886,0.4656986983259724,0.23526510460564076,-0.8031645875260607,3,left
7.039,0.2245304507406919,0.9373815283459739,0.03176844868755756,2.739183860845715,0.1516282712163884,0.7236997426935396,0.46659084929865435,0.2379523281237059,-0.8038846928916813,3,left
7.04,0.21893781957299527,0.9374438995763912,0.029946865796785765,2.700629880171537,0.160243270120276,0.7067545919324068,0.4672818622932432,0.24049264836254253,-0.8042596905764781,3,left
7.047999999999999,0.2134454296815586,0.9375101405072984,0.02816813080308922,2.6612335518590746,0.16860707300672406,0.6894704445741645,0.4677730145247313,0.2428847154755777,-0.8042925065743007,3,left
7.05,0.20805628788088723,0.937580918307443,0.02643221266911225,2.621009391127283,0.17670676489118797,0.67185706297817,0.46806571086877086,0.24512733275804127,-0.8039862399383946,3,left
7.05,0.20277334336699,0.9376568601816156,0.024739056856504925,2.579972539652851,0.1845302570491778,0.6539247521778571,0.46816148043042977,0.24721945858359648,-0.8033441567254538,3,left
7.051,0.19759948453856238,0.9377385539638262,0.023088587261902768,2.5381387774939776,0.19206629974950967,0.6356843410851732,0.468061972975988,0.24916020779564657,-0.802369684109565,3,left
7.055,0.19253753578487273,0.9378265487648672,0.021480708217920585,2.49552453354905,0.1993044929720467,0.6171471626450853,0.46776895522861767,0.2509488525597583,-0.8010664046651647,3,left
7.056,0.18759025426324072,0.9379213556007215,0.01991530657192779,2.45214689443238,0.20623529513238006,0.5983250328886602,0.46728430702822676,0.2525848226832106,-0.7994380508171764,3,left
7.059,0.18276032668687264,0.9380234479390466,0.018392253850045743,2.4080236116468483,0.21285002983507667,0.5792302288323469,0.46661001735518287,0.25406770540724183,-0.7974884994555343,3,left
7.06,0.17805036613967856,0.938133262115731,0.016911408506407124,2.3631731069310713,0.21914089067626616,0.5598754651702306,0.4657481802170805,0.255397244677133,-0.7952217667103569,3,left
7.063,0.17346290893155447,0.9382511975903324,0.015472618245657075,2.3176144756565282,0.22510094411545936,0.5402738697052182,0.4647009903971634,0.25657333989482545,-0.792642002883103,3,left
7.064,0.1690004115069101,0.9383776170270751,0.014075722392195986,2.2713674881479253,0.23072413043558335,0.5204389574643244,0.46347073906247027,0.25759604415833265,-0.7897534875281162,3,left
7.069,0.16466524742008645,0.9385128462063363,0.012720554269537375,2.224452588797992,0.23600526280929018,0.5003846034424883,0.462059809229231,0.25846556199176474,-0.786560624678057,3,left
7.07,0.16045970439284027,0.9386571737885129,0.011406943551084677,2.1768908928458806,0.24094002448864837,0.48012501391863754,0.4604706710825114,0.2591822465693455,-0.7830679382058188,3,left
7.07,0.1563859814703693,0.9388108509652809,0.010134718546709182,2.128704180686358,0.245524964134359,0.4596746962870515,0.45870587715296907,0.25974659644600556,-0.7792800673166888,3,left
7.0729999999999995,0.1524461862914121,0.9389740910396318,0.008903708394106244,2.0799148895750545,0.249757489299659,0.43904842734644045,0.45676805738502296,0.260159251854927,-0.7752017621738682,3,left
7.074,0.1486423324838748,0.939147068975876,0.007713745128501591,2.0305461025931946,0.25363585808308053,0.41826121998857435,0.4546599141877548,0.26042099071879155,-0.7708378796780351,3,left
7.077999999999999,0.14497633719270825,0.9393299209614037,0.006564665605139049,1.980621534733417,0.25715916896323177,0.3973282882277433,0.4523842175913156,0.2605327245692756,-0.766193379431012,3,left
7.079,0.1414500187436558,0.9395227440298826,0.005456313241630241,1.9301655159665891,0.26032734882775443,0.3762650105118284,0.44994380059915184,0.2604954945206726,-0.7612733199025362,3,left
7.082999999999999,0.13806509444322312,0.9397255958057251,0.004388539533499385,1.8792029711478335,0.26314113920759796,0.35508689125529996,0.44734155476835435,0.26031046735627156,-0.7560828547998878,3,left
7.082999999999999,0.13482317850973904,0.939938494432527,0.0033612052831142754,1.8277593966184036,0.2656020807267309,0.33380952053404106,0.4445804260179883,0.2599789317374617,-0.7506272296290901,3,left
7.084,0.13172578012457203,0.9401614187409577,0.0023741814761172302,1.775860833451734,0.2677124957940787,0.31244853195967737,0.44166341065840214,0.25950229453545937,-0.7449117784335625,3,left
7.0889999999999995,0.12877430158954947,0.9403943086976471,0.0014273497450670043,1.7235338377566427,0.2694754696518852,0.29101955914154515,0.43859355163404357,0.25888207728512685,-0.738941920695322,3,left
7.09,0.12597003657689318,0.9406370661609028,0.000520602377471992,1.6708054492882545,0.2708948300528522,0.26953819184755196,0.43537393497185967,0.25811991275993607,-0.7327231583830759,3,left
7.093999999999999,0.1233141684604332,0.940889555954796,-0.00034615815176314047,1.6177031600820224,0.27197512592583073,0.2480199333657249,0.43200768642690585,0.2572175416667085,-0.7262610731307952,3,left
7.095,0.12080776872150921,0.941151607259413,-0.0011730201216865307,1.5642548843588857,0.272721605300417,0.22648016017726524,0.42849796831635245,0.2561768094583554,-0.7195613235296345,3,left
7.097,0.11845179542997614,0.9414230153003006,-0.0019600639586082767,1.5104889301094653,0.273140192600651,0.20493408434837027,0.42484797653264683,0.2549996632624313,-0.7126296425153421,3,left
7.099,0.11624709180788512,0.9417035433062486,-0.0027073640404770747,1.4564339722980366,0.2732374653286181,0.1833967186571958,0.4210609377261664,0.2536881489229125,-0.7054718348326103,3,left
7.103,0.11419438488726534,0.9419929246946476,-0.0034149908549021175,1.4021190275327908,0.2730206301401108,0.161882844394114,0.41714010664728834,0.25224440815221616,-0.6980937745571321,3,left
7.104,0.11229428427202766,0.9422908654386719,-0.004083013440962309,1.3475734300479942,0.2724974983135669,0.14040698177340183,0.4130887636373959,0.250670675790081,-0.6905014026554623,3,left
7.107,0.11054728100785209,0.9425970465704127,-0.004711502036472797,1.292826808842822,0.27167646061257966,0.11898336289452263,0.4089102122579504,0.24896927716554818,-0.6827007245621348,3,left
7.108,0.10895374655511054,0.9429111267781529,-0.005300530847251043,1.2379090658208993,0.27056646154137326,0.09762590719122673,0.40460777704637196,0.24714262555789884,-0.6746978077528523,3,left
7.1129999999999995,0.10751393185037672,0.943232745062715,-0.005850180854294693,1.1828503547739142,0.26917697299175924,0.07634819930680839,0.40018480138709805,0.24519321975203245,-0.6664987792919518,3,left
7.114,0.10622796643344273,0.9435615234255292,-0.006360542581295156,1.1276810610520984,0.26751796727923466,0.0551634693340042,0.39564464548582284,0.2431236416834038,-0.6581098233317496,3,left
7.117000000000001,0.10509585761086526,0.9438970695682893,-0.006831718758851468,1.0724317817638747,0.2655998895650529,0.034084575358208004,0.39099068443456475,0.24093655416727636,-0.6495371785407873,3,left
7.117999999999999,0.10411748962581698,0.94423897958875,-0.007263826838679238,1.0171333063465686,0.263433629660298,0.01312398824290582,0.3862263063548632,0.23863469870669743,-0.6407871354374394,3,left
7.122000000000001,0.1032926228087839,0.9445868406573306,-0.007657001324754378,0.9618165973497634,0.2610304932072178,-0.00770622140349978,0.38135491060606996,0.23622089337325558,-0.6318660336047977,3,left
7.122999999999999,0.10262089269391161,0.9449402336556945,-0.008011395895840491,0.9065127712726463,0.2584021722323306,-0.028394394140003006,0.3763799060453722,0.2336980307543431,-0.6227802587622175,3,left
7.127000000000001,0.10210180909884463,0.9452987357555624,-0.008327185297942451,0.8512530792965575,0.2555607150651061,-0.048929290544634046,0.3713047093258675,0.23106907596031726,-0.6135362396684036,3,left
7.127999999999999,0.1017347551792893,0.9456619229161339,-0.008604566991077827,0.796068887753898,0.2525184956153414,-0.06930009806523864,0.36613274321870515,0.22833706468463222,-0.6041404448304215,3,left
7.132999999999999,0.10151898648171667,0.9460293722808877,-0.008843762544790797,0.7409916581745891,0.24928818200170885,-0.08949643592880548,0.36086743494500756,0.22550510130970047,-0.5945993789925469,3,left
7.135,0.10145363002634626,0.946400664459169,-0.009045018788235706,0.6860529267514077,0.24588270452333846,-0.10950835816830935,0.3555122145030008,0.222576357050938,-0.5849195793784117,3,left
7.1370000000000005,0.10153768345622896,0.9467753856860041,-0.00920860872836638,0.6312842830657308,0.242315222965724,-0.12932635482556779,0.3500705129755033,0.2195540681311517,-0.5751076116594692,3,left
7.1370000000000005,0.10177001428720935,0.9471531298635681,-0.009334832252624627,0.5767173479155407,0.2385990932316993,-0.14894135138810802,0.3445457608074441,0.21644153397840146,-0.565170065634831,3,left
7.138,0.10214935928835937,0.9475335004955568,-0.009424016633759065,0.522383750087931,0.23474783328773116,-0.16834470651751324,0.3389413860667698,0.21324211544649846,-0.555113550669362,3,left
7.141,0.1026743240146505,0.9479161125296267,-0.009476516857017309,0.4683151019188465,0.23077508841530855,-0.1875282081261599,0.33326081274495634,0.20995923306838407,-0.5449446910485699,3,left
7.142,0.10334338250733649,0.9483005941268082,-0.009492715796396324,0.41454297348336855,0.22669459575678233,-0.2064840678586765,0.3275074591770485,0.20659636535868153,-0.5346701214706917,3,left
7.147,0.10415487717581884,0.9486865883839192,-0.009473024278114466,0.36109886526052926,0.22252014814462084,-0.22520491403384688,0.3216847366369771,0.2031570471751559,-0.5242964828338094,3,left
7.148,0.1051070188754584,0.9490737550427386,-0.009417881081940674,0.3080141791173966,0.21826555720269855,-0.24368378310204977,0.31579604812057716,0.1996448681372271,-0.513830418363478,3,left
7.152,0.10619788719511494,0.9494617722221496,-0.0093277529378605,0.25532018745802554,0.2139446157079247,-0.26191410967267437,0.3098447873045769,0.1960634710931444,-0.503278570063812,3,left
7.152,0.10742543096627612,0.9498503382043864,-0.009203134573547845,0.2030480004570986,0.2095710592437812,-0.27988971518367134,0.30383433766483725,0.19241655062594973,-0.49264757546224314,3,left
7.153,0.10878746900470278,0.9502391732962289,-0.009044548857654305,0.15122853166554126,0.20515852739476234,-0.2976047953766766,0.29776807173693315,0.1887078515881481,-0.48194406461789646,3,left
7.157,0.11028169109601124,0.9506280217741157,-0.008852547067349652,0.09989246293609585,0.20072052512229605,-0.31505390690598256,0.291649350501987,0.1849411676548047,-0.4711746573632892,3,left
7.1579999999999995,0.11190565923829235,0.9510166539109415,-0.008627709290022158,0.04907020998447859,0.19627038518023,-0.33223195350087287,0.2854815228804948,0.18112033988460022,-0.46034596074882395,3,left
7.1610000000000005,0.1136568091573547,0.9514048680722463,-0.008370644952929891,-0.0012081104633854616,0.19182123221019926,-0.34913417200811736,0.27926792531672673,0.17724925527819813,-0.44946456665934387,3,left
7.162000000000001,0.11553245211060843,0.9517924928606829,-0.008081993462163463,-0.05091271164574228,0.1873859487653399,-0.36575611847510836,0.27301188143613075,0.17333184532311166,-0.43853704957182504,3,left
7.166,0.11752977699113915,0.9521793892811437,-0.007762424922095886,-0.10001416593365138,0.18297714329312387,-0.3820936543413718,0.26671670175802775,0.16937208451410327,-0.4275699644231138,3,left
7.167000000000001,0.11964585273573525,0.952565452896515,-0.00741264089858351,-0.1484834323382629,0.17860712006456173,-0.3981429327869986,0.26038568344575685,0.16537398883800342,-0.4165698445564627,3,left
7.172000000000001,0.12187763103299118,0.952950615945927,-0.007033375186169215,-0.19629188249945403,0.17428785103705854,-0.4139003852857372,0.25402211007630454,0.16134161421170418,-0.40554319971548775,3,left
7.172999999999999,0.12422194932138626,0.95333484940157,-0.0066253945424711485,-0.24341132529681783,0.17003094963828486,-0.42936270840967394,0.24762925141134107,0.15727905486196092,-0.3944965140540556,3,left
7.1770000000000005,0.1266755340622298,0.953718164944847,-0.006189499359469809,-0.28981403022218133,0.16584764645853395,-0.44452685093159705,0.2412103631514837,0.15319044163552525,-0.383436244130514,3,left
7.178,0.1292350042679144,0.9541006168471157,-0.0057265242488715885,-0.3354727496509341,0.16174876683918246,-0.4593900012703055,0.23476868665551284,0.1490799402280342,-0.3723688168546034,3,left
7.181,0.13189687526082952,0.9544823037434788,-0.005237338525027292,-0.3803607401474685,0.15774471034505008,-0.4739495753232742,0.2283074486061836,0.1449517493199936,-0.36130062735532836,3,left
7.182,0.13465756263246054,0.9548633702890355,-0.004722846571672319,-0.4244517829379759,0.15384543210866333,-0.4882032047302331,0.22182986060419943,0.14081009860811977,-0.3502380367380311,3,left
7.186,0.137513386367322,0.9552440086863493,-0.004183988077483455,-0.46772020368170614,0.1500604260346713,-0.5021487256103517,0.2153391186718499,0.1366592467202393,-0.3391873696988854,3,left
7.186,0.1404605750935266,0.9556244600720193,-0.0036217381228673576,-0.5101408916695853,0.1463987098529322,-0.5157841678148499,0.20883840264775808,0.1325034790018975,-0.32815491196502994,3,left
7.19,0.1434952704202793,0.9560050157494183,-0.0030371071003546107,-0.5516893185767989,0.14286881200908969,-0.5291077447359769,0.20233087545413586,0.12834710516278675,-0.31714690752857383,3,left
7.191,0.1466135313216238,0.9563860182538023,-0.0024311404547096805,-0.5923415568935834,0.13947876038178442,-0.542117843712417,0.19581968221790813,0.12419445677107963,-0.3061695556427435,3,left
7.196000000000001,0.14981133852540413,0.9567678622367101,-0.0018049182342446944,-0.6320742981560384,0.1362360728160009,-0.5548130170702875,0.18930794922703761,0.12004988458373744,-0.2952290075484894,3,left
7.197,0.15308459886677506,0.9571509951608638,-0.0011595544497925397,-0.6708648710962647,0.13314774946242616,-0.5671919738380027,0.1827987827033628,0.11591775570086366,-0.2843313628999445,3,left
7.2010000000000005,0.1564291495669893,0.9575359178040072,-0.0004961962426351534,-0.7086912598285602,0.1302202669130974,-0.5792535721723732,0.17629526737325088,0.11180245053218213,-0.2734826658572112,3,left
7.202000000000001,0.15984076240146097,0.9579231845777183,0.0001839771322133071,-0.745532122185768,0.12745957412403877,-0.5909968125324083,0.1698004648173659,0.107708359563743,-0.2626889008150623,3,left
7.206,0.1633151477268556,0.9583134036737531,0.0008797554968671385,-0.7813668083171633,0.12487109011602911,-0.6024208316363816,0.1633174115808593,0.10363987991299552,-0.2519559877362615,3,left
7.207000000000001,0.1668479583450756,0.9587072370557042,0.001589899102830274,-0.8161753796564987,0.12245970344510364,-0.6135248972368051,0.15684911702530713,0.09960141166041495,-0.24128977705835133,3,left
7.207000000000001,0.17043479319227017,0.9591054003168744,0.0023131401308900796,-0.8499386283659968,0.12022977343487026,-0.6243084037470481,0.1503985609127779,0.09559735395305069,-0.2306960441588537,3,left
7.21,0.17407120085244568,0.9595086624248126,0.0030481843251405913,-0.8826380973591915,0.11818513316321551,-0.6347708687524144,0.14396869075762753,0.09163210091103158,-0.22018048344369653,3,left
7.211,0.17775268290595955,0.9599178453693651,0.003793712749226284,-0.9142561010025709,0.11632909419648182,-0.6449119304375782,0.1375624190629807,0.08771003743222114,-0.20974870226732667,3,left
7.215,0.18147469713304018,0.9603338237274928,0.004548383652935049,-0.9447757465929765,0.11466445306471874,-0.6547313459613535,0.1311826206040872,0.08383553502590958,-0.1994062149728712,3,left
7.216,0.18523266060328225,0.9607575241564927,0.005310834433586293,-0.9741809567046578,0.11319349947214102,-0.6642289908088541,0.12483212987562287,0.08001294777094588,-0.18915843726123904,3,left
7.221,0.18902195269327113,0.9611899248259297,0.006079683672771568,-1.0024564924967738,0.11191802623746824,-0.6734048591501749,0.11851373873875151,0.07624660842976604,-0.17901068095484235,3,left
7.222,0.19283791808263034,0.9616320547958319,0.0068535332298258434,-1.0295879780177812,0.11083934093929083,-0.6822590652153053,0.11223019425866243,0.07254082471431564,-0.16896814914217645,3,left
7.223,0.19667586978035373,0.9620849933453539,0.00763097037891497,-1.0555619252839379,0.10995827914177439,-0.6907918456015736,0.1059841967143461,0.0688998756928947,-0.1590359316738313,3,left
7.225,0.2005310922287812,0.9625498692532191,0.008410569983219093,-1.080365759445088,0.1092752188958756,-0.699003562262515,0.09977839776246282,0.06532800832711443,-0.14921900098079383,3,left
7.226,0.2043988445291312,0.963027860028063,0.009190896704167818,-1.103987843091602,0.10879009611141813,-0.706894705833647,0.09361539873725937,0.06182943412832944,-0.13952220818620248,3,left
7.23,0.20827436383518153,0.963520191082149,0.009970507244447323,-1.126417499009032,0.1085024204963326,-0.7144658990421986,0.08749774906859605,0.05840832592309499,-0.1299502794820319,3,left
7.231,0.21215286896567223,0.9640281348369562,0.010747952620682406,-1.1476450311445,0.10841129194063238,-0.7217179001133999,0.08142794480026248,0.05506881471739733,-0.12050781274251704,3,left
7.234,0.21602956428512526,0.9645530097463624,0.01152178045668026,-1.1676617438014487,0.10851541732365223,-0.7286516061775015,0.07540842719088263,0.05181498664961567,-0.1111992743464706,3,left
7.235,0.21989964389673722,0.9650961792230914,0.012290537283106862,-1.1864599591271798,0.10881312774372183,-0.735268056699279,0.06944158137984016,0.04865088002239679,-0.10202899618100579,3,left
7.239,0.22375829618139603,0.9656590504555962,0.01305277082710858,-1.204033032954128,0.10930239617000956,-0.7415684369508556,0.06352973510079259,0.04558048240385748,-0.09300117279954868,3,left
7.24,0.2276007087044334,0.9662430731048833,0.013807032276588669,-1.2203753690523704,0.10998085551683186,-0.7475540815477641,0.057675157425486796,0.04260772778877618,-0.08411985870740839,3,left
7.246,0.23142207349663269,0.9668497378738377,0.014551878506194766,-1.2354824318473494,0.11084581714127942,-0.7532264780672581,0.051880057520739646,0.03973649381069284,-0.07538896574857022,3,left
7.247000000000001,0.2352175926985097,0.9674805749459363,0.01528587425243633,-1.2493507576532847,0.11189428976556041,-0.7585872707669746,0.04614658340160566,0.036970598996104845,-0.06681226056778625,3,left
7.25,0.23898248453850582,0.9681371522962404,0.016007594223182483,-1.2619779644692097,0.11312299882600402,-0.7636382644211477,0.04047682066391772,0.03431380005222766,-0.05839336212245785,3,left
7.251,0.24271198959874918,0.9688210738843228,0.016715625123931346,-1.2733627603810256,0.1145284062512026,-0.768381428290669,0.03487279117955769,0.03176978918007996,-0.05013573921923708,3,left
7.255,0.24640137730798434,0.9695339777450754,0.01740856758226821,-1.283504950609404,0.11610673067229758,-0.7728189002424021,0.029336451737990727,0.029342191404955732,-0.04204270805071576,3,left
7.256,0.25004595259121304,0.9702775339981811,0.018085037954848168,-1.2924054432398158,0.11785396806893111,-0.7769529910322641,0.023869692617779895,0.02703456191665899,-0.03411742970802474,3,left
7.26,0.25364106260081953,0.9710534427991905,0.018743670007797836,-1.300066253667386,0.1197659128548928,-0.7807861887657048,0.018474336071986355,0.024850383412200725,-0.026362907645628403,3,left
7.26,0.25718210345493325,0.9718634322535967,0.01938311646955685,-1.3064905077857158,0.12183817940798683,-0.7843211635483355,0.013152134711554889,0.022793063433991817,-0.018781985075072158,3,left
7.263999999999999,0.2606645269138016,0.9727092563105496,0.020002050463297335,-1.3116824439452426,0.12406622404912993,-0.7875607723385901,0.007904769770984067,0.02086593169691024,-0.011377342264922123,3,left
7.265,0.2640838469311286,0.9735926926467161,0.020599166833859033,-1.3156474137031522,0.12644536747616317,-0.7905080640134361,0.0027338492407854354,0.019072237397975336,-0.004151493724626533,3,left
7.268,0.2674356460232439,0.9745155405445963,0.021173183392229587,-1.318391881383311,0.12897081765832102,-0.7931662846572938,-0.002359094148553937,0.017415146502726204,0.002893214749473407,3,left
7.27,0.27071558140502816,0.9754796187632305,0.021722842108943326,-1.3199234224611407,0.13163769319774793,-0.7955388830834813,-0.00737260510617636,0.015897739002775052,0.009754609187249337,3,left
7.274,0.2739193908481044,0.9764867633924292,0.022246910293926035,-1.32025072078484,0.13444104716488697,-0.797629516596656,-0.012305308138877242,0.014523006139389569,0.016430690737761107,3,left
7.275,0.27704289822448935,0.9775388256757132,0.022744181801310746,-1.319383564640858,0.13737589141498505,-0.7994420570038974,-0.017155910093696124,0.013293847590374896,0.022919639151790776,3,left
7.275,0.2800820187094193,0.9786376697847996,0.02321347829315955,-1.3173328416680328,0.14043722139336495,-0.8009805968812551,-0.021923202848600228,0.012213068628048827,0.02921981641037888,3,left
7.279,0.2830327636301915,0.9797851705301223,0.02365365058875318,-1.3141105326213585,0.14362004143750717,-0.802249456101775,-0.026606066038242282,0.01128337727473296,0.03532977036038025,3,left
7.279,0.285891244960609,0.9809832109928864,0.02406358012080851,-1.3097297039829134,0.14691939058436124,-0.8032531886302209,-0.03120346965914342,0.010507381492722331,0.04124823816480023,3,left
7.284,0.28865367947265047,0.9822336800610469,0.024442180518027386,-1.3042044994140842,0.1503303688916708,-0.8039965895889197,-0.0357144764408082,0.009887586436000347,0.04697414942784945,3,left
7.285,0.2913163925713341,0.9835384698475158,0.02478839933108387,-1.2975501300398564,0.15384816428244488,-0.8044847025983861,-0.04013824394534773,0.009426391773180066,0.05250662894900379,3,left
7.29,0.2938758218549235,0.9848994729687174,0.025101219914172967,-1.2897828635661583,0.15746807989428033,-0.8047228273781588,-0.04447402640033704,0.009126089081472439,0.057844999112525476,3,left
7.291,0.29632852045365143,0.9863185796661332,0.025379663468664344,-1.2809200122956745,0.16118556177675114,-0.8047165275052297,-0.048721176277863674,0.008988859309906148,0.06298878192889257,3,left
7.292000000000001,0.29867116020121953,0.9877976747598699,0.025622791251069917,-1.2709799202261793,0.16499622653052515,-0.8044716380695673,-0.05287914563247437,0.009016770310479085,0.06793770074402858,3,left
7.292999999999999,0.3009005346913045,0.9893386344280267,0.025829706943331126,-1.2599819494799622,0.16889588834335229,-0.8039942728782148,-0.056947487210473866,0.009211774436383484,0.07269168163166698,3,left
7.292999999999999,0.30301356227526505,0.9909433228084805,0.025999559177116344,-1.2479464662420523,0.17288058501716017,-0.8032908309460427,-0.06092585534277558,0.009575706206914942,0.07725085448362681,3,left
7.297999999999999,0.30500728906360225,0.99261358842338,0.02613154419434512,-1.2348948262599861,0.17694660283062127,-0.8023680021677033,-0.06481400663324796,0.010110280039149705,0.08161555381221601,3,left
7.2989999999999995,0.30687889199299667,0.9943512604325161,0.026224908614668942,-1.2208493598871109,0.18109050022062337,-0.8012327721519668,-0.06861180045424313,0.01081708804695438,0.08578631927841966,3,left
7.303,0.30862568201103524,0.996158144729285,0.026278952269453742,-1.2058333566348909,0.18530913029408275,-0.7998924262164315,-0.07231919926073585,0.011697597908377221,0.08976389595897132,3,left
7.305,0.31024510741664085,0.998036019900637,0.026293031052503493,-1.1898710491967759,0.1895996621817729,-0.7983545525399763,-0.0759362687342424,0.01275315080296013,0.09354923436484705,3,left
7.308,0.31173475738015344,0.9999866330776458,0.026266559730835217,-1.1729875969033288,0.1939596012460663,-0.7966270444697052,-0.07946317776742917,0.013984959421004979,0.09714349022316544,3,left
7.31,0.31309236565453935,1.0020116957049199,0.026199014655318334,-1.1552090685655299,0.19838680815470247,-0.7947181019785527,-0.08290019830006147,0.01539410604732665,0.10054802403392189,3,left
7.313,0.3143158144779001,1.0041128792563703,0.02608993631353402,-1.1365624246604564,0.20287951683290234,-0.7926362322691484,-0.08624770501668387,0.0169815407225277,0.10376440041243423,3,left
7.314,0.3154031386566174,1.0062918109238577,0.02593893167812683,-1.1170754988108909,0.20743635130634927,-0.7903902495189953,-0.08950617491616454,0.018748079485335627,0.10679438722782772,3,left
7.318,0.31635252980695083,1.0085500693052216,0.025745676321973138,-1.0967769785078443,0.21205634144775093,-0.7879892737614971,-0.0926761867629779,0.020694402700052912,0.10963995454734327,3,left
7.318,0.31716234071938065,1.0108891801192748,0.02550991629146742,-1.0756963850224865,0.21673893763988553,-0.7854427288968725,-0.09575842042984338,0.022821053473681893,0.11230327339571242,3,left
7.322,0.31783108979496194,1.013310611976796,0.02523146974633896,-1.0538640524515654,0.22148402436822134,-0.7827603398265238,-0.09875365614108195,0.025128436167800666,0.11478671433830764,3,left
7.3229999999999995,0.3183574654888449,1.01581577223772,0.024910228387024697,-1.0313111058380662,0.2262919327563796,-0.7799521287039825,-0.10166277362579859,0.027616815010782482,0.11709284589624724,3,left
7.327999999999999,0.31874033068493124,1.0184060029849376,0.02454615869689381,-1.0080694383066169,0.23116345205789296,-0.7770284102951391,-0.1044867511897469,0.030286312816468836,0.1192244328011109,3,left
7.329,0.3189787269181261,1.021082577143136,0.02413930302383532,-0.9841716871509891,0.2360998401178914,-0.7739997864400703,-0.10722666471448213,0.03313690981592527,0.12118443409640577,3,left
7.332999999999999,0.31907187835771683,1.0238466947664329,0.023689780516301367,-0.9596512088089731,0.241102832818529,-0.7708771396084192,-0.10988368659216209,0.036168442609428655,0.12297600109241386,3,left
7.332999999999999,0.3190191954677782,1.0266994795123614,0.02319778792053915,-0.9345420526579324,0.246174652522149,-0.7676716255399545,-0.11245908460411051,0.03938060324635458,0.1246024751805507,3,left
7.337000000000001,0.31882027826727455,1.0296419753126966,0.022663600242749105,-0.9088789335624556,0.251318015526372,-0.7643946649616292,-0.11495422075101643,0.04277293844115365,0.12606738551287255,3,left
7.337999999999999,0.31847491912245796,1.0326751432433903,0.022087571280031335,-0.8826972031037393,0.25653613854548396,-0.7610579343721929,-0.11737055004240546,0.046344848934124626,0.12737444655188587,3,left
7.3420000000000005,0.31798310501654625,1.0357998585872745,0.02147013402370791,-0.8560328194186446,0.2618327442327,-0.7576733558851747,-0.11970961925278432,0.05009558900621127,0.12852755549533953,3,left
7.343,0.3173450192551412,1.03901690807664,0.020811800936876117,-0.8289223155747802,0.2672120657580867,-0.7542530861208467,-0.12197306564939404,0.054024266155789265,0.1295307895800945,3,left
7.343999999999999,0.31656104257889267,1.0423269873008798,0.020113164105907855,-0.8014027664064763,0.272678850457141,-0.7508095041376096,-0.12416261568510459,0.05812984093703782,0.13038840326810722,3,left
7.347,0.3156317536666988,1.0457306982668433,0.019374895264257216,-0.7735117537351279,0.27823836256525053,-0.7473551983931017,-0.12628008362964407,0.06241112694400626,0.13110482531602985,3,left
7.348,0.3145579290229056,1.0492285471022178,0.018597745686506767,-0.745287329896107,0.28389638505349857,-0.7439029527252347,-0.12832737010096137,0.06686679091610943,0.13168465572889534,3,left
7.353,0.3133405422516555,1.0528209418920937,0.01778254595087142,-0.7167679794932678,0.28965922058153065,-0.7404657313432893,-0.13030646046948585,0.07149535295018093,0.13213266259854192,3,left
7.353,0.31198076273249525,1.0565081906377272,0.01693020556847154,-0.6879925793010033,0.2955336915834651,-0.7370566628191758,-0.13221942312795923,0.07629518682071526,0.13245377882811854,3,left
7.357,0.310479953722484,1.0602904993271998,0.01604171247568575,-0.6590003562845113,0.3015271394965401,-0.7336890230861426,-0.13406840763048986,0.08126452041931835,0.13265309874422526,3,left
7.358,0.30883966991693274,1.0641679701107973,0.01511813238177639,-0.6298308439663547,0.3076474231096114,-0.7303762175381289,-0.13585564270651918,0.08640143632665923,0.13273587459798708,3,left
7.359,0.3070616545017865,1.0681405995787163,0.01416060795953796,-0.60052383783157,0.3139029159497543,-0.7271317624776007,-0.13758343415520052,0.0917038725307079,0.1327075129559939,3,left
7.362,0.3051478357318007,1.0722082771429216,0.01317035786160145,-0.5711193507212257,0.3203025025926871,-0.7239692662456944,-0.13925416262550666,0.09716962330553092,0.13257357098169098,3,left
7.362,0.3031003230765202,1.0763707835271739,0.01214867553850354,-0.541657568905552,0.3268555738159785,-0.720902410282785,-0.14087028128720508,0.10279634026539698,0.13233975260746927,3,left
7.3660000000000005,0.30092140298695563,1.0806277893707736,0.011096927830802225,-0.5121788090624694,0.3335720205735724,-0.7179449302132294,-0.14243431339766996,0.10858153360942052,0.13201190459738593,3,left
7.367999999999999,0.29861353434333926,1.084978853953544,0.010016553313077825,-0.4827234761287852,0.34046222680345894,-0.7151105969624013,-0.14394884976933553,0.1145225735724397,0.13159601250014266,3,left
7.372000000000001,0.2961793436486128,1.0894234240506238,0.008909060384036981,-0.45333202193951017,0.3475370610873396,-0.7124131978972386,-0.14541654614243896,0.12061669209828746,0.13109819649166293,3,left
7.372999999999999,0.29362162003440606,1.0939608329244708,0.0077760251171262946,-0.4240449045706966,0.3548078671816013,-0.7098665179818344,-0.14684012046755138,0.12686098475206956,0.13052470710633882,3,left
7.377000000000001,0.2909433101436537,1.0985902994592585,0.006619088900473985,-0.39490254830126886,0.3622864534394176,-0.7074843209399632,-0.14822235010225346,0.13325241288851045,0.12988192085576616,3,left
7.377999999999999,0.28814751294566104,1.103310927441986,0.005439955899604283,-0.365945304109499,0.3699850811443263,-0.7052803304168178,-0.149566068926178,0.13978780609386754,0.1291763357335512,3,left
7.381,0.28523747452842046,1.108121704995299,0.0042403903739888955,-0.3372134106200806,0.377916451776194,-0.7032682111326769,-0.15087416437851486,0.14646386491934552,0.1284145666045551,3,left
7.382000000000001,0.28221658290292817,1.1130215041670988,0.003022213873902297,-0.3087469554181691,0.38609369323108067,-0.7014615500216825,-0.1521495744219553,0.15327716392436463,0.12760334047674396,3,left
7.386,0.27908836284633004,1.1180090806811271,0.0017873023385123162,-0.28058583664729025,0.3945303450171453,-0.6998738373494314,-0.15339528443694186,0.1602241550484506,0.12674949165363106,3,left
7.386,0.275856470803697,1.1230830738524453,0.0005375831055754629,-0.2527697248086619,0.40324034244940693,-0.698518447803626,-0.15461432404998796,0.167301171330917,0.12585995676513817,3,left
7.391,0.27252468986096484,1.1282420066714784,-0.0007249681748520993,-0.2253380246802402,0.4122379998668807,-0.6974086215526242,-0.15580976389973777,0.1745044309979053,0.1249417696745596,3,left
7.392,0.26909692479611347,1.1334842860575263,-0.0019983307474043055,-0.19832983727467537,0.42153799289635524,-0.6965574452673564,-0.15698471234435132,0.18183004193673188,0.12400205625919143,3,left
7.396,0.2655771972156547,1.1388082032768754,-0.003280442106767595,-0.1717839217563541,0.4311553397878641,-0.6959778331027452,-0.15814231211372323,0.18927400657786364,0.12304802906208559,3,left
7.397,0.2619696407891014,1.1442119345138861,-0.004569201513127133,-0.1457386572388085,0.44110538184773074,-0.6956825076354657,-0.15928573690997652,0.19683222720520724,0.12208698181230627,3,left
7.401,0.2582784966010293,1.1496935415767782,-0.005862473649912663,-0.12023200438498823,0.4514037629959354,-0.6956839807556313,-0.16041818795961288,0.2045005117157481,0.12112628381100493,3,left
7.402,0.2545081086434424,1.1552509727135518,-0.0071580923708130725,-0.09530146673421853,0.4620664084754647,-0.6959945345107661,-0.16154289052065213,0.21227457984991435,0.12017337418058871,3,left
7.405,0.2506629194675314,1.160882063509348,-0.008453864450146006,-0.07098405168110539,0.4731095027422627,-0.6966262019012416,-0.16266309034805257,0.22015006991436997,0.11923575597423751,3,left
7.406000000000001,0.24674746600394182,1.1665845378362856,-0.009747573230056414,-0.04731623103319423,0.48454946656540077,-0.6975907476272112,-0.1637820501206722,0.22812254601925624,0.11832099014302558,3,left
7.41,0.2427663755465739,1.1723560088294498,-0.011036982058244582,-0.024333901075843597,0.49640293336813285,-0.6988996487879577,-0.16490304583300874,0.23618750585220571,0.11743668935792673,3,left
7.412000000000001,0.2387243618798555,1.178193979867277,-0.012319837431878504,-0.002072342074534575,0.5086867248415958,-0.700564075535495,-0.16602936315687833,0.24434038899096897,0.11659051168679964,3,left
7.412000000000001,0.23462622151813603,1.1840958455418873,-0.013593871798023285,0.019433822853297887,0.5214178258640538,-0.7025948716852191,-0.1671642937878619,0.2525765856529073,0.11579015414038589,3,left
7.417000000000001,0.23047683002056765,1.1900588926135616,-0.014856805997633983,0.040150669562857996,0.5346133587597747,-0.7050025352873932,-0.16831113180876595,0.26089144559290806,0.11504334612640628,3,left
7.417000000000001,0.2262811383399589,1.196080300949701,-0.01610635137654233,0.060045015466883365,0.5482905569328632,-0.7077971991642719,-0.16947317011203208,0.26928028675766397,0.1143578428648213,3,left
7.421,0.22204416915426745,1.202157144452302,-0.017340211623447364,0.07908446294254894,0.5624667379126627,-0.7109886114187194,-0.17065369691338242,0.27773840340836614,0.11374141880358252,3,left
7.422000000000001,0.21777101311988253,1.2082863919835503,-0.018556084424580455,0.09723744361982303,0.5771592758486666,-0.714586115921263,-0.1718559923716098,0.2862610736110452,0.11320186104939024,3,left
7.425,0.21346682498641048,1.214464908306976,-0.019751663038937124,0.11447326360835702,0.59238557349427,-0.7185986327836282,-0.17308332531979284,0.29484356609787665,0.11274696281427908,3,left
7.426,0.209136819526317,1.220689455067127,-0.02092463789541395,0.1307621496582497,0.6081630337206392,-0.7230346388415502,-0.17433895011133396,0.3034811465237379,0.1123845168762771,3,left
7.426,0.20478626725366356,1.2269566918311898,-0.02207269829524531,0.14607529595105276,0.6245090306060405,-0.7279021482388455,-0.1756261035842821,0.31216908314249026,0.1121223090526056,3,left
7.43,0.2004204899266593,1.2332631772123692,-0.023193534273832864,0.16038491068117672,0.641440880152151,-0.7332086933283668,-0.17694800214747197,0.3209026519276305,0.11196811168412935,3,left
7.43,0.1960448558479033,1.2396053700886436,-0.02428483864648306,0.17366426128870774,0.6589758106830362,-0.7389613061747016,-0.17830783899209424,0.32967714116211594,0.11192967713003278,3,left
7.436,0.19166477499640117,1.2459796309234856,-0.025344309243239858,0.18588771749827598,0.6771309329815342,-0.7451665008766908,-0.1797087814324016,0.3384878555223106,0.11201473127198586,3,left
7.437,0.187285694043148,1.2523822231891693,-0.026369651330946476,0.19703079184930897,0.6959232102148168,-0.751830256806657,-0.1811539683793546,0.3473301196811315,0.11223096702737308,3,left
7.44,0.18291309131088856,1.25880931489014,-0.02735858022225037,0.20707017769647665,0.7153694277000611,-0.758958002796488,-0.1826465079511206,0.3561992814555916,0.11258603787149211,3,left
7.441,0.17855247173648528,1.2652569801852742,-0.028308824075083776,0.21598378471539093,0.735486162562415,-0.7665546022884139,-0.18418947522445733,0.36509071452404085,0.11308755136898274,3,left
7.444,0.17420936188245428,1.2717212011137644,-0.029218126884716648,0.22375077194551962,0.7562897533392835,-0.7746243394696332,-0.18578591013113913,0.3739998207384957,0.11374306271512394,3,left
7.446000000000001,0.1698893050252269,1.2781978694367653,-0.03008425166105564,0.23035157839910841,0.7777962695868339,-0.7831709064112726,-0.18743881550372032,0.3829220320575268,0.11456006828803549,3,left
7.45,0.1655978563252387,1.2846827886119054,-0.030904983770622584,0.23576795126167185,0.8000214815465438,-0.792197391233516,-0.18915115527507492,0.3918528121252374,0.11554599921324092,3,left
7.4510000000000005,0.16134057806250413,1.291171675919125,-0.03167813440944823,0.23998297170632416,0.8229808299315913,-0.8017062673200885,-0.19092585283630503,0.4007876575219158,0.11670821494249135,3,left
7.454,0.1571230349054465,1.2976601647551236,-0.03240154415957216,0.24298107834087274,0.8466893958949019,-0.8116993836066588,-0.19276578955777277,0.4097220987119833,0.11805399684921301,3,left
7.456,0.15295078917368682,1.3041438071107057,-0.03307308657069413,0.24474808830319755,0.8711618712427355,-0.8221779559690919,-0.19467380347818117,0.4186517007148844,0.11959054184342682,3,left
7.459,0.14882939605769682,1.3106180762403794,-0.03369067170812981,0.24527121601699178,0.8964125289597995,-0.8331425597388765,-0.1966526881668083,0.4275720635245764,0.12132495600949433,3,left
7.46,0.1447643987670442,1.3170783695274975,-0.03425224962042909,0.24453908961644566,0.9224551941140292,-0.8445931233744329,-0.1987051917641869,0.43647882230327445,0.12326424827057152,3,left
7.466,0.14076132359059262,1.3235200115429353,-0.03475581369343116,0.24254176504492256,0.949303215211368,-0.8565289233184081,-0.2008340162067159,0.44536764737509665,0.12541532408420006,3,left
7.4670000000000005,0.1368256748640961,1.3299382572925398,-0.035199403859893605,0.2392707378291052,0.9769694360731164,-0.8689485800724549,-0.2030418166408953,0.4542342440452241,0.12778497917403342,3,left
7.468999999999999,0.13296292985140457,1.3363282956480924,-0.03558110962609505,0.23471895252648747,1.0054661683106927,-0.8818500555223882,-0.20533120103308608,0.4630743522701543,0.13037989330328395,3,left
7.47,0.12917853355229605,1.3426852529568425,-0.03589907287080941,0.2288808098404558,1.0348051644749592,-0.8952306515480046,-0.20770472998091685,0.47188374620457296,0.1332066240960849,3,left
7.474,0.12547789345110139,1.3490041968252613,-0.03615149037674743,0.2217521713935484,1.064997591959619,-0.9090870099532379,-0.21016491673268492,0.48065823365030763,0.1362716009135893,3,left
7.475,0.12186637421654994,1.3552801400745298,-0.03633661606674105,0.21333036214580348,1.0960540077405723,-0.9234151137537076,-0.212714227421334,0.48939365543274777,0.13958111879227422,3,left
7.479,0.11834929235663239,1.3615080448690964,-0.03645276292661548,0.20361417044141703,1.1279843340355376,-0.9382102898600921,-0.2153550815123055,0.4980858847263457,0.1431413324497883,3,left
7.48,0.11493191082550946,1.3676828270241732,-0.03649830459971535,0.1926038456632249,1.1607978349706976,-0.9534672131971254,-0.21808985242717088,0.5067308263322836,0.14695825035038235,3,left
7.48,0.11161943357587385,1.3737993605005872,-0.03647167663645744,0.18030109347081352,1.1945030943436075,-0.9691799122993652,-0.22092086823746238,0.5153244158781161,0.1510377287974973,3,left
7.484,0.10841700005036707,1.3798524820932627,-0.03637137737651406,0.1667090685943475,1.229107994574111,-0.9853417764262246,-0.223850412285744,0.5238626188906451,0.1553854660078216,3,left
7.485,0.10532967960537827,1.3858369963113986,-0.03619596843570066,0.151832365152488,1.2646196969375487,-1.0019455642400847,-0.2268807236288726,0.5323414297115764,0.16000699613584898,3,left
7.489,0.1023624658560639,1.3917476804357582,-0.03594407477829884,0.13567700445906647,1.3010446231771031,-1.0189834140926106,-0.23001399726642147,0.5407568702585238,0.1649076832438898,3,left
7.49,0.09952027092658579,1.3975792897252468,-0.03561438438455571,0.11825042027947708,1.3383884385947036,-1.0364468559656848,-0.23325238415516045,0.5491049886521965,0.17009271522724115,3,left
7.492999999999999,0.0968079195912061,1.4033265627342992,-0.035205647555450005,0.09956144154578214,1.376656036675006,-1.0543268250770335,-0.23659799101830153,0.5573818577341173,0.175567097707804,3,left
7.494,0.09423014329993873,1.4089842266981836,-0.0347166759092806,0.0796202727944458,1.4158515250619967,-1.0726136769738375,-0.24005287995851635,0.5655835734990393,0.18133564791023643,3,left
7.495,0.09179157409182868,1.4145470029455853,-0.0341463411158904,0.058438473052425645,1.455978212282759,-1.0912972036003874,-0.24361906788403298,0.573706253466034,0.18740298853554962,3,left
7.497999999999999,0.0894967384082408,1.4200096122971857,-0.0334935734046091,0.03602893415231942,1.4970385943780058,-1.110366649639009,-0.24729852575742742,0.5817460350120197,0.19377354164788266,3,left
7.497999999999999,0.08735005082813176,1.4253667803980508,-0.032757359885269094,0.012405859195078882,1.5390343408392329,-1.129810728612683,-0.25109317767703876,0.5896990736912843,0.2004515225910382,3,left
7.502999999999999,0.08535580775253135,1.4306132429206821,-0.03193674273052258,-0.01241525859022211,1.5819662796826695,-1.1496176385773724,-0.25500489980125784,0.597561541564326,0.20744093395221835,3,left
7.504,0.08351818106173259,1.4357437505775954,-0.03103081726958803,-0.03841765660219311,1.6258343817304697,-1.1697750774212095,-0.2590355191262629,0.6053296255591026,0.2147455595912701,3,left
7.507999999999999,0.08184121175842884,1.440753073895502,-0.030038730038453237,-0.06558332330633561,1.6706377442197893,-1.1902702578263744,-0.2631868121281076,0.612999525887526,0.22236895875463397,3,left
7.5089999999999995,0.08032880359909914,1.445636007718561,-0.028959676826507883,-0.09389301842892293,1.716374573863077,-1.211089921950538,-0.2674605032804026,0.6205674545397816,0.23031446029408192,3,left
7.5120000000000005,0.0789847167077564,1.4503873754211272,-0.02779290075686968,-0.12332629298021072,1.7630421694856035,-1.2322203558857505,-0.2718582634591738,0.6280296338787785,0.23858515701123686,3,left
7.513,0.07781256116206513,1.4550020328211561,-0.026537690435418336,-0.15386150918497615,1.8106369043689328,-1.2536474039536218,-0.27638170824682545,0.6353822953567593,0.24718390014978076,3,left
7.518,0.07681579054340261,1.4594748717941424,-0.025193378201152188,-0.18547586040166827,1.8591542084317125,-1.2753564828965758,-0.2810323961474901,0.6426216783757974,0.25611329405818345,3,left
7.518,0.07599769545074514,1.4638008235918132,-0.023759338508802845,-0.21814539111467657,1.90858855038185,-1.2973325960258482,-0.28581182672640176,0.649744029313615,0.2653756910467176,3,left
7.524,0.07536139699108833,1.4679748618690447,-0.022234986472674644,-0.25184501708738827,1.9589334199767805,-1.3195603473877524,-0.2907214386862907,0.656745600735832,0.2749731864634675,3,left
7.525,0.07490984027084982,1.4719920054204232,-0.020619776594719214,-0.2865485457668025,2.010181310531201,-1.3420239560105443,-0.2957626078941631,0.6636226508154385,0.28490761401498843,3,left
7.527,0.07464578791831449,1.4758473206294238,-0.018913201688008155,-0.3222286970334978,2.0623237018142633,-1.3647072702949843,-0.3009366453721983,0.6703714429799391,0.2951805413582295,3,left
7.528,0.07457181366576482,1.4795359236394714,-0.01711479199285295,-0.3588571243937076,2.115351043480838,-1.3875937826124192,-0.30624479526687126,0.6769882458062785,0.3057932659912953,3,left
7.5329999999999995,0.07469029601398822,1.4830529822650902,-0.015224114473448375,-0.39640443671313697,2.1692527391840524,-1.4106666441748767,-0.31168823281078495,0.6834693331832936,0.31674681147158784,3,left
7.5329999999999995,0.07500341199494881,1.4863937176706292,-0.013240772281558065,-0.4348402205949612,2.224017131518876,-1.4339086802423067,-0.31726806229207866,0.689810984761073,0.3280419239908441,3,left
7.537000000000001,0.07551313104386258,1.4895534058522037,-0.01116440437920222,-0.4741330635071654,2.2796314879490596,-1.4573024057326727,-0.32298531504666345,0.696009486706224,0.339679069337558,3,left
7.537999999999999,0.0762212089915285,1.4925273789640114,-0.008994685321491043,-0.5142505777670231,2.336081987872249,-1.4808300413011428,-0.32884094748892534,0.7020611327816564,0.3516584302782553,3,left
7.542999999999999,0.07712918219166266,1.4953110265314686,-0.00673132521076937,-0.5551594254930629,2.3933537109805734,-1.5044735299551095,-0.3348358391969271,0.7079622257690951,0.3639799043900707,3,left
7.544,0.07823836180596157,1.4978997965908174,-0.004374069840067321,-0.5968253446373297,2.4514306270764394,-1.528214554272205,-0.34097079106853545,0.7137090792521174,0.3766431023780571,3,left
7.547000000000001,0.07954982828022682,1.5002891967902858,-0.0019227010424256509,-0.6392131762131176,2.510295587505669,-1.5520345542888598,-0.34724652355574964,0.7192980197708463,0.38964734689354735,3,left
7.547999999999999,0.08106442605258533,1.5024747954830375,0.0006229627478430542,-0.6822868928356185,2.56993031837247,-1.5759147461272907,-0.3536636749371707,0.7247253893277533,0.40299167178040185,3,left
7.5489999999999995,0.08278275853600009,1.5044522228369164,0.0032630657303634398,-0.7260096286951084,2.630315415703044,-1.5998361414290738,-0.36022279950302677,0.7299875481673493,0.41667482151411067,3,left
7.5520000000000005,0.08470518341858296,1.5062171719820134,0.005997713792433753,-0.7703437110843601,2.6914303427268944,-1.6237795676636966,-0.36692436547983776,0.7350808777208471,0.43069525050923346,3,left
7.5520000000000005,0.08683180833376326,1.507765400217303,0.00882697341311533,-0.8152506936039436,2.7532534294471107,-1.647725689380643,-0.37376875256994413,0.7400017836376578,0.44505112206210207,3,left
7.557,0.08916248696270329,1.5090927303010602,0.011750870450952763,-0.860691391170939,2.815761874673048,-1.6716550304736966,-0.3807562490674601,0.7447466988813386,0.45974030685952794,3,left
7.558,0.09169681563482494,1.5101950518527574,0.014769388840587767,-0.9066259169583327,2.8789317506909318,-1.6955479975262002,-0.38788704856035616,0.74931208689837,0.47476038107569424,3,left
7.562,0.09443413048880324,1.5110683228956974,0.01788246921134549,-0.9530137213940263,2.94273801074993,-1.7193849043060199,-0.39516124623833426,0.7536944448738891,0.4901086240984681,3,left
7.562,0.09737350524972413,1.511708571570841,0.021090007429226443,-0.9998136333499049,3.0071544995432196,-1.7431459974789159,-0.4025788348265686,0.7578903070880034,0.5057820159273263,3,left
7.563,0.10051374966943681,1.5121118980522952,0.024391853053043137,-1.0469839035910977,3.0721539667875777,-1.7668114835534583,-0.41013970016579676,0.7618962483857923,0.5217772342860367,3,left
7.568,0.10385340866642491,1.5122744766912783,0.027787807686995212,-1.0944822502481515,3.137708083617482,-1.7903615567931765,-0.4178436164596596,0.7657088877735787,0.5380906514941812,3,left
7.57,0.1073907621905106,1.5121925584086051,0.03127762320732846,-1.1422659055203523,3.203787460810529,-1.8137764273323052,-0.4256902412105968,0.7693248921535165,0.5547183311425374,3,left
7.571000000000001,0.11112382582807971,1.511862473349748,0.03486099983567942,-1.190291662510786,3.270361667473287,-1.8370363484539198,-0.4336791098660187,0.7727409802079951,0.5716560246182628,3,left
7.572,0.11505035215345041,1.5112806338138207,0.03853758402277578,-1.2385159214033727,3.337399249207667,-1.8601216422662168,-0.44180963019688446,0.7759539264448059,0.5888991675267351,3,left
7.577000000000001,0.11916783281781598,1.5104435374668606,0.042306966097890406,-1.286894734748607,3.4048677454802982,-1.8830127235114151,-0.4500810764312274,0.7789605654134522,0.6064428760578072,3,left
7.577999999999999,0.12347350134803602,1.50934777084892,0.04616867763516847,-1.3353838519341326,3.472733706308227,-1.905690121518602,-0.4584925831655758,0.7817577961024079,0.6242819433451257,3,left
7.582000000000001,0.12796433660595388,1.5079900131838797,0.05012218848435468,-1.3839387629785929,3.5409627084534336,-1.928134500366794,-0.4670431390776242,0.7843425865265505,0.6424108358680354,3,left
7.582000000000001,0.13263706683744442,1.5063670405003242,0.05416690340987153,-1.4325147417876387,3.6095193713199327,-1.9503266773239378,-0.47573158046391634,0.7867119785133948,0.6608236899464591,3,left
7.587000000000001,0.13748817421992993,1.5044757300703335,0.058302158285535186,-1.4810668890112986,3.6783673727483244,-1.9722476396269477,-0.4845565846266993,0.788863092696161,0.6795143083799847,3,left
7.587999999999999,0.14251389979841306,1.5023130651715608,0.06252721581034607,-1.5295501746420959,3.7474694649037374,-1.9938785596672224,-0.4935166631345116,0.7907931337210935,0.6984761572832295,3,left
7.591,0.1477102486850395,1.4998761401781529,0.0668412607443995,-1.577919480493364,3.8167874904540255,-2.015200808645346,-0.5026101549814609,0.7924993956758323,0.7177023631703623,3,left
7.5920000000000005,0.15307299538764274,1.4971621659873546,0.07124339470617251,-1.626129642697142,3.886282399235921,-2.03619596875791,-0.5118352196705416,0.7939792677450097,0.7371857103424617,3,left
7.596,0.15859768913013206,1.4941684757890767,0.07573263061541904,-1.6741354943608269,3.955914265607572,-2.0568458439785564,-0.5211898302467263,0.79523024009861,0.7569186386321691,3,left
7.596,0.16427965903385996,1.4908925311841936,0.08030788690320624,-1.7218919085214452,4.025642306686518,-2.07713246949445,-0.5306717663059519,0.7962499100179912,0.7768932415608532,3,left
7.601,0.17011401904546833,1.4873319286538411,0.08496798163577575,-1.7693538415359378,4.095424901672652,-2.097038119858462,-0.5402786070064977,0.7970359882638113,0.7971012649642375,3,left
7.602,0.1760956725229644,1.4834844063760253,0.08971162670833448,-1.8164763770452652,4.165219612456109,-2.1165453159163388,-0.5500077241096212,0.7975863056894501,0.8175341061431649,3,left
7.606,0.18221931642757747,1.4793478513765062,0.09453742226048444,-1.8632147706494353,4.234983205710324,-2.1356368305671083,-0.5598562750766899,0.7978988201028494,0.8381828135968594,3,left
7.607,0.18847944511441428,1.4749203069875565,0.09944385145054072,-1.909524495429695,4.304671676670605,-2.1542956934138546,-0.5698211962503964,0.7979716233790249,0.8590380873967226,3,left
7.6129999999999995,0.19487035376936576,1.4701999805716834,0.10442927570406514,-1.9553612884531673,4.374240274798657,-2.1725051943608755,-0.5798991961480038,0.7978029488248293,0.8800902802593412,3,left
7.614,0.20138614160006696,1.4651852514498611,0.10949193052553498,-2.000681198394096,4.443643531533354,-2.1902488862120237,-0.5900867488949048,0.7973911787968553,0.9013293993780045,3,left
7.6160000000000005,0.20802071494925056,1.4598746789571206,0.11462992193467397,-2.0454406344046454,4.512835290327864,-2.207510586323801,-0.600380087827115,0.7967348525726888,0.9227451090726217,3,left
7.6160000000000005,0.21476779054742798,1.454267010535478,0.11984122356359643,-2.089596416366835,4.5817687391728965,-2.2242743773654796,-0.6107751992937448,0.7958326744578107,0.9443267342969159,3,left
7.617000000000001,0.22162089913791774,1.4483611897717101,0.12512367443074926,-2.1331058266557053,4.650396445805329,-2.2405246072371896,-0.6212678167013104,0.7946835220237068,0.966063264934395,3,left
7.621,0.22857338968734237,1.4421563642972366,0.1304749773936735,-2.1759266635422065,4.718670395800889,-2.256245888195527,-0.6318534148609585,0.7932864542171567,0.9879433606208803,3,left
7.621,0.2356184343737978,1.4356518934776417,0.13589269827067968,-2.2180172963625675,4.78654203374882,-2.2714230952348036,-0.6425272047104696,0.7916407189939131,1.0099553557239378,3,left
7.625,0.2427490345495758,1.4288473558199508,0.14137426560814384,-2.259336722579038,4.853962307705572,-2.28604136377059,-0.653284128472683,0.7897457602153329,1.032087264217908,3,left
7.626,0.2499580278813899,1.421742556023,0.14691697105770243,-2.299844626854933,4.9208817171235575,-2.3000860866706847,-0.6641188552933475,0.787601223700683,1.0543267843878803,3,left
7.631,0.2572380968484655,1.4143375315999207,0.15251797031992737,-2.3395014421784897,4.987250364330498,-2.313542910696568,-0.6750257773911505,0.7852069624131849,1.0766613034042352,3,left
7.631,0.2645817787336434,1.4066325590121265,0.15817428461011088,-2.3782684126362463,5.053018009037029,-2.3263977325142697,-0.6859990067508163,0.7825630407743528,1.0990779018313097,3,left
7.632000000000001,0.27198147719629273,1.398628159266283,0.16388280260630092,-2.4161076566574806,5.118134124274864,-2.3386366946073793,-0.6970323723903842,0.7796697381004645,1.1215633581340454,3,left
7.635,0.27942947548086755,1.3903251029347523,0.16964028284291544,-2.452982229117209,5.182547951569626,-2.3502461815207107,-0.7081194182339909,0.776527551154287,1.1441041532467533,3,left
7.636,0.2869179512883869,1.381724414565097,0.17544335651193751,-2.488856181114287,5.246208553747362,-2.3612128167639326,-0.7192534016216625,0.7731371958044629,1.1666864752683637,3,left
7.641,0.29443899330646234,1.3728273764500325,0.18128853063416103,-2.5236946170153316,5.309064864845748,-2.3715234605272606,-0.7304272924878001,0.7694996077842461,1.1892962243487277,3,left
7.642,0.30198461934877097,1.3636355317390598,0.1871721915689551,-2.5574637487840013,5.371065737195606,-2.3811652082620243,-0.7416337732401963,0.7656159425405611,1.2119190178306913,3,left
7.645,0.30954679600048746,1.3541506868852127,0.19309060883815252,-2.5901309476986154,5.4321599858554945,-2.3901253901575856,-0.752865239371549,0.76148757416365,1.2345401957127877,3,left
7.646,0.3171174596093086,1.344374913431964,0.19903993924327196,-2.621664793558125,5.492296430579848,-2.3983915715442055,-0.7641138008355587,0.7571160933868586,1.2571448264974674,3,left
7.651,0.3246885384088062,1.3343105491545675,0.20501623125437893,-2.652035121473366,5.55142393549864,-2.4059515542495253,-0.7753712842197861,0.7525033046454083,1.279717713489824,3,left
7.652,0.33225197551808017,1.323960198576103,0.21101542964657533,-2.681213066337384,5.609491446683995,-2.4127933789343774,-0.7866292357475169,0.7476512221822972,1.302243401611769,3,left
7.655,0.33979975253483546,1.313326732881451,0.21703338036119327,-2.709171105065341,5.666448027776382,-2.4189053284316424,-0.7978789251409308,0.742562065188777,1.3247061847965562,3,left
7.656000000000001,0.3473239134313255,1.3024132892532077,0.22306583557354884,-2.735883096691196,5.722242893840135,-2.4242759321098504,-0.8091113503778963,0.7372382519661577,1.347090114028475,3,left
7.659,0.3548165884715439,1.2912232696532902,0.2291084589524634,-2.7613243204049174,5.776825443615006,-2.4288939712811533,-0.8203172433747131,0.7316823930950062,1.369379006092382,3,left
7.66,0.362270017886229,1.2797603390736276,0.23515683109403626,-2.7854715116104916,5.830145290327265,-2.4327484856712007,-0.8314870766271022,0.7258972835971257,1.3915564530975717,3,left
7.665,0.3696765750629744,1.2680284232791208,0.2412064551043768,-2.808302896081401,5.8821522912205175,-2.4358287809663235,-0.842611070841688,0.7198858940750256,1.4136058328402492,3,left
7.667000000000001,0.37702878902922454,1.2560317060662858,0.247252762299918,-2.829798222286616,5.932796575962932,-2.4381244374512687,-0.8536792035901458,0.7136513608129286,1.435510320068605,3,left
7.67,0.38431936602621675,1.2437746260619267,0.25329111799621884,-2.8499387919564216,5.9820285740839525,-2.439625319748535,-0.8646812190180819,0.7071969748227022,1.457252898714163,3,left
7.671,0.3915412099931347,1.2312618730877876,0.2593168273677478,-2.8687074889536177,6.029799041589777,-2.4403215876681372,-0.8756066386405791,0.7005261698174515,1.4788163751527075,3,left
7.675,0.3986874418046196,1.2184983841192212,0.26532514137796304,-2.886088806511813,6.07605908690299,-2.4402037081743693,-0.8864447732561821,0.6936425090948717,1.5001833925576802,3,left
7.676,0.40575141713264434,1.20548933886806,0.2713112627963387,-2.9020688728986217,6.120760196267678,-2.43926246847386,-0.8971847360109084,0.6865496713118244,1.5213364464084673,3,left
7.68,0.41272674283453104,1.1922401550208463,0.2772703523334265,-2.9166354755576616,6.163854258757144,-2.437488990226898,-0.9078154566436428,0.6792514351309835,1.542257901215488,3,left
7.681,0.4196072918001943,1.1787564831620525,0.28319753493427874,-2.9297780837792406,6.205293591017016,-2.4348747448816694,-0.9183256969440313,0.6717516627197815,1.5629300085234292,3,left
7.684,0.42638721622153325,1.16504420140835,0.2890879062726222,-2.9414878699456217,6.245030961872055,-2.4314115701286854,-0.9287040674537024,0.6640542820812901,1.5833349262533534,3,left
7.684,0.4330609592728672,1.1511094097754584,0.29493653948128656,-2.951757729392688,6.283019616920362,-2.427091687470282,-0.9389390454413287,0.6561632681960785,1.6034547394437435,3,left
7.685,0.43962326521033834,1.136958424292678,0.30073849214001075,-2.9605822989257393,6.319213303233938,-2.4219077208976714,-0.9490189941483229,0.6480826230069697,1.6232714824088212,3,left
7.69,0.4460691879087166,1.122597770870201,0.306488813526886,-2.9679579740230535,6.353566294279617,-2.415852716665577,-0.9589321831346912,0.6398163545453527,1.6427671621266384,3,left
7.691,0.45239409785755086,1.108034178913024,0.31218255212980844,-2.9738829247566927,6.386033415169445,-2.408920164152023,-0.9686668092537569,0.631368455978285,1.6619237822995114,3,left
7.694,0.4585936876383636,1.0932745746687922,0.31781476340560527,-2.978357110455903,6.416570068344348,-2.4011040177883736,-0.9782110176171355,0.6227428856223765,1.6807233673234354,3,left
7.695,0.46466397590241804,1.0783260742975322,0.3233805177619853,-2.981382293134294,6.445132259789707,-2.392398720042217,-0.9875529220777487,0.6139435487026138,1.6991479856072498,3,left
7.699,0.47060130986448995,1.0631959766550185,0.32887490872518577,-2.9829620496978153,6.471676625875982,-2.3827992254331583,-0.9966806250585544,0.6049742811526233,1.717179772050475,3,left
7.699,0.4764023663232638,1.047891755786237,0.33429306125094443,-2.983101782946388,6.496160460912041,-2.3723010255590635,-1.0055822367210046,0.5958388354850614,1.7348009496927723,3,left
7.7,0.48206415121656343,1.0324210531316638,0.33963014014004456,-2.981808731322729,6.518541745488867,-2.3609001750844247,-1.0142458935000431,0.5865408687068634,1.7519938505879211,3,left
7.704,0.4875839977215003,1.0167916694532446,0.34488135853073876,-2.979091977081949,6.538779175664167,-2.3485933185234322,-1.0226597760318403,0.5770839322535923,1.7687409359540722,3,left
7.705,0.4929595629151659,1.001011556485835,0.3500419864543355,-2.974962452054933,6.556832192994025,-2.335377717438012,-1.0308121264998082,0.5674714639166512,1.785024815650861,3,left
7.709,0.49818882302054285,0.9850888083209617,0.3551073594501079,-2.9694329398985824,6.572661015390366,-2.3212512775519656,-1.0386912654237617,0.557706781736656,1.8008282670327365,3,left
7.709,0.5032700672765357,0.9690316525412849,0.3600728872389884,-2.9625180739977273,6.58622666879814,-2.30621257539628,-1.0462856079163714,0.5477930798358107,1.816134253226573,3,left
7.712999999999999,0.5082018904903239,0.9528484411404102,0.36493406245633475,-2.954234330675905,6.5974910197184125,-2.2902608843078016,-1.0535836794303006,0.5377334261616757,1.8309259408803116,3,left
7.715,0.5129831843508973,0.9365476412729946,0.36968646944514827,-2.9446000176439924,6.606416808618431,-2.2733961997173964,-1.0605741310186374,0.5275307621142862,1.845186717427991,3,left
7.718,0.5176131276007337,0.920137825881817,0.37432579311013386,-2.933635257666859,6.612967684267592,-2.2556192636843764,-1.0672457541304132,0.5171879040281471,1.858900207915103,3,left
7.718999999999999,0.5220911751767854,0.9036276642452058,0.378847827827848,-2.921361967424294,6.617108239031559,-2.2369315886313843,-1.0735874949621496,0.5067075464802139,1.8720502914267276,3,left
7.722,0.5264170464428357,0.8870259124836115,0.38324848640125336,-2.907803831538558,6.618804045150111,-2.217335480231277,-1.0795884683854886,0.49609226739455337,1.8846211171593819,3,left
7.724,0.5305907126432262,0.8703414040593695,0.38752380904152545,-2.892986271737119,6.6180216920174635,-2.196834059394947,-1.0852379714700522,0.4853445349139796,1.8965971201759426,3,left
7.728,0.5346123837118318,0.8535830402988304,0.3916699723547348,-2.8769364111153677,6.614728824476881,-2.1754312833064104,-1.0905254966197233,0.4744667160085618,1.9079630368813851,3,left
7.729,0.5384824945690825,0.8367597809622871,0.395683298303384,-2.8596830334604055,6.608894182134372,-2.153131965448857,-1.0954407443395637,0.46346108679051706,1.9187039202554161,3,left
7.732,0.542201691035018,0.8198806348853587,0.39956026310451187,-2.841256537593409,6.600487639689162,-2.1299417945627908,-1.099973635649578,0.4523298445046154,1.9288051548763732,3,left
7.733,0.5457708154803729,0.8029546507144233,0.40329750602041603,-2.8216888866845196,6.589480248271411,-2.1058673524747804,-1.1041143241604883,0.44107512116285386,1.9382524717690088,3,left
7.737,0.5491908923328545,0.785990907757004,0.40689183799492995,-2.801013552490762,6.57584427777035,-2.080916130732772,-1.1078532078256222,0.42969899879178775,1.9470319631069846,3,left
7.739,0.5524631135528446,0.7689985069650863,0.4103402500860651,-2.779265454464122,6.5595532601286175,-2.05509654598136,-1.1111809403819095,0.41820352626054724,1.9551300967990626,3,left
7.742999999999999,0.5555888241898518,0.7519865620652946,0.4136399216433123,-2.7564808936736536,6.540582033571143,-2.0284179540078737,-1.114088442491867,0.4065907376572118,1.9625337309861008,3,left
7.745,0.5585695081251345,0.7349641908463649,0.4167882281744745,-2.732697481482278,6.518906787729305,-2.0008906623876164,-1.1165669125972877,0.3948626721808657,1.969230128474051,3,left
7.747000000000001,0.5614067740956341,0.7179405066125141,0.41978274884412337,-2.7079540629158947,6.494505109613543,-1.972525941654107,-1.1186078374941795,0.38302139551631575,1.9752069711261862,3,left
7.749,0.5641023420810479,0.700924609809397,0.4226212735453158,-2.6822906346594215,6.467356030379858,-1.943336034917708,-1.120203002637281,0.37106902265811625,1.9804523742358056,3,left
7.752999999999999,0.5666580301220224,0.68392557982565,0.4253018094885498,-2.655748257611524,6.4374400728278935,-1.91333416585358,-1.1213445021808166,0.3590077421040019,1.9849549008873137,3,left
7.754,0.5690757416234271,0.6669524669670968,0.4278225872582554,-2.628368963927045,6.404739299560438,-1.8825345449775106,-1.1220247487586676,0.34683984110645344,1.9887035762549494,3,left
7.756,0.5713574531815759,0.6500142845940079,0.4301820662969422,-2.600195658473487,6.369237361726345,-1.8509523741257854,-1.1222364830018594,0.33456773125490596,1.991687901684537,3,left
7.7589999999999995,0.57350520296006,0.6331200014096052,0.4323789397839696,-2.5712720146254044,6.330919548260857,-1.8186038490529488,-1.1219727827877413,0.32219397342974304,1.9938978683449462,3,left
7.76,0.5755210796287132,0.6162785338931639,0.4344121388744833,-2.54164236431813,6.28977283552937,-1.7855061600590074,-1.1212270722161306,0.30972130139996795,1.995323970290331,3,left
7.7620000000000005,0.5774072118738092,0.5994987388781216,0.4362808362587373,-2.511351582280006,6.245785937272632,-1.7516774905553834,-1.1199931303103472,0.2971526437520389,1.9959572168738366,3,left
7.7620000000000005,0.579165758482406,0.5827894062789472,0.4379844489993496,-2.48044496436012,6.198949354743257,-1.717137013476725,-1.1182650994419252,0.28449114406811804,1.995789144507787,3,left
7.767,0.5807988989987701,0.5661592519700475,0.43952264060547847,-2.44896810007016,6.149255426893519,-1.6819048854651653,-1.1160374934768433,0.27174017931790834,1.9948118277744324,3,left
7.768,0.5823088249473127,0.549616910815753,0.44089532230844386,-2.416966740475291,6.0966983803571795,-1.6460022388596731,-1.1133052056397197,0.25890337642798034,1.9930178898890563,3,left
7.768,0.5836977316161236,0.5331709298439955,0.4421026535113599,-2.3844866643999074,6.041274378763638,-1.6094511717157762,-1.1100635160909915,0.24598462699222187,1.9904005125149442,3,left
7.773,0.5849678103968227,0.5168297615547791,0.44314504139125327,-2.351573546930665,5.98298157080541,-1.5722747361871052,-1.1063080992106717,0.23298810008678886,1.986953444927389,3,left
7.774,0.5861212416781022,0.5006017573613776,0.44402313963540546,-2.318272833179505,5.921820136580806,-1.53449692549013,-1.1020350305808224,0.21991825315268862,1.9826710125215645,3,left
7.778,0.587160188292587,0.4844951611708528,0.4447378463004187,-2.2846296184352823,5.8577923319217104,-1.4961426594769203,-1.0972407936574233,0.2067798409088929,1.9775481246567372,3,left
7.779,0.5880867895196012,0.46851810311521774,0.4452903007971581,-2.2506885348131815,5.790902530517214,-1.4572377687308142,-1.0919222861208397,0.19357792225865444,1.9715802818268953,3,left
7.782,0.5889031556484361,0.45267859344660843,0.4456818800244601,-2.21649364430635,5.721157263657381,-1.4178089770765252,-1.0860768258926035,0.18031786515149129,1.9647635821454903,3,left
7.782,0.5896113631084862,0.4369845166107803,0.445914193691084,-2.1820883381432,5.648565257413227,-1.377883882394559,-1.0797021568047325,0.1670053493631063,1.9570947271295618,3,left
7.7860000000000005,0.5902134501761581,0.4214436255124609,0.4459890788712884,-2.14751524235297,5.57313746706079,-1.3374909356282356,-1.072796453906302,0.1536463671553282,1.9485710267660872,3,left
7.787000000000001,0.5907114132728483,0.4060635359840617,0.4459085938352267,-2.1128161294414047,5.494887108548921,-1.2966594178701099,-1.0653583283904675,0.14024722177799354,1.9391904038409735,3,left
7.791,0.5911072038714658,0.39085172146766595,0.44567501118899483,-2.0780318360778107,5.413829686802308,-1.2554194154131533,-1.0573868321236286,0.12681452377453917,1.9289513975086539,3,left
7.792999999999999,0.5914027260299369,0.3758155079198286,0.4452908103573196,-2.0432021866942556,5.329983020643049,-1.2138017926507254,-1.0488814617568885,0.11335518505294231,1.9178531660777949,3,left
7.797000000000001,0.5915998345677367,0.36096206894944677,0.4447586694454585,-2.008365922897318,5.243367264106048,-1.1718381627081,-1.039842162398439,0.09987641068352988,1.905895488986166,3,left
7.797999999999999,0.5917003338948598,0.3462984212007031,0.4440814565230725,-1.9735606385925515,5.154004923915395,-1.1295608556871415,-1.0302693308239723,0.08638568838508354,1.8930787679352559,3,left
7.801,0.5917059774931566,0.33183141999523086,0.4432622203788074,-1.9388227207216826,5.061920872880902,-1.0870028844046422,-1.0201638182006842,0.07289077566059113,1.8794040271527503,3,left
7.8020000000000005,0.5916184680403646,0.31756775524911834,0.44230418079945516,-1.9041872955125572,4.967142358966035,-1.0441979075038426,-1.009526932298904,0.059399684543939305,1.8648729127485244,3,left
7.806,0.5914394581590293,0.30351394768110673,0.4412107184321877,-1.86968818014192,4.869699009770563,-1.00118018981775,-0.9983604391638493,0.045920663918809064,1.8494876911273281,3,left
7.806,0.5911705517657111,0.2896763453289235,0.43998536429180674,-1.8353578397113148,4.769622832163473,-0.9579845598620744,-0.986666564218481,0.03246217937102416,1.8332512464188901,3,left
7.811,0.5908133059893509,0.27606112039107805,0.4386317889764282,-1.801227349436676,4.666948206793918,-0.9146463643348868,-0.9744479927669044,0.019032890535613595,1.8161670768836968,3,left
7.812,0.5903692336202893,0.2626742664112662,0.437153791655069,-1.7673263619525772,4.561711877200347,-0.8712014194994938,-0.9617078698662435,0.005641625899885116,1.7982392902502562,3,left
7.817,0.5898398060440087,0.24952159582098873,0.4355552888912015,-1.7336830796325844,4.453952933230407,-0.8276859593265207,-0.948449799533399,-0.007702644976134541,1.7794725979372112,3,left
7.817,0.5892264566096718,0.23660873785232966,0.4338403033684047,-1.7003242318277234,4.343712788476728,-0.7841365802707753,-0.9346778432515985,-0.020990841860452268,1.7598723081112346,3,left
7.822,0.5885305843854708,0.22394113682792355,0.4320129525850461,-1.6672750569257377,4.231035151426363,-0.7405901825581686,-0.9203965177401455,-0.034213806909504374,1.7394443175292091,3,left
7.822,0.5877535582591817,0.21152405083000694,0.4300774375799195,-1.6345592891345453,4.115965990014411,-0.6970839078577608,-0.9056107919678202,-0.04736234034994766,1.7181951021472348,3,left
7.8229999999999995,0.5868967213500337,0.19936255074402623,0.42803803173806343,-1.6021991498941206,3.9985534892652264,-0.6536550732139075,-0.8903260834815522,-0.06042723836062247,1.6961317066587673,3,left
7.8260000000000005,0.5859613957034652,0.18746151966509647,0.4258990697099858,-1.5702153438219044,3.8788480016976234,-0.6103411011134893,-0.8745482542872857,-0.07339933204421147,1.6732617334497384,3,left
7.827000000000001,0.5849488872374106,0.17582565265282454,0.42366493646710074,-1.5386270590978137,3.7569019901636045,-0.5671794455633201,-0.8582836066111585,-0.08626952599508965,1.6495933316383133,3,left
7.831,0.5838604908943557,0.16445945682455812,0.42134005651495676,-1.507451972195929,3.632769962783442,-0.52420751405306,-0.841538878775033,-0.09902883535243535,1.625135186682437,3,left
7.831,0.5826974959343556,0.15336725178380928,0.41892888328838424,-1.4767062568710219,3.5065083996333346,-0.4814625852792798,-0.8243212412522425,-0.1116684209164711,1.5998965107080914,3,left
7.835,0.5814611912922498,0.1425531703817306,0.41643588875299936,-1.4464045972892539,3.3781756710781767,-0.4389817226548532,-0.806638292875375,-0.12417962228822448,1.5738870335267248,3,left
7.836,0.5801528709251752,0.1320211598027231,0.41386555323392,-1.4165602050937576,3.247831948849387,-0.39680168436881796,-0.7884980571480021,-0.13655398906944433,1.547116994271613,3,left
7.837000000000001,0.5787738390918943,0.12177498295470912,0.41122235548734964,-1.3871848400173923,3.1155391131462578,-0.35495883209526674,-0.7699089786109126,-0.14878331015896376,1.5195971335806655,3,left
7.841,0.5773254155214987,0.11181822013632028,0.4085107630303339,-1.358288833556437,2.981360660247038,-0.31348904119100723,-0.7508799192120661,-0.16085964118143314,1.4913386862509845,3,left
7.8420000000000005,0.5758089404380219,0.10215427094910622,0.40573522275226037,-1.3298811153200898,2.845361613896485,-0.2724276144821731,-0.7314201546281749,-0.17277533008395352,1.4623533742882922,3,left
7.845,0.5742257794141775,0.0927863564204532,0.40290015184267114,-1.301969241851648,2.707608441546409,-0.2318092004081685,-0.7115393704845314,-0.18452304093572486,1.432653400272197,3,left
7.847,0.5725773280370318,0.08371752130029039,0.4000099290750843,-1.2745594278184136,2.568168975306627,-0.19166771555197587,-0.6912476584184335,-0.19609577596538533,1.402251440956145,3,left
7.85,0.5708650163770527,0.07495063649236512,0.39706888648386324,-1.2476565794887347,2.4271123372157755,-0.15203627143894288,-0.6705555119303288,-0.20748689587025568,1.3711606410188126,3,left
7.851,0.5690903132530937,0.06648840158003896,0.3940813014649158,-1.22126433041601,2.284508868436403,-0.11294710548743572,-0.649473821965587,-0.2186901384312221,1.339394606881651,3,left
7.857,0.567254730278384,0.05833334740782003,0.3910513893260977,-1.1953850792509289,2.1404300619739236,-0.07443151599611421,-0.628013872168628,-0.22969963546648856,1.3069674005052725,3,left
7.858,0.5653598256616978,0.0504878386833214,0.38798329631119266,-1.1700200296046672,1.9949484985143584,-0.03651980105404756,-0.6061873337499883,-0.24050992815690886,1.2738935330753935,3,left
7.86,0.5634072077289505,0.042954076569142505,0.3848810931200765,-1.1451692318872309,1.8481377849713598,0.0007587987385545265,-0.584006259905788,-0.2511159807750694,1.2401879584871047,3,left
7.861000000000001,0.5613985381238552,0.03573410123875561,0.38174876894467336,-1.1208316270465997,1.7000724953287736,0.03737615384957522,-0.5614830797279734,-0.2615131928497389,1.2058660665343526,3,left
7.865,0.5593355346409619,0.028829794374182878,0.3785902260353575,-1.0970050921358088,1.5508281133609707,0.07330529580303559,-0.5386305915426606,-0.27169740979672846,1.1709436757096459,3,left
7.8660000000000005,0.5572199736431536,0.022242881586370822,0.3754092748072335,-1.0736864876365737,1.4004809768093556,0.10852046368298235,-0.5154619556128862,-0.2816649320466213,1.1354370255171946,3,left
7.869,0.5550536920200709,0.015974934741542587,0.37220962949213027,-1.05087170646954,1.2491082225898689,0.14299714725835208,-0.4919906861410888,-0.2914125226992307,1.0993627682009204,3,left
7.87,0.5528385886501628,0.01002737417786745,0.36899490433979104,-1.0285557246227033,1.0967877326029036,0.1767121268319713,-0.46823064250570107,-0.30093741373403565,1.0627379597870472,3,left
7.874,0.5505766253341775,0.004401470797088007,0.36576861036800595,-1.0067326533310008,0.9435980797138965,0.2096435099148033,-0.44419601966532546,-0.31023731080522093,1.025580050339309,3,left
7.875,0.5482698271738,-0.0009016519834328206,0.3625341526548647,-0.9853957927415278,0.7896184734699082,0.2417707648244343,-0.41990133766309456,-0.3193103966493174,0.9879068733231785,3,left
7.879,0.5459202823781565,-0.0058810164314587595,0.3592948281588886,-0.9645376870002521,0.6349287051147859,0.2730747513046058,-0.3953614301629916,-0.3281553331328007,0.9497366339739418,3,left
7.88,0.5435301414934868,-0.010535788865967078,0.3560538240483007,-0.944150180697526,0.47960909146300357,0.3035377482603516,-0.3705914319491171,-0.3367712619663607,0.9110878965619134,3,left
7.885,0.5411016160669511,-0.01486527820144673,0.3528142165204088,-0.9242244766110791,0.323740417190012,0.3331434787009925,-0.3456067653181418,-0.3451578041119022,0.871979570446603,3,left
7.886,0.5386369767724348,-0.018868934683242525,0.3495789700928525,-0.9047511946865602,0.16740387509488902,0.3618771319808767,-0.32042312529448097,-0.35331505790768575,0.8324308948102246,3,left
7.891,0.5361385510411516,-0.022546348824541814,0.3463509373461795,-0.8857204321970366,0.010681003889270334,0.3897253834253446,-0.2950564635970669,-0.3612435959363577,0.7924614219595579,3,left
7.892,0.5336087202496691,-0.025897250551281524,0.34313285909218855,-0.8671218250241933,-0.14634637693503197,0.41667641142693457,-0.26952297132633507,-0.3689444606637826,0.7520909991421892,3,left
7.892,0.5310499165193007,-0.02892150855732375,0.33992736493976494,-0.8489446100052671,-0.3035962356086614,0.44271991209434547,-0.2438390605412583,-0.37641915889503186,0.7113397491135368,3,left
7.893,0.5284646191743405,-0.03161912987022943,0.3367369742320226,-0.8311776882910223,-0.4609864004076461,0.46784711153413083,-0.21802134525895292,-0.3836696551276046,0.6702280502148343,3,left
7.895,0.525855350901879,-0.03399025962572928,0.3335640973308495,-0.8138096896613181,-0.618434636247546,0.49205077584252604,-0.19208662261068957,-0.3906983639004037,0.6287765170127405,3,left
7.9,0.5232246736606486,-0.036035181043541885,0.33041103722318077,-0.7968290377460244,-0.7758587260003788,0.5153252188822048,-0.1660518546859226,-0.39750814121724093,0.5870059822585002,3,left
7.901,0.5205751843961632,-0.037754315589468554,0.3272799914197427,-0.7802240161002223,-0.9331765569862855,0.5376663079161343,-0.13993415123235178,-0.40410227508862495,0.5449374803985781,3,left
7.905,0.5179095106258793,-0.03914822330292266,0.3241730541150339,-0.7639828350125795,-1.09030621284557,0.5590714671377213,-0.11375075317790637,-0.41048447521584935,0.5025922325760617,3,left
7.906000000000001,0.515230305956358,-0.04021760326817714,0.3210922185773664,-0.7480936985709573,-1.2471660697641798,0.5795396789821492,-0.08751901689989743,-0.41665886183695083,0.4599916330028821,3,left
7.906000000000001,0.5125402455855712,-0.04096329421067763,0.31803937973817836,-0.7325448708696719,-1.4036748938069075,0.5990714828282037,-0.061256399166346585,-0.422629953753488,0.4171572365820482,3,left
7.909,0.5098420218376907,-0.041386275201819804,0.3150163369465572,-0.7173247398879277,-1.559751934879558,0.6176689705455666,-0.034980442674310476,-0.42840265555648466,0.37411074765829133,3,left
7.91,0.5071383397818371,-0.04148766645193259,0.312024796845834,-0.7024218779259067,-1.7153170140730463,0.6353357784915021,-0.008708762109881646,-0.43398224406928476,0.33087400977478926,3,left
7.912999999999999,0.5044319129922572,-0.041268730163183234,0.30906637631899536,-0.6878250981266784,-1.8702906033598676,0.6520770758310975,0.017540969345541564,-0.4393743540244823,0.2874689963129624,3,left
7.915,0.5017254595054733,-0.04073087140729501,0.30614260544533667,-0.6735235069689943,-2.0245938978446394,0.6678995492041647,0.04375103313816221,-0.4445849629915216,0.24391780189173007,3,left
7.917999999999999,0.499021698020992,-0.03987563899067135,0.30325493041394797,-0.6595065526881311,-2.1781488810154377,0.6828113837895682,0.06990367816930244,-0.4496203755710078,0.2002426344020648,3,left
7.919,0.4963233443804946,-0.03870472627164375,0.30040471634739535,-0.6457640695828246,-2.3308783834409588,0.6968222408150851,0.09598113340290201,-0.4544872068712323,0.1564658075522023,3,left
7.922999999999999,0.49363310834785035,-0.037219971900014255,0.29759324999834513,-0.6322863181671897,-2.482706135356609,0.7099432315582702,0.12196562032825387,-0.4591923652818933,0.11260973379844355,3,left
7.925,0.4909536906997865,-0.03542336045611458,0.2948217422916487,-0.6190640211273346,-2.6335568135804777,0.7221868878811827,0.14783936535306821,-0.463743034559493,0.06869691753612996,3,left
7.928999999999999,0.48828778062511624,-0.03331702297300068,0.2920913306936221,-0.6060883950431722,-2.7833560831977824,0.7335671293392512,0.17358461220174015,-0.4681466552384062,0.024749948425080957,3,left
7.93,0.4856380534188142,-0.030903237330173774,0.289403081397869,-0.5933511778366903,-2.9320306344497826,0.7440992269019933,0.19918363439342943,-0.47241090538115244,-0.01920850527644439,3,left
7.935,0.4830071684463976,-0.028184428511310134,0.2867579913240921,-0.5808446519086756,-3.07950821526036,0.7537997633207946,0.2246187478742422,-0.47654368068096137,-0.06315570349536317,3,left
7.936,0.4803977673455675,-0.025163168723225972,0.2841569899351437,-0.5685616629266008,-3.2257176598304302,0.7626865901764722,0.24987232387743555,-0.4805530739292979,-0.1070688413711606,3,left
7.937,0.4778124724269375,-0.021842177378565517,0.2816009408879596,-0.5564956342270662,-3.3705889137271523,0.7707787816369146,0.2749268020851464,-0.48444735386061366,-0.15092505665329023,3,left
7.938,0.4752538852332685,-0.018224320949471438,0.27909064354387847,-0.5446405767968522,-3.514053055891421,0.7780965849527016,0.2997647041646752,-0.48823494338621587,-0.19470143759478184,3,left
7.943,0.47272458521574195,-0.014312612704059228,0.2766268343710625,-0.5329910947972838,-3.6560423179835353,0.7846613677162781,0.32436864775183266,-0.4919243972287877,-0.2383750314681586,3,left
7.943,0.47022712848694725,-0.010110212341935307,0.2742101882743356,-0.5215423865972311,-3.796490101483056,0.7904955619079693,0.3487213609532873,-0.49552437896876667,-0.2819228538296012,3,left
7.9479999999999995,0.46776404661516285,-0.0056204255473508566,0.27184131988488036,-0.5102902412806776,-3.9353309929548477,0.795622604749906,0.3728056974392292,-0.49904363751347935,-0.3253218986570675,3,left
7.949,0.4653378454324397,-0.0008467034780493305,0.2695207848351625,-0.4992310305953806,-4.072500777889052,0.8000668763867675,0.39660465219699204,-0.5024909829996516,-0.3685491494877808,3,left
7.952999999999999,0.46295100383718163,0.004207357794208077,0.2672490810360788,-0.4883616963097248,-4.207936453518331,0.8038536344101539,0.42010137801555747,-0.5058752621396526,-0.41158159168013814,3,left
7.954,0.4606059725799542,0.009538017878299868,0.2650266499667617,-0.47767973294543814,-4.3415762410110865,0.8070089452413657,0.44327920277009114,-0.5092053330216032,-0.4543962259246639,3,left
7.957999999999999,0.45830517302985835,0.015141392683814845,0.2628538779835042,-0.46718316585439146,-4.473359597434579,0.8095596123854161,0.46612164757484364,-0.5124900393732699,-0.4969700831281378,3,left
7.96,0.4560509959263457,0.021013455059618,0.2607310976520304,-0.45687052460825334,-4.603227227876865,0.8115331015672068,0.48861244587187885,-0.5157381842994867,-0.5392802407944702,3,left
7.961,0.45384580012594433,0.02715003544563643,0.2586585891069176,-0.44674081167030827,-4.7311210981113705,0.8129574627589933,0.5107355634834194,-0.5189585035270812,-0.5813038409692246,3,left
7.961,0.4516919113543248,0.03354682253400162,0.256636581442517,-0.436793466319282,-4.856984448182507,0.813861249106522,0.5324752194608376,-0.5221596383131064,-0.6230181095337686,3,left
7.9639999999999995,0.44959162097188177,0.04019936393794609,0.25466525413923646,-0.4270283237955461,-4.980761807285319,0.8142734327595724,0.5538159072134754,-0.5253501083916007,-0.6644003761298733,3,left
7.965,0.44754718475846883,0.04710306686850993,0.2527447385281817,-0.41744556964060014,-5.102399010306423,0.8142233176110557,0.5747424152056239,-0.5285382854559681,-0.7054280937145285,3,left
7.97,0.44556082172279565,0.054253198818800356,0.25087511929706496,-0.40804568932562235,-5.221843216278904,0.8137404490603841,0.5952398467026889,-0.5317323675520665,-0.7460788570240809,3,left
7.971,0.4436347129426472,0.06164488825612499,0.24905643603954686,-0.39882941388723864,-5.339042928453879,0.8128545214806929,0.6152936383952609,-0.5349403545375319,-0.7863304197302559,3,left
7.971,0.4417710004408318,0.06927312532661811,0.2472886848483555,-0.3897976634084848,-5.453948014706194,0.8115952850856653,0.6348895779224109,-0.5381700246409075,-0.8261607103498295,3,left
7.974,0.4399717860992154,0.07713276258271842,0.24557181995122582,-0.38095149080529916,-5.566509726441423,0.8099924544557486,0.6540138203530689,-0.5414289121297717,-0.8655478470246839,3,left
7.975,0.43823913061069875,0.08521851574782753,0.24390575538760698,-0.3722920277575759,-5.676680714708905,0.8080756204171168,0.6726529036830593,-0.5447242860970964,-0.9044701512878287,3,left
7.98,0.43657505246628,0.09352496453529825,0.2422903667213697,-0.3638204335050367,-5.784415043198019,0.8058741659481528,0.6907937634040593,-0.5480631303751288,-0.9429061609297643,3,left
7.982,0.43498152697136416,0.1020465535428973,0.2407254927802853,-0.3555378466068767,-5.8896681983322,0.8034171862219707,0.7084237461993905,-0.5514521245861763,-0.9808346420782885,3,left
7.984,0.43346048528286907,0.11077759324977851,0.23921093740871496,-0.3474453396403122,-5.992397096777073,0.8007334127795332,0.7255306228201605,-0.5548976263397765,-1.0182346006035132,3,left
7.985,0.4320138134565866,0.11971226114956647,0.23774647121826578,-0.33954387681369463,-6.092560090672097,0.797851141827101,0.7421026001938398,-0.5584056545858546,-1.0550852929584627,3,left
7.99,0.4306433514926593,0.1288446030584851,0.236331833323017,-0.33183427447040004,-6.190116970887992,0.7947981666510189,0.7581283328158952,-0.5619818741336219,-1.0913662365641668,3,left
7.9910000000000005,0.42935089236604335,0.13816853464045142,0.23496673304857327,-0.32431716446024916,-6.285028968604981,0.7916017141421916,0.7735969334735983,-0.5656315813461243,-1.127057219846643,3,left
7.994,0.42813818102866424,0.1476778431917461,0.23365085160412088,-0.3169929603557597,-6.377258755499502,0.7882883854220253,0.78849798334959,-0.5693596910205307,-1.1621383120315882,3,left
7.994,0.4270069133702957,0.15736618972656505,0.23238384370372697,-0.3098618264910852,-6.466770442819551,0.7848841005611272,0.8028215415512158,-0.5731707244644467,-1.1965898728009583,3,left
8.0,0.4259587351251832,0.16722711140112176,0.23116533912024773,-0.3029236498020472,-6.553529579621224,0.781414047381635,0.8165581541100472,-0.5770687987787484,-1.2303925619139269,3,left
8.001,0.4249952407114927,0.17725402430781478,0.22999494415493074,-0.2961780144462196,-6.637503150431371,0.7779026343337144,0.8296988624943735,-0.5810576173576558,-1.2635273488929577,3,left
8.005,0.4241179719925467,0.1874402266632255,0.22887224300868902,-0.2896241791825792,-6.718659572593385,0.7743734474364996,0.8422352116757925,-0.5851404616170035,-1.2959755228739192,3,left
8.005,0.42332841695329276,0.19777890240537271,0.22779679904676908,-0.28326105749079117,-6.796968693545319,0.770849211273561,0.854159257789342,-0.5893201839619139,-1.3277187027173065,3,left
8.008,0.42262800829131447,0.20826312520691675,0.22676815595602662,-0.2770872004107479,-6.8724017882714925,0.7673517540328642,0.8654635754249029,-0.5935992020053397,-1.3587388474757205,3,left
8.009,0.4220181219266048,0.21888586290231968,0.2257858388013287,-0.2711007820835324,-6.944931557160654,0.7639019765811285,0.8761412645858719,-0.5979794940492097,-1.3890182673107736,3,left
8.013,0.4215000754360784,0.22963998231867985,0.22484935499405168,-0.2652995879755233,-7.014532124495606,0.7605198255625102,0.8861859573493407,-0.6024625958401916,-1.418539634950578,3,left
8.014,0.42107512641652733,0.2405182544913461,0.22395819519166024,-0.2596810057679016,-7.081179037790932,0.7572242705116066,0.8955918242602423,-0.6070495986123668,-1.4472859977768895,3,left
8.017999999999999,0.4207444707747743,0.25151336023651866,0.22311183415226488,-0.2542420188943574,-7.1448492681871265,0.7540332849709153,0.904353580490125,-0.6117411484294064,-1.475240790628854,3,left
8.019,0.4205092409390577,0.2626178960453682,0.22230973157077738,-0.24897920271032475,-7.2055212121010275,0.7509638316030708,0.9124664917893959,-0.6165374468391265,-1.5023878494081282,3,left
8.023,0.4203705039833746,0.2738243802586893,0.22155133292376875,-0.24388872327759883,-7.263174694323942,0.7480318512884336,0.9199263802600449,-0.621438252853604,-1.5287114255679153,3,left
8.024,0.4203292596566782,0.2851252594782944,0.22083607034921643,-0.23896633874870177,-7.3177909727503465,0.7452522561988987,0.9267296299740081,-0.6264428862683302,-1.5541962015661954,3,left
8.029,0.4203864383101942,0.29651291517195133,0.22016336358583488,-0.2342074033358716,-7.369352744911403,0.7426389268391407,0.9328731924604668,-0.631550232334179,-1.5788273073610957,3,left
8.03,0.42054289871715195,0.3079796704317958,0.21953262099444293,-0.2296068738500405,-7.417844156478871,0.7402047130469055,0.9383545920835075,-0.6367587477962682,-1.6025903380239912,3,left
8.031,0.4207994257792138,0.3195177968508665,0.2189432406798931,-0.22515931879565226,-7.463250811896282,0.7379614389443921,0.9431719313175487,-0.642066468291322,-1.6254713725027177,3,left
8.033999999999999,0.42115672811353244,0.3311195214906933,0.21839461172667837,-0.22085893000763673,-7.505559787285464,0.7359199118332469,0.9473238958654109,-0.647471016981604,-1.647456993360839,3,left
8.033999999999999,0.4216154355146897,0.3427770339243542,0.21788611555712295,-0.21669953681731352,-7.5447596457676935,0.7340899350262011,0.9508097594528446,-0.6529696140988839,-1.6685343069492458,3,left
8.038,0.422176096286649,0.35448249334612986,0.21741712742091193,-0.2126746227344359,-7.580840455329868,0.7324803246089315,0.9536293880707898,-0.6585590869583517,-1.6886909632598415,3,left
8.039,0.4228391744413852,0.36622803573507673,0.2169870180274622,-0.20877734463300757,-7.613793809357238,0.7310989301263008,0.9557832434953628,-0.6642358801165041,-1.7079151749124863,3,left
8.039,0.42360504676430016,0.37800578105189453,0.21659515533384324,-0.2050005543725859,-7.6436128498720635,0.7299526591173605,0.9572723860228202,-0.669996065552191,-1.7261957350909387,3,left
8.042,0.4244739997514956,0.3898078404471047,0.21624090649839917,-0.20133682250555365,-7.670292293142513,0.7290475050722472,0.9580984764154669,-0.6758353528641095,-1.7435220344448756,3,left
8.043,0.4254462264284259,0.40162632346534843,0.21592364000535696,-0.19777846321429393,-7.693828456658169,0.7283885777513538,0.9582637770647018,-0.6817490995010393,-1.7598840770131967,3,left
8.048,0.4265218230638839,0.41345334523564076,0.21564272796035328,-0.19431755934093306,-7.71421928609343,0.7279801344559471,0.9577711523754825,-0.6877323210413641,-1.7752724952210992,3,left
8.049,0.4277007857995364,0.42528103363307684,0.21539754855122362,-0.19094598665425666,-7.731464381237152,0.7278256111919804,0.956624068374584,-0.6937797015386378,-1.78967856400068,3,left
8.052,0.4289830072227155,0.4371015363901931,0.21518748866185286,-0.18765543700561793,-7.745565020516816,0.727927653302953,0.9548265915431354,-0.6998856039501774,-1.8030942140820474,3,left
8.052999999999999,0.4303682729173433,0.44890702813540845,0.2150119466192463,-0.1844374403075556,-7.756524184102594,0.7282881455002719,0.9523833868720263,-0.7060440806658569,-1.8155120444991295,3,left
