time,gFx,gFy,gFz,ax,ay,az,wx,wy,wz,subject_number,foot
3.233,-0.232592838619836,1.059691690308069,-0.03544178009948499,0.40876419959492566,0.18252349619268296,-0.13519396157527402,-0.15990365340499912,-0.07639753787209122,-0.33058661479593376,1,right
3.238,-0.23443039294812879,1.0614837366215297,-0.03562051169464805,0.3973729687457978,0.18558023396510512,-0.1318018779324173,-0.16143484795349017,-0.07911812947862538,-0.329341469682908,1,right
3.238,-0.23620384722168766,1.063308666499319,-0.03581305739961948,0.3859724153192702,0.1888109935289673,-0.12855805091808156,-0.16296781885831582,-0.08186249398723885,-0.3279338927164204,1,right
3.2430000000000003,-0.2379099675925374,1.0651665354263251,-0.036019057132256733,0.37455522129729435,0.19222197284271775,-0.12546666167675274,-0.16450246312775885,-0.08463056237248326,-0.326362716978338,1,right
3.2439999999999998,-0.23954552987401173,1.0670573895011948,-0.03623812548711603,0.3631140207251406,0.1958191795205242,-0.12253175609241414,-0.16603866783595944,-0.0874223163037594,-0.3246269034076932,1,right
3.247,-0.24110732544583743,1.0689812645477472,-0.0364698516232361,0.3516414399106808,0.1996084258237542,-0.1197572440204752,-0.16757631071196138,-0.09023779038527859,-0.3227255480952471,1,right
3.248,-0.24259216687630628,1.0709381852425093,-0.03671379936693466,0.3401301391572437,0.2035953242053468,-0.11714689886495694,-0.16911526080771958,-0.09307707448934709,-0.32065788965451747,1,right
3.248,-0.2439968932507846,1.072928164256275,-0.03696950755421996,0.32857285599715835,0.20778528341742106,-0.11470435749251101,-0.17065537923539606,-0.0959403161485492,-0.31842331664839246,1,right
3.252,-0.2453183752192598,1.0749512014083913,-0.03723649062736095,0.3169624498930133,0.21218350519301982,-0.11243312047531055,-0.17219651994314844,-0.09882772290880557,-0.31602137502614336,1,right
3.253,-0.24655351979858897,1.0770072828339952,-0.03751423948767606,0.30529194837354645,0.21679498151345303,-0.11033655265532138,-0.17373853048687987,-0.10173956450998137,-0.3134517755119276,1,right
3.2569999999999997,-0.24769927499317793,1.0790963801650364,-0.03780222259206388,0.29355459457094896,0.2216244924732887,-0.10841788402294464,-0.17528125276716125,-0.10467617479615875,-0.3107144008986381,1,right
3.258,-0.248752634324048,1.0812184497253063,-0.038099887267733876,0.2817438960739091,0.22667660474732418,-0.10668021089542913,-0.17682452372166757,-0.10763795332142409,-0.30780931322430855,1,right
3.259,-0.24971064136518523,1.0833734317391128,-0.03840666121160449,0.2698536747490176,0.23195567062291786,-0.1051264973405334,-0.17836817597520993,-0.11062536665246157,-0.3047367608210434,1,right
3.262,-0.2505703943754803,1.0855612495527995,-0.03872195413747235,0.25787811671220956,0.23746582748687045,-0.10375957671867156,-0.1799120384517946,-0.11363894937639021,-0.30149718522860997,1,right
3.263,-0.25132905110325254,1.0877818088658118,-0.03904515953092372,0.24581182137017643,0.2432109976151188,-0.10258215317687605,-0.1814559369531425,-0.1166793048223536,-0.29809122796434684,1,right
3.266,-0.25198383384314654,1.0900349969631753,-0.03937565646914441,0.23364984871298575,0.24919488815572233,-0.10159680296885969,-0.18299969470810323,-0.11974710550544561,-0.2945197371405634,1,right
3.267,-0.25253203483157327,1.0923206819382552,-0.039712811465286414,0.22138776450965666,0.25542099127110157,-0.10080597554875144,-0.18454313289739813,-0.12284309330163046,-0.2907837739201254,1,right
3.272,-0.2529710220592175,1.0946387118972916,-0.04005598030141263,0.2090216833197117,0.2618925844477286,-0.10021199442704513,-0.1860860711581273,-0.12596807936239293,-0.2868846188004434,1,right
3.272,-0.25329824555455027,1.0969889141431455,-0.0404045098113781,0.1965483092857567,0.26861273099046656,-0.09981705778593554,-0.18762832807247493,-0.12912294377793337,-0.2828237777156076,1,right
3.2760000000000002,-0.25351124415715126,1.0993710943387962,-0.04075773956828298,0.18396497467185524,0.2755842807194516,-0.09962323885177535,-0.18916972164504664,-0.13230863499780265,-0.27860298794593824,1,right
3.2769999999999997,-0.2536076527617912,1.101785035649231,-0.04111500343240217,0.17126967611216587,0.2828098708881147,-0.09963248602295102,-0.19071006977327096,-0.135526169017957,-0.27422422382375394,1,right
3.282,-0.25358520998215317,1.104230497857519,-0.04147563093027522,0.1584611085340035,0.29029192734165493,-0.09984662275204773,-0.19224919071529448,-0.1387766283432971,-0.2696897022236965,1,right
3.283,-0.25344176616108777,1.1067072164513683,-0.041838948458554445,0.1455386967191725,0.2980326659359972,-0.10026734718175057,-0.19378690355979902,-0.14206116073484581,-0.2650018878254904,1,right
3.287,-0.2531752916406029,1.1092149016797617,-0.04220428032649173,0.13250262446709835,0.306034094237997,-0.10089623153451291,-0.19532302870216484,-0.14538097775080966,-0.26016349813656375,1,right
3.2880000000000003,-0.2527838851968494,1.1117532375823518,-0.04257094966100851,0.11935386132296084,0.3142980135283905,-0.10173472125661008,-0.19685738833140143,-0.14873735309086453,-0.2551775082615085,1,right
3.2910000000000004,-0.2522657825418338,1.1143218809956452,-0.04293827919958497,0.10609418683370682,0.3228260211297318,-0.10278413391779107,-0.19838980693226282,-0.15213162075310346,-0.25004715540491923,1,right
3.292,-0.2516193647919873,1.1169204605407863,-0.04330559199489533,0.09272621229449513,0.3316195130823072,-0.10404565786833755,-0.19992011180695946,-0.15556517301318637,-0.24477594309371825,1,right
3.2960000000000003,-0.2508431668017437,1.119548575599971,-0.04367221205412748,0.07925339994780513,0.34067968719176944,-0.10552035065594206,-0.20144813362087477,-0.15903945823533672,-0.23936764510464945,1,right
3.2969999999999997,-0.24993588525943125,1.1222057952927447,-0.04403746493417702,0.0656800795971225,0.3500075464729945,-0.1072091372054223,-0.20297370697668796,-0.1625559785249387,-0.23382630908221136,1,right
3.3,-0.24889638644695286,1.1248916574676413,-0.044400678309021696,0.05201146259680749,0.35960390301542383,-0.10911280776489812,-0.20449667102129862,-0.16611628723260177,-0.22815625983189403,1,right
3.3,-0.2477237135748075,1.1276056677257493,-0.04476118251532852,0.038253653179450876,0.3694693822959231,-0.11123201562266949,-0.20601687008994282,-0.16972198631967678,-0.2223621022731919,1,right
3.306,-0.24641709361697084,1.1303472984891245,-0.045118311066954415,0.024413657081736546,0.37960442796595373,-0.11356727459964856,-0.20753415439188258,-0.17337472359532846,-0.2164487240364836,1,right
3.307,-0.24497594358235122,1.1331159881199406,-0.045471401114497635,0.010499387429557413,0.3900093071406283,-0.11611895632281599,-0.2090483807420433,-0.17707618983539625,-0.21042129768749995,1,right
3.31,-0.24339987616906528,1.1359111400906412,-0.04581979382417254,-0.003480332157122632,0.4006841162179898,-0.11888728728579047,-0.21055941334296677,-0.1808281157934046,-0.2042852825627452,1,right
3.31,-0.2416887047557243,1.1387321222064328,-0.046162834666403293,-0.017515767279402406,0.4116287872576324,-0.12187234570322099,-0.21206712462143743,-0.1846322691142202,-0.19804642619889576,1,right
3.315,-0.2398424476940848,1.1415782658897233,-0.04649987362360146,-0.03159627533452568,0.42284309494855327,-0.12507405816633263,-0.2135713961241315,-0.18849045116099286,-0.19171076533887255,1,right
3.315,-0.2378613318822231,1.1444488655449485,-0.046830265327364555,-0.04571031099105102,0.43432666419690136,-0.12849219610757856,-0.21507211947440816,-0.19240449376298882,-0.1852846265008953,1,right
3.3160000000000003,-0.23574579561337702,1.1473431780243466,-0.04715336912060357,-0.059845434604406444,0.4460789783650643,-0.13212637208297343,-0.21656919738124217,-0.19637625587620783,-0.17877462611614786,1,right
3.32,-0.23349649070706405,1.1502604222099786,-0.04746854903179045,-0.0739883236132534,0.45809938819430757,-0.1359760358813053,-0.21806254467129113,-0.20040762012026933,-0.17218767027571333,1,right
3.321,-0.2311142839369849,1.153199778719317,-0.047775173655334,-0.08812478695717935,0.47038712144395434,-0.1400404704700448,-0.21955208930397016,-0.2045004891393464,-0.16553095414679497,1,right
3.325,-0.22860025778086795,1.1561603897349364,-0.04807261594415498,-0.10223978255629655,0.48294129328086627,-0.14431878778839033,-0.221037773340507,-0.20865678175095914,-0.15881196109838158,1,right
3.325,-0.22595571053205052,1.159141358955034,-0.04836025292936001,-0.11631743785454987,0.4957609174220515,-0.14880992440751958,-0.22251955385793573,-0.21287842887517186,-0.15203846154098896,1,right
3.326,-0.2231821558237879,1.1621417516613832,-0.04863746538676413,-0.1303410732345395,0.5088449178754767,-0.15351263712380167,-0.2239974038100863,-0.21716736925278224,-0.14521851146529402,1,right
3.33,-0.22028132161941139,1.1651605949034862,-0.04890363747152491,-0.14429322776244208,0.5221921408395974,-0.158425498632455,-0.22547131283983762,-0.22152554496444699,-0.13836045066037592,1,right
3.3310000000000004,-0.21725514872024274,1.168196877798561,-0.04915815634127023,-0.1581556865275286,0.5358013661643654,-0.16354689347481477,-0.22694128804689112,-0.22595489676287528,-0.1314729005921236,1,right
3.335,-0.21410578884350343,1.1712495519448751,-0.04940041178460651,-0.17190950903459706,0.5496713179357464,-0.16887501440791433,-0.22840735471530987,-0.23045735923041574,-0.12456476192223565,1,right
3.3369999999999997,-0.21083560231824394,1.1743175319426455,-0.04962979586410607,-0.18553505845658916,0.5638006740318713,-0.1744078592645698,-0.22986955700505793,-0.23503485577456026,-0.11764521164812934,1,right
3.339,-0.20744715543811265,1.1773996960153004,-0.049845702575621216,-0.199012031748378,0.5781880746582072,-0.1801432283276894,-0.2313279586117625,-0.23968929347409398,-0.11072369984399238,1,right
3.34,-0.20394321750783168,1.1804948867263303,-0.05004752752806699,-0.21231949066119565,0.5928321299015935,-0.18607872223410934,-0.23278264339891036,-0.24442255778882968,-0.10380994598315157,1,right
3.344,-0.20032675763273822,1.1836019117923808,-0.05023466765736516,-0.22543589369679948,0.6077314263437273,-0.19221174042384637,-0.23423371600667978,-0.24923650714607998,-0.09691393482190092,1,right
3.345,-0.1966009413207535,1.1867195449962902,-0.05040652099285821,-0.23833912904004786,0.6228845327754277,-0.19853948015123735,-0.23568130244159757,-0.2541329674172435,-0.0900459118249264,1,right
3.35,-0.19276912697923487,1.1898465271991236,-0.05056248648777793,-0.2510065485080674,0.6382900050537433,-0.2050589360750121,-0.23712555065119997,-0.25911372629810564,-0.08321637811248751,1,right
3.3510000000000004,-0.18883486238369165,1.192981567439683,-0.05070196390828128,-0.26341500255364436,0.6539463901447041,-0.21176690044491137,-0.23856663108786666,-0.26418052760668687,-0.07643608490956737,1,right
3.355,-0.1848018811721976,1.1961233441004324,-0.05082435375394054,-0.27554087635985897,0.6698522293952417,-0.21865996390302161,-0.24000473726598662,-0.26933506551270936,-0.06971602747728381,1,right
3.3560000000000003,-0.18067409939114454,1.1992705061134656,-0.05092905716911299,-0.28736012706230274,0.6860060610785345,-0.2257345169185486,-0.24144008631660502,-0.2745789787129938,-0.0630674385069653,1,right
3.359,-0.1764556120960311,1.2024216741753821,-0.051015475806677264,-0.29884832213447404,0.7024064222577474,-0.23298675187529214,-0.2428729195436916,-0.27991384456734547,-0.056501780957437374,1,right
3.36,-0.17215068999634242,1.2055754419328981,-0.05108301161736186,-0.30998067897113524,0.7190518500138597,-0.24041266583161652,-0.24430350298616207,-0.2853411732097405,-0.05003074031623888,1,right
3.364,-0.1677637761214135,1.2087303770969364,-0.051131066556010386,-0.320732105703531,0.735940882083981,-0.24800806397323152,-0.2457321279897767,-0.2908624016498809,-0.04366621626569315,1,right
3.364,-0.16329948247285445,1.211885022450928,-0.05115904222191698,-0.33107724327941834,0.7530720569572672,-0.2557685637796094,-0.24715911179303263,-0.29647888788044624,-0.03742031373499771,1,right
3.3689999999999998,-0.1587625866226455,1.2150378967412372,-0.05116633947224223,-0.34099050883983406,0.7704439134762513,-0.26368959992536106,-0.2485847981311602,-0.3021919050056371,-0.03130533331976877,1,right
3.37,-0.15415802821714403,1.2181874954648146,-0.05115235804687621,-0.35044614042343053,0.7880549899921037,-0.271766429938382,-0.2500095578623281,-0.308002635406874,-0.02533376105078287,1,right
3.3739999999999997,-0.14949090535199303,1.221332291587775,-0.05111649621846885,-0.35941824302804415,0.8059038231230301,-0.27999414063705164,-0.25143378962015756,-0.3139121649617891,-0.019518257493999432,1,right
3.375,-0.14476647078526586,1.224470736231262,-0.05105815045022661,-0.3678808360579193,0.8239889461657127,-0.28836765536923104,-0.2528579204966417,-0.3199214773329251,-0.013871646164324366,1,right
3.378,-0.1399901279546014,1.2276012593504375,-0.050976715022284284,-0.37580790218369464,0.8423088872103787,-0.2968817420762512,-0.25428240675956415,-0.32603144834283687,-0.008406901235987273,1,right
3.3789999999999996,-0.13516742675979257,1.2307222704154954,-0.05087158157706461,-0.383173437640871,0.8608621670107709,-0.30553102220551653,-0.25570773460850926,-0.33224284045257396,-0.00313713453285349,1,right
3.383,-0.1303040590648868,1.2338321590858796,-0.050742138533394966,-0.3899515039910157,0.879647296660971,-0.3143099804957676,-0.25713442097355554,-0.33855629736080894,0.001924418217522302,1,right
3.384,-0.1254058538638956,1.236929295855237,-0.05058777033325912,-0.3961162813684193,0.8986627751316982,-0.3232129756594497,-0.258563014356693,-0.3449723387395009,0.006764411870262521,1,right
3.385,-0.12047877204835558,1.2400120326397022,-0.05040785651377528,-0.40164212323330817,0.9179070867193828,-0.3322342519870233,-0.25999409569574017,-0.3514913551139464,0.011369407036009978,1,right
3.389,-0.11552890072051636,1.2430787032862542,-0.05020177062617858,-0.40650361265102924,0.9373786984619713,-0.3413679518984231,-0.2614282791940621,-0.35811360288037786,0.015725885782126435,1,right
3.39,-0.11056244701091897,1.24612762398497,-0.04996887904316159,-0.4106756201148605,0.9570760575760897,-0.35060812946722936,-0.26286621303912927,-0.36483919944623483,0.019820267645943704,1,right
3.395,-0.10558573137662652,1.2491570935737941,-0.0497085397075054,-0.4141333628751087,0.9769975889561974,-0.3599487649102613,-0.2643085799532313,-0.3716681184868573,0.023638925800633783,1,right
3.3960000000000004,-0.10060518037204134,1.2521653937286543,-0.049420100876887585,-0.4168524654694519,0.9971416927037875,-0.36938377986965715,-0.2657560975561473,-0.378600185327634,0.02716820331713042,1,right
3.397,-0.09562731889441616,1.255150789037153,-0.0491028999102636,-0.41880902066907155,1.0175067415235182,-0.3789070530160693,-0.26720951853985186,-0.38563507246926004,0.030394429522325964,1,right
3.398,-0.09065876190945442,1.2581115269573524,-0.04875626212877306,-0.4199796497872757,1.0380910777505696,-0.38851243533592406,-0.26866963065940214,-0.39277229527572227,0.03330393646448401,1,right
3.398,-0.08570620566213318,1.2610458376626161,-0.04837949977441797,-0.4203415615609865,1.0588930098473994,-0.39819376463193334,-0.27013725654416576,-0.400011207844925,0.0358830754959772,1,right
3.403,-0.08077641837805091,1.2639519337733642,-0.04797191107935334,-0.41987260929170844,1.0799108083405131,-0.40794487906504273,-0.27161325333356606,-0.4073509990821647,0.038118233982588644,1,right
3.404,-0.07587623046554935,1.2668280099808624,-0.047532779450888775,-0.4185513461961326,1.1011427012417365,-0.4177596297322019,-0.2730985121415414,-0.41479068899695565,0.039995852147705985,1,right
3.408,-0.07101252424250082,1.2696722425745588,-0.047061372780345424,-0.4163570789673681,1.122586869013742,-0.427631892307756,-0.27459395735393727,-0.42232912524399985,0.04150244005878778,1,right
3.408,-0.06619222323115814,1.2724827888877808,-0.046556942891226666,-0.4132699195454074,1.1442414391402025,-0.43755557777645826,-0.27610054576307114,-0.4299649799293849,0.04262459476249421,1,right
3.4139999999999997,-0.0614222810806099,1.2752577866742947,-0.04601872513970411,-0.40927083509298573,1.1661044803615699,-0.44752464228628447,-0.2776192655437412,-0.437696746703379,0.04334901757384679,1,right
3.415,-0.0567096701821622,1.2779953534219133,-0.04544593816956439,-0.40434169617048854,1.188173996638066,-0.45753309614939736,-0.2791511350749756,-0.44552273816147636,0.043662531523716415,1,right
3.418,-0.05206137003911606,1.2806935856030608,-0.04483778381757138,-0.3984653231009965,1.2104479209021006,-0.4675750120197552,-0.2806972016118524,-0.45344108357562646,0.04355209896783447,1,right
3.4189999999999996,-0.047484355444416426,1.283350557859452,-0.04419344716753015,-0.39162553051394167,1.2329241086629112,-0.47764453227599146,-0.2822585398117563,-0.46144972697785325,0.04300483935937998,1,right
3.423,-0.04298558451176044,1.2859643221188006,-0.043512096754417195,-0.3838071700531769,1.2556003315268252,-0.48773587563830295,-0.2838362501194736,-0.4695464256187433,0.04200804718601527,1,right
3.424,-0.03857198659971665,1.288532906643366,-0.0427928849190455,-0.37499617123254264,1.2784742706971215,-0.4978433430481827,-0.2854314570155706,-0.47772874882354505,0.04054921007102503,1,right
3.427,-0.03425045016539279,1.2910543150120655,-0.04203494831270901,-0.3651795804192502,1.301543510518061,-0.5079613228399115,-0.2870453071325421,-0.48599407726888216,0.03861602703695946,1,right
3.428,-0.03002781058501627,1.2935265250405565,-0.0412374085543313,-0.35434559792258985,1.3248055321282177,-0.518084295232786,-0.2886789672432652,-0.4943396027033343,0.03619642692889094,1,right
3.432,-0.025910837983048645,1.2959474876476438,-0.040399373049178004,-0.34248361316262604,1.3482577072888209,-0.5282068361731069,-0.29033362212634306,-0.502762328135386,0.03327858699306688,1,right
3.4330000000000003,-0.021906225116697868,1.2983151256812373,-0.039519935984603016,-0.32958423789065205,1.3718972924533717,-0.5383236205549823,-0.2920104723129782,-0.5112590685124806,0.02985095160537925,1,right
3.4389999999999996,-0.01802057536484772,1.3006273327209212,-0.03859817952007003,-0.31563933743025924,1.3957214231453547,-0.5484294248490135,-0.2937107317200699,-0.5198264519151488,0.02590225114267449,1,right
3.44,-0.014260390866552786,1.3028819718744553,-0.03763317518299975,-0.30064205990492354,1.4197271087114132,-0.5585191291679336,-0.2954356251742921,-0.5284609212904005,0.021421520988496697,1,right
3.4419999999999997,-0.010632060844084464,1.3050768745828634,-0.03662398547074221,-0.2845868634150365,1.4439112275178863,-0.5685877187982483,-0.29718638583197227,-0.5371587367487811,0.0163981206633931,1,right
3.443,-0.007141850130436481,1.3072098394468203,-0.03556966564685391,-0.26746954112430427,1.4682705226591475,-0.5786302852269014,-0.29896425249965675,-0.5459159784496967,0.010821753068414748,1,right
3.448,-0.0037958879041651533,1.3092786310877893,-0.03446926571097353,-0.2492872442124214,1.4928015982466967,-0.5886420266919363,-0.30077046686032166,-0.5547285500998049,0.004682483828917449,1,right
3.449,-0.0006001566198753699,1.311280979060197,-0.03332183251941589,-0.23003850264788667,1.5175009163484738,-0.5986182482860692,-0.302606270610261,-0.5635921830894496,-0.002029239275790031,1,right
3.452,0.002439518885984839,1.313214576835505,-0.032126412039489356,-0.20972324373178206,1.542364794648367,-0.6085543616420135,-0.3044729025117621,-0.5725024412922869,-0.009322566812991378,1,right
3.4530000000000003,0.0053174821364084645,1.3150770808842267,-0.0308820517312807,-0.18834280836027834,1.567389404896374,-0.6184458842283054,-0.30637159536399927,-0.5814547265363001,-0.01720622814663752,1,right
3.4539999999999997,0.008028255621841344,1.3168661098844139,-0.029587803061019834,-0.16589996495057097,1.5925707722203677,-0.62828843828428,-0.3083035728808589,-0.5904442846689916,-0.025688511866324017,1,right
3.457,0.010566551290347686,1.3185792440841246,-0.028242724157427773,-0.14239892097188878,1.617904775370883,-0.6380777494227333,-0.31027004643965356,-0.599466211985677,-0.034777246241322994,1,right
3.457,0.012927280932516657,1.3202140248461955,-0.026845882627279383,-0.11784533202016098,1.6433871479708066,-0.6478096449286734,-0.31227221165097147,-0.6085154617043773,-0.04447977975591011,1,right
3.4619999999999997,0.015105566472728264,1.3217679544102567,-0.02539635854837451,-0.09224630837187954,1.6690134808422985,-0.6574800517824313,-0.3143112447138064,-0.6175868502564588,-0.05480296177555211,1,right
3.463,0.017096750177690728,1.3232384959142174,-0.023893247653925156,-0.06561041897697444,1.6947792254412213,-0.6670849944286054,-0.3163882985450566,-0.6266750633162655,-0.06575312338015288,1,right
3.464,0.01889640479127839,1.3246230737172724,-0.022335664712737766,-0.037947692984088774,1.7206796982173067,-0.6766205922789855,-0.31850449868638653,-0.6357746615786184,-0.07733605839392414,1,right
3.467,0.020500343601374614,1.3259190740581002,-0.02072274710138368,-0.009269619134501639,1.7467100853362574,-0.6860830568777151,-0.3206609389943111,-0.6448800863102274,-0.0895570046415504,1,right
3.468,0.021904630439420997,1.3271238460723476,-0.019053658562484692,0.020410856505439633,1.7728654469879128,-0.6954686886235897,-0.32285867711947264,-0.6539856647011151,-0.1024206254621172,1,right
3.472,0.02310558960652236,1.3282347031879114,-0.017327593146410435,0.05107933414305206,1.7991407207174621,-0.7047738729773652,-0.325098729781191,-0.6630856150421791,-0.11593099151408896,1,right
3.4730000000000003,0.024099815712590573,1.329248924913267,-0.015543779339643255,0.08271996510766373,1.8255307235995089,-0.7139950761414444,-0.32738206784348434,-0.6721740517550397,-0.1300915629064538,1,right
3.477,0.024884183409068908,1.330163759030595,-0.013701484389009644,0.11531545800648973,1.852030153287619,-0.7231288402322634,-0.3297096111988773,-0.6812449903003166,-0.14490517169299788,1,right
3.478,0.02545585699111473,1.3309764242022353,-0.011800018832712342,0.14884708627610557,1.8786335880148244,-0.7321717779721,-0.33208222346643224,-0.6902923519904651,-0.16037400476852853,1,right
3.483,0.02581229983939926,1.3316841129967223,-0.00983874124262488,0.18329469722037592,1.905335485620879,-0.7411205669267893,-0.33450070651056546,-0.6993099687332678,-0.17649958720773135,1,right
3.484,0.025951283663068436,1.3322839953392638,-0.007817063168290369,0.21863672262843653,1.9321301816823866,-0.7499719433155755,-0.33696579478733757,-0.7082915877320253,-0.19328276608922212,1,right
3.486,0.025870897493729686,1.3327732223908788,-0.005734454257783334,0.25485019106901324,1.9590118868222062,-0.758722695419071,-0.33947814952503413,-0.7172308761684254,-0.21072369484923437,1,right
3.487,0.02556955636607973,1.3331489308596411,-0.0035904475187241965,0.29191074195999067,1.9859746832748375,-0.7673696566110254,-0.3420383527459869,-0.7261214258939809,-0.22882181821126887,1,right
3.491,0.02504600960503321,1.3334082477454596,-0.0013846446727818278,0.3297926415147088,2.0130125207847422,-0.7759096980393225,-0.3446469011367181,-0.7349567581558248,-0.24757585773991894,1,right
3.492,0.024299348623752107,1.3335482955160858,0.0008832784527180999,0.3684688006689675,2.0401192119148153,-0.7843397209813383,-0.34730419977362637,-0.7437303283825296,-0.2669837980689736,1,right
3.4960000000000004,0.02332901412292966,1.3335661977063,0.003213566559105647,0.407910795095148,2.0672884268424494,-0.7926566488984945,-0.35001055571157064,-0.7524355310554761,-0.28704287385578714,1,right
3.497,0.022134802569352102,1.3334590849245793,0.005606379599813042,0.4480888874122174,2.094513687720851,-0.8008574192145318,-0.35276617144284633,-0.7610657046911399,-0.30774955751578575,1,right
3.5010000000000003,0.020716871822278604,1.3332241012433106,0.00806178765047068,0.4889720517026615,2.1217883626834673,-0.8089389748417154,-0.3555711382341874,-0.7696141369594853,-0.329099547792859,1,right
3.5010000000000003,0.019075745771076364,1.3328584109410757,0.010579765975519122,0.5305280004495889,2.1491056595695577,-0.8168982554788586,-0.3584254293495705,-0.7780740699634607,-0.35108775922325347,1,right
3.505,0.017212317847394715,1.3323592055588291,0.013160190335089878,0.5727232140093594,2.1764586194491033,-0.8247321887047148,-0.36132889316673694,-0.7864387057043715,-0.3737083125524436,1,right
3.5060000000000002,0.015127853279834676,1.3317237112263045,0.015802832571634635,0.6155229727371148,2.203840110025402,-0.8324376808899487,-0.3642812461954904,-0.7947012117576739,-0.3969545261663015,1,right
3.51,0.012823989968376944,1.3309491962119342,0.01850735651142408,0.658891391884517,2.2312428189938003,-0.8400116079505465,-0.3672820660059696,-0.8028547271834805,-0.4208189085997203,1,right
3.511,0.010302737869646828,1.330032978649311,0.021273314209779962,0.7027914593908366,2.2586592474351286,-0.8474508059651588,-0.37033078407523673,-0.8108923686957878,-0.445293152187658,1,right
3.517,0.007566476801549838,1.3289724343951501,0.024100142560518168,0.7471850766902669,2.286081703322484,-0.8547520616785099,-0.3734266785606618,-0.8188072371141514,-0.4703681279253666,1,right
3.5180000000000002,0.0046179525950937024,1.327765004977888,0.026987160281639895,0.7920331026599662,2.3135022952200615,-0.8619121029126223,-0.37656886700872133,-0.8265924241212131,-0.49603388160634515,1,right
3.5210000000000004,0.0014602715410257023,1.3264082056029984,0.0299335652842416,0.8372954008348638,2.340912926252781,-0.8689275889072203,-0.3797562990079691,-0.8342410193491584,-0.5222796313083043,1,right
3.5210000000000004,-0.001903106901907717,1.3248996331899459,0.03293843243193252,0.882930890016674,2.3683052884254705,-0.8757951006102809,-0.38298774880380076,-0.8417461178034783,-0.5490937662815635,1,right
3.522,-0.005468379154084572,1.3232369744241246,0.03600071170191094,0.9288975984058687,2.3956708573703573,-0.8825111309392929,-0.38626180793641934,-0.8491008275603134,-0.5764638472080429,1,right
3.5260000000000002,-0.009231408322134184,1.3214180138126097,0.03911922676221662,0.9751527213865461,2.4230008876015963,-0.8890720750333714,-0.38957687804211155,-0.8562982775441497,-0.6043766076423575,1,right
3.5269999999999997,-0.013187736757627407,1.3194406417326192,0.04229267398106106,1.021652683095205,2.450286408355503,-0.8954742205159477,-0.3929311640017238,-0.8633316251204995,-0.6328179563601947,1,right
3.53,-0.01733260033797804,1.317302862454749,0.04551962188395138,1.068353201905382,2.4775182200950923,-0.9017137377873219,-0.3963226675766958,-0.8701940633094936,-0.6617729804287108,1,right
3.53,-0.02166094441101092,1.3150028021108227,0.04879851107059828,1.1152093598774548,2.5046868917263994,-0.9077866703828685,-0.3997491815945541,-0.876878827554971,-0.691225948973554,1,right
3.531,-0.026167441318975134,1.3125387165647433,0.05212765459541119,1.162175675806222,2.531782758418875,-0.9136889255170036,-0.4032082847022266,-0.8833792020549142,-0.721160317706596,1,right
3.534,-0.03084650940159718,1.3099089991383739,0.05550523880658267,1.209206180748122,2.558795919642887,-0.9194162650851322,-0.4066973366969181,-0.8896885256729266,-0.7515587342975191,1,right
3.535,-0.03569233335048813,1.307112188137006,0.05892932463193287,1.2562544944930005,2.58571623688211,-0.9249642974800841,-0.4102134744443829,-0.8958001974499417,-0.7824030446738324,1,right
3.54,-0.04069888573059419,1.3041469741036251,0.06239784929435314,1.3032739018630535,2.6125333306334433,-0.9303284704942913,-0.4137536083945278,-0.9017076817348232,-0.813674300335274,1,right
3.5410000000000004,-0.04585994941843433,1.3010122067153211,0.06590862843797707,1.3502174284730706,2.639236576585963,-0.9355040654258707,-0.4173144197043609,-0.9074045129519694,-0.8453527667698872,1,right
3.5439999999999996,-0.05116914066180095,1.297706901230089,0.06945935865059628,1.3970379160035582,2.6658151010252076,-0.9404861924214939,-0.42089235797838137,-0.9128843000234607,-0.8774179330603354,1,right
3.545,-0.05661993244726239,1.2942302443982314,0.073047620374945,1.443688097121714,2.6922577755398174,-0.9452697870714454,-0.4244836396365729,-0.9181407304627095,-0.9098485227702484,1,right
3.549,-0.062205677863843276,1.2905815997638128,0.07667088120374452,1.4901206701850074,2.7185532111072113,-0.9498496082717245,-0.42808424692022173,-0.9231675741559653,-0.9426225062015612,1,right
3.55,-0.06791963316991177,1.286760512294909,0.08032649954648839,1.5362883738617674,2.7446897516346294,-0.9542202373674941,-0.4316899275458306,-0.9279586868474,-0.9757171141149111,1,right
3.555,-0.07375498030282644,1.2827667122959283,0.08401172864449832,1.5821440618026887,2.770655467031484,-0.9583760785916061,-0.43529619501743555,-0.9325080133428643,-1.009108853006212,1,right
3.556,-0.07970484861414408,1.2786001185707436,0.0877237209056026,1.6276407774965442,2.796438145888528,-0.9623113608113487,-0.43889832960766145,-0.9368095904467391,-1.0427735220335068,1,right
3.5589999999999997,-0.08576233566323897,1.2742608408220686,0.09145953253785327,1.6727318294426292,2.822025287838906,-0.9660201405959594,-0.44249138001786326,-0.9408575496456351,-1.076686231689122,1,right
3.56,-0.09192052695425074,1.2697491812902477,0.09521612848011961,1.7173708667715661,2.847404095675642,-0.969496306616829,-0.4460701657277036,-0.9446461195519952,-1.1108214243129932,1,right
3.5639999999999996,-0.09817251455110726,1.2650656356515733,0.09899038764748182,1.761511955445071,2.8725614672996214,-0.9727335853916903,-0.44962928004450425,-0.9481696281199441,-1.145152896543823,1,right
3.565,-0.10451141455015706,1.260210893210914,0.10277910852416755,1.8051096551641155,2.897483987571525,-0.9757255483834316,-0.45316309386268117,-0.9514225046450041,-1.1796538238054317,1,right
3.57,-0.11093038342798324,1.2551858364366206,0.10657901514211597,1.8481190971136208,2.9221579201406094,-0.9784656204635073,-0.45666576014353244,-0.9543992815585445,-1.2142967869263142,1,right
3.571,-0.11742263331179502,1.249991539897929,0.11038676347374428,1.890496062670394,2.9465691993225644,-0.980947089749232,-0.46013121912559285,-0.9570945960270772,-1.249053800990961,1,right
3.574,-0.12398144624039777,1.244629268674245,0.11419894823953249,1.9321970631994512,2.970703422098021,-0.9831631188235399,-0.46355320427569285,-0.9595031913657316,-1.2838963465220055,1,right
3.575,-0.13060018749497032,1.239100476309022,0.11801211008985923,1.9731794210621898,2.9945458403025573,-0.9851067573450663,-0.46692524899077126,-0.9616199182744468,-1.3187954030926476,1,right
3.5789999999999997,-0.1372723180800897,1.2334068023781906,0.12182274307728755,2.013401351958052,3.0180813530783013,-0.986770956055662,-0.47024069406038377,-0.9634397359046141,-1.3537214854691515,1,right
3.58,-0.1439914064251357,1.22755006973584,0.12562730229987604,2.052822048719385,3.0412944996564244,-0.9881485821916982,-0.4734926958997241,-0.9649577127630785,-1.3886446823834369,1,right
3.583,-0.1507511393547904,1.221532281489297,0.12942221157489855,2.0914017666771363,3.064169452538989,-0.9892324363047229,-0.47667423556282995,-0.9661690274595683,-1.4235346980359636,1,right
3.5839999999999996,-0.1575453323487913,1.2153556177428078,0.13320387099900846,2.129101910712849,3.0866900111477364,-0.9900152704962388,-0.47977812854548296,-0.9670689693027698,-1.4583608964291754,1,right
3.588,-0.16436793908032296,1.2090224321353495,0.13696866426477197,2.165885124110111,3.1088395960064488,-0.9904898080705449,-0.4827970353871312,-0.9676529387493964,-1.4930923486317624,1,right
3.589,-0.171213060194922,1.2025352481853415,0.14071296563187116,2.201715379316207,3.1306012435225803,-0.9906487646087365,-0.485723473068353,-0.9679164477218042,-1.527697882983438,1,right
3.59,-0.17807495127636597,1.1958967554436983,0.1444331464890072,2.236558070722195,3.151957601432809,-0.9904848704661001,-0.488549827137138,-0.9678551198691991,-1.5621461377974006,1,right
3.593,-0.18494802994635334,1.1891098054471965,0.14812558148317032,2.2703801095669958,3.1728909249761026,-0.989990894694249,-0.4912683643835815,-0.9674646909552909,-1.596405615303153,1,right
3.594,-0.19182688204921067,1.1821774074577716,0.1517866542337849,2.303150021068355,3.1933830738567797,-0.9891596703884417,-0.4938712458192988,-0.9667410096147179,-1.6304447351196512,1,right
3.5989999999999998,-0.19870626687204532,1.1751027239709675,0.155412762687996,2.33483804369106,3.2134155100734483,-0.9879841214232157,-0.49635053978060156,-0.965680038659244,-1.6642318860006502,1,right
3.6,-0.2055811213550089,1.1678890659771055,0.15900032419931298,2.365416229511655,3.2329692967613366,-0.9864572903566182,-0.4986982350876037,-0.9642778570050686,-1.6977354754077805,1,right
3.6010000000000004,-0.21244656326539077,1.1605398879606024,0.16254578041687132,2.394858542929124,3.2520250983254018,-0.9845723669549252,-0.5009062542541127,-0.9625306622312421,-1.730923976918606,1,right
3.605,-0.21929789333529529,1.1530587826270942,0.1660456020674186,2.4231409540196926,3.2705631822131225,-0.9823227166068469,-0.5029664667554121,-0.9604347737661301,-1.7637659755666568,1,right
3.6060000000000003,-0.2261305963863507,1.1454494753555728,0.16949629370774758,2.450241523778922,3.288563422601654,-0.9797019080771108,-0.5048707023606614,-0.9579866366978914,-1.7962302112096138,1,right
3.608,-0.2329403414866208,1.137715818382545,0.17289439851286909,2.476140480197785,3.3060053061414836,-0.9767037403757102,-0.5066107645362394,-0.9551828262039397,-1.8282856200209214,1,right
3.608,-0.23972298120522612,1.129861784734945,0.1762365031360919,2.5008202850642784,3.3228679398243495,-0.9733222686999636,-0.5081784439259317,-0.9520200525933631,-1.8599013741991075,1,right
3.612,-0.24647455004472835,1.1218914619362717,0.17951924263991245,2.524265691568379,3.3391300610270997,-0.9695518294418398,-0.5095655319134148,-0.9484951669552607,-1.8910469199880016,1,right
3.613,-0.2531912621361596,1.1138090455157301,0.18273930546427042,2.546463792784717,3.3547700497815427,-0.9653870642519244,-0.5107638342720185,-0.9446051674049337,-1.921692014099876,1,right
3.6180000000000003,-0.2598695082765718,1.1056188323535585,0.1858934383774642,2.5674040611038214,3.3697659433186957,-0.9608229431503016,-0.5117651849062517,-0.9403472059188397,-1.9518067586322656,1,right
3.6189999999999998,-0.2665058523776353,1.0973252138975882,0.18897845134625826,2.587078378679265,3.384095452934099,-0.9558547866735065,-0.5125614596890589,-0.9357185957481752,-1.981361634567872,1,right
3.623,-0.27309702738250363,1.0889326692868617,0.19199122226633777,2.6054810589544597,3.3977359832190697,-0.9504782870455767,-0.5131445903982329,-0.930716819399909,-2.0103275339455267,1,right
3.6239999999999997,-0.2796399307026685,1.080445758418539,0.19492870151166233,2.622608859329241,3.4106646537009384,-0.9446895283600762,-0.5135065787548422,-0.9253395371730259,-2.038675790788659,1,right
3.628,-0.2861316192281019,1.0718691149939072,0.1977879162864475,2.638460985022739,3.4228583229333744,-0.9384850057588159,-0.5136395105659423,-0.9195845962366778,-2.0663782108761093,1,right
3.6289999999999996,-0.2925693039699347,1.0632074395763838,0.2005659747890332,2.6530390841854037,3.4342936150759424,-0.9318616435918116,-0.5135355699732308,-0.9134500402358722,-2.0934071004384376,1,right
3.633,-0.2989503444021633,1.0544654926882995,0.2032600702157799,2.666347234309384,3.444946948999983,-0.9248168125418469,-0.5131870538086681,-0.9069341194092422,-2.1197352938611043,1,right
3.633,-0.3052722425755491,1.0456480879653125,0.2058674846398138,2.6783919199828046,3.4547945699557867,-0.9173483456958075,-0.5125863860574285,-0.9000353012023634,-2.1453361804740436,1,right
3.638,-0.31153263708115897,1.0367600853787249,0.20838559279273197,2.6891820020298245,3.4638125838338696,-0.9094545535437554,-0.5117261324278668,-0.892752281358991,-2.170183730505221,1,right
3.639,-0.31772929694094576,1.0278063845267973,0.21081186576200986,2.698728678074724,3.4719769940508987,-0.9011342378855012,-0.5105990150274837,-0.8850839954714931,-2.194252520273746,1,right
3.642,-0.3238601154989297,1.0187919179872762,0.21314387459989415,2.707045434564642,3.4792637410885106,-0.8923867046232126,-0.5091979271431464,-0.8770296309706618,-2.217517756696034,1,right
3.6430000000000002,-0.3299231043813174,1.0097216447178499,0.2153792938257296,2.714147990281982,3.4856487447108737,-0.8832117754173845,-0.5075159481230794,-0.8685886395339755,-2.23995530117634,1,right
3.65,-0.3359163875875647,1.0006005434911707,0.21751590479413957,2.7200542313739433,3.491107948884394,-0.8736097981822635,-0.505546358357372,-0.8597607498902831,-2.261541692950756,1,right
3.6510000000000002,-0.3418381957656124,0.9914336063543467,0.21955159889612458,2.724784137923103,3.4956173694204558,-0.8635816563955977,-0.5032826543529613,-0.850545980997771,-2.282254171951453,1,right
3.6519999999999997,-0.34768686071403426,0.9822258321059665,0.22148438055969047,2.728359702079486,3.4991531443594743,-0.8531287771963579,-0.5007185638982458,-0.8409446555709624,-2.3020707012555714,1,right
3.6519999999999997,-0.35346081014379943,0.9729822197859138,0.2233123700223085,2.730804837771142,3.501691587111902,-0.8422531382428446,-0.49784806131165715,-0.8309574139313888,-2.3209699891807305,1,right
3.657,-0.3591585627240111,0.963707762174717,0.2250338058585497,2.7321452820068552,3.5032092423690884,-0.830957273302378,-0.49466538275733163,-0.8205852281342014,-2.3389315110624866,1,right
3.658,-0.36477872343007556,0.9544074392988321,0.22664704725838256,2.732408487781319,3.503682944794096,-0.8192442765425464,-0.4911650415584506,-0.8098294162155647,-2.355935530625922,1,right
3.658,-0.3703199792099605,0.9450862119360612,0.22815057606057795,2.7316235085898444,3.5030898804997186,-0.8071178054927752,-0.48734184334486474,-0.7986916562132027,-2.3719631206438443,1,right
3.661,-0.37578109498344914,0.9357490151154869,0.22954299855088128,2.729820874556527,3.501407651318012,-0.7945820826437746,-0.4831909008190106,-0.7871739995050493,-2.386996182450809,1,right
3.662,-0.3811609099881939,0.9264007516127201,0.2308230470370512,2.7270324601766727,3.498614341862646,-0.7816418956512232,-0.4787076479749236,-0.7752788831161691,-2.4010174640000037,1,right
3.667,-0.386458334484419,0.9170462854501998,0.23198958121213814,2.7232913438957267,3.4946885892858606,-0.7683025961272257,-0.47388785369730485,-0.7630091408343788,-2.414010576364298,1,right
3.668,-0.39167234682885455,0.9076904354159779,0.23304158931382343,2.7186316608661034,3.489609655146355,-0.7545700970937209,-0.46872763471836393,-0.7503680130802258,-2.4259600087004887,1,right
3.668,-0.39680199092806123,0.8983379686118824,0.23397818908339565,2.7130884522402594,3.4833574979330586,-0.7404508693361226,-0.4632234679195506,-0.737359155497158,-2.4368511417169865,1,right
3.6710000000000003,-0.40184637407911783,0.8889935940415106,0.23479862852373168,2.706697515477714,3.4759128443041454,-0.7259519369861478,-0.45737220196431994,-0.7239866462266439,-2.4466702596822296,1,right
3.6719999999999997,-0.406804665199101,0.8796619562560598,0.2355022864498627,2.699495259018992,3.467257257579683,-0.7110808725698422,-0.4511710682471006,-0.7102549918319373,-2.4554045610081303,1,right
3.677,-0.4116760934344546,0.8703476290868755,0.23608867281822027,2.6915185626571496,3.457373202891117,-0.6958457915904366,-0.44461769114264643,-0.6961691318331236,-2.4630421674398013,1,right
3.678,-0.4164599471297391,0.8610551095009596,0.23655742881501252,2.6828046438130255,3.446244108869698,-0.6802553466227582,-0.43771009753895646,-0.6817344418150418,-2.4695721318797537,1,right
3.681,-0.42115557312427787,0.8517888116184665,0.23690832668409853,2.673390929693605,3.433854425848952,-0.6643187208764985,-0.4304467256359447,-0.6669567350686463,-2.474984444871622,1,right
3.682,-0.4257623763365513,0.8425530609306878,0.237141269280033,2.6633149353106598,3.420189680552763,-0.6480456211845874,-0.42282643299102857,-0.6518422627253534,-2.4792700397653396,1,right
3.687,-0.430279819591131,0.833352088754217,0.23725628933920703,2.652614147334713,3.4052365272370615,-0.6314462703719065,-0.4148485037917892,-0.6363977123429198,-2.482420796582502,1,right
3.688,-0.43470742364073495,0.8241900269524853,0.23725354846756086,2.641325913757374,3.3889827952494946,-0.6145313989585806,-0.4065126553348353,-0.6206302049004127,-2.4844295445974405,1,right
3.6910000000000003,-0.4390447673347916,0.815070902949705,0.23713333584538135,2.6294873393331653,3.3714175329678,-0.5973122361511224,-0.3978190436889787,-0.6045472901588678,-2.4852900636463073,1,right
3.6910000000000003,-0.44329148788541245,0.8059986350559027,0.23689606664943785,2.6171351867701893,3.352531048073894,-0.5798005000737665,-0.38876826851980134,-0.5881569403432808,-2.484997084173204,1,right
3.696,-0.44744728118328997,0.7969770281178973,0.23654228019345525,2.604305783637286,3.332314944116962,-0.5620083871914252,-0.37936137705166817,-0.5714675421006538,-2.48354628601911,1,right
3.698,-0.4515119021202156,0.7880097695099496,0.23607263779148563,2.591034934953751,3.310762153315067,-0.5439485608748267,-0.3695998671422127,-0.5544878866879109,-2.4809342959560774,1,right
3.701,-0.4554851648796479,0.779100425477017,0.23548792035372337,2.5773578414262084,3.2878669655410064,-0.5256341390575532,-0.3594856894432969,-0.5372271583426173,-2.4771586839658295,1,right
3.701,-0.4593669431603307,0.7702524378413501,0.23478902572770805,2.5633090232958553,3.263625053434326,-0.5070786809338963,-0.3490212486214252,-0.519694920788575,-2.472217958258604,1,right
3.7060000000000004,-0.46315717030128917,0.7614691210798356,0.23397696579780622,2.5489222497580384,3.238033493577553,-0.4882961726456754,-0.33820940360957413,-0.5019011018275391,-2.4661115590247187,1,right
3.707,-0.4668558392811114,0.7527536597767178,0.23305286335402384,2.534230473914943,3.2110907836708837,-0.4693010119054361,-0.3270534668613885,-0.4838559759674864,-2.4588398509080154,1,right
3.7110000000000003,-0.4704630025702083,0.7441091064556056,0.2320179487417846,2.5192657732211035,3.18279685563567,-0.45010799150275516,-0.31555720257768766,-0.4655701450370968,-2.4504041141869886,1,right
3.7119999999999997,-0.4739787718208117,0.73553837979539,0.23087355630918285,2.504059295380483,3.1531530845731806,-0.43073228163972366,-0.3037248238742303,-0.4470545167353483,-2.4408065346460526,1,right
3.716,-0.4774033173852546,0.7270442632354616,0.2296211206742131,2.4886412096529864,3.1221622935012423,-0.4111894110410741,-0.29156098885869697,-0.4283202810644125,-2.4300501921160693,1,right
3.717,-0.4807368676587637,0.7186294039761079,0.22826217283652186,2.473040663527479,3.0898287537874833,-0.39149524678384684,-0.27907079558387476,-0.4093788845933422,-2.418139047659895,1,right
3.722,-0.4839797082487126,0.7102963123806159,0.22679833615508915,2.4572857447176935,3.056158181194026,-0.3716659727909678,-0.2662597758430615,-0.39024200249938573,-2.405077929375396,1,right
3.722,-0.4871321809771397,0.702047361786062,0.2252313222086815,2.4414034484368,3.0211577274446086,-0.35171806693263097,-0.25313388777275825,-0.3709215083331336,-2.390872516785029,1,right
3.7260000000000004,-0.49019468272611993,0.6938847887289071,0.22356292655340507,2.4254196499058787,2.984835967221264,-0.33166827667894355,-0.23969950722678085,-0.3514294414531093,-2.3755293237777853,1,right
3.728,-0.49316766413613633,0.6858106935883321,0.22179502439096768,2.4093590820510964,2.9472028804938426,-0.3115335932469063,-0.2259634179134757,-0.33177797214985094,-2.359055680105045,1,right
3.728,-0.4960516281670462,0.6778270416446778,0.21992956616030399,2.3932453183440137,2.908269830081852,-0.29133122418445856,-0.2119328004292034,-0.3119793648539843,-2.3414597116238816,1,right
3.73,-0.49884712853064395,0.6699356645437248,0.21796857306434617,2.3771007607391623,2.8680495343442916,-0.2710785643340277,-0.19761522057665018,-0.2920459404972632,-2.3227503198295896,1,right
3.7310000000000003,-0.5015547680039009,0.6621382621522051,0.21591413254746453,2.3609466326628046,2.8265560348893968,-0.25079316511777905,-0.18301861749804235,-0.2719900394700762,-2.3029371614112413,1,right
3.735,-0.5041751966339764,0.6544364047865598,0.21376839374999368,2.3448029770066317,2.7838046591924774,-0.23049270208656614,-0.1681512920101132,-0.25182398624351404,-2.282030628365584,1,right
3.735,-0.5067091098507904,0.6468315357940877,0.21153356297810116,2.3286886590210627,2.7398119781214443,-0.21019494072955186,-0.15302189527056467,-0.23156005604873875,-2.260041828849882,1,right
3.736,-0.5091572465080886,0.6393249744630305,0.20921189923047023,2.3126213737077292,2.694595758941496,-0.18991770081693232,-0.13763941776258576,-0.21121044363106264,-2.2369825687558653,1,right
3.74,-0.5115203868770957,0.6319179192371426,0.20680570981624086,2.296617656779698,2.6481749154027963,-0.16967882004415866,-0.12201317855473601,-0.1907872340208313,-2.2128653339447473,1,right
3.741,-0.5137993506204133,0.6246114512107157,0.20431734608938562,2.280692897963024,2.6005694570869324,-0.1494961180216167,-0.10615281479275104,-0.17030237526292444,-2.187703273080171,1,right
3.745,-0.5159949947806131,0.6174065378804167,0.20174919931938354,2.2648613557083923,2.551800439608904,-0.12938736137822587,-0.09006827137910042,-0.14976765304644107,-2.1615101809928667,1,right
3.745,-0.518108211824559,0.6103040371300885,0.19910369671413647,2.249136172912861,2.5018899162319763,-0.10937023025152458,-0.0737697907954284,-0.1291946671759249,-2.134300482507771,1,right
3.7489999999999997,-0.5201399277855446,0.6033047014243064,0.19638329760550335,2.2335293935469855,2.450860890873789,-0.08946228616141187,-0.057267903022336614,-0.10859480982530725,-2.1060892166613465,1,right
3.75,-0.5220911005403868,0.5964091821858919,0.19359048980164803,2.2180519801418694,2.398737272363669,-0.06968094120981697,-0.04057341551032384,-0.08797924551560203,-2.07689202123389,1,right
3.755,-0.5239627182501894,0.5896180343314337,0.1907277861027755,2.20271383209099,2.3455438298078164,-0.05004342854883014,-0.02369740315508477,-0.06735889275727648,-2.046725117518698,1,right
3.755,-0.5257557979830725,0.5829317209381893,0.1877977209666164,2.187523804721995,2.2913061489158206,-0.030566774060142552,-0.006651198229785142,-0.04674440729814382,-2.0156052952470747,1,right
3.76,-0.5274713845252719,0.5763506180175031,0.18480284730220325,2.1724897290940253,2.2360505891388267,-0.011267769189005357,0.010553619773621537,-0.02614616691757825,-1.98354989758535,1,right
3.761,-0.5291105493748341,0.5698750193737403,0.1817457333716184,2.15761843247652,2.1798042414665924,0.007837055123668411,0.02790523444249158,-0.005574257707838726,-1.950576806117271,1,right
3.764,-0.5306743899019336,0.5635051415313492,0.17862895978834423,2.142915759465888,2.122594886727684,0.026731453466974326,0.045391602929947296,0.01496153821669648,-1.9167044257224146,1,right
3.765,-0.5321640286536736,0.5572411287151235,0.17545511661000054,2.1283865936968622,2.0644509542341365,0.04539948999886472,0.06300046667909118,0.0354517536415356,-1.881951669258568,1,right
3.7689999999999997,-0.5335806127792351,0.5510830578710626,0.1722268005279225,2.1140348801058444,2.0054014806090517,0.0638255615530226,0.08071936243479869,0.055887245864396314,-1.8463379419533976,1,right
3.77,-0.5349253135520031,0.5450309437178986,0.16894661215820078,2.0998636477039954,1.9454760686328565,0.08199441986800547,0.0985356335932969,0.07625920505681923,-1.8098831254081367,1,right
3.7739999999999996,-0.536199325967767,0.5390847438213558,0.16561715344082248,2.085875032818355,1.8847048459412472,0.09989119299225392,0.1164364419400878,0.09655916143391509,-1.7726075611135006,1,right
3.775,-0.5374038684017572,0.5332443636833558,0.162241025152838,2.072070302759762,1.823118423405248,0.11750140591786523,0.1344087798270906,0.11677899129093264,-1.7345320333755643,1,right
3.779,-0.538540182311046,0.5275096618371602,0.15882082453445864,2.0584498798768704,1.7607478530213017,0.13481100049529424,0.15243948284015668,0.1369109219651519,-1.6956777515469188,1,right
3.78,-0.5396095319709228,0.5218804549382584,0.15535914301549147,2.0450133659560814,1.6976245851368785,0.15180635468036294,0.1705152430083538,0.15694753578140183,-1.65606633145607,1,right
3.784,-0.5406132042333317,0.5163565228399677,0.15185856402107573,2.0317595669277297,1.6337804248347505,0.16847430116413822,0.18862262260662052,0.17688177303927177,-1.615719775925745,1,right
3.785,-0.5415525082928513,0.5109376136420415,0.14832166083692697,2.018686517839403,1.5692474872968203,0.1848021454353739,0.2067480686035597,0.1967069340998344,-1.5746604542685332,1,right
3.7889999999999997,-0.5424287754422727,0.5056234487007703,0.14475099452397513,2.0057915080577824,1.5040581519662413,0.20077768332431198,0.2248779278062692,0.2164166806294247,-1.532911080646118,1,right
3.79,-0.5432433587971462,0.5004137275903874,0.14114911188338772,1.993071106660936,1.4382450153244897,0.2163892180756984,0.2429984627541978,0.2360050360577267,-1.49049469117624,1,right
3.793,-0.5439976329684391,0.4953081330073187,0.13751854348106612,1.9805211879834967,1.3718408420980697,0.23162557699789238,0.26109586841406723,0.2554663853071061,-1.4474346196694923,1,right
3.795,-0.5446929936655484,0.4903063356101769,0.13386180174549378,1.9681369572776772,1.304878514707654,0.24647612773393812,0.2791562896975824,0.2747954738390424,-1.4037544719414528,1,right
3.795,-0.5453308572173861,0.4854079987885249,0.1301813791533763,1.9559129764535663,1.237390980770665,0.2609307941994218,0.2971658396719773,0.2939874060093919,-1.359478098970726,1,right
3.799,-0.5459126600046963,0.48061278335139157,0.12647974651240362,1.9438431898626478,1.1694111984666047,0.2749800722308616,0.315110618060409,0.3130376426270549,-1.3146295697601729,1,right
3.8,-0.5464398577997815,0.4759203521231937,0.12275935134153358,1.9319209500889525,1.1009720795728437,0.28861504498727053,0.3329767294774569,0.3319419975564689,-1.2692331450837966,1,right
3.804,-0.5469139250096546,0.4713303744325269,0.1190226163401545,1.9201390437127126,1.0321064299770601,0.3018273981463955,0.35075030099648696,0.35069663325772826,-1.223313252973072,1,right
3.805,-0.5473363538165705,0.466842530478952,0.11527193793099652,1.9084897170151118,0.9628468876120246,0.31460943490505683,0.36841749891842374,0.36929805525451964,-1.1768944662063,1,right
3.806,-0.547708653208102,0.4624565155629551,0.11150968486003122,1.8969647016095201,0.8932258584616385,0.32695409063723163,0.38596454476289405,0.38774310557341746,-1.1300014817360258,1,right
3.8089999999999997,-0.5480323478888902,0.45817204416409474,0.10773819684034115,1.8855552400145077,0.8232754525540743,0.3388549467840539,0.40337773053277143,0.40602895520840787,-1.082659101922657,1,right
3.81,-0.5483089770671546,0.4539888538526388,0.10395978323308117,1.8742521112006818,0.7530274225612799,0.35030624339407973,0.42064343330284554,0.42415309566407267,-1.0348922174409854,1,right
3.812,-0.5485400931088377,0.44990670902073066,0.1001767217638721,1.8630456561273778,0.6825131069185221,0.36130288988549886,0.4377481291829941,0.44211332963041344,-0.9867257917249551,1,right
3.813,-0.5487272600507616,0.44592540442011974,0.0963912572757191,1.8519258032560626,0.6117633781085392,0.3718404738789627,0.4546784067058524,0.45990776084184215,-0.9381848468147315,1,right
3.818,-0.5488720519633659,0.4420447684950194,0.09260560051925747,1.840882094011238,0.5408085960494697,0.3819152681029958,0.47142097968855,0.47753478317239845,-0.8892944504688972,1,right
3.819,-0.5489760511541858,0.43826466650053125,0.08882192697830628,1.829903708156629,0.46967856638405675,0.39152423540357184,0.48796269961762384,0.49499306901878476,-0.8400797044034662,1,right
3.824,-0.5490408462042504,0.434585003398669,0.08504237572527709,1.8189794890546873,0.39840250346694883,0.4006650318881173,0.5042905676057147,0.5122815570223345,-0.7905657335183207,1,right
3.824,-0.5490680298312478,0.4310057265249979,0.0812690482991002,1.8080979687776682,0.3270089978463262,0.40933600823287986,0.520391745968116,0.5293994391805481,-0.7407776759706752,1,right
3.8280000000000003,-0.5490591965772696,0.42752682802001896,0.07750400759856495,1.7972473930387096,0.2555259880355778,0.4175362091812588,0.5362535694666669,0.5463461473983481,-0.690740673954246,1,right
3.8289999999999997,-0.5490159403252864,0.42414834702190296,0.07374927678498339,1.7864157459115162,0.18398073637033424,0.42526537125935415,0.551863556267867,0.5631213395287152,-0.6404798650419343,1,right
3.833,-0.548939851654931,0.42087037162029767,0.07000683818875085,1.7755907743073527,0.11239980874582194,0.43252391873364143,0.5672094186614407,0.5797248849518817,-0.5900203739490525,1,right
3.8339999999999996,-0.5488325150522765,0.41769304057181195,0.06627863221605239,1.764760012178158,0.040809058029245386,0.43931295783432783,0.5822790735848911,0.5961568497417621,-0.5393873045734032,1,right
3.838,-0.5486955059899625,0.41461654477499027,0.0625665562570435,1.753910804414634,-0.030766389058275598,0.4456342692665957,0.597060652998859,0.6124174814678142,-0.4886057321678811,1,right
3.839,-0.5485303878956225,0.41164112849767265,0.05887246360498398,1.7430303304081862,-0.10230214179579075,0.4514902990305877,0.6115425141573475,0.6285071936800256,-0.4377006955006924,1,right
3.844,-0.5483387090304611,0.408767090345072,0.055198162403313905,1.7321056272455722,-0.17377455225823346,0.45688414756963863,0.6257132498160755,0.6444265501242331,-0.3866971888577929,1,right
3.845,-0.5481219993062363,0.405994783954449,0.05154541464061553,1.7211236125050682,-0.24516071925932872,0.46181955726492113,0.639561698421401,0.6601762487344859,-0.33562015374171617,1,right
3.847,-0.5478817670766404,0.4033246184026972,0.04791593521079913,1.710071106622866,-0.31643848964714727,0.4663008982933327,0.6530769543213903,0.675757105448678,-0.2844944701206078,1,right
3.8480000000000003,-0.5476194959462141,0.4007570583163882,0.04431139104964585,1.6989348547982857,-0.38758645715757745,0.4703331528641288,0.6662483780397186,0.6911700378931813,-0.23334494708100154,1,right
3.852,-0.5473366416438005,0.39829262367930796,0.04073340035183757,1.687701548406234,-0.4585839590307408,0.47392189784848815,0.6790656066521604,0.7064160489817269,-0.18219631273765924,1,right
3.8539999999999996,-0.547034629006357,0.395931889339276,0.03718353186699219,1.6763578458851254,-0.5294110705950673,0.4770732858148956,0.6915185643044751,0.7214962104732954,-0.13107320325365804,1,right
3.8569999999999998,-0.5467148491135028,0.3936754842222335,0.03366330427043043,1.664890393068242,-0.6000485980233746,0.47979402448193803,0.7035974729094998,0.7364116465332966,-0.08000015082383914,1,right
3.858,-0.5463786566057691,0.3915240902657056,0.03017418560451707,1.6532858429262418,-0.6704780694648662,0.48209135459883506,0.7152928630602516,0.7511635173418381,-0.02900157047473439,1,right
3.862,-0.5460273672114176,0.3894784410862917,0.02671759278762223,1.6415308746881914,-0.7406817247564725,0.48397302626277416,0.7265955851758839,0.7657530027964462,0.021898254404838384,1,right
3.863,-0.5456622554984892,0.3875393203969744,0.02329489118803982,1.6296122123081531,-0.81064250391642,0.48544727368087953,0.7374968208017388,0.7801812863763279,0.07267518758317394,1,right
3.864,-0.5452845528616306,0.38570756018873154,0.01990739425980478,1.6175166422439649,-0.8803440346223144,0.4865227883834325,0.7479880938134834,0.7944495392711522,0.12330525578651454,1,right
3.866,-0.5448954457487403,0.3839840386892026,0.016556363238364305,1.605231030514412,-0.9497706188753772,0.48720869089376584,0.7580612811796528,0.8085589048970615,0.17376466370747687,1,right
3.867,-0.544496074131276,0.3823696781124208,0.013243006897364759,1.5927423390005224,-1.0189072190517803,0.48751450085908654,0.7677086230303098,0.8225104839019578,0.22402980745187726,1,right
3.8710000000000004,-0.544087530222826,0.3808654422159812,0.009968481370821238,1.580037640973795,-1.0877394434945091,0.4874501056855269,0.7769227319485026,0.8363053197252981,0.27407728620334665,1,right
3.872,-0.5436708574505722,0.37947233368083233,0.0067338900441167165,1.5671041359215299,-1.1562535315645655,0.4870257279205634,0.7856966014945357,0.8499443847569695,0.32388391218963997,1,right
3.873,-0.5432470496826071,0.3781913913242761,0.0035402835127625056,1.5539291638970856,-1.2244363376485792,0.4862518919865738,0.7940236139907525,0.8634285671353275,0.3734267190949879,1,right
3.878,-0.5428170507121263,0.37702368715312323,0.00038865960366754853,1.5405002197101834,-1.292275313385195,0.4851393910691944,0.8018975475932851,0.8767586582240282,0.4226829690622143,1,right
3.8789999999999996,-0.5423817539984037,0.3759703232632344,-0.0027200365459340253,1.5268049671838,-1.3597584876055173,0.4836992547621535,0.8093125826759611,0.8899353408068381,0.471630158427651,1,right
3.883,-0.5419420026647458,0.375032428591425,-0.005784912350458158,1.5128312535452721,-1.4268744439028573,0.4819427177075274,0.8162633075502739,0.9029591780391591,0.5202460223311238,1,right
3.884,-0.5414985897568617,0.37421115552405204,-0.008805127568155118,1.498567123930589,-1.4936122959798686,0.4798811892684386,0.8227447235440265,0.9158306031945638,0.5685085383424622,1,right
3.886,-0.5410522587713064,0.3735076763652967,-0.011779894006697874,1.4840008359625008,-1.5599616609669116,0.4775262242300837,0.8287522494599369,0.9285499102441959,0.6163959292450953,1,right
3.887,-0.5406037044686752,0.3729231796695159,-0.014708475126931669,1.469120874362278,-1.6259126309044258,0.4748894945240694,0.8342817254341612,0.9411172453064502,0.6638866651163504,1,right
3.892,-0.5401535739851803,0.37245886644562604,-0.01759018553702646,1.4539159655541174,-1.6914557425810128,0.47198276197015876,0.8393294162133477,0.9535325990039094,0.710959464843048,1,right
3.892,-0.5397024682492266,0.3721159462450869,-0.020424390376841385,1.4383750922203271,-1.7565819459178067,0.46881785202868786,0.8438920138674644,0.9657957997640761,0.7575932972099182,1,right
3.8960000000000004,-0.5392509437003248,0.37189563314720175,-0.023210504595925996,1.422487507764517,-1.8212825710885754,0.4654066285561041,0.847966639954284,0.9779065081000057,0.8037673816972195,1,right
3.897,-0.5387995142980806,0.37179914165576533,-0.025947992128030905,1.4062427506390938,-1.88554929456382,0.4617609695553006,0.8515508471500144,0.9898642119065012,0.8494611891227423,1,right
3.9010000000000002,-0.5383486537996397,0.3718276825199224,-0.02863636496255252,1.389630658492392,-1.949374104265944,0.45789274391168117,0.8546426203591773,1.0016682228071025,0.8946544422621192,1,right
3.9019999999999997,-0.5378987982763929,0.37198245849041445,-0.0312751821121796,1.3726413820897767,-2.0127492640213407,0.4538137891051808,0.8572403773154376,1.0133176735866563,0.9393271165800435,1,right
3.906,-0.5374503488354538,0.3722646600208926,-0.03386404847825762,1.355265398962029,-2.0756672774940035,0.4495358898877952,0.8593429686836709,1.024811516743819,0.9834594412036177,1,right
3.908,-0.5370036745061777,0.3726754609224412,-0.03640261361967646,1.3374935267332753,-2.1381208517839956,0.44507075791553147,0.8609496776721508,1.0361485241974004,1.0270319002676194,1,right
3.912,-0.5365591152447841,0.3732160139776369,-0.038890570433291985,1.3193169360796277,-2.2001028608728195,0.440430012323089,0.8620602191623161,1.0473272881800082,1.0700252347599717,1,right
3.912,-0.5361169850022575,0.37388744651923267,-0.04132765375210148,1.300727163268602,-2.2616063090964205,0.43562516122900474,0.8626747383621552,1.0583462233520147,1.112420444994158,1,right
3.915,-0.5356775747958223,0.3746908559797407,-0.043713638863985264,1.2817161222282414,-2.322624294825221,0.43066758415846274,0.8627938089878235,1.0692035701684068,1.1541987938337115,1,right
3.917,-0.5352411557240897,0.37562730542185285,-0.04604833995158976,1.2622761160937122,-2.383149974529225,0.4255685153704591,0.8624184309766848,1.0798973995306316,1.1953418107922482,1,right
3.92,-0.5348079818687047,0.37669781906306316,-0.04833160845348942,1.2423998481779464,-2.4431765274048645,0.42033902807554574,0.8615500277335417,1.090425618755087,1.2358312971307899,1,right
3.9210000000000003,-0.5343782930299509,0.3779033778089,-0.05056333134803233,1.2220804323117043,-2.502697120738862,0.41499001952993336,0.8601904429104011,1.1007859788894454,1.275649332072359,1,right
3.929,-0.5339523172511448,0.3792449148082684,-0.052743429363757144,1.2013114024971945,-2.5617048761829646,0.40953219699133087,0.8583419367186985,1.1109760834075242,1.3147782802519963,1,right
3.93,-0.5335302730965541,0.3807233110426835,-0.054871855122379284,1.180086721818138,-2.6201928371119774,0.403976064521521,0.8560071817714912,1.1209933983129428,1.3532008005184808,1,right
3.931,-0.5331123716585591,0.38233939095956204,-0.056948591221430686,1.1584007905478866,-2.6781539372360705,0.3983319106203291,0.8531892584517176,1.1308352636813273,1.390899856202098,1,right
3.931,-0.5326988182804294,0.38409391815912325,-0.058973648264880635,1.1362484533959265,-2.735580970636853,0.3926097966753287,0.8498916498085948,1.1404989066303903,1.4278587269099712,1,right
3.932,-0.532289813989455,0.3859875911449032,-0.0609470628517571,1.1136250058317734,-2.7924665633952217,0.38681954621134523,0.8461182360197027,1.1499814555070489,1.4640610216541599,1,right
3.9360000000000004,-0.5318855566403022,0.3880210391491698,-0.0628688955345025,1.0905261994239543,-2.848803146977482,0.38097073492356465,0.8418732885212902,1.1592799547208117,1.4994906926579394,1,right
3.938,-0.5314862417719352,0.39019481804745904,-0.06473922876145018,1.0669482461304298,-2.904582933544683,0.37507268147783074,0.8371614639448336,1.1683913794524834,1.534132048929276,1,right
3.94,-0.5310920631842806,0.39250940638098336,-0.06655816482139865,1.0428878215079098,-2.959797893309863,0.36913443906316434,0.8319877979596413,1.1773126496663857,1.5679697689426149,1,right
3.9410000000000003,-0.530703213241501,0.3949652015087519,-0.06832582381049178,1.0183420669684462,-3.0144397338727065,0.3631647876896074,0.8263576990535669,1.1860406432131902,1.6009889122255898,1,right
3.9419999999999997,-0.530319882906575,0.397562515910434,-0.07004234164186415,0.9933085915024195,-3.068499881111055,0.3571722272391777,0.8202769422456844,1.1945722080095955,1.6331749298992817,1,right
3.945,-0.529942261509352,0.4003015736585339,-0.07170786811928827,0.9677854734479452,-3.121969461013484,0.35116497128584,0.8137516627160704,1.202904173320469,1.6645136742691975,1,right
3.946,-0.5295705362497414,0.40318250707767245,-0.07332256509798231,0.9417712627230407,-3.1748392820291147,0.34515094169207394,0.8067883493365338,1.21103336016852,1.6949914075617953,1,right
3.95,-0.5292048914386538,0.4062053536087089,-0.07488660475584129,0.9152649836433784,-3.2270998178576344,0.33913776397472417,0.7993938380848391,1.2189565908960058,1.7245948098989876,1,right
3.951,-0.5288455074797535,0.40937005289336753,-0.07640016799518304,0.8882661382847591,-3.278741190794381,0.3331327634245405,0.7915753053236897,1.2266706979024018,1.7533109866006202,1,right
3.955,-0.5284925595945597,0.41267644409113335,-0.07786344298971588,0.8607747103155712,-3.3297531557823556,0.3271429619621479,0.7833402609244831,1.2341725315813783,1.7811274749024528,1,right
3.9560000000000004,-0.5281462162937022,0.41612426343580394,-0.07927662388400447,0.8327911692230896,-3.38012508532128,0.3211750757131875,0.7746965412146115,1.2414589674798426,1.8080322501746549,1,right
3.96,-0.5278066376001531,0.4197131420344313,-0.08063990964405027,0.8043164748560528,-3.4298459553820138,0.31523551328539295,0.7656523017258617,1.248526912701196,1.834013731723285,1,right
3.9610000000000003,-0.5274739730364519,0.4234426039068724,-0.08195350305125089,0.7753520822045439,-3.4789043324728675,0.30933037473041014,0.7562160097202766,1.2553733115743522,1.8590607882546388,1,right
3.964,-0.5271483593961332,0.42731206426108015,-0.08321760983054793,0.7458999463367892,-3.527288362002479,0.30346545117322876,0.746396436468663,1.2619951506094422,1.8831627430797266,1,right
3.965,-0.5268299183275679,0.4313208279980821,-0.08443243790598808,0.7159625274110768,-3.5749857580820747,0.2976462250921774,0.7362026492557828,1.2683894627605035,1.9063093791334977,1,right
3.97,-0.5265187537644129,0.4354680884401184,-0.0855981967804693,0.6855427956795924,-3.6219837949080143,0.29187787123252995,0.7256440030851377,1.274553331014813,1.9284909438807425,1,right
3.971,-0.526214949240323,0.43975292627422874,-0.0867150970391162,0.6546442363995695,-3.668269299863592,0.2861652581368868,0.71473013205516,1.2804838913278829,1.9496981541778846,1,right
3.9739999999999998,-0.5259185651264991,0.4441743087020156,-0.08778334997705897,0.6232708545657574,-3.7138286484770893,0.28051295027562534,0.703470940377543,1.2861783349224811,1.9699222011571444,1,right
3.975,-0.5256296358291228,0.4487310887860799,-0.08880316735195369,0.5914271793768276,-3.758647761371054,0.2749252107608586,0.6918765930074007,1.291633909969378,1.9891547551967657,1,right
3.98,-0.5253481669802131,0.4534220049847799,-0.08977476125823163,0.5591182683469645,-3.802712103335755,0.2694060046275018,0.6799575058539274,1.2968479226668477,2.007387971038216,1,right
3.9819999999999998,-0.5250741326511629,0.45824568086742185,-0.090698344114777,0.5263497109725217,-3.846006684657654,0.26395900266521816,0.6677243355392312,1.3018177377352793,2.024614493108438,1,right
3.985,-0.5248074726151947,0.4632006250010356,-0.09157412875415545,0.49312763186227654,-3.888516064831619,0.25858758578519986,0.655187968672058,1.3065407783425653,2.040827461102387,1,right
3.986,-0.5245480896847294,0.46828523099889297,-0.09240232860188369,0.4594586932384807,-3.9302243587834322,0.2532948499059379,0.6423595106021892,1.311014525475236,2.0560205158782137,1,right
3.989,-0.5242958471517248,0.47349777772056395,-0.09318315793751825,0.42535009671458357,-3.9711152457269345,0.24808361134233947,0.629250273620392,1.315236516769615,2.0701878057145726,1,right
3.989,-0.5240505663615694,0.47883642961264933,-0.09391683223304159,0.3908095842542059,-4.011171980777882,0.24295641268276924,0.6158717645679344,1.3192043448165582,2.0833239929766103,1,right
3.9939999999999998,-0.5238120244519364,0.484299237177575,-0.09460356856563717,0.35584543821465625,-4.050377409444313,0.23791552913881625,0.6022356718188355,1.3229156549526204,2.0954242612342675,1,right
3.995,-0.5235799522861367,0.48988413755541016,-0.09524358609978097,0.3204664803770229,-4.088713985110839,0.2329629753528207,0.5883538515972178,1.326368142549775,2.1064843228735883,1,right
3.9989999999999997,-0.5233540326072231,0.4955889552010286,-0.09583710662763706,0.28468206986363237,-4.126163789631913,0.22810051264843728,0.5742383135913511,1.3295595498150803,2.1165004272387544,1,right
4.0,-0.5231338984364007,0.5014114026357099,-0.09638435514954523,0.24850209984245203,-4.162708557146643,0.22332965670975738,0.5599012058252445,1.3324876621109478,2.1254693693396045,1,right
4.0,-0.5229191317377404,0.5073490812502593,-0.09688556047213809,0.21193699291682164,-4.198329701225267,0.2186516856747675,0.5453547987728774,1.3351503038236074,2.1333884991357714,1,right
4.005,-0.5227092623689829,0.513399482140007,-0.09734095580282918,0.17499769509773694,-4.233008345454815,0.21406764862917815,0.5306114688242368,1.3375453338950172,2.140255731302454,1,right
4.006,-0.5225037673339663,0.5195599869599596,-0.09775077932439354,0.13769566825477145,-4.266725357568908,0.20957837448692015,0.5156836814362162,1.3396706412918362,2.146069555194205,1,right
4.008,-0.5223020703479568,0.5258278687939908,-0.09811527473819384,0.1000428809891771,-4.299461387142646,0.20518448124255345,0.5005839744255732,1.3415241407727214,2.1508290446169696,1,right
4.0089999999999995,-0.5221035417252406,0.5322002930327315,-0.09843469176755368,0.06205179811442015,-4.331196906464087,0.2008863855745027,0.48532494173583923,1.3431037692260335,2.154533867118725,1,right
4.01,-0.5219074985978134,0.538674318255528,-0.09870928661495473,0.023735369365392476,-4.361912253459018,0.19668431276642956,0.4699192177850097,1.344407482690141,2.157184292691663,1,right
4.013,-0.5217132054738773,0.5452468971136523,-0.09893932236854897,-0.014892981800678027,-4.391587675136115,0.19257830690772743,0.45437946237561394,1.3454332540793212,2.1587812018789636,1,right
4.013,-0.5215198751457824,0.5519148772113609,-0.0991250693544419,-0.05381936869235579,-4.420203370423516,0.18856824134099637,0.4387183461233561,1.3461790716197901,2.1593260932968072,1,right
4.018,-0.5213266699584114,0.5586750019790542,-0.09926680543201757,-0.09302945097985947,-4.447739531996886,0.18465382933650917,0.42294853636009855,1.3466429379996054,2.1588210905792358,1,right
4.019,-0.5211327034493334,0.5655239115318507,-0.09936481623054703,-0.13250844346103824,-4.474176387102884,0.18083463498055288,0.4070826834665728,1.3468228702353837,2.1572689487504557,1,right
4.023,-0.5209370423705989,0.5724581435073868,-0.0994193953257924,-0.17224112410925685,-4.4994942374601745,0.17711008426612582,0.391133407589855,1.3467169002579675,2.1546730600261568,1,right
4.023,-0.5207387090990205,0.5794741338774417,-0.09943084435572579,-0.21221184151579767,-4.523673498317045,0.17347947637474392,0.37511328570033137,1.3463230762183762,2.151037459042392,1,right
4.0280000000000005,-0.5205366844386288,0.5865682177282954,-0.09939947307507521,-0.2524045218401595,-4.546694736741539,0.16994199513838332,0.3590348389426019,1.3456394645145473,2.1463668275075785,1,right
4.03,-0.5203299108165848,0.5937366300034417,-0.09932559934757595,-0.29280267538236066,-4.568538709216787,0.1664967206708581,0.3429105202345315,1.3446641525385634,2.140666498270161,1,right
4.033,-0.5201172958716445,0.6009755062004418,-0.09920954907192539,-0.3333894028920376,-4.589186398610958,0.16314264115820223,0.32675270206845436,1.3433952521432282,2.133942458791514,1,right
4.033,-0.5198977164332921,0.6082808830146864,-0.0990516560349196,-0.37414740172976546,-4.608619050587931,0.15987866479789084,0.31057366446836854,1.3418309038260237,2.126201354010664,1,right
4.04,-0.5196700228912888,0.6156486989280383,-0.09885226168604398,-0.41505897199661795,-4.626818209521377,0.15670363187700156,0.2943855830568271,1.339969281627641,2.117450488584481,1,right
4.041,-0.5194330439572632,0.6230747947478913,-0.09861171483204922,-0.4561060227485243,-4.643765753971551,0.15361632697967825,0.278200517185135,1.3378085987414388,2.107697828484033,1,right
4.042,-0.5191855918184008,0.63055491410968,-0.09833037125548583,-0.497270078412471,-4.659443931780565,0.15061549131451804,0.26203039808039996,1.3353471138293294,2.096952001924875,1,right
4.043,-0.5189264676774652,0.6380847039621903,-0.09800859326693988,-0.5385322855220385,-4.6738353948383855,0.14769983515275809,0.24588701696295945,1.3325831380387403,2.0852222996061625,1,right
4.0489999999999995,-0.5186544676652637,0.6456597150605038,-0.09764674920768243,-0.57987341989015,-4.686923233568203,0.14486805036839007,0.22978201308771315,1.3295150427144422,2.0725186742305812,1,right
4.05,-0.518368389104136,0.6532754024969609,-0.09724521292623559,-0.6212738943372447,-4.698691011176182,0.1421188230715795,0.2137268616629352,1.3261412677981672,2.0588517392742465,1,right
4.052,-0.518067037095557,0.660927126306241,-0.09680436325625019,-0.6627137670933697,-4.709122797706887,0.13945084632701074,0.19773286160021472,1.3224603309080745,2.0442327669729004,1,right
4.053,-0.5177492314008316,0.6686101521856229,-0.09632458352389613,-0.7041727509929103,-4.718203203941956,0.13686283294902027,0.18181112304928418,1.318470837089244,2.028673685487931,1,right
4.058,-0.5174138135803683,0.6763196523747802,-0.09580626111144153,-0.7456302235808488,-4.725917415175786,0.13435352836561734,0.16597255467163816,1.3141714892255068,2.0121870752129793,1,right
4.06,-0.5170596543540504,0.6840507067411484,-0.09524978709992692,-0.787065238249553,-4.732251224898181,0.13192172354372492,0.1502278506070192,1.3095610991020321,1.994786164179163,1,right
4.063,-0.5166856611420286,0.6917983041179595,-0.09465555600957191,-0.828456536525151,-4.737191068409986,0.1295662679682036,0.134587477087056,1.3046385991072083,1.9764848225142442,1,right
4.064,-0.5162907857409706,0.6995573439428442,-0.09402396565416948,-0.8697825616225442,-4.740724056393871,0.1272860826674474,0.11906165865057668,1.299403054561462,1.9572975559084111,1,right
4.0680000000000005,-0.5158740320852043,0.7073226382445124,-0.09335541712464888,-0.911021473388042,-4.7428380084584045,0.12508017327856275,0.1036603639153891,1.2938536766597744,1.9372394980367151,1,right
4.069,-0.5154344640365054,0.7150889140225385,-0.0926503149148643,-0.9521511647484808,-4.7435214866696,0.12294764314536219,0.08839329089562634,1.287989836000979,1.9163264019082413,1,right
4.069,-0.5149712131449994,0.7228508160609819,-0.09190906719887332,-0.9931492797854984,-4.742763829080041,0.12088770644261994,0.07326985202411232,1.2818110766122104,1.8945746302226611,1,right
4.073,-0.51448348632914,0.7306029102115187,-0.09113208626463982,-1.0339932335533815,-4.740555183261642,0.11889970132025054,0.05829915934561511,1.2753171302610717,1.872001145015923,1,right
4.074,-0.5139705734272746,0.7383396871777484,-0.09031978910524763,-1.0746602337585984,-4.736886539843989,0.11698310306128261,0.04349001051726903,1.268507930783361,1.8486234969874944,1,right
4.077,-0.5134318545698605,0.7460555668307494,-0.08947259816555851,-1.1151273043609975,-4.731749766037627,0.11513753723035566,0.0288508760828298,1.2613836282171211,1.8244598147860431,1,right
4.078,-0.5128668073184172,0.7537449030854729,-0.08859094223973195,-1.155371310867507,-4.725137639025345,0.1133627927029093,0.01438988818181046,1.2539446026477623,1.7995287943244889,1,right
4.079,-0.5122750135254,0.7614019893656435,-0.08767525751377712,-1.1953689865689843,-4.717043878934453,0.11165883430926118,0.00011483068497971239,1.2461914777319336,1.7738496880799266,1,right
4.082,-0.5116561658831491,0.7690210646814156,-0.08672598874782263,-1.2350969586815734,-4.707463181006663,0.11002581474120963,-0.013966869285814155,1.2381251338796735,1.7474422943090457,1,right
4.083,-0.5110100741399876,0.7765963203414121,-0.08574359059421205,-1.2745317736420063,-4.696391246670122,0.10846408545576589,-0.02784814849501959,1.2297467210734745,1.7203269461074695,1,right
4.087,-0.5103366709685339,0.784121907320029,-0.08472852904943316,-1.3136499213252426,-4.683824813379731,0.10697420646700237,-0.04152231342895079,1.2210576713019892,1.692524500239284,1,right
4.088,-0.5096360174807669,0.7915919443008306,-0.08368128304112286,-1.3524278582407891,-4.669761683179814,0.10555695500397388,-0.05498304486998712,1.2120597105852073,1.6640563256609415,1,right
4.092,-0.508908308395685,0.7990005264158501,-0.08260234615612426,-1.390842029820932,-4.65420074995731,0.10421333303022592,-0.0682244012492658,1.2027548705670406,1.6349442916616899,1,right
4.093,-0.5081538768749814,0.8063417346986003,-0.08149222852033546,-1.4288688919132064,-4.637142025349375,0.10294457362061236,-0.08124082081713642,1.1931454996503539,1.6052107555406987,1,right
4.096,-0.5073731990486805,0.8136096462669936,-0.08035145884420651,-1.466484931588451,-4.618586663265008,0.10175214619135274,-0.09402712267003355,1.1832342736486017,1.5748785497391566,1,right
4.0969999999999995,-0.5065668982564525,0.82079834525135,-0.07918058664980453,-1.5036666873747515,-4.59853698297599,0.10063776057947231,-0.10657850667179464,1.1730242059273426,1.5439709683437464,1,right
4.102,-0.5057357490327292,0.8279019344801984,-0.0779801846973107,-1.540390769026463,-4.576996490728137,0.09960336996798314,-0.11889055230680416,1.162518657008034,1.5125117528761414,1,right
4.103,-0.5048806808682823,0.8349145479323822,-0.07675085162583903,-1.5766338769363226,-4.553969899819558,0.09865117265338433,-0.13095921650168588,1.1517213436056397,1.4805250772814285,1,right
4.107,-0.5040027817913226,0.8418303639619363,-0.07549321480910128,-1.6123728212974133,-4.529463149088339,0.09778361265228437,-0.14278083045159015,1.140636347070728,1.4480355320267246,1,right
4.1080000000000005,-0.5031033018261286,0.8486436193057895,-0.07420793340558501,-1.6475845411204286,-4.503483419747779,0.09700337914417849,-0.1543520954864371,1.1292681212058868,1.4150681072196611,1,right
4.112,-0.5021836563987381,0.8553486238914045,-0.07289570156933965,-1.682246123210306,-4.476039150503046,0.09631340474765135,-0.1656700780117773,1.11762149942545,1.3816481746549043,1,right
4.113,-0.5012454297582764,0.8619397764657162,-0.07155725178484841,-1.7163348212048444,-4.447140050878856,0.09571686262751834,-0.17673220355822358,1.1057017012266972,1.3478014686954296,1,right
4.1160000000000005,-0.5002903784653562,0.8684115810627133,-0.07019335828726145,-1.749828074776413,-4.416797112683577,0.09521716243067034,-0.18753624997268903,1.0935143379398806,1.313554065893895,1,right
4.117,-0.4993204349674384,0.8747586643125742,-0.0688048405217731,-1.7827035290962774,-4.3850226195309165,0.09481794504864682,-0.19808033978393857,1.0810654177236332,1.2789323632581673,1,right
4.122,-0.49833771123760895,0.8809757935696609,-0.06739256659350305,-1.8149390546594173,-4.351830154336221,0.09452307620523084,-0.20836293177422818,1.0683613497715276,1.243963055063822,1,right
4.122,-0.4973445023977334,0.8870578957982893,-0.06595745667500895,-1.846512767566009,-4.317234604700229,0.09433663886763823,-0.21838281178806504,1.0554089476947872,1.2086731081152917,1,right
4.127,-0.49634329017831963,0.8930000771030113,-0.0645004863703923,-1.877403050353966,-4.2812521660890335,0.09426292448016253,-0.22813908280837528,1.0422154320454007,1.1730897353562575,1,right
4.128,-0.49533674598903016,0.8987976427264825,-0.06302269006330054,-1.9075885734750953,-4.2439003427149355,0.09430642301943745,-0.23763115432961604,1.02878843194316,1.1372403677288907,1,right
4.131,-0.4943277332919104,0.9044461172643424,-0.06152516427539788,-1.937048317505523,-4.205197946018835,0.0944718118707902,-0.24685873105661446,1.0151359857694284,1.1011526241806182,1,right
4.131,-0.49331930888458,0.9099412647606869,-0.06000907101018663,-1.965761596179087,-4.165165090650832,0.09476394352548402,-0.25582180095715923,1.001266540889753,1.064854279716254,1,right
4.136,-0.4923147226127413,0.9152791082571172,-0.05847564094171914,-1.9937080803303646,-4.123823187841778,0.09518783209898468,-0.26452062269561233,0.9871889523667675,1.0283732313925669,1,right
4.138,-0.4913174149632394,0.9204559483088323,-0.05692617614992148,-2.020867822831918,-4.081194936054632,0.09574863867073642,-0.27295571248589945,0.972912480626238,0.9917374622247115,1,right
4.138999999999999,-0.4903310119911581,0.9254683800033384,-0.05536205198070962,-2.0472212846082045,-4.037304308800668,0.09645165544629777,-0.2811278304607285,0.958446788048766,0.9549750033385144,1,right
4.141,-0.48935931712506764,0.9303133081253467,-0.05378471757904956,-2.0727493618063857,-3.992176539501828,0.0973022887430656,-0.2890379667597764,0.9438019344775592,0.9181138953593964,1,right
4.1419999999999995,-0.48840629951534237,0.9349879602404633,-0.052195694665272276,-2.097433414202022,-3.9458381032767904,0.09830604080121011,-0.29668732759807875,0.9289883716423982,0.8811821503934422,1,right
4.146,-0.4874760786937321,0.9394898975698571,-0.05059657415806117,-2.1212552948953847,-3.8983166955898674,0.0994684904389537,-0.30407732151585076,0.9140169364891008,0.844207715590591,1,right
4.147,-0.48657290542243564,0.9438170236111069,-0.04898901034551918,-2.1441973812521,-3.8496412080238205,0.10079527265725947,-0.3112095459035663,0.8988988433847706,0.8072184386223249,1,right
4.147,-0.48570113874730986,0.9479675905425994,-0.04737471250673616,-2.1662426068600626,-3.7998417020203066,0.10229205745335133,-0.31808577383612263,0.8836456751583532,0.7702420350408529,1,right
4.151,-0.48486521942248306,0.9519402035256214,-0.04575543415559796,-2.1873744941724147,-3.748949381753829,0.10396452818845169,-0.32470794123732344,0.8682693729335148,0.7333060574136361,1,right
4.152,-0.48406964003892744,0.9557338230879496,-0.0441329603739303,-2.2075771876035164,-3.696996566976182,0.10581835977008702,-0.33107813439517286,0.8527822247104387,0.6964378661270505,1,right
4.156000000000001,-0.4833189123462538,0.9593477658246214,-0.04250909396348872,-2.226835487021629,-3.644016666079096,0.10785919675588357,-0.3371985778477391,0.8371968526527475,0.6596646017530255,1,right
4.157,-0.4826175323713395,0.9627817036723105,-0.040885641291643036,-2.245134881679054,-3.5900441492940622,0.11009263140077162,-0.3430716226586149,0.8215261990354032,0.6230131588726088,1,right
4.16,-0.48196994400599236,0.9660356620096677,-0.03926439868520831,-2.2624615846377245,-3.5351145218801725,0.11252418165293637,-0.34869973510027974,0.8057835108091259,0.5865101612506023,1,right
4.1610000000000005,-0.4813805017750409,0.9691100168177541,-0.037647140054425224,-2.2788025677455512,-3.479264297147841,0.11515926910438984,-0.3540854857629518,0.7899823227365822,0.5501819382556913,1,right
4.165,-0.4808534335159527,0.9720054910999015,-0.03603560616228008,-2.2941455972160556,-3.422530969163451,0.11800319690259214,-0.35923153910580585,0.7741364390553559,0.5140545024208298,1,right
4.165,-0.48039280370395976,0.9747231507008153,-0.034431495669637116,-2.3084792698610426,-3.364952984977188,0.12106112763011878,-0.36414064346673164,0.7582599136225069,0.47815352803907823,1,right
4.171,-0.4800024781412665,0.9772643995780105,-0.0328364578521756,-2.321793050023224,-3.306569716213713,0.12433806115995523,-0.36881562154610886,0.742367028495354,0.44250433069058653,1,right
4.171,-0.4796860906927136,0.9796309744728214,-0.031252086741535595,-2.3340773072528487,-3.2474214298627677,0.12783881249459983,-0.37325936137938986,0.7264722709029908,0.4071318475969949,1,right
4.1739999999999995,-0.47944701269365436,0.9818249388206486,-0.0296799163986417,-2.3453233547694943,-3.1875492581044003,0.13156798959777052,-0.37747480781259696,0.7105903085629568,0.3720606187001727,1,right
4.175,-0.47928832558014517,0.9838486756524524,-0.028121417060532786,-2.3555234887472416,-3.126995167001173,0.13552997122813926,-0.38146495449417106,0.6947359632974384,0.3373147683629375,1,right
4.18,-0.47921279719642845,0.9857048791929186,-0.0265779919705845,-2.364671028458508,-3.0658019238875185,0.1397288847851609,-0.38523283639594424,0.6789241829033714,0.3029179875901915,1,right
4.1819999999999995,-0.4792228621224637,0.987396544872665,-0.025050974763782954,-2.3727603573088296,-3.0040130632843525,0.14416858417771905,-0.388781522875352,0.6631700112308513,0.268893516669778,1,right
4.184,-0.47932060624493655,0.9889269575498411,-0.023541627317048782,-2.3797869647918737,-2.9416728511650634,0.14885262772697908,-0.39211411129035445,0.6474885564243366,0.2352641281332929,1,right
4.185,-0.47950775568144377,0.9902996778698562,-0.022051137999628764,-2.385747489390955,-2.878826247397188,0.15378425611551935,-0.39523372117789723,0.6318949572812581,0.20205210993808803,1,right
4.189,-0.47978567006402684,0.9915185268514517,-0.020580620286991962,-2.3906397624502858,-2.81551886618237,0.15896637039550232,-0.398143489006113,0.6164043476828062,0.16927924877277303,1,right
4.19,-0.48015534008824484,0.9925875689342788,-0.019131111739314675,-2.3944628530361265,-2.7517969343156023,0.16440151006934836,-0.4008465635098441,0.6010318190518809,0.13696681338965477,1,right
4.194,-0.48061738912803303,0.9935110938218686,-0.01770357338397637,-2.3972171138049685,-2.6877072470833197,0.17009183125708582,-0.40334610161845486,0.5857923807934423,0.10513553786875222,1,right
4.195,-0.4811720786014443,0.9942935974833437,-0.016298889565034946,-2.398904227892796,-2.623297121618564,0.17603908496526963,-0.4056452649842999,0.5707009186727916,0.07380560471928489,1,right
4.2,-0.4818193166551641,0.9949397626395282,-0.014917868319033706,-2.399527256836408,-2.558614347530278,0.1822445954730868,-0.40774721711961937,0.5557721510876545,0.04299662772585458,1,right
4.2,-0.4825586696371059,0.9954544389794684,-0.013561242302396703,-2.399090689534722,-2.4937071346227118,0.18870923885199944,-0.4096551211490493,0.541020583190321,0.012727634447920981,1,right
4.204,-0.4833893757748015,0.9958426232688001,-0.0122296702399543,-2.3976004922549032,-2.428624057520015,0.195433421636013,-0.411372138184358,0.5264604588165184,-0.016982951717389123,1,right
4.204,-0.4843103604896218,0.9961094394518494,-0.010923738808064569,-2.395064159685133,-2.363413997010294,0.20241705966039802,-0.4129014263274549,0.5121057101781631,-0.046117329997604005,1,right
4.205,-0.4853202528487552,0.9962601188220528,-0.009643964833363775,-2.3914907670327614,-2.2981260779227863,0.2096595570874382,-0.41424614029429774,0.49796990537989594,-0.07465834127224358,1,right
4.209,-0.4864174027715766,0.9962999803261093,-0.008390797690441485,-2.3868910231635856,-2.2328096033512894,0.21715978563852045,-0.4154094315874797,0.484066194331111,-0.10258948746829044,1,right
4.21,-0.4875998987337547,0.9962344110623262,-0.00716462180883999,-2.381277324774989,-2.167513985036614,0.22491606405262873,-0.41639444902899564,0.4704072545460406,-0.1298949507019732,1,right
4.2139999999999995,-0.48886558580523787,0.9960688470361786,-0.005965759229935597,-2.3746638115926957,-2.1022886697206187,0.2329261377920442,-0.4172043393998573,0.4570052388363445,-0.15655961130817667,1,right
4.215,-0.490212083897325,0.995808754250033,-0.0047944721755041365,-2.367066422404338,-2.0371830614106,0.24118715905772653,-0.4178422479970083,0.4438717263900575,-0.18256906413220275,1,right
4.215,-0.4916368061101163,0.9954596102142956,-0.0036509656065795973,-2.358502950872043,-1.9722464401243998,0.24969566738224502,-0.418311319033214,0.4310176778111935,-0.20790963288009892,1,right
4.218,-0.49313697709361215,0.9950268859616163,-0.0025353897679549946,-2.348993098500825,-1.9075278788235581,0.2584475714372438,-0.4186146958694006,0.41845339418377964,-0.23256838255709172,1,right
4.218999999999999,-0.49470965135230593,0.9945160286377389,-0.001447842728485417,-2.3385585212686766,-1.8430761608737012,0.2674381328978041,-0.41875552108128167,0.40618848012261716,-0.2565331300688133,1,right
4.223,-0.4963517314205653,0.993932444746864,-0.0003883729400504553,-2.327222867289548,-1.7789396997403177,0.2766619530021176,-0.418736936361628,0.39423181077386277,-0.279792453058091,1,right
4.224,-0.4980599858278978,0.9932814841356654,0.0006430181499244021,-2.3150118044402506,-1.715166461491948,0.28611296207719394,-0.4185620822590575,0.3825915027293594,-0.30233569704811103,1,right
4.228,-0.499831066775688,0.9925684247922318,0.0016463733861364306,-2.301953037747737,-1.6518038900520349,0.2957844120973501,-0.41823409775375736,0.37127488881950016,-0.32415298096077605,1,right
4.23,-0.501661527458981,0.9917984585149321,0.0026217770383236234,-2.2880763165042555,-1.5888988350153035,0.3056688723019669,-0.41775611967009185,0.3602884967502952,-0.3452352010770514,1,right
4.2330000000000005,-0.5035478389800306,0.9909766774821129,0.0035693517225163975,-2.2734134310753515,-1.5264974818455608,0.3157582278996471,-0.4171312819255998,0.34963803155121775,-0.36557403350404005,1,right
4.234,-0.5054864068087701,0.9901080617346019,0.004489255062756975,-2.257998199363276,-1.4646452842729945,0.3260436818865435,-0.41636271461544627,0.33932836180133386,-0.385161935211441,1,right
4.239,-0.5074735867435392,0.989197467572806,0.005381676068254678,-2.241866442885993,-1.4033868987103646,0.3365157600072346,-0.4154535429309628,0.32936350960216654,-0.4039921436979377,1,right
4.24,-0.5095057003084092,0.9882496168700156,0.006246831236312347,-2.225055952429749,-1.342766120508916,0.3471643188871133,-0.4144068859104868,0.3197466442667099,-0.42205867534592767,1,right
4.243,-0.5115790494915375,0.9872690873126568,0.007084960431479986,-2.207606443230986,-1.2828258218764301,0.3579785573658149,-0.41322585502030035,0.3104800796949841,-0.4393563225208497,1,right
4.244,-0.5136899306885713,0.9862603035932488,0.007896322625704858,-2.189559499641345,-1.2236078912815267,0.3689470310617469,-0.41191355256306217,0.30156527540751205,-0.4558806494691902,1,right
4.249,-0.5158346476760349,0.9852275295970836,0.008681191605683055,-2.1709585092275527,-1.1651531741701637,0.38005767019828723,-0.41047306991073307,0.2930028412090958,-0.4716279870670575,1,right
4.25,-0.5180095234123895,0.9841748616334544,0.009439851759482918,-2.1518485862561483,-1.1075014148222304,0.39129780072269243,-0.4089074855586092,0.28479254545627586,-0.4865954264690057,1,right
4.253,-0.5202109104574714,0.9831062227621522,0.01017259404515133,-2.132276484511308,-1.0506911991782042,0.4026541687492002,-0.40721986299669843,0.2769333269028643,-0.500780811704571,1,right
4.253,-0.5224351998190643,0.9820253582547842,0.010879712222863646,-2.1122904993924205,-0.9947598984680359,0.4141129683582157,-0.4054132483943109,0.2694233100989544,-0.5141827312677519,1,right
4.258,-0.5246788280794871,0.9809358322117783,0.011561499404210194,-2.0919403592366184,-0.9397436134767242,0.4256598727838448,-0.40349066809337036,0.2622598243198178,-0.5268005087424261,1,right
4.26,-0.5269382827206419,0.9798410253360603,0.012218244941709455,-2.071277105810148,-0.8856771192834608,0.43728006902236655,-0.40145512590560595,0.2554394260021078,-0.5386341925044511,1,right
4.263,-0.5292101056413171,0.9787441338481305,0.012850231653393523,-2.050352963911267,-0.8325938103137481,0.44895829589453246,-0.39930960020844086,0.24895792466578917,-0.5496845445389479,1,right
4.263999999999999,-0.531490894931087,0.9776481695159773,0.01345773335870516,-2.0292212000263206,-0.7805256455465173,0.46067888559483283,-0.3970570408340614,0.24281041230120817,-0.5599530284090154,1,right
4.2669999999999995,-0.5337773050192293,0.9765559607666626,0.014041012698655396,-2.0079359699797474,-0.7295030937209998,0.47242580876107815,-0.3947003657458249,0.23699129620170006,-0.5694417964098725,1,right
4.268,-0.5360660453501533,0.9754701548443023,0.014600319221288797,-1.9865521555180206,-0.6795550783909279,0.4841827230978102,-0.39224245749584963,0.23149433522310478,-0.5781536759401749,1,right
4.272,-0.5383538777497197,0.9743932209801007,0.015135887721907819,-1.965125189766935,-0.6307089226765508,0.49593302558717917,-0.38968615946779384,0.22631267938060515,-0.5860921551265144,1,right
4.274,-0.5406376126396304,0.9733274545418068,0.015647936830063772,-1.9437108715012124,-0.5829902935679537,0.5076599083209974,-0.3870342719608927,0.2214389123346823,-0.59326136776739,1,right
4.274,-0.5429141042375614,0.9722749821303207,0.01613666783344872,-1.9223651681651135,-0.5364231456362542,0.519346417987707,-0.3842895482652771,0.21686509567169324,-0.5996660777192452,1,right
4.2780000000000005,-0.545180244875573,0.9712377675846581,0.016602263723354462,-1.901144007582623,-0.4910296640124055,0.5309755190479825,-0.3814546909306792,0.21258281352591693,-0.6053116628774671,1,right
4.279,-0.5474329585973201,0.9702176188368168,0.017044888436081082,-1.8801030582958098,-0.44683020649657873,0.5425301606326194,-0.3785323483779898,0.20858321645036187,-0.6102040988705137,1,right
4.283,-0.5496691942388069,0.9692161955275382,0.01746468625034998,-1.859297498470165,-0.4038432446643946,0.553993347196244,-0.3755251119086238,0.20485706409170185,-0.6143499425246035,1,right
4.285,-0.5518859182283453,0.9682350172639825,0.01786178128528693,-1.838781773755585,-0.3620853040069106,0.565348212820183,-0.37243551311402473,0.20139476658510652,-0.6177563151217024,1,right
4.285,-0.5540801073415473,0.9672754723856315,0.018236277033455938,-1.8186093467397717,-0.3215709039810201,0.5765780983574568,-0.36926602167692124,0.19818642465745742,-0.6204308854648791,1,right
4.287,-0.5562487416215081,0.9663388271075348,0.018588255866160003,-1.7988324446771269,-0.28231250035578204,0.587666629352305,-0.36601904355569986,0.1952218684282241,-0.6223818527629519,1,right
4.287,-0.5583887976584626,0.9654262349072431,0.01891777846243348,-1.779501814424632,-0.24432043308005097,0.5985977919661821,-0.3626969195430252,0.19249069489803294,-0.623617929344228,1,right
4.293,-0.560497242441373,0.96453874599555,0.019224883134339593,-1.7606664912696028,-0.20760288206402222,0.6093560048419661,-0.3593019241896077,0.1899823041156901,-0.6241483232070402,1,right
4.294,-0.5625710280181057,0.9636773166808605,0.01950958505054487,-1.7423735842897154,-0.17216583176552347,0.6199261860980022,-0.3558362650837955,0.18768593401511985,-0.6239827204127,1,right
4.297,-0.564607087197455,0.962842818430215,0.01977187539265195,-1.724668078639384,-0.1380130446391949,0.6302938153433225,-0.35230208247745176,0.18559069391434968,-0.6231312673244415,1,right
4.298,-0.5666023305005607,0.9620360464501996,0.020011720498830297,-1.7075926547084892,-0.10514604334309109,0.6404449907449118,-0.3487014492483705,0.18368559666931253,-0.6216045526938974,1,right
4.302,-0.5685536445388684,0.9612577276492879,0.020229061047370583,-1.6911875241010013,-0.07356410160091129,0.6503664811773546,-0.34503637118927755,0.18195958947584656,-0.6194135895946564,1,right
4.303,-0.5704578919633088,0.9605085278911725,0.020423811314033438,-1.6754902823827234,-0.04326424362174963,0.6600457734846173,-0.3413087876132705,0.18040158331384912,-0.6165697972004764,1,right
4.3069999999999995,-0.5723119130875018,0.9597890584957126,0.02059585851507611,-1.6605357785491948,-0.014241251982945603,0.6694711148830966,-0.3375205722653568,0.17900048102808883,-0.6130849824037925,1,right
4.308,-0.5741125292298503,0.9590998819788988,0.02074506223613232,-1.6463560011667027,0.013512316114698258,0.6786315505344122,-0.3336735345295662,0.17774520404069302,-0.6089713212682497,1,right
4.311,-0.5758565477459991,0.9584415170391677,0.02087125395104617,-1.632979981141386,0.04000610430638596,0.6875169563157216,-0.32976942092093275,0.17662471769081112,-0.604241340307117,1,right
4.312,-0.5775407686437848,0.9578144427952018,0.020974236647869633,-1.6204337110735372,0.06525192432087638,0.6961180668146121,-0.325809916851468,0.17562805519740524,-0.5989078975775973,1,right
4.317,-0.5791619925999171,0.957219102268384,0.021053784589514034,-1.6087400811564327,0.0892637151158597,0.704426498574861,-0.3217966486590775,0.17474434024153807,-0.5929841635792444,1,right
4.3180000000000005,-0.5807170301388357,0.9566559050935531,0.02110964323743573,-1.5979188315813218,0.1120574939672968,0.7124347686185735,-0.3177311858882091,0.1739628081649154,-0.5864836019429241,1,right
4.322,-0.5822027116913541,0.956125229442657,0.021141529361206744,-1.5879865214125761,0.13365129958527638,0.720136308269385,-0.3136150438108612,0.17327282578179712,-0.5794199498950283,1,right
4.323,-0.5836158982244344,0.9556274231580735,0.0211491313524447,-1.5789565138994588,0.15406512732540367,0.7275254723005814,-0.30944968617642626,0.1726639098017142,-0.5718071984799528,1,right
4.327,-0.5849534921250535,0.9551628041121426,0.02113210976409825,-1.5708389781934544,0.17332085656123986,0.7345975434311292,-0.305236528178693,0.17212574386072446,-0.5636595725221951,1,right
4.328,-0.5862124480309461,0.9547316598312338,0.021090098105302133,-1.5636409074426587,0.19144217027986885,0.7413487321917266,-0.300976939628186,0.1716481941592018,-0.5549915103078092,1,right
4.33,-0.5873897833271762,0.9543342464408673,0.02102270393138149,-1.5573661532373118,0.20845446695928158,0.7477761721820937,-0.2966722483178805,0.1712213237043875,-0.5458176429633786,1,right
4.331,-0.5884825880666518,0.9539707870004841,0.020929510270655254,-1.5520154763831642,0.22438476478294558,0.7538779107398091,-0.29232374357019153,0.17083540515613596,-0.5361527735091335,1,right
4.335,-0.5894880341211188,0.9536414693043603,0.02081007742225074,-1.5475866139820114,0.23926159824367246,0.7596528950400805,-0.2879326799530029,0.1704809322744613,-0.5260118555613423,1,right
4.336,-0.5904033834234006,0.953346443234144,0.02066394514563854,-1.5440743628013698,0.2531149071857127,0.7651009536449112,-0.28350028115237447,0.1701486299676378,-0.5154099716576553,1,right
4.34,-0.5912259952172014,0.9530858177604303,0.020490635248953493,-1.5414706789179193,0.2659759183309035,0.770222773519187,-0.2790277439873712,0.16982946295587525,-0.5043623112040068,1,right
4.341,-0.5919533322801788,0.9528596576978674,0.020289654573836573,-1.53976479362198,0.27787701933166997,0.7750198725302742,-0.2745162425420156,0.1695146431464318,-0.49288414817201265,1,right
4.342,-0.5925829661232832,0.9526679803161933,0.020060498369087194,-1.538943345572913,0.2888516253907455,0.779494567446781,-0.2699669323706602,0.16919563596144235,-0.4809908189115321,1,right
4.346,-0.5931125811971296,0.9525107519137563,0.01980265403925545,-1.5389905291979427,0.2989340384846255,0.783649937451199,-0.26538095472263884,0.16886416594052964,-0.4686977005734736,1,right
4.3469999999999995,-0.5935399781587285,0.9523878844816676,0.01951560524349616,-1.5398882593294747,0.30815929922501656,0.7874897831802098,-0.2607594407422678,0.1685122218595276,-0.45602019050499765,1,right
4.351,-0.5938630762646605,0.9522992326054261,0.019198836306226548,-1.541616351683654,0.31656303163428745,0.7910185813939403,-0.256103515618741,0.1681320614612838,-0.44297368674101867,1,right
4.352,-0.5940799149528069,0.9522445907407335,0.018851836891526322,-1.5441527168111209,0.3241812823304039,0.7942414358166442,-0.25141430267068293,0.167716215813721,-0.42957356958306336,1,right
4.353,-0.5941886546575564,0.9522236909662146,0.018474106889625055,-1.5474735615996384,0.3310503578140256,0.7971640254861767,-0.2466929273520854,0.16725749329413103,-0.41583518422909976,1,right
4.355,-0.5941875768851775,0.9522362012839293,0.01806516145511367,-1.5515535904363662,0.3372066647701217,0.7997925523908472,-0.24194052116625472,0.16674898319859194,-0.4017738244168911,1,right
4.356,-0.5940750835653205,0.9522817245203863,0.01762453611558018,-1.5563662001141527,0.3426865570721689,0.8021336897292489,-0.23715822547430213,0.16618405897529895,-0.3874047170424124,1,right
4.36,-0.5938496956906253,0.9523597978637034,0.01715179184909625,-1.5618836661221938,0.3475261909751852,0.8041945313320059,-0.23234719518461502,0.16555638108047588,-0.37274300771389646,1,right
4.361000000000001,-0.593510051256979,0.952469893045772,0.01664652002580324,-1.5680773199378615,0.35176138875976903,0.805982542341424,-0.22750860230966063,0.1648598994553927,-0.3578037472011464,1,right
4.3660000000000005,-0.5930549025243432,0.9526114171468794,0.01610834712330771,-1.5749177173334667,0.3554275108429645,0.8075055111557864,-0.2226436393763852,0.1640888556228521,-0.3426018787388703,1,right
4.367,-0.5924831126336999,0.9527837139717982,0.015536939147498458,-1.582374797713748,0.35855933636993237,0.8087715026442308,-0.21775352267639117,0.16323778440132924,-0.32715222614195066,1,right
4.371,-0.5917936516369975,0.9529860659230092,0.014932005710991984,-1.5904180345018142,0.36119095229867,0.8097888126373608,-0.2128394953419942,0.16230151523475117,-0.31146948268976266,1,right
4.371,-0.5909855920208699,0.9532176962795639,0.014293303736849602,-1.5990165765931272,0.3633556509883859,0.810565923697985,-0.20790283023418785,0.16127517313568954,-0.2955682007359051,1,right
4.374,-0.5900581038287311,0.9534777717812744,0.013620640764041894,-1.608139380898877,0.3650858363006006,0.811111462175637,-0.20294483262846963,0.16015417923951006,-0.2794627819989909,1,right
4.375,-0.5890104495061772,0.9537654054193538,0.012913877833818508,-1.6177553360017969,0.36641293822060395,0.8114341565478184,-0.19796684268441506,0.15893425096677893,-0.26316746848947664,1,right
4.379,-0.587841978607996,0.9540796593462753,0.01217293193696006,-1.627833376949048,0.3673673360055588,0.8115427970502137,-0.19297023768482066,0.15761140179096794,-0.24669633402688265,1,right
4.38,-0.586552122510148,0.9544195478363524,0.011397778006338472,-1.6383425912083132,0.36797828986428777,0.811446196597466,-0.18795643403017592,0.15618194060822846,-0.2300632763011665,1,right
4.385,-0.5851403892669361,0.9547840402493213,0.01058845044886807,-1.6492523158146593,0.3682738811726217,0.811153152995457,-0.18292688897416645,0.15464247070572146,-0.21328200943146952,1,right
4.386,-0.5836063587420258,0.9551720639681547,0.009745044223269696,-1.6605322257370552,0.3682809612271138,0.810672412445424,-0.1778831020858577,0.15298988832469523,-0.19636605697494805,1,right
4.39,-0.5819496781226784,0.9555825072981173,0.008867715481772624,-1.6721524134946628,0.3680251085389358,0.8100126343396542,-0.17282661642415906,0.1512213808141972,-0.1793287453379372,1,right
4.391,-0.5801700579029766,0.9560142223265291,0.007956681802394757,-1.6840834600541832,0.3675305946688631,0.8091823573479342,-0.16775901941012292,0.1493344243709905,-0.16218319754126792,1,right
4.395,-0.5782672683977078,0.9564660277520898,0.007012222042410496,-1.6962964970405936,0.36682035860342393,0.8081899667933911,-0.16268194338259248,0.14732678136092192,-0.14494232729117118,1,right
4.396,-0.5762411368252901,0.956936711699691,0.006034675844321824,-1.708763260294597,0.36591598967152966,0.8070436633158493,-0.15759706582267619,0.14519649721665506,-0.1276188333068536,1,right
4.399,-0.5740915449768061,0.9574250345424014,0.005024442826161934,-1.7214561348109938,0.36483771900021567,0.8057514328203359,-0.152506109232494,0.1429418969063438,-0.11022519385551816,1,right
4.4,-0.5718184274703784,0.9579297317576017,0.003981981488726636,-1.7343481910929994,0.3636044195074986,0.8043210177079004,-0.1474108406536143,0.14056158096747354,-0.09277366144532846,1,right
4.405,-0.5694217705749569,0.9584495168486945,0.0029078078703082353,-1.747413212958265,0.36223361442979585,0.8027598893854743,-0.14231307081057748,0.13805442109974786,-0.07527625762657826,1,right
4.406000000000001,-0.56690161157249,0.9589830843653717,0.0018024939734069883,-1.7606257168330037,0.3607414943808493,0.8010752220510737,-0.13721465286488518,0.13541955531053979,-0.057744767851124756,1,right
4.41,-0.5642580386124114,0.9595291130523192,0.0006666659808005132,-1.7739609625712047,0.35914294293865023,0.7992738677502522,-0.1321174807736374,0.13265638261555238,-0.040190736357874436,1,right
4.4110000000000005,-0.5614911910022343,0.9600862691486725,-0.0004989977264705127,-1.7873949558364077,0.35745157075646034,0.7973623326993359,-0.12702348729107124,0.1297645573443911,-0.022625461141458934,1,right
4.4110000000000005,-0.558601259874544,0.9606532098499186,-0.0016937687380599923,-1.8009044420839448,0.3556797581936753,0.7953467548706137,-0.12193464173059405,0.12674398318574515,-0.005059989222205847,1,right
4.414,-0.5555884891646592,0.9612285869311583,-0.002916870955735236,-1.8144668921819027,0.353838706461968,0.7932328828343242,-0.1168529476489871,0.12359480715392937,0.012494887475074518,1,right
4.415,-0.5524531768182965,0.9618110505150929,-0.004167483084713542,-1.8280604797093534,0.3519384972818795,0.7910260558519592,-0.1117804405703851,0.12031741361074669,0.0300286354154795,1,right
4.418,-0.5491956761357352,0.9623992529507437,-0.005444741244309711,-1.8416640501230142,0.3499881608563397,0.7887311852296368,-0.10671918578831165,0.11691241839090113,0.04753098186464187,1,right
4.419,-0.5458163971625267,0.9629918527558322,-0.006747741665012429,-1.855257082745701,0.3479957510251443,0.7863527370126613,-0.10167127623999223,0.11338066303140004,0.06499191644810659,1,right
4.42,-0.5423158080548873,0.9635875185711485,-0.008075543442934416,-1.8688196479016919,0.3459684247681771,0.7838947162328873,-0.09663883043837704,0.10972320909553165,0.08240169190980416,1,right
4.4239999999999995,-0.538694436366061,0.9641849330713061,-0.009427171326868041,-1.8823323622861854,0.3439125222827672,0.7813606529928998,-0.09162399044733897,0.10594133258163839,0.09975082411987872,1,right
4.4239999999999995,-0.534952870210118,0.9647827967652617,-0.010801618514225998,-1.8957763448939722,0.3418336448027018,0.778753590598131,-0.08662891988554952,0.10203651840654207,0.1170300913820102,1,right
4.428999999999999,-0.5310917592684979,0.9653798316101022,-0.012197849432962964,-1.909133174460684,0.3397367290223775,0.7760760758170421,-0.08165580194458073,0.09801045495311725,0.13423053309022406,1,right
4.43,-0.5271118156202114,0.9659747843651026,-0.013614802490350138,-1.922384848607808,0.3376261179317445,0.7733301512766235,-0.07670683740683129,0.09386502867115123,0.151343447785008,1,right
4.434,-0.5230138143972549,0.9665664296297775,-0.01505139277471992,-1.9355137447300428,0.3355056280560818,0.7705173499857308,-0.07178424264893211,0.08960231872027727,0.1683603906583551,1,right
4.435,-0.518798594286128,0.9671535725319264,-0.016506514700544005,-1.9485025826633338,0.33337861309458944,0.7676386919785687,-0.06689024761634972,0.08522459164341864,0.18527317055712708,1,right
4.441,-0.5144670579103814,0.9677350510537697,-0.017979044590144752,-1.961334389171614,0.3312480239517426,0.7646946830704391,-0.062027093754974984,0.08073429605884007,0.20207384653388002,1,right
4.442,-0.5100201721373875,0.9683097380029348,-0.01946784318805798,-1.973992464289931,0.32911646515532333,0.7616853157176733,-0.05719703188556089,0.07613405735856504,0.21875472399402043,1,right
4.4430000000000005,-0.5054589683559659,0.9688765426480719,-0.020971758107659933,-1.9864603495612365,0.32698624765502615,0.7586100719734812,-0.05240232000695493,0.07142667240058878,0.23530835048785992,1,right
4.444,-0.5007845427709167,0.9694344120461263,-0.022489626214362478,-1.9987217982036654,0.32485943799552175,0.7554679285312602,-0.04764522101416042,0.06661510418199287,0.2517275111958163,1,right
4.448,-0.4959980567569109,0.9699823320920693,-0.024020275954287733,-2.010760747244629,0.3227379038578612,0.7522573638467158,-0.04292800031735616,0.06170247647975237,0.2680052241546646,1,right
4.449,-0.49110073730893905,0.9705193283251867,-0.02556252963957622,-2.0225612916575093,0.32062335596310587,0.7489763673299585,-0.03825292334810546,0.056692068445718724,0.28413473527237654,1,right
4.453,-0.4860938776202921,0.9710444665309181,-0.027115205698964046,-2.034107660536139,0.318517386332076,0.7456224505985487,-0.033622252939093274,0.05158730914196275,0.300109513178701,1,right
4.453,-0.48097883781187933,0.9715568531829502,-0.02867712089463039,-2.0453841953416223,0.31642150289512805,0.7421926607822596,-0.029038246563845262,0.04639177200237222,0.3159232439582333,1,right
4.458,-0.47575704582889206,0.9720556357730926,-0.030247092497170502,-2.0563753302553596,0.31433716044589016,0.7386835958701289,-0.02450315342300336,0.041109169206117735,0.3315698258122941,1,right
4.459,-0.47042999851317985,0.9725400030730811,-0.03182394040413371,-2.0670655746714086,0.3122657879329076,0.7350914220901568,-0.020019211363859916,0.03574334594833014,0.3470433636954961,1,right
4.463,-0.464999262852634,0.9730091853635627,-0.03340648918455809,-2.0774394978605493,0.31020881208318185,0.7314118933117919,-0.015588643619986697,0.030298274593071908,0.36233816397241375,1,right
4.4639999999999995,-0.4594664774026648,0.9734624546548271,-0.03499357003203753,-2.08748171583759,0.3081676773516178,0.727640372461115,-0.01121365535793547,0.024778048693435403,0.37744872913929245,1,right
4.468,-0.4538333538706955,0.9738991249146458,-0.036584022612525746,-2.0971768804625937,0.30614386219043244,0.7237718549383914,-0.0068964300181337665,0.019186876863361884,0.39236975265523505,1,right
4.468999999999999,-0.44810167885308855,0.9743185523125261,-0.038176696797793626,-2.1065096708057895,0.30413889163261787,0.7198009940274135,-0.0026391254372527153,0.013529076485547858,0.40709611392679257,1,right
4.4719999999999995,-0.44227331571346135,0.9747201354870528,-0.03977045427713865,-2.115464786804991,0.3021543461835997,0.7157221282857866,0.0015561302605164968,0.007809067239589786,0.42162287348935645,1,right
4.473,-0.4363502065896426,0.9751033158432206,-0.04136417003921926,-2.1240269452433314,0.30019186701527867,0.7115293109050342,0.005687243015675151,0.0020313644343143786,0.4359452684282049,1,right
4.477,-0.43033437451254647,0.9754675778883063,-0.04295673371724398,-2.1321808780741005,0.2982531574567002,0.7072163410291031,0.009752157441344014,-0.0037994278719492586,0.45005870808149784,1,right
4.478,-0.42422792561447703,0.9758124496153305,-0.04454705079594206,-2.1399113331183752,0.2963399807756541,0.7027767970195384,0.013748861687833819,-0.009678623970443641,0.46395877005512304,1,right
4.479,-0.4180330513988799,0.9761375029402938,-0.04613404368459967,-2.147203077160002,0.29445415424557,0.6982040716552692,0.01767539250901211,-0.015601463782184558,0.47764119651961645,1,right
4.482,-0.41175203103980235,0.9764423541934777,-0.04771665266297871,-2.1540409014613298,0.29259753949214384,0.6934914092546016,0.02152984037536388,-0.02156312019901467,0.4911018906524122,1,right
4.4830000000000005,-0.405387233674622,0.976726664657345,-0.04929383670536671,-2.1604096297218613,0.2907720291142022,0.6886319447066515,0.025310354422855726,-0.02755870631970026,0.5043369130289724,1,right
4.488,-0.3989411206450753,0.9769901411345507,-0.05086457418438801,-2.1662941285007458,0.2889795295733915,0.6836187443990659,0.029015147082103596,-0.03358328246105955,0.517342477824814,1,right
4.489,-0.39241624763267696,0.9772325365210577,-0.05242786345307402,-2.1716793201227125,0.287221940347363,0.6784448490284815,0.03264249833220272,-0.03963186290643195,0.5301149487961827,1,right
4.49,-0.3858152666308101,0.9774536503544223,-0.05398272330265176,-2.176550198040909,0.28550112943255174,0.673103318214675,0.0361907595789579,-0.04569942239956692,0.5426508350655668,1,right
4.492,-0.3791409276981503,0.9776533293082819,-0.05552819329499926,-2.180891844404648,0.2838189057394429,0.6675872765135872,0.03965835716815331,-0.051780902401228734,0.5549467867494053,1,right
4.493,-0.37239608044434513,0.9778314676095257,-0.05706333397282485,-2.18468944917535,0.28217698974537003,0.6618899598383299,0.04304379554427876,-0.057871217125882196,0.5669995904646749,1,right
4.497,-0.3655836752048089,0.9779880073593805,-0.058587226957246254,-2.1879283299084427,0.2805769842266965,0.6560047609714679,0.046345660064902115,-0.06396525937587903,0.5788061647503594,1,right
4.498,-0.358706763863869,0.9781229387412229,-0.060098974949676524,-2.190593951541501,0.27902034643564305,0.649925273176704,0.04956261948064622,-0.07005790619060434,0.5903635554391206,1,right
4.502,-0.3517685002865794,0.9782363000997233,-0.061597701659324884,-2.1926719459306447,0.27750836226508396,0.6436453315031827,0.05269342809049268,-0.07614402432806802,0.6016689310137842,1,right
4.502,-0.34477214032342346,0.9783281778801068,-0.06308255167768662,-2.1941481310996593,0.2760421224880595,0.6371590517004234,0.05573692758189513,-0.0822184755964367,0.6127195779825558,1,right
4.507,-0.33772104135891223,0.9783987064201951,-0.06455269031861433,-2.195008530209465,0.27462250106753366,0.6304608667264052,0.05869204856494065,-0.08827612205299772,0.6235128963061599,1,right
4.508,-0.3306186613829315,0.9784480675891307,-0.06600730343817639,-2.1952393902538767,0.273250135532058,0.6235455608307502,0.06155781180955086,-0.0943118310880277,0.6340463949093732,1,right
4.512,-0.32346855757307713,0.978476490266431,-0.06744559724256555,-2.1948272004858604,0.27192540941313004,0.6164083011943613,0.0643333291944635,-0.10032048041100515,0.6443176873086937,1,right
4.513,-0.3162743843882887,0.9784842496550725,-0.06886679808622799,-2.1937587105767276,0.27064843674016975,0.6090446671062589,0.06701780437648179,-0.10629696295655794,0.6543244873871443,1,right
4.516,-0.30903989118748565,0.9784716664227809,-0.07027015225866236,-2.192020948508906,0.26941904858917276,0.6014506766577417,0.0696105331882222,-0.11223619172747344,0.6640646053464682,1,right
4.5169999999999995,-0.3017689193987946,0.9784391056661097,-0.07165492575793675,-2.1896012382010723,0.2682367816812342,0.593622810933358,0.07211090377233202,-0.11813310459202203,0.6735359438662158,1,right
4.521,-0.2944653992739821,0.9783869756924733,-0.07302040405116712,-2.186487216862552,0.26710086902727564,0.5855580356775274,0.0745183964598873,-0.12398266905275136,0.6827364944984674,1,right
4.522,-0.2871333462692255,0.9783157266169171,-0.07436589182553348,-2.1826668520719577,0.2660102326154412,0.5772538204149853,0.07683258340041788,-0.1297798870038025,0.6916643343261646,1,right
4.5280000000000005,-0.2797768570979904,0.9782258487736083,-0.0756907127355565,-2.178128458573101,0.26496347813776566,0.5687081550025603,0.07905312795074142,-0.13551979949367743,0.7003176229122591,1,right
4.529,-0.2724001055049757,0.9781178709462165,-0.07699420915182617,-2.1728607147791963,0.2639588917528483,0.5599195635891099,0.08117978382952133,-0.14119749151025146,0.7086945995661017,1,right
4.532,-0.26500733781198876,0.9779923584255302,-0.07827574191423813,-2.166852678974362,0.26299443888139723,0.5508871159597533,0.08321239404419625,-0.14680809680467324,0.7167935809527162,1,right
4.532,-0.2576028682868621,0.97784991090696,-0.07953469009066938,-2.1600938051993523,0.26206776503163276,0.5416104362398506,0.08515088959665933,-0.1523468027706317,0.7246129590698135,1,right
4.5360000000000005,-0.2501910743849167,0.9776911602459168,-0.08077045074041102,-2.15257395880637,0.2611761986516599,0.5320897089334782,0.08699528797379646,-0.15780885539528947,0.7321511996166075,1,right
4.537,-0.2427763919100434,0.9775167680955873,-0.08198243868088034,-2.144283431665672,0.26031675600603427,0.5223256822704504,0.08874569142872236,-0.1631895642979903,0.7394068407776931,1,right
4.54,-0.23536331014048645,0.9773274234588882,-0.08317008625624112,-2.13521295700453,0.25948614807385323,0.5123196688352413,0.09040228505828325,-0.16848430787264165,0.7463784924444492,1,right
4.541,-0.22795636696172822,0.9771238401936739,-0.0843328431070413,-2.125353723856928,0.25868078946580514,0.5020735434504545,0.09196533468212507,-0.17368853854945296,0.7530648358956156,1,right
4.545,-0.22056014404220292,0.9769067545151908,-0.08547017594066796,-2.1146973911001536,0.2578968093577006,0.4915897382867976,0.09343518452835577,-0.17879778819147757,0.7594646239578876,1,right
4.546,-0.2131792620757765,0.9766769225388163,-0.08658156830382173,-2.103236101052213,0.25713006443809117,0.4808712351708174,0.09481225473356875,-0.18380767363307418,0.7655766816560026,1,right
4.547,-0.2058183761008309,0.976435117898309,-0.08766652036042628,-2.090962492601722,0.2563761538676543,0.4699215550609695,0.09609703867976284,-0.1887139023267248,0.7713999073082348,1,right
4.552,-0.19848217089298353,0.9761821294634384,-0.08872454868070753,-2.0778697138396485,0.25563043624808346,0.45874474466190956,0.09729010021749296,-0.19351227799161638,0.7769332739274561,1,right
4.553,-0.1911753564189127,0.9759187591710322,-0.08975518604883125,-2.063951434159965,0.25488804859827113,0.44734536014622417,0.09839207083935647,-0.1981987061166874,0.7821758307343515,1,right
4.555,-0.18390266333266617,0.9756458199766731,-0.09075798129656874,-2.0492018557939367,0.25414392733560853,0.43572844795215254,0.09940364685261796,-0.20276919921096495,0.7871267046412925,1,right
4.556,-0.1766688384919336,0.9753641339274622,-0.09173249916817472,-2.033615724740417,0.2533928312602499,0.4238995226252028,0.10032558657244564,-0.20721988176646236,0.7917851016594704,1,right
4.5569999999999995,-0.16947864046886374,0.9750745303477275,-0.09267832021817551,-2.0171883410749634,0.25262936649442697,0.41186454173978043,0.10115870754193418,-0.21154699493900847,0.7961503082338008,1,right
4.562,-0.16233683502841695,0.9747778441222538,-0.0935950407417026,-1.9999155687321954,0.25184801310003985,0.39962987828060514,0.10190388378182111,-0.21574690096012988,0.8002216925198214,1,right
4.563,-0.1552481905477322,0.974474914058275,-0.0944822727370233,-1.9817938450586532,0.25104315268579497,0.38720229148278323,0.10256204307254736,-0.21981608729276347,0.80399870561596,1,right
4.566,-0.14821747335215157,0.9741665813055385,-0.09533964390040821,-1.9628201905449973,0.2502090960862695,0.37458889747309415,0.10313416427105708,-0.22375117054322202,0.8074808827637159,1,right
4.567,-0.1412494429465026,0.9738536878097005,-0.09616679765391263,-1.9429922190299598,0.24934011042408552,0.3617971407101959,0.10362127466447946,-0.22754890014147078,0.810667844527447,1,right
4.571000000000001,-0.1343488471246377,0.9735370747705262,-0.0969633932080989,-1.9223081484607931,0.24843044527824423,0.34883476660119794,0.10402444736258527,-0.23120616180139716,0.8135592979646127,1,right
4.571000000000001,-0.12752041694713476,0.9732175810774193,-0.09772910566409225,-1.9007668121785097,0.24747435791044234,0.33570979532723905,0.104344798730664,-0.23471998077237147,0.8161550377964748,1,right
4.575,-0.12076886158525366,0.9728960417010151,-0.09846362616120127,-1.8783676706709453,0.24646613754686097,0.3224304968413394,0.10458348586422317,-0.23808752489300072,0.818454947588411,1,right
4.575,-0.11409886303613574,0.9725732860290311,-0.09916666207658757,-1.8551108237342269,0.24540012871280167,0.3090053670013067,0.10474170410667047,-0.24130610745757702,0.8204590009481477,1,right
4.579,-0.10751507071832671,0.9722501361462301,-0.0998379372817512,-1.8309970229807595,0.2442707536174108,0.29544310480000935,0.10482068461090152,-0.24437318990530751,0.822167262749368,1,right
4.58,-0.1010220959584464,0.9719274050700207,-0.10047719245721401,-1.8060276846293868,0.2430725335855838,0.28175259065488745,0.10482169194548144,-0.24728638434199451,0.8235798903873016,1,right
4.585,-0.09462450638105481,0.9716058949615008,-0.1010841854627342,-1.780204902510913,0.24180010953397474,0.26794286571815357,0.10474602174587747,-0.25004345590340665,0.8246971350720547,1,right
4.587,-0.08832682021557355,0.9712863953349171,-0.10165869175677861,-1.7535314612197224,0.2404482614878551,0.25402311216874085,0.10459499841097214,-0.2526423249691463,0.8255193431645866,1,right
4.59,-0.08213350053572446,0.9709696812865568,-0.10220050485636112,-1.7260108493397643,0.23901192713536829,0.24000263444669015,0.10436997284486288,-0.25508106923537816,0.826046957559394,1,right
4.591,-0.07604894944758969,0.9706565117578007,-0.1027094368262965,-1.697647272670733,0.23748621941551298,0.22589084139032267,0.1040723202437333,-0.257357925654334,0.8262805191171089,1,right
4.593999999999999,-0.07007750224281845,0.970347627838424,-0.10318531878446473,-1.6684456673778199,0.23586644313596108,0.21169722923623177,0.10370343792736536,-0.2594712922480558,0.8262206681493778,1,right
4.595,-0.06422342153496839,0.9700437511074382,-0.10362800140647159,-1.6384117129859925,0.23414811061657353,0.19743136544183626,0.10326474321464903,-0.26141972980337885,0.8258681459575363,1,right
4.6,-0.058490891400082526,0.9697455820016236,-0.10403735541091483,-1.6075518451373263,0.2323269563542208,0.18310287328997663,0.10275767134223707,-0.2632019634546928,0.8252237964257528,1,right
4.601,-0.052884011546931245,0.9694537981980966,-0.10441327200869017,-1.5758732680275114,0.23039895070424551,0.16872141723480003,0.1021836734252886,-0.26481688416054866,0.8242885676684686,1,right
4.604,-0.047406791546003184,0.9691690529977794,-0.10475566330649483,-1.5433839664352746,0.22836031257362144,0.1542966889479733,0.10154421445904396,-0.2662635500797052,0.8230635137311263,1,right
4.605,-0.04206314514678091,0.9688919737009163,-0.10506446266161519,-1.510092717256075,0.2262075211205685,0.13983839402408213,0.10084077135977784,-0.2675411878517341,0.8215497963423365,1,right
4.609,-0.03685688471023118,0.9686231599718839,-0.1053396249903262,-1.4760091004490876,0.22393732645507705,0.12535623930392362,0.10007483104348426,-0.2686491937868191,0.8197486867147988,1,right
4.61,-0.031791715780979356,0.9683631821968861,-0.10558112703721466,-1.441143509304164,0.22154675933447748,0.11085992077427455,0.09924788854046,-0.26958713496890524,0.8176615673914583,1,right
4.614,-0.026871231822849652,0.9681125798445664,-0.10578896761542131,-1.4055071599331455,0.21903313984786368,0.09635911200262186,0.09836144514376881,-0.27035475027586575,0.8152899341325537,1,right
4.615,-0.022098909140469306,0.9678718598456505,-0.1059631678246918,-1.3691120998876483,0.21639408508284233,0.08186345306527208,0.09741700659082993,-0.2709519513172121,0.8126353978379875,1,right
4.617,-0.017478102006094225,0.967641495010973,-0.10610377124744139,-1.3319712158031793,0.2136275157677347,0.06738253992721728,0.09641608128440403,-0.2713788232760973,0.8096996864966264,1,right
4.619,-0.013012038005003399,0.9674219225059209,-0.10621084411749619,-1.294098239967234,0.2107316618820049,0.05292591423212081,0.09536017857204587,-0.2716356256179583,0.80648464714973,1,right
4.62,-0.008703813608763966,0.9672135423961602,-0.10628447545251819,-1.2555077557068541,0.20770506722732898,0.03850305346080152,0.09425080711013109,-0.2717227926143674,0.8029922478528988,1,right
4.624,-0.004556389986036582,0.967016716278071,-0.10632477713835833,-1.2162152014889769,0.20454659295135294,0.02412336141663722,0.09308947333119752,-0.2716409336434604,0.7992245796221168,1,right
4.624,-0.0005725890621794612,0.9668317660072928,-0.10633188395423071,-1.1762368736248106,0.20125542001581842,0.009796158996377799,0.09187768002021655,-0.2713908332517374,0.7951838583522609,1,right
4.625,0.0032449101623250065,0.9666589725383387,-0.1063059535350328,-1.1355899274921746,0.19783105061051123,-0.0044693247861484495,0.09061692499805124,-0.2709734509748288,0.7908724266976498,1,right
4.629,0.006893575029257124,0.9664985748870374,-0.10624716627836937,-1.094292377311574,0.19427330856487826,-0.01866396151134507,0.08930869990876857,-0.2703899209169951,0.7862927559038129,1,right
4.63,0.010371022377500174,0.9663507692268016,-0.10615572521196681,-1.052363094732723,0.19058233890015636,-0.03277873170786528,0.08795448910732774,-0.2696415510886429,0.7814474475788777,1,right
4.6339999999999995,0.013675021444728767,0.9662157081314893,-0.10603185584104129,-1.0098218066101559,0.18675860671524214,-0.046804732712368666,0.08655576864402584,-0.2687298225006604,0.7763392353921935,1,right
