time,gFx,gFy,gFz,ax,ay,az,wx,wy,wz,subject_number,foot
4.367,-0.09747990466513573,0.9604722835856245,-0.04368662709742159,0.8347051911500233,0.17610761696653834,-0.2454604336848079,-0.04387916166837728,0.1421568605331327,-0.09046768648527315,3,right
4.369,-0.09931315810178165,0.9601551091163426,-0.043217271395848356,0.8438185269790546,0.17425652656283042,-0.25103490230015657,-0.04567754709482315,0.13998274065983898,-0.09772895332634926,3,right
4.37,-0.101203698518182,0.9598880844723623,-0.042744907036250904,0.8529718376753843,0.17219546267037375,-0.25655202847087155,-0.04749221345901153,0.13778081798141187,-0.10501845613002798,3,right
4.375,-0.10315039053198856,0.9596733449520635,-0.04227027716998153,0.8621548298033405,0.1699264791636727,-0.26200560679709917,-0.049322319957568146,0.13555339843933692,-0.11233270127595002,3,right
4.376,-0.1051519890286757,0.9595130135916167,-0.04179410889744518,0.8713567781289515,0.1674519926210421,-0.2673895914210572,-0.05116701551097289,0.13330292275413427,-0.11966804886296778,3,right
4.379,-0.10720713917177599,0.9594091970797535,-0.04131711127579344,0.8805665449078613,0.1647747846837594,-0.27269810601893535,-0.05302543979300718,0.13103196691467153,-0.1270207146715291,3,right
4.379,-0.10931437671563936,0.9593639816135026,-0.04083997335457048,0.8897725994431916,0.16189800423300613,-0.27792545333905655,-0.054896724297067885,0.1287432421846741,-0.13438677247236472,3,right
4.3839999999999995,-0.11147212867638204,0.9593794287180992,-0.04036336223074462,0.8989630379397625,0.1588251693774966,-0.28306612430175493,-0.05677999344464519,0.12643959461997295,-0.14176215670254397,3,right
4.386,-0.1136787144127589,0.9594575710521281,-0.039887921127533685,0.908125603681105,0.1555601692441092,-0.2881148066762067,-0.058674365741301415,0.12412400408997272,-0.14914266553001215,3,right
4.388999999999999,-0.11593234716006331,0.959600408218105,-0.03941426751000514,0.9172477075556844,0.15210726556326387,-0.29306639334921936,-0.06057895498552447,0.12179958279677033,-0.15652396432776183,3,right
4.39,-0.11823113604788342,0.9598099026000135,-0.03894299125283918,0.9263164489587118,0.14847109404022654,-0.2979159902007354,-0.06249287153586429,0.11946957328531362,-0.16390158957881645,3,right
4.393,-0.12057308861942383,0.9600879752522323,-0.038474652873658165,0.9353186370958358,0.14465666550297065,-0.30265892360054353,-0.06441522364179235,0.11713734593795423,-0.1712709532332191,3,right
4.394,-0.12295611385897973,0.9604365018662241,-0.038009781840217804,0.9442408127148954,0.14066936681668588,-0.30729074754041086,-0.06634511884375367,0.11480639594672427,-0.17862734753822118,3,right
4.399,-0.12537802572554912,0.960857308840267,-0.037548874953568415,0.9530692702917534,0.1365149615544997,-0.31180725041555807,-0.06828166544790756,0.11248033975665074,-0.18596595036285565,3,right
4.4,-0.12783654718113638,0.9613521694734144,-0.03709239480596754,0.9617900806960475,0.13219959041346516,-0.31620446146909253,-0.07022397408107768,0.1101629109734151,-0.19328183103805405,3,right
4.404,-0.13032931468831038,0.9619228002987831,-0.036640768314938704,0.9703891143624555,0.12772977136437297,-0.3204786569126973,-0.0721711593314535,0.10785795572866984,-0.20056995673343078,3,right
4.405,-0.1328538831338362,0.96257085756463,-0.0361943853430426,0.978852064992809,0.1231123995234666,-0.3246263657365409,-0.07412234148060437,0.10556942749633781,-0.2078251993918051,3,right
4.41,-0.13540773111771312,0.9632979338657806,-0.035753597422949535,0.9871644738140773,0.11835474673367764,-0.3286443752210331,-0.07607664833238414,0.10330138135324518,-0.21504234324246688,3,right
4.4110000000000005,-0.1379882665341589,0.9641055549233827,-0.0353187166147052,0.9953117544168945,0.11346446084255554,-0.3325297361626968,-0.07803321713989238,0.1010579676849936,-0.22221609290007147,3,right
4.412,-0.14059283236902992,0.9649951765087298,-0.034890014523506374,1.0032792181989083,0.10844956466364283,-0.3362797678260652,-0.07999119660954053,0.09884342537561698,-0.22934108198575218,3,right
4.413,-0.1432187126496476,0.9659681815078259,-0.034467721501866236,1.0110521004225226,0.10331845460636135,-0.33989206262285215,-0.08194974892144849,0.09666207458729321,-0.236411882080564,3,right
4.414,-0.14586313849924648,0.9670258771256387,-0.034052026053306254,1.0186155868247335,0.09807989895267567,-0.34336449046782364,-0.08390805168327428,0.09451830927404532,-0.2434230117510459,3,right
4.414,-0.1485232942557337,0.9681694922295124,-0.03364307444822489,1.0259548405877432,0.09274303574688884,-0.34669520266781856,-0.08586529975671268,0.09241658953585645,-0.2503689454567512,3,right
4.417,-0.15119632360778343,0.9694001748290285,-0.03324097055531336,1.033055029407079,0.08731737025817433,-0.349882635148532,-0.08782070693573261,0.09036143385205272,-0.25724412227580346,3,right
4.419,-0.15387933568653345,0.9707189896861702,-0.032845775884052394,1.0399013524647391,0.08181277198155822,-0.35292551087471197,-0.0897735074777514,0.08835741119532371,-0.26404295445456616,3,right
4.423,-0.1565694110412779,0.9721269160467182,-0.032457509829004326,1.0464790672427462,0.07623947115433842,-0.3558228414116074,-0.09172295749336698,0.08640913302035226,-0.27075983580136936,3,right
4.4239999999999995,-0.15926360743101495,0.9736248454820015,-0.03207615010679176,1.0527735161831948,0.07060805477109205,-0.35857392762653345,-0.09366833620026367,0.08452124512115994,-0.27738914994403063,3,right
4.428,-0.16195896537824558,0.9752135798292851,-0.03170163337910643,1.0587701532144307,0.0649294620814795,-0.36117835953929284,-0.09560894704689973,0.08269841935142089,-0.2839252784706896,3,right
4.428,-0.1646525134507617,0.9768938292179926,-0.031333856054802066,1.064454570162223,0.05921497955485749,-0.36363601532977463,-0.09754411871157555,0.08094534520215715,-0.29036260897324057,3,right
4.4319999999999995,-0.16734127325646295,0.978666210166711,-0.03097267525872266,1.0698125230639834,0.05347623529554725,-0.3659470595106333,-0.09947320598246939,0.07926672123140212,-0.2966955430123945,3,right
4.433,-0.17002226415293747,0.9805312437346873,-0.030617909947355512,1.074829958403227,0.04772519289246889,-0.3681119402725299,-0.10139559052421418,0.07766724634060573,-0.3029185040231352,3,right
4.437,-0.17269250768865907,0.9824893537146563,-0.03026934214680816,1.079493039280572,0.04197414468675083,-0.3701313860089955,-0.10331068153657313,0.07615161089275559,-0.3090259451790505,3,right
4.438,-0.17534903180843905,0.9845408648613899,-0.029926718288582045,1.0837881715366435,0.03623570444085436,-0.3720064010275567,-0.1052179163107548,0.07472448766740158,-0.31501235723371906,3,right
4.442,-0.17798887487145063,0.9866860011583481,-0.02958975061935244,1.0877020298412632,0.0305227993927184,-0.37373826045334424,-0.1071167606888884,0.0733905226479995,-0.3208722763570175,3,right
4.4430000000000005,-0.180609089542124,0.9889248841286241,-0.02925811865757944,1.0912215837622918,0.024848661678430434,-0.37532850433098774,-0.10900670943216012,0.07215432563722954,-0.326600291983882,3,right
4.448,-0.1832067466194908,0.9912575311950178,-0.028931470663049894,1.0943341238264344,0.019226819106966577,-0.37677893093018644,-0.11088728650308825,0.07102046069620005,-0.33219105469270876,3,right
4.449,-0.18577893886928157,0.9936838540911145,-0.02860942508252179,1.0970272875832232,0.013671085270617504,-0.378091589259934,-0.11275804526739039,0.0699934364037142,-0.3376392841302162,3,right
4.454,-0.18832278491831697,0.9962036573247317,-0.028291571941040667,1.0992890856822641,0.00819554897482914,-0.3792687707959694,-0.11461856862087175,0.06907769593205826,-0.3429397769992131,3,right
4.455,-0.1908354332650387,0.9988166366981464,-0.027977474162117065,1.1011079279726572,0.002814562971337804,-0.38031300042562516,-0.1164684690467355,0.0682776069360639,-0.34808741512532054,3,right
4.457,-0.1933140664526725,1.001522377894775,-0.027666668814317265,1.1024726496323065,-0.002457268021329983,-0.3812270266138494,-0.11830738860868852,0.06759745125250356,-0.3530771736182896,3,right
4.457,-0.1957559054398135,1.0043203551479374,-0.02735866829086281,1.1033725373335888,-0.0076051000256918576,-0.3820138107937877,-0.12013499888518676,0.06704141440719785,-0.35790412914312886,3,right
4.461,-0.19815821418567395,1.007209930013133,-0.027052961429293854,1.1037973554505847,-0.012613863256904834,-0.382676515984932,-0.12195100085013347,0.06661357492754554,-0.36256346831581987,3,right
4.462,-0.20051830444537402,1.0101903502695404,-0.026749014574301816,1.1037373723117665,-0.017468276333233973,-0.38321849464146646,-0.12375512470531223,0.06631789345853138,-0.3670504962379441,3,right
4.468,-0.2028335407488265,1.0132607489782863,-0.026446272588923053,1.1031833865007081,-0.022152861260150387,-0.38364327573307977,-0.12554712966980486,0.06615820168062318,-0.3713606451840774,3,right
4.468,-0.20510134551949188,1.0164201437253908,-0.026144159831451567,1.102126753206017,-0.0266519592024145,-0.3839545510601528,-0.12732680373160982,0.06613819102833748,-0.3754894834553266,3,right
4.4719999999999995,-0.20731920427818995,1.0196674360771971,-0.025842081129245322,1.100559410620295,-0.030949747058056684,-0.3841561608048882,-0.12909396336664394,0.06626140120863283,-0.37943272441188897,3,right
4.4719999999999995,-0.20948467087043074,1.0230014112756578,-0.025539422785891816,1.0984739063865154,-0.035030254847679056,-0.38425207831960806,-0.13084845323027458,0.0665312085186797,-0.3831862356970063,3,right
4.476,-0.2115953726501239,1.026420738200045,-0.025235553654492617,1.0958634240887697,-0.03887738393196913,-0.3842463941531238,-0.13259014582649467,0.06695081396295735,-0.38674604866416634,3,right
4.477,-0.21364901554748203,1.0299239696200282,-0.024929826304346106,1.092721809782859,-0.04247492606973724,-0.3841432993157649,-0.13431894115786863,0.06752323118126036,-0.3901083680079799,3,right
4.477,-0.21564338894958518,1.0335095427623666,-0.02462157830562617,1.0890435985607287,-0.04580658332816541,-0.38394706778335147,-0.1360347663496006,0.06825127425572637,-0.3932695815441727,3,right
4.481,-0.21757637033023508,1.0371757802110262,-0.02431013365527306,1.084824041141231,-0.048855988856284366,-0.38366203824010314,-0.1377375752235071,0.06913754556642146,-0.3962262699855667,3,right
4.481,-0.21944592957086925,1.0409208911600991,-0.023994804365449034,1.0800591304483047,-0.051606728515752064,-0.3832925950856253,-0.13942734778789911,0.07018442392156578,-0.3989752165059143,3,right
4.482,-0.22125013291083961,1.0447429730396294,-0.02367489223300435,1.0747456279867338,-0.054042363281110575,-0.38284314885798787,-0.14110408961908127,0.07139405313282067,-0.40151341593731654,3,right
4.486000000000001,-0.2229871464633003,1.0486400135332234,-0.023349690802770266,1.068881089555213,-0.0561464521748493,-0.38231811645350955,-0.1427678311276714,0.0727683311055182,-0.4038380835443771,3,right
4.487,-0.22465523923386552,1.0526098930015564,-0.02301848752905487,1.062463889685491,-0.05790257542061229,-0.3817219016507592,-0.14441862671264674,0.07430889945806676,-0.40594666337209073,3,right
4.4910000000000005,-0.22625278557359854,1.0566503873178834,-0.02268056613145413,1.0554932443441787,-0.05929435757811408,-0.38105887631891616,-0.14605655380793364,0.07601713367401175,-0.4078368361747541,3,right
4.492,-0.2277782669906261,1.060759171111044,-0.02233520913644319,1.047969231701112,-0.06030549056841459,-0.3803333624615588,-0.1476817118263205,0.07789413379070267,-0.40950652693256945,3,right
4.496,-0.22923027324871037,1.0649338214000503,-0.021981700596496324,1.0398928109159555,-0.06091975657833621,-0.3795496151196069,-0.14929422100543602,0.07994071562899543,-0.4109539119619962,3,right
4.496,-0.23060750269666624,1.0691718215949415,-0.021619328980296143,1.0312658389230243,-0.06112105084798623,-0.3787118061315219,-0.15089422116049886,0.08215740256889949,-0.41217742562527276,3,right
4.501,-0.23190876179215503,1.0734705658323573,-0.021247390225421065,1.0220910851927112,-0.06089340434425421,-0.3778240087486906,-0.1524818703485071,0.0845444178765635,-0.4131757666439035,3,right
4.503,-0.23313296380435938,1.0778273636112552,-0.020865190938727407,1.0123722444463201,-0.06022100632201436,-0.3768901831037496,-0.1540573434485005,0.08710167758848023,-0.41394790402026543,3,right
4.505,-0.23427912670434894,1.0822394446949384,-0.020472051724939645,1.0021139472995306,-0.059088226773576925,-0.3759141625294518,-0.15562083066249205,0.08982878395927878,-0.41449308257084505,3,right
4.506,-0.23534637028104102,1.0867039642499774,-0.020067310622920657,0.9913217688081428,-0.05747963876570027,-0.3748996407255341,-0.15717253594163014,0.09272501947996158,-0.41481082807397246,3,right
4.511,-0.2363339125531558,1.0912180081975262,-0.019650326626658332,0.9800022348881952,-0.05538004066219855,-0.373850159770911,-0.15871267534211764,0.09578934147393123,-0.41490095203426886,3,right
4.511,-0.2372410655799748,1.0957785987534314,-0.01922048325915778,0.968162826580997,-0.05277447822885766,-0.37276909897839855,-0.16024147531537994,0.09902037727864017,-0.4147635560653727,3,right
4.515,-0.2380672308006227,1.100382700127991,-0.01877719215546887,0.9558119821320865,-0.04964826661600538,-0.3716596645890624,-0.16175917093693987,0.1024164200211811,-0.4143990358918563,3,right
4.515,-0.2388118940480846,1.1050272243452137,-0.01831989660433762,0.9429590968516133,-0.045987012212672256,-0.37052488030318187,-0.16326600407842448,0.10597542499661781,-0.4138080849705929,3,right
4.52,-0.2394746203896626,1.1097090371291116,-0.017848074999750954,0.9296145207221499,-0.04177663436482626,-0.3693675786447304,-0.16476222152709605,0.1096950066583349,-0.41299169773118016,3,right
4.52,-0.24005504894208024,1.114424963796258,-0.01736124415921662,0.9157895537184739,-0.03700338694866959,-0.3681903931561936,-0.16624807305726766,0.11357243623015799,-0.4119511724343734,3,right
4.526,-0.24055288779721962,1.119171795092537,-0.016858962467532487,0.9014964388024204,-0.031653879788449406,-0.3669957514204698,-0.16772380945793286,0.11760463995046318,-0.4106881136468342,3,right
4.526,-0.2409679091733293,1.1239462929171873,-0.016340832799591316,0.8867483525544917,-0.025715099906657674,-0.36578586890653464,-0.169189680520908,0.1217881979589553,-0.409204434329852,3,right
4.531000000000001,-0.2412999448802872,1.1287451958872146,-0.015806505168003603,0.8715593934025366,-0.019174432592878904,-0.36456274363549285,-0.170645932993756,0.12611934383724716,-0.40750235753905173,3,right
4.532,-0.24154888216418144,1.1335652247091847,-0.015255679041438425,0.8559445674064673,-0.01201968227589016,-0.3633281516635904,-0.1720928085017321,0.13059396481481575,-0.4055844177314647,3,right
4.5360000000000005,-0.24171465998304237,1.1384030873422526,-0.014688105295089978,0.8399197715566769,-0.004239093181925565,-0.3620836433787154,-0.17353054144296248,0.13520760265234583,-0.40345346167570406,3,right
4.5360000000000005,-0.24179726576254107,1.1432554839549969,-0.014103587783120394,0.823501774542555,0.004178630239710524,-0.3608305406068786,-0.1749593568610403,0.1399554552148939,-0.401112648960362,3,right
4.539,-0.24179673268180332,1.1481191116983842,-0.013501984554082833,0.806708194946281,0.01324430314426069,-0.35956993452512864,-0.1763794682991957,0.14483237874771776,-0.3985654520951233,3,right
4.54,-0.24171313753701293,1.1529906693350958,-0.012883208751224836,0.7895574768158916,0.02296824039473786,-0.35830268437733176,-0.1777910756401708,0.1498328908680147,-0.3958156561984824,3,right
4.544,-0.24154659921914015,1.1578668617758525,-0.012247229237889474,0.7720688625705008,0.03336023696496012,-0.3570294169892165,-0.17919436293590452,0.1549511742861966,-0.39286735826534525,3,right
4.545,-0.24129727782320465,1.1627444045724586,-0.011594070962575172,0.7542623631894664,0.044429548668462396,-0.3557505270790655,-0.1805894962323326,0.16018108126415156,-0.3897249660133927,3,right
4.546,-0.24096537438697485,1.1676200284067586,-0.0109238150468396,0.7361587256362753,0.056184873241240406,-0.3544661783604142,-0.18197662140071127,0.1655161387855509,-0.3863931963374276,3,right
4.55,-0.2405511312427317,1.1724904835993937,-0.010236598565789585,0.7177793974669493,0.06863433180820017,-0.35317630543309986,-0.18335586199787665,0.17094955435465742,-0.38287707345602445,3,right
4.551,-0.2400548329543234,1.1773525446448854,-0.009532614002973623,0.6991464885718651,0.08178545076513109,-0.3518806164589877,-0.18472731718395635,0.17647422230766707,-0.3791819268651727,3,right
4.552,-0.23947680779954258,1.1822030147621436,-0.00881210839045021,0.6802827300736449,0.09564514411512057,-0.35057859661698276,-0.1860910597198991,0.18208273055366103,-0.3753133891821329,3,right
4.555,-0.23881742975045733,1.187038730438368,-0.008075382173829552,0.6612114307760842,0.11021969632597334,-0.3492695123234139,-0.18744713405613764,0.18776736772146818,-0.3712773939065284,3,right
4.556,-0.23807712090638145,1.1918565659445024,-0.007322787854341542,0.6419564322299247,0.12551474582338795,-0.3479524161885502,-0.18879555451755003,0.19352013072174412,-0.36708017309425583,3,right
4.56,-0.2372563543360076,1.1966534378056077,-0.006554728454145194,0.6225420638537184,0.14153526926232962,-0.3466261526714821,-0.19013630358863712,0.1993327327403617,-0.3627282549331126,3,right
4.561,-0.23635565727625027,1.2014263092102957,-0.005771655836406297,0.6029930991743359,0.15828556669543822,-0.3452893644040878,-0.19146933030281166,0.20519661167942627,-0.35822846120856144,3,right
4.564,-0.2353756146204299,1.2061721943402797,-0.004974068887349946,0.5833347135795721,0.17576924771320393,-0.3439404991700907,-0.19279454873967325,0.21110293906242417,-0.35358790464758755,3,right
4.565,-0.23431687261893522,1.210888162599289,-0.004162511533596912,0.5635924436017511,0.19398921860707294,-0.3425778175336946,-0.19411183663412002,0.2170426294201837,-0.3488139861281628,3,right
4.569,-0.23318014271589355,1.2155713427209336,-0.0033375705465671732,0.5437921476762233,0.21294767060361003,-0.34119940111395297,-0.19542103410112643,0.22300635017447543,-0.34391439174140415,3,right
4.569,-0.2319662054534118,1.220218926736263,-0.002499873103826399,0.5239599683183379,0.23264606921995046,-0.33980316150099277,-0.19672194247999422,0.228984532036199,-0.33889708969311133,3,right
4.574,-0.2306759143856177,1.2248281737839706,-0.0016500841332698862,0.5041222956622319,0.2530851447928869,-0.3383868498101755,-0.1980143233018602,0.23496737993519998,-0.333770327030987,3,right
4.575,-0.22931019995415355,1.2293964137504214,-0.0007889035264531465,0.48430573230461044,0.27426488423605705,-0.3369480668702296,-0.19929789738422118,0.24094488449882778,-0.32854262618348035,3,right
4.579,-0.2278700732849246,1.2339210507323102,8.293665801932099e-05,0.464537059396604,0.2961845240818219,-0.3354842740413392,-0.20057234405621316,0.24690683409638794,-0.32322278129585885,3,right
4.581,-0.22635662987402438,1.2383995663188643,0.000964674874604286,0.44484320392676985,0.31884254486655084,-0.33399280465911557,-0.20183730051835647,0.2528428274666539,-0.31781985434879906,3,right
4.583,-0.22477105313806664,1.2428295226916628,0.0018555225491559749,0.4252512071383688,0.3422366669201548,-0.3324708761003122,-0.2030923613404537,0.258742286945588,-0.31234317104449705,3,right
4.584,-0.22311461780945466,1.2472085655399172,0.0027546662691097564,0.4057881940241845,0.3663638476228347,-0.3309156024660723,-0.20433707810130078,0.2645944723113768,-0.3068023164450362,3,right
4.588,-0.22138869316196544,1.251534426788712,0.003661269753290181,0.3864813438423689,0.39122028019412963,-0.3293240078784193,-0.20557095917384413,0.27038849526380987,-0.3012071303475103,3,right
4.5889999999999995,-0.2195947460599002,1.2558049271349685,0.004574475738120291,0.3673578615970893,0.41680139408146416,-0.32769304038561053,-0.2067934696593884,0.27611333455492715,-0.29556770238019053,3,right
4.593,-0.21773434383657256,1.260017978378411,0.005493407953314627,0.34844495042812335,0.4431018570174971,-0.3260195864718811,-0.20800403147442975,0.2817578517877228,-0.28989436680383973,3,right
4.593999999999999,-0.21580915702257103,1.2641715855255302,0.006417173334991906,0.32976978485399816,0.4701155788176682,-0.3243004861669987,-0.2092020235936576,0.2873108078995263,-0.28419769700212205,3,right
4.599,-0.21382096195571307,1.2682638486398807,0.007344864563664286,0.31135948481379355,0.4978357169914176,-0.32253254875093645,-0.2103867824526359,0.2927608803464835,-0.27848849964492955,3,right
4.6,-0.21177164330760875,1.27229296441447,0.00827556294226897,0.2932410904533381,0.5262546842426213,-0.3207125690488516,-0.2115576025136403,0.29809668100532766,-0.2727778085083516,3,right
4.604,-0.2096631965531091,1.2762572274482673,0.009208341558245261,0.2754415376022071,0.5553641579368296,-0.31883734431142263,-0.21271373699809115,0.30330677480836893,-0.26707687793494345,3,right
4.605,-0.2074977303881401,1.2801550312142738,0.010142268625885327,0.25798763388869156,0.5851550916149253,-0.3169036916754603,-0.21385439878898396,0.30837969912733415,-0.2613971759179187,3,right
4.609,-0.20527746907142916,1.283984868708479,0.011076410905509752,0.24090603544074934,0.6156177286348234,-0.31490846619955687,-0.21497876150667977,0.31330398392136083,-0.2557503767928834,3,right
4.61,-0.20300475463437373,1.2877453327685495,0.012009837140013661,0.22422322412186027,0.6467416180248174,-0.31284857946937983,-0.21608596076137482,0.31806817266408705,-0.25014835352075976,3,right
4.613,-0.20068204888272306,1.291435116052339,0.012941621500920498,0.20796548525170425,0.6785156326341314,-0.3107210187670487,-0.2171750955826426,0.3226608440373968,-0.2446031695499753,3,right
4.614,-0.19831193511276599,1.295053010671303,0.013870847062110803,0.192158885762647,0.7109279896681677,-0.3085228667988561,-0.2182452300119864,0.3270706342440001,-0.23912707026792657,3,right
4.614,-0.1958971194797297,1.2985979074798737,0.01479660931548621,0.17682925274416603,0.743966273697837,-0.3062513219754092,-0.21929539481835547,0.33128625954765595,-0.23373247409116196,3,right
4.619,-0.19344043197245583,1.3020687950247678,0.01571801972545312,0.16200215233019705,0.7776174621694548,-0.30390371921326037,-0.22032458928211696,0.3352965385144028,-0.22843196326572873,3,right
4.619,-0.1909448269574458,1.305464758157536,0.016634209306112997,0.14770286889382578,0.8118679531196928,-0.30147755110282654,-0.22133178300733053,0.3390904135625873,-0.22323827442749206,3,right
4.62,-0.18841338326085422,1.308784976311307,0.01754433220495555,0.1339563845297817,0.846703594218964,-0.298970489063868,-0.22231591774804987,0.34265697167183573,-0.2181642889331602,3,right
4.622,-0.1858493037612609,1.312028721438873,0.018447569283656876,0.12078735881478277,0.8821097119445521,-0.29638040398551163,-0.2232759092487241,0.34598546423547466,-0.21322302295118406,3,right
4.623,-0.183255914466184,1.3151953556040008,0.01934313168599962,0.10822010882914646,0.9180711400103458,-0.29370538597164636,-0.22421064910158955,0.34906532606727586,-0.20842761729763867,3,right
4.628,-0.18063666304386353,1.31828432821483,0.02023026437262684,0.09627858941000715,0.9545722467646208,-0.29094376303560343,-0.22511900662387727,0.351886193572749,-0.20379132700253813,3,right
4.629,-0.17799511678625993,1.321295172891506,0.021108249597101277,0.08498637359999034,0.9915969615927807,-0.2880941187118648,-0.2259998307575914,0.3544379220945201,-0.19932751059241818,3,right
4.632,-0.17533495999202664,1.3242275039687523,0.021976410307639662,0.07436663325529287,1.0291288004283317,-0.2851553085771107,-0.2268519519945414,0.356710602440622,-0.19504961907543808,3,right
4.633,-0.17265999077436953,1.3270810126425239,0.02283411347563712,0.0644421197789153,1.067150890476917,-0.28212647567267,-0.22767418432923492,0.3586945766037783,-0.19097118461571227,3,right
4.637,-0.1699741173115328,1.329855462773063,0.023680773362331597,0.05523514494665663,1.1056459942597323,-0.279007064820185,-0.2284653272421598,0.36038045267898894,-0.18710580888407757,3,right
4.638,-0.16728135356579923,1.3325506863529242,0.02451585473458901,0.046767561795412874,1.144596533084111,-0.27579683582204567,-0.2292241677158995,0.36175911898592733,-0.1834671510730352,3,right
4.643,-0.16458581450339382,1.3351665786403673,0.02533887603353308,0.03906074554531694,1.183984610050463,-0.27249587553789184,-0.22994948228644244,0.36282175740182615,-0.18006891556418156,3,right
4.644,-0.16189171085408227,1.3377030929507114,0.02614941249106262,0.03213557452931769,1.2237920327061214,-0.2691046088282217,-0.23064003913195444,0.3635598559096771,-0.17692483923705213,3,right
4.649,-0.15920334345415882,1.3401602350952706,0.026947099183569828,0.026012411105919227,1.2640003354579483,-0.2656238083558834,-0.23129460020119255,0.3639652203656847,-0.17404867840895533,3,right
4.649,-0.1565250972185223,1.3425380574608803,0.02773163401023087,0.02071108253298568,1.3045908018568149,-0.2620546032359697,-0.23191192338364056,0.36402998548900906,-0.17145419539606427,3,right
4.654,-0.15386143478679748,1.3448366527312878,0.028502780581575023,0.016250861782761125,1.3455444868682713,-0.2583984865243737,-0.2324907647233476,0.3637466250759009,-0.16915514468676346,3,right
4.655,-0.15121688988555865,1.3470561472635352,0.02926037099880842,0.01265044828055726,1.3868422392448745,-0.25465732153500975,-0.2330298806783474,0.36310796143937546,-0.16716525871901752,3,right
4.657,-0.1485960604430721,1.3491966941482378,0.03000430849576644,0.009927948551920921,1.428464724116736,-0.25083334697544807,-0.23352803042742915,0.3621071740745959,-0.16549823325433854,3,right
4.658,-0.14600360148307384,1.3512584660014606,0.030734569907264572,0.008100856765508795,1.4703924459179014,-0.24692918089046542,-0.2339839782259195,0.36073780754913576,-0.16416771234177713,3,right
4.6610000000000005,-0.14344421781031508,1.35324164755448,0.031451207923655404,0.007186035161365221,1.5126057717671546,-0.24294782340276835,-0.23439649581202285,0.35899377861627185,-0.16318727286625007,3,right
4.662,-0.14092265648725616,1.3551464281226921,0.032154353091131654,0.007199694356819781,1.5550849554227748,-0.23889265823991,-0.23476436486514754,0.3568693825484187,-0.16257040867644512,3,right
4.667,-0.1384436990929499,1.3569729940438444,0.03284421551682261,0.008157373524792262,1.5978101619316558,-0.23476745303619065,-0.2350863795175249,0.3543592986867573,-0.1623305142885101,3,right
4.668,-0.13601215375177608,1.3587215211776489,0.033521086235003605,0.010073920441911842,1.6407614930940047,-0.2305763583981126,-0.2353613489203046,0.3514585952020361,-0.16248086816273868,3,right
4.671,-0.13363284691862615,1.3603921675543342,0.03418533818820402,0.012963471406523217,1.6839190138656153,-0.22632390572174776,-0.2355880998651795,0.34816273306042883,-0.1630346155515094,3,right
4.672,-0.13131061490749318,1.3619850662508084,0.03483742677815961,0.01683943102936281,1.7272627798204103,-0.22201500375017633,-0.23576547946246282,0.3444675691872299,-0.16400475091781783,3,right
4.678,-0.12905029515201294,1.3635003185619523,0.03547788994759563,0.021714451902441232,1.7707728657965933,-0.2176549338589661,-0.23589235787640547,0.34036935882004216,-0.16540409992486188,3,right
4.678999999999999,-0.12685671718820887,1.3649379875220267,0.0361073477642091,0.02760041415446179,1.8144293958503535,-0.21324934405748752,-0.23596763111840155,0.33586475704198193,-0.16724530099829876,3,right
4.6819999999999995,-0.12473469335132155,1.3662980918174077,0.03672650149254318,0.03450840490393686,1.8582125746415898,-0.20880424169369677,-0.23599022389416402,0.33095081950005895,-0.16954078646901594,3,right
4.683,-0.12268900918086373,1.3675806001181807,0.03733613215559489,0.04244869762403238,1.9021027203766088,-0.20432598484987435,-0.2359590924786779,0.3256250023916438,-0.17230276333062658,3,right
4.683,-0.12072441353049584,1.3687854258447574,0.03793709860146314,0.05143073143607312,1.9460802994331645,-0.1998212724166758,-0.2358732275527574,0.31988516194280764,-0.17554319369241514,3,right
4.686,-0.11884560838168162,1.3699124223776935,0.03853033510001491,0.06146309035157566,1.990125962793577,-0.19529713283273809,-0.23573165691275344,0.31372955368005256,-0.1792737750348989,3,right
4.687,-0.11705723836386649,1.370961378713438,0.0391168485020744,0.07255348248563984,2.0342205844119694,-0.19076091147699248,-0.23553344798693385,0.3071568317168614,-0.18350592035137542,3,right
4.688,-0.11536387998967541,1.3719320155645125,0.03969771499585952,0.08470871926975974,2.0783453015368245,-0.18622025671119297,-0.2352777101317314,0.30016604813326503,-0.1882507382149532,3,right
4.692,-0.11377003061885553,1.3728239818997348,0.040274076488276286,0.09793469470633054,2.122481556484767,-0.18168310462229714,-0.23496359670302597,0.29275665244652366,-0.19351901278683478,3,right
4.6930000000000005,-0.11228009716803225,1.3736368519192486,0.04084713662525451,0.1122363647303226,2.166611138415743,-0.17715766260822538,-0.234590306901889,0.28492849115403857,-0.19932118377803393,3,right
4.697,-0.11089838458875975,1.3743701224587848,0.041418156451965615,0.12761772675785138,2.210716223134371,-0.17265239200269364,-0.23415708739405452,0.27668180732840997,-0.2056673263781805,3,right
4.698,-0.1096290841478723,1.3750232108152118,0.04198844970607495,0.1440817994932459,2.2547794094677704,-0.16817598988264526,-0.23366323370221156,0.26801724024335544,-0.21256713116657025,3,right
4.7010000000000005,-0.10847626155870103,1.3755954529814198,0.042559377741709536,0.1616306030491481,2.2987837517160017,-0.16373737010791603,-0.2331080913700453,0.2589358250080018,-0.2200298840221486,3,right
4.702,-0.10744384502196969,1.376086102274924,0.04313234410423731,0.18026513942607642,2.3427127881967005,-0.15934564359064496,-0.23249105689677946,0.24943899218586071,-0.2280644460506813,3,right
4.706,-0.10653561323718454,1.3764943283415785,0.0437087888132885,0.19998537339875427,2.3865505660104405,-0.1550100977815902,-0.23181157844080122,0.23952856737359976,-0.23667923354895182,3,right
4.706,-0.10575518344107084,1.376819216512902,0.04429018244693885,0.22079021385961883,2.4302816621532104,-0.15074017536061926,-0.23106915629077132,0.22920677071352275,-0.2458821980274442,3,right
4.711,-0.1051059995237421,1.3770597674929543,0.04487802013139955,0.2426774956730424,2.473891201102162,-0.14654545211877684,-0.23026334310244662,0.21847621631248237,-0.25568080631461004,3,right
4.712,-0.10459132026976649,1.3772148973488012,0.045473815520284566,0.2656439620969145,2.517364869000533,-0.14243561401949567,-0.2293937438992612,0.20733991153875914,-0.2660820207674845,3,right
4.716,-0.10421420777246934,1.3772834377772032,0.04607909481129897,0.2896852478313471,2.5606889245673385,-0.1384204334267052,-0.22846001583453318,0.1958012561672608,-0.27709227961510613,3,right
4.717,-0.10397751607550658,1.3772641366192937,0.04669539081977934,0.31479586275737226,2.6038502068570795,-0.1345097444878081,-0.2274618677129807,0.18386404134222292,-0.28871747746290305,3,right
4.721,-0.1038838801037917,1.3771556585946876,0.047324237120029713,0.3409691764315989,2.646836139994326,-0.13071341765973937,-0.22639905926904866,0.17153244832542586,-0.3009629459879401,3,right
4.7219999999999995,-0.10393570495453093,1.3769565862261532,0.04796716227348115,0.36819740340588175,2.6896347350076097,-0.1270413333665945,-0.225271400199363,0.15881104699678894,-0.3138334348566687,3,right
4.726,-0.10413515562741986,1.3766654209258002,0.048625684175244016,0.39647158944412386,2.732234588886582,-0.12350335477761411,-0.22407874894644472,0.1457047940730586,-0.3273330928985873,3,right
4.727,-0.10448414728054332,1.376280584214436,0.049301304554429104,0.42578159871138505,2.774624880985907,-0.12010929969463968,-0.22282101123063006,0.132219031009175,-0.3414654495710008,3,right
4.731,-0.10498433610543334,1.3758004190476067,0.04999550365127404,0.4561161020134956,2.8167953668988073,-0.11686891153851361,-0.2214981383269571,0.11835948154578226,-0.35623339675186033,3,right
4.731,-0.10563711091978617,1.3752231912253876,0.05070973506658286,0.48746256616837924,2.858736369922621,-0.11379182942428007,-0.22011012508359223,0.10413224886524318,-0.3716391708994737,3,right
4.736000000000001,-0.10644358557616346,1.3745470908696034,0.05144542074514153,0.5198072445932596,2.9004387702381234,-0.11088755731545837,-0.21865700767818352,0.08954381231743003,-0.3876843356196893,3,right
4.737,-0.10740459227651183,1.3737702339623221,0.05220394603049721,0.5531351691948656,2.9418939919237337,-0.10816543224810021,-0.21713886110834052,0.07460102367548933,-0.40436976468298413,3,right
4.74,-0.10852067586481917,1.3728906639522973,0.052986654727774626,0.5874301436526583,2.9830939879250806,-0.10563459161581178,-0.21555579641225311,0.05931110288072398,-0.42169562553571494,3,right
4.742,-0.10979208914811524,1.3719063534510167,0.05379484413256732,0.6226747381879624,3.0240312230996964,-0.10330393950741762,-0.21390795761527528,0.04368163323469836,-0.4396613633516285,3,right
4.745,-0.11121878927800641,1.3708152060575396,0.054629760012680724,0.6588502859147102,3.0646986554559206,-0.10118211208946616,-0.21219551839811293,0.027720555995655732,-0.45826568567156395,3,right
4.746,-0.11280043521714202,1.3696150583706064,0.055492591553457524,0.6959368808702825,3.105089715704354,-0.09927744202632542,-0.21041867848206794,0.011436164335340032,-0.4775065476811184,3,right
4.751,-0.11453638631682914,1.3683036822626822,0.05638446629155592,0.7339133778276518,3.145198285239444,-0.09759792193119209,-0.2085776597350846,-0.005162903362208247,-0.4973811381752401,3,right
4.752,-0.1164257020372517,1.3668787874947244,0.05730644506400036,0.7727573939927098,3.1850186726680176,-0.09615116684193666,-0.20667270204455337,-0.02206767074700681,-0.5178858662473278,3,right
4.753,-0.11846714284531888,1.365338024740644,0.058259516992509364,0.8124453126932729,3.224545589000784,-0.09494437571633028,-0.20470405907895403,-0.039268830944625056,-0.5390163487184457,3,right
4.756,-0.1206591723291022,1.3636789890789196,0.05924459451713785,0.852952289163378,3.26377412161157,-0.09398429199642644,-0.20267199410263081,-0.05675675371144984,-0.5607673983108655,3,right
4.757,-0.1229999605731709,1.3618992240037766,0.06026250849403996,0.8942522585017909,3.3026997070160644,-0.09327716356544874,-0.20057677596541384,-0.07452149195549251,-0.5831330125851726,3,right
4.757,-0.12548738884130073,1.3599962260039709,0.0613140033806009,0.9363179458371526,3.341318102427064,-0.09282870291246177,-0.19841867531230614,-0.09255278751342128,-0.6061063636857653,3,right
4.76,-0.12811905561487139,1.357967449752579,0.06239973254820017,0.979120878707355,3.3796253559901848,-0.0926440485937187,-0.19619796101587791,-0.11084007620758393,-0.6296797889545751,3,right
4.76,-0.130892284045436,1.355810313950583,0.06352025377928824,1.0226314016901978,3.4176177756553066,-0.09272772880739596,-0.1939148968253505,-0.12937249223403227,-0.6538447824772433,3,right
4.7669999999999995,-0.13380413089469398,1.3535222078634992,0.06467602499981805,1.0668186933734924,3.455291896732073,-0.09308362740792915,-0.19156973822617024,-0.14813887193332473,-0.6785919876277349,3,right
4.768,-0.1368513970403105,1.3511004985755957,0.06586740026406644,1.1116507857820737,3.4926444482290386,-0.09371495241401163,-0.18916272950369328,-0.1671277569966178,-0.7039111906790901,3,right
4.769,-0.14003063961227535,1.3485425389636476,0.06709462596830419,1.1570945863866522,3.5296723180856104,-0.09462420701050436,-0.1866941010044236,-0.1863273971602616,-0.7297913155497143,3,right
4.769,-0.14333818578972238,1.3458456763665096,0.06835783724664991,1.2031159028213696,3.566372517404997,-0.09581316304528613,-0.18416406658806772,-0.20572575244278504,-0.7562204197562755,3,right
4.775,-0.14677014823264498,1.3430072618970759,0.06965705450322324,1.2496794704387815,3.602742143795466,-0.09728283702286361,-0.18157282126349183,-0.22531049497879596,-0.7831856916459209,3,right
4.776,-0.1503224420483391,1.34002466030885,0.07099218005640565,1.2967489828327394,3.6387783439262646,-0.09903346859735686,-0.1789205390014897,-0.24506901050492488,-0.8106734489821346,3,right
4.779,-0.15399080310514077,1.3368952602951831,0.07236299490932328,1.3442871254613058,3.674478275403645,-0.10106450156827783,-0.1762073707170944,-0.26498839955351294,-0.8386691389601317,3,right
4.78,-0.1577708074196844,1.3336164850732137,0.07376915570565588,1.3922556125033847,3.709839068071449,-0.10337456738332466,-0.17343344241398997,-0.2850554784102783,-0.8671573397292237,3,right
4.784,-0.1616578912753713,1.3301858030929206,0.07521019196537602,1.4406152270842087,3.7448577848397875,-0.10596147115321945,-0.17059885348340334,-0.3052567798926936,-0.896121763501087,3,right
4.785,-0.16564737169207733,1.326600738716239,0.07668550370718201,1.489325865006164,3.779531382144345,-0.10882218018442139,-0.16770367514968385,-0.3255785540062707,-0.9255452613243291,3,right
4.789,-0.16973446686493263,1.3228588827293053,0.0781943595484957,1.538346582122667,3.8138566701379046,-0.11195281503634631,-0.16474794905460083,-0.346006768536369,-0.9554098296071536,3,right
4.79,-0.17391431621902675,1.3189579025773603,0.07973589533553788,1.5876356454939355,3.8478302727146687,-0.11534864311051819,-0.16173168597221668,-0.3665271096335324,-0.9856966184712949,3,right
4.795,-0.17818199977752222,1.31489555224036,0.08130911330873666,1.6371505884644937,3.881448587466989,-0.11900407477986169,-0.1586548646460186,-0.3871249824507026,-1.0163859420217096,3,right
4.796,-0.1825325566027348,1.3106696816916321,0.08291288176837333,1.6868482698031468,3.9147077456731014,-0.12291266206711948,-0.1555174307398179,-0.4077855118909637,-1.047457290617778,3,right
4.7989999999999995,-0.18696100213469186,1.3062782458978737,0.08454593518306529,1.7366849370469308,3.947603572413455,-0.12706709988213735,-0.1523192958937519,-0.42849354352473495,-1.0788893452329757,3,right
4.8,-0.1914623443125009,1.301719313326674,0.0862068746826903,1.7866162941911803,3.980131546912201,-0.1314592298285044,-0.1490603368765493,-0.449233644735553,-1.1106599939911397,3,right
4.803999999999999,-0.19603159841627082,1.296991073931359,0.08789416889443753,1.8365975738683966,4.0122867631993815,-0.13608004659076076,-0.14574039482504592,-0.4699901061537621,-1.142746350968535,3,right
4.805,-0.20066380061071526,1.292091846586754,0.08960615510722453,1.886583614158985,4.0440638911883084,-0.1409197069140903,-0.14235927456176312,-0.4907469434375686,-1.175124777351977,3,right
4.809,-0.20535402020853732,1.2870200859564171,0.091341040772839,1.9365289401772001,4.075457138261562,-0.14596754118909572,-0.13891674398118667,-0.5114878994610061,-1.2077709050442247,3,right
4.81,-0.2100973707079811,1.281774388781705,0.0930969053612264,1.9863878505757953,4.106460211457986,-0.1512120676549096,-0.13541253349520804,-0.532196446968405,-1.2406596628087705,3,right
4.814,-0.21488901970017607,1.2763534995935153,0.09487170258144018,2.0361145091128616,4.137066280351924,-0.15664100923452154,-0.1318463355280146,-0.5528557917549594,-1.2737653050469893,3,right
4.815,-0.21972419778625987,1.2707563158575161,0.09666326296717032,2.0856630414242483,4.1672679407149,-0.16224131301679734,-0.12821780405053884,-0.5734488764329406,-1.3070614433013754,3,right
4.819,-0.22459820667866934,1.2649818925715341,0.09846929681679005,2.134987637144692,4.197057179048767,-0.16799917240023038,-0.12452655415070556,-0.5939583848430501,-1.340521080510336,3,right
4.82,-0.22950642666789334,1.259029446336049,0.10028739747734468,2.184042657520409,4.22642533807826,-0.17390005191399246,-0.12077216166707117,-0.6143667471704665,-1.374116647695828,3,right
4.82,-0.23444432361491135,1.2528983589159326,0.10211504496653287,2.232782748655392,4.255363083289659,-0.17992871473234326,-0.11695416297002839,-0.6346561458253155,-1.4078200421450513,3,right
4.823,-0.2394074556064191,1.2465881803106322,0.10394960993010267,2.2811629603110757,4.2838603706182115,-0.18606925286454656,-0.11307205500610273,-0.6548085221472479,-1.4416026658030758,3,right
4.824,-0.24439147940033262,1.2400986313530535,0.10578835793204705,2.3291388690686023,4.311906415471022,-0.19230511983104934,-0.10912529568915214,-0.6748055839933247,-1.4754354629384634,3,right
4.825,-0.2493921567773341,1.2334296058589695,0.10762845407381229,2.3766667026646306,4.339489663424427,-0.1986191653277986,-0.10511330466534044,-0.6946288142676958,-1.5092889567648964,3,right
4.829,-0.2544053608917028,1.2265811723500057,0.10946696793767086,2.4237034612009265,4.366597763018941,-0.20499367120908932,-0.1010354644470373,-0.7142594804509682,-1.5431332850468338,3,right
4.829,-0.25942708268876924,1.2195535753804696,0.11130087884761743,2.470207032036486,4.393217540988219,-0.21141038829141126,-0.09689112190430574,-0.7336786451866673,-1.5769382347863268,3,right
4.833,-0.26445343742187355,1.2123472365090846,0.11312708143890175,2.516136297167038,4.419334980103632,-0.21785057379023204,-0.09267959010245025,-0.7528671779817009,-1.6106732760881803,3,right
4.834,-0.269480671251666,1.2049627549650586,0.11494239152573159,2.56145123300503,4.4449351997293585,-0.22429502937362855,-0.08840015047390974,-0.771805768077177,-1.644307595300622,3,right
4.837,-0.2745051678550248,1.1974009080638022,0.11674355225537776,2.606113002693595,4.470002439164426,-0.23072413985115994,-0.08405205531258818,-0.7904749385453198,-1.6778101275285258,3,right
4.838,-0.2795234549241978,1.1896626514320252,0.11852724053524295,2.6500840410863638,4.494520043846708,-0.2371179125164419,-0.07963453057852284,-0.8088550616675658,-1.7111495886160335,3,right
4.843999999999999,-0.28453221040621485,1.1817491191029723,0.1202900737188776,2.6933281325232112,4.518470454492385,-0.24345601716189272,-0.07514677900059466,-0.8269263756482065,-1.7442945066951343,3,right
4.845,-0.2895282683189687,1.1736616235375426,0.12202861653932688,2.735810481530158,4.54183519924283,-0.24971782678407786,-0.07058798346478837,-0.8446690027171623,-1.7772132533963714,3,right
4.8469999999999995,-0.2945086239806491,1.1654016556148679,0.12373938828289142,2.777497776569669,4.564594888889337,-0.25588245899797635,-0.06595731067531015,-0.8620629686746509,-1.8098740748173912,3,right
4.848,-0.2994704385001963,1.1569708846182234,0.12541887020069636,2.8183582469655013,4.586729215244438,-0.2619288181783325,-0.06125391507566896,-0.8790882239296186,-1.8422451223444782,3,right
4.854,-0.30441104239602584,1.148371158222273,0.12706351315706352,2.858361713124068,4.608216952726895,-0.2678356383460365,-0.05647694301662364,-0.8957246660828602,-1.8742944834215778,3,right
4.855,-0.30932793823632115,1.1396045024682235,0.12866974551136107,2.897479630172007,4.629035963225702,-0.2735815268171975,-0.05162553715769114,-0.9119521641047577,-1.9059902123605588,3,right
4.8580000000000005,-0.31421880222307963,1.1306731216955261,0.13023398122327284,2.935685125127276,4.649163204306642,-0.27914500863223357,-0.04669884108870246,-0.9277505841564974,-1.937300361285646,3,right
4.859,-0.3190814846686294,1.1215793983831959,0.1317526281612336,2.9729530277186225,4.668574740823076,-0.28450457178190064,-0.04169600415768163,-0.9430998171025172,-1.9681930113040218,3,right
4.863,-0.32391400933322545,1.1123258928425424,0.13322209658393977,3.0092598949657567,4.687245759990718,-0.28963871324672075,-0.03661618649110896,-0.9579798077607591,-1.9986363039935777,3,right
4.864,-0.3287145716055514,1.1029153426983247,0.1346388077597822,3.0445840296299167,4.705150589984179,-0.29452598586574585,-0.03145856419241359,-0.9723705859360652,-2.0285984732976985,3,right
4.867,-0.3334815355189101,1.0933506620973141,0.135999202688948,3.078905492641842,4.722262722110972,-0.29914504605000714,-0.026222334704321934,-0.986252299280771,-2.0580478779157505,3,right
4.868,-0.33821342960998374,1.0836349405900034,0.1372997508942471,3.112206109611413,4.73855483661658,-0.30347470235535284,-0.020906722320467037,-0.9996052480251975,-2.086953034276667,3,right
4.873,-0.34290894164645613,1.0737714416406803,0.13853695924677012,3.1444694715203783,4.753998832171945,-0.3074939649286689,-0.015510983831440828,-1.0124099216193412,-2.115282650181635,3,right
4.874,-0.3475669122728142,1.063763600731985,0.13970738079067438,3.175680929696739,4.768565859092483,-0.3111820958407051,-0.010034414290245174,-1.0246470373255971,-2.1430056592004085,3,right
4.877,-0.3521863276477987,1.0536150230408823,0.14080762352802267,3.205827585166409,4.782226356335386,-0.3145186603179007,-0.00447635288186988,-1.0362975808008341,-2.1700912559042282,3,right
4.878,-0.3567663111706492,1.043329480671806,0.14183435912094863,3.2348982724748105,4.79495009231949,-0.31748357888470985,0.0011638111185043917,-1.047342848704562,-2.1965089320166564,3,right
4.882,-0.36130611441433713,1.0329109094385134,0.14278433146649727,3.262883538068039,4.806706209609511,-0.3200571804269794,0.0068866323144124875,-1.0577644933683066,-2.2222285135619075,3,right
4.883,-0.3658051073998801,1.0223634051895585,0.14365436510042393,3.2897756133201703,4.8174632735038125,-0.3222202561859192,0.012692603100088514,-1.0675445695596217,-2.247220199088413,3,right
4.887,-0.3702627683560705,1.0116912196749033,0.14444137338912083,3.315568382290211,4.8271893245622,-0.32395411469114144,0.018582147531730864,-1.0766655833724257,-2.2714545990434463,3,right
4.887,-0.37467867311214587,1.0008987559533022,0.14514236647209416,3.3402573442890597,4.835851935107442,-0.3252406376401198,0.024555615173942117,-1.085110543191328,-2.2949027763174823,3,right
4.888,-0.3790524842607413,0.9899905633402916,0.14575445892175978,3.3638395713337306,4.843418269731359,-0.3260623367302429,0.030613274934738012,-1.0928630122645842,-2.317536287699068,3,right
4.891,-0.38338394020518823,0.9789713318950132,0.14627487709474843,3.386313660562913,4.849855149833338,-0.3264024114484033,0.03675530889783115,-1.0999071616782987,-2.339327225482429,3,right
4.8919999999999995,-0.3876728441852952,0.9678458864446218,0.1467009661580734,3.407679681753236,4.855129122133927,-0.32624480775374254,0.04298180615839784,-1.106227822111369,-2.3602482581919704,3,right
4.893,-0.391919053368637,0.9566191801486945,0.14703019678110907,3.4279391204146012,4.859206530692153,-0.3255742772476412,0.04929275667151635,-1.1118105331598611,-2.38027266966129,3,right
4.898,-0.3961224680899624,0.9452962876096157,0.14726017148982404,3.4470948175557283,4.862053591212462,-0.324376435811315,0.05568804512763544,-1.1166415897576,-2.399374396198305,3,right
4.899,-0.4002830213170893,0.9338823975413553,0.14738863068283603,3.46515090755006,4.863636466012947,-0.3226378203497516,0.06216744487241265,-1.1207080856288687,-2.4175280618413755,3,right
4.902,-0.4044006684262693,0.9223828050237116,0.1474134583066468,3.482112755186807,4.863921338433997,-0.32034594261944904,0.06873061188905172,-1.123997953789217,-2.434709011763898,3,right
4.9030000000000005,-0.4084753773791807,0.910802903386529,0.14733268717920422,3.4979868923728095,4.8628744862024345,-0.3174893397282507,0.07537707886151072,-1.126500004108238,-2.450893343882187,3,right
4.906000000000001,-0.41250711939671475,0.8991481757800884,0.14714450394095627,3.512780954605519,4.860462353673465,-0.31405762123421777,0.08210624933719353,-1.128203957945962,-2.4660579387187394,3,right
4.906000000000001,-0.41649586022047724,0.8874241864932436,0.14684725360415268,3.5265036172658615,4.856651622951167,-0.31004151283692943,0.08891739200797809,-1.1291004798722997,-2.480180487570191,3,right
4.9110000000000005,-0.4204415520444883,0.8756365720824236,0.14643944366357642,3.5391645317765845,4.851409283884464,-0.3054328966529836,0.09580963512867359,-1.1291812064766984,-2.493239519026406,3,right
4.912,-0.42434412618796574,0.8637910323736406,0.14591974772507385,3.550774261668614,4.844702702931551,-0.3002248480658184,0.10278196109223608,-1.1284387722728848,-2.5052144238842113,3,right
4.916,-0.42820348656581675,0.8518933213975893,0.14528700860618063,3.561344218594864,4.836499690881789,-0.2944116691383004,0.10983320118130735,-1.1268668327012528,-2.5160854784963136,3,right
4.917,-0.4320195039974544,0.8399492383156145,0.14454024087001824,3.5708865983278866,4.826768569419907,-0.28798891857482556,0.11696203051587423,-1.1244600842291135,-2.525833866592851,3,right
4.922,-0.43579201137819135,0.8279646183913212,0.14367863276865678,3.579414316774746,4.815478236513194,-0.28095343821795843,0.12416696321707581,-1.121214281546659,-2.53444169960995,3,right
4.923,-0.43952079972217756,0.8159453240590867,0.14270154758990097,3.5869409460395043,4.8025982305980355,-0.2733033760629015,0.1314463478074116,-1.1171262518541138,-2.541892035556478,3,right
4.926,-0.4432056150736156,0.8038972361380373,0.14160852441730956,3.5934806505607573,4.788098793537793,-0.26503820577133624,0.13879836286782699,-1.1121939062331512,-2.548168896446945,3,right
4.927,-0.44684615627531143,0.7918262452387884,0.14039927832607227,3.5990481233487515,4.771950932319501,-0.2561587426644212,0.14622101297237017,-1.1064162480932422,-2.553257284325261,3,right
4.931,-0.45044207357864957,0.7797382434094074,0.1390737000463241,3.603658522343733,4.754126479452336,-0.24666715617296894,0.15371212492132832,-1.0997933786811913,-2.557143195900705,3,right
4.9319999999999995,-0.4539929680738837,0.767639116065106,0.13763185512782358,3.6073274069143446,4.734598152026137,-0.2365669787210606,0.16126934429395917,-1.0923264996396833,-2.559813635814116,3,right
4.936,-0.45749839191499847,0.7555347342424765,0.136073982634354,3.610070674512103,4.713339609383517,-0.22586311101759374,0.16889013234213662,-1.0840179125982472,-2.5612566285488865,3,right
4.937,-0.4609578493110274,0.7434309472144826,0.13440049338618268,3.611904497495228,4.690325509354323,-0.21456182372850502,0.17657176324642507,-1.0748710157776131,-2.5614612289978913,3,right
4.941,-0.4643707982534305,0.7313335754980015,0.1326119677609844,3.6128452601323993,4.665531562996265,-0.20267075550066274,0.18431132175628703,-1.064890297586017,-2.5604175316940068,3,right
4.942,-0.4677366529437188,0.7192484042814749,0.13070915306279932,3.612909495794361,4.6389345877806125,-0.1901989073066932,0.19210570123631077,-1.054081327183591,-2.558116678708332,3,right
4.945,-0.4710547868770616,0.707181177295309,0.12869296047484885,3.6121138243386723,4.610512559156772,-0.17715663307829194,0.19995160214051882,-1.0424507419885736,-2.5545508662166867,3,right
4.946000000000001,-0.47432453652879747,0.6951375911414098,0.1265644616211342,3.6104748896903427,4.5802446604244835,-0.16355562659387973,0.20784553093698452,-1.0300062320966807,-2.5497133497313653,3,right
4.95,-0.47754520558388225,0.6831232900907206,0.12432488476909744,3.6080092976185725,4.548111330837174,-0.14940890458479691,0.21578379950513996,-1.016756521582597,-2.5435984479915152,3,right
4.95,-0.48071606964484337,0.6711438613501778,0.12197561070915244,3.604733553707351,4.514094311854782,-0.13473078602259414,0.22376252502830812,-1.0027113466501962,-2.536201545501891,3,right
4.954,-0.4838363813510833,0.6592048307946359,0.1195181683470318,3.6006640015152414,4.478176691459048,-0.119536867548376,0.23177763040412758,-0.9878814305957582,-2.5275190937060685,3,right
4.956,-0.48690537584102117,0.6473116591556273,0.11695423004314165,3.595816760917292,4.440342946438932,-0.1038439950035882,0.23982484519566621,-0.9722784555461399,-2.5175486107765463,3,right
4.956,-0.4899222764901564,0.63546973865626,0.11428560672989667,3.5902076666197167,4.400578982548398,-0.08767023102011569,0.24789970713977108,-0.9559150309917568,-2.5062886800213287,3,right
4.96,-0.4928863008658605,0.6236843900780311,0.11151424283221241,3.5838522068356795,4.358872172433344,-0.07103481862608005,0.2559975641974808,-0.9388046594328697,-2.4937389470071656,3,right
4.961,-0.49579666685180984,0.6119608602401873,0.10864221100914517,3.5767654621082916,4.315211391218969,-0.05395814082229332,0.26411357707413524,-0.9209616999970736,-2.479900115683628,3,right
4.962,-0.498652598901907,0.6003043198677336,0.10567170673066602,3.5689620443542798,4.269587049672235,-0.0364616761494149,0.2722427221050709,-0.9024013311845929,-2.4647739438927436,3,right
4.965,-0.5014533343823833,0.5887198618221329,0.10260504270335069,3.560456036647345,4.221991124993145,-0.018567950596873526,0.28037979443468203,-0.8831395135949525,-2.448363238540967,3,right
4.966,-0.5041981299601781,0.5772124996680977,0.09944464315789436,3.5512609350639677,4.172417189543256,-0.0003004868015617419,0.28851941147396093,-0.8631929529448712,-2.4306718505188503,3,right
4.968999999999999,-0.5068862679960366,0.565787166549422,0.09619303801013976,3.5413895943600733,4.120860437958844,0.018316248184553567,0.2966560166534951,-0.8425790633842754,-2.411704669345824,3,right
4.97,-0.5095170628939029,0.5544487143464202,0.09285285691081041,3.5308541787972336,4.067317712945846,0.03725689561223994,0.3047838834952857,-0.8213159310551333,-2.3914676174929506,3,right
4.974,-0.5120898673476196,0.5432019130867884,0.08942682320740465,3.5196661186292606,4.011787529787715,0.05649525789184493,0.3128971200267572,-0.7994222778358471,-2.369967644332848,3,right
4.974,-0.5146040784217089,0.5320514505803969,0.08591774784925015,3.507836072310402,3.9542700994469753,0.07600435157613701,0.32098967356032126,-0.7769174252120217,-2.3472127196622936,3,right
4.98,-0.5170591434059653,0.5210019322469964,0.0823285232690676,3.495373894394891,3.894767350106691,0.0957564605234968,0.32905533586183033,-0.7538212582125704,-2.3232118267393997,3,right
4.981,-0.5194545653899735,0.510057881104567,0.07866211727226542,3.482288609095737,3.8332829469922967,0.11572318929666717,0.3370877487312158,-0.7301541893483012,-2.297974954773608,3,right
4.985,-0.5217899085133033,0.49922373788628016,0.0749215669632921,3.4685883894687963,3.7698223103085815,0.13587551685304697,0.3450804100185447,-0.7059371224883773,-2.271513090803156,3,right
4.985,-0.5240648028605287,0.4885038612559111,0.07110997273834521,3.4542805421863383,3.704392631120887,0.15618385058320988,0.3530266800986525,-0.6811914166083477,-2.2438382108910884,3,right
4.989,-0.526278948983348,0.4779025280934652,0.06723049237172793,3.43937149786253,3.63700288500391,0.17661808075494476,0.36091978882741155,-0.6559388493418027,-2.2149632705673348,3,right
4.99,-0.5284321220396148,0.4674239338245021,0.06328633521718077,3.4238668068915095,3.567663843275814,0.19714763542064614,0.36875284300258343,-0.6302015802661305,-2.1849021944408715,3,right
4.994,-0.5305241755410987,0.4570721927685651,0.059280756539823204,3.4077711407569478,3.4963880816297164,0.21774153584633069,0.3765188343520668,-0.6040021138513354,-2.1536698649024792,3,right
4.995,-0.5325550447022973,0.446851338483532,0.055217051993610176,3.3910882987702866,3.4231899859689663,0.23836845252091554,0.3842106480722008,-0.577363261999421,-2.121282109835186,3,right
5.0,-0.5345247493832412,0.4367653240835383,0.05109855226180197,3.373821220193123,3.3480857552470633,0.25899676180466785,0.39182107193861226,-0.5503081061004493,-2.087755689246069,3,right
5.001,-0.5364333966187296,0.42681802250984613,0.046928617878038176,3.3559720016975074,3.271093401107481,0.27959460327591906,0.39934280601189953,-0.5228599585300626,-2.0531082807297225,3,right
5.003,-0.538281182724371,0.41701322673793595,0.042710634241835695,3.3375419201162364,3.1922327441131615,0.30012993783523095,0.4067684729602351,-0.4950423235119907,-2.017358463670392,3,right
5.004,-0.5400683949687904,0.4073546499098601,0.03844800683942606,3.318531460433538,3.1115254063499527,0.3205706066262051,0.4140906290207332,-0.46687885726787104,-1.9805257020864977,3,right
5.0089999999999995,-0.5417954128049531,0.39784592538643765,0.03414415668140903,3.2989403489648867,3.0289948001828604,0.3408843908320385,0.4213017756211753,-0.43839332737558157,-1.942630326018053,3,right
5.01,-0.543462708661744,0.3884906067171615,0.029802515968826028,3.2787675916729895,2.944666112938619,0.36103907240674815,0.4283943716834091,-0.4096095712562246,-1.9036935113543252,3,right
5.013999999999999,-0.5450708483050942,0.37929216752667044,0.025426523994362165,3.258011517565346,2.858566287282774,0.38100249579971757,0.43536084662943836,-0.3805514537089072,-1.8637372579959643,3,right
5.015,-0.5466204907810779,0.3702540013169058,0.02101962327666658,3.236669827117089,2.7707239970542434,0.40074263073184996,0.4421936141109045,-0.35124282341153684,-1.8227843662427892,3,right
5.018,-0.5481123879508012,0.3613794211849019,0.016585255918423365,3.2147396456611554,2.681169618315166,0.42022763608115815,0.448885086482319,-0.321707468304997,-1.7808584112954193,3,right
5.018,-0.5495473836217679,0.3526716594571357,0.01212686017587879,3.1922175816861533,2.5899351953687524,0.43942592493507376,0.45542769003804096,-0.2919690697772768,-1.7379837157560194,3,right
5.024,-0.5509264122763053,0.3441338672410706,0.007647867228002719,3.169099789980615,2.4970544014928584,0.45830623086611233,0.46181388100794046,-0.2620511556445025,-1.6941853200809902,3,right
5.025,-0.5522504973969214,0.3357691138919948,0.0031516981343797865,3.145382039560625,2.402562494132082,0.47683767548680406,0.468036162182909,-0.23197705233062607,-1.6494889512878061,3,right
5.025,-0.5535207493919099,0.32758038639003856,-0.001358239029277842,3.1210597863161205,2.3064962642863702,0.49498983733897306,0.47408709981888375,-0.201769837376769,-1.6039209908493544,3,right
5.0280000000000005,-0.5547383631307822,0.3195705886229294,-0.005878551869652765,3.09612825030943,2.208893979829382,0.5127328221715373,0.4799593403442342,-0.1714522938161625,-1.5575084430586392,3,right
5.0280000000000005,-0.5559046151052498,0.3117425405764952,-0.010405866220907105,3.0705824976579232,2.109795322485241,0.5300373346599987,0.485645626518259,-0.14104686754471799,-1.5102789047919745,3,right
5.029,-0.5570208602350427,0.30409897744167963,-0.014936828550705668,3.0444175267874534,2.009241318391448,0.5468747515180253,0.49113881291011535,-0.1105756280870506,-1.4622605369624102,3,right
5.033,-0.5580885283384205,0.29664254864727263,-0.01946810824238225,3.0176283581244108,1.9072742631896036,0.5632171954419455,0.49643188069036015,-0.08006023275200176,-1.4134820376005484,3,right
5.033,-0.5591091202863738,0.2893758168230789,-0.02399639976621174,2.990210125001602,1.8039376444142239,0.5790376084125823,0.5015179517514224,-0.049521894090361666,-1.363972616427134,3,right
5.038,-0.5600842038603862,0.28230125669681727,-0.02851842474919268,2.962158162834267,1.699276064964064,0.5943098223691142,0.5063903021727739,-0.018981350567302425,-1.3137619707795383,3,right
5.038,-0.5610154093380578,0.2754212539335393,-0.03303093395141286,2.933468094337875,1.5933351704179919,0.6090086257766295,0.5110423750459869,0.01154115963809488,-1.262880262752069,3,right
5.042,-0.5619044248359805,0.2687381039345411,-0.03753070915975507,2.9041359098483763,1.4861615811206084,0.6231098255226794,0.5154677926742766,0.04202592179390309,-1.2113580974079452,3,right
5.042,-0.562752991441707,0.2622540106192561,-0.042014565014121645,2.874158042520888,1.3778028289406998,0.6365903040849662,0.5196603681605104,0.07245376482469314,-1.1592265019187593,3,right
5.047,-0.5635628981676595,0.2559710852183681,-0.046479350782859474,2.843531438324382,1.2683072983982935,0.6494280720123417,0.5236141163970358,0.10280607865680003,-1.1065169054853219,3,right
5.047,-0.5643359767609896,0.24989134510901972,-0.050921952100709496,2.8122536207481073,1.1577241718525266,0.6616023157595731,0.5273232644700243,0.13306482878704395,-1.053261119891948,3,right
5.053999999999999,-0.5650740964035311,0.24401671272153413,-0.05533929267490101,2.7803227501336187,1.0461033784391545,0.6730934409145565,0.5307822614903649,0.16321256816227744,-0.9994913205444923,3,right
5.053999999999999,-0.5657791583344792,0.2383490145414397,-0.05972833595434546,2.7477376775444324,0.9334955464432487,0.6838831108548117,0.5339857878624512,0.19323244645691406,-0.9452400278407792,3,right
5.0569999999999995,-0.5664530904278252,0.2328899802229518,-0.06408608674839543,2.7144979930834356,0.8199519587895182,0.6939542808681901,0.5369287640015071,0.22310821683532606,-0.8905400887205099,3,right
5.0569999999999995,-0.5670978417596348,0.22764124182279546,-0.06840959278099665,2.6806040685663404,0.7055245113297057,0.7032912277707672,0.5396063585093746,0.2528242402856812,-0.8354246582402499,3,right
5.062,-0.5677153772063076,0.22260433315830286,-0.07269594617284271,2.6460570944575523,0.5902656736036779,0.7118795750528777,0.5420139958179563,0.28236548761142316,-0.779927181017716,3,right
5.062,-0.5683076721202647,0.21778068929215583,-0.07694228485447932,2.6108591109729797,0.4742284517481384,0.7197063135821924,0.5441473633087587,0.3117175391661867,-0.7240813723882983,3,right
5.067,-0.5688767071299609,0.2131716461472499,-0.08114579392341414,2.5750130332524113,0.35746635322436077,0.7267598178906282,0.5460024179162142,0.3408665824174811,-0.6679211991155557,3,right
5.067,-0.569424463104207,0.20877844025685582,-0.08530370696285414,2.538522670502227,0.24003335303394446,0.7330298580697345,0.5475753922216933,0.36979940742397566,-0.6114808594963291,3,right
5.072,-0.5699529163082997,0.20460220865528764,-0.08941330733459502,2.501392739007328,0.12198386108936654,0.7385076072970165,0.5488628000443238,0.39850340031067794,-0.5547947627001151,3,right
5.072,-0.5704640337672258,0.20064398891152224,-0.09347192944586963,2.4636288689093195,0.0033726904040188455,0.743185645013434,0.5498614415339397,0.4269665348257131,-0.4978975071814402,3,right
5.077,-0.5709597688438295,0.1969047193034772,-0.09747695997643657,2.4252376046461377,-0.1157449742355062,0.7470579557700714,0.5505684077706702,0.4551773620617939,-0.44082385800317186,3,right
5.077,-0.5714420570378774,0.193385239126041,-0.10142583904440367,2.3862263989464547,-0.2353136074538874,0.7501199237596969,0.5509810848748604,0.48312499842481454,-0.38360872290799664,3,right
5.081,-0.571912812013998,0.1900862891230094,-0.10531606129048511,2.346603600270402,-0.355277374668924,0.7523683230466387,0.5510971576301873,0.5107991119313104,-0.32628712697469064,3,right
5.082,-0.5723739218703183,0.1870085120316439,-0.10914517686953355,2.3063784335863318,-0.47558016401283576,0.75380130350609,0.5509146126219948,0.5381899069158026,-0.26889418569529877,3,right
5.088,-0.5728272456628798,0.18415245322816365,-0.11291079235045615,2.265560974371573,-0.5961656191363824,0.7544183724816346,0.5504317408920291,0.5652881072282904,-0.21146507630893524,3,right
5.088,-0.5732746102018933,0.18151856146353745,-0.11661057153580619,2.224162115723368,-0.7169771732403062,0.7542203721674458,0.5496471401099035,0.5920849380013726,-0.15403500722761068,3,right
5.091,-0.5737178071334705,0.17910718968139897,-0.12024223621833349,2.182193528464464,-0.8379580846795719,0.7532094527192759,0.5485597162607646,0.6185721060656628,-0.09663918538928767,3,right
5.091,-0.5741585903146053,0.1769185959125171,-0.12380356689422091,2.13966761412612,-0.9590514744866961,0.7513890410960095,0.5471686848516614,0.6447417791092304,-0.03931278145788173,3,right
5.092,-0.574598673481958,0.17495294424202126,-0.12729240345251336,2.096597450689626,-1.0802003661610993,0.7487638056312174,0.5454735716577097,0.6705865637654621,0.01790910678697825,3,right
5.0969999999999995,-0.5750397282084759,0.1732103058471409,-0.1307066458576984,2.0529967309657975,-1.2013477280719056,0.7453396163318138,0.5434742130633038,0.6960994829739956,0.0749914917659376,3,right
5.0969999999999995,-0.5754833821358816,0.17169066010562314,-0.1340442548381871,2.008879693695616,-1.3224365186835618,0.7411235009885673,0.5411707560722088,0.7212739530479915,0.13189953259386025,3,right
5.0969999999999995,-0.5759312174660778,0.1703938957769693,-0.13730325258879658,1.9642610484801515,-1.4434097341219214,0.7361235976307612,0.5385636580400399,0.7461037607905519,0.18859856964673846,3,right
5.101,-0.5763847696924428,0.1693198122582079,-0.14048172349061916,1.919155897494137,-1.5642104563530603,0.7303491046647348,0.5356536861467351,0.7705830408409954,0.24505415685775553,3,right
5.101,-0.5768455265511158,0.16846812091396868,-0.1435778148461243,1.8735796579626107,-1.6847818995550345,0.723810230483622,0.5324419166062957,0.7947062533411982,0.3012320918212884,3,right
5.106,-0.5773149271696146,0.16783844647841462,-0.14658973762202315,1.8275479883520815,-1.8050674529543398,0.7165181438835007,0.5289297336063085,0.8184681619933193,0.35709844386765754,3,right
5.106,-0.5777943613874406,0.16743032852308765,-0.14951576719057455,1.7810767193785089,-1.925010719643728,0.7084849258092055,0.5251188279688913,0.8418638125792214,0.4126195802707317,3,right
5.111000000000001,-0.5782851692236816,0.16724322297940408,-0.15235424406276865,1.7341817899065044,-2.044555551589247,0.6997235225010194,0.5210111955238381,0.8648885120108734,0.46776219074969927,3,right
5.112,-0.5787886404684734,0.1672765036987557,-0.15510357461165414,1.6868791876075602,-2.1636460811719336,0.6902477000213154,0.5166091351838789,0.8875378079799866,0.5224933104254227,3,right
5.117,-0.5793060143759925,0.16752946402788355,-0.15776223178736637,1.6391848942438343,-2.2822267496086024,0.6800720001381036,0.511915246711109,0.9098074692740832,0.5767803413908017,3,right
5.117,-0.5798384794368786,0.16800131837287005,-0.16032875582476694,1.5911148354428108,-2.400242332595032,0.6692116975403424,0.5069324281627954,0.9316934668251328,0.630591073053484,3,right
5.121,-0.5803871732085536,0.16869120372314414,-0.16280175493977983,1.5426848348269815,-2.517637963513543,0.6576827583578241,0.5016638730039166,0.9531919555558128,0.683893701408082,3,right
5.122000000000001,-0.5809531821820871,0.16959818110879327,-0.16517990600359223,1.493910572361572,-2.6343591545455043,0.6455017999564363,0.4961130668729608,0.9742992570873571,0.7366568473937769,3,right
5.126,-0.581537541663962,0.17072123697030434,-0.16746195517885232,1.444807546782255,-2.7503518160276648,0.6326860519776322,0.4902837839866727,0.9950118433718594,0.7888495744918267,3,right
5.127000000000001,-0.5821412356521928,0.17205928442835397,-0.16964671850235163,1.3953910419637519,-2.8655622743894513,0.6192533185890284,0.4841800831686229,1.0153263213107828,0.8404414057160359,3,right
5.132000000000001,-0.5827651966896564,0.17361116445046554,-0.17173308240464213,1.3456760970892472,-2.9799372890064224,0.6052219419111754,0.47780630348566117,1.035239418420301,0.891402340147691,3,right
5.132999999999999,-0.5834103056814144,0.17537564691887905,-0.17372000416584235,1.2956774804795854,-3.093424068302976,0.5906107665837189,0.471167059475517,1.054747969602968,0.9417028691648363,3,right
5.1370000000000005,-0.5840773916654888,0.17735143160800448,-0.1756065123146026,1.245409666940324,-3.2059702854351597,0.5754391054324077,0.4642672359480212,1.0738489050840676,0.9913139925140309,3,right
5.1370000000000005,-0.5847672315281403,0.17953714908063145,-0.17739170698067291,1.1948868184838557,-3.317524093882061,0.5597267061966766,0.45711198234165007,1.0925392395698394,1.0402072343709245,3,right
5.14,-0.5854805496558662,0.1819313615125126,-0.1790747602104783,1.1441227682829962,-3.42803414327165,0.5434937192758744,0.44970670661632833,1.1108160626836172,1.0883546595340863,3,right
5.141,-0.5862180175174486,0.18453256345766844,-0.18065491625100655,1.0931310077116663,-3.5374495957643024,0.5267606664505927,0.4420570686626817,1.128676530734748,1.1357288898945468,3,right
5.146,-0.5869802531711208,0.18733918257070403,-0.18213149180129568,1.0419246763275571,-3.6457201433143513,0.5095484105340047,0.43416897320719494,1.146117859873974,1.18230312132145,3,right
5.147,-0.5877678206948966,0.19034958030433652,-0.18350387622494835,0.9905165546509748,-3.752796026127014,0.4918781259066223,0.4260485621920144,1.1631373206877809,1.2280511411020703,3,right
5.151,-0.5885812295421483,0.19356205259933437,-0.18477153171394237,0.9389190595934098,-3.8586280526249186,0.4737712698864481,0.4177022066074324,1.179732234283007,1.2729473460722285,3,right
5.151,-0.5894209338288067,0.19697483058176798,-0.18593399339408884,0.887144242388755,-3.9631676212351548,0.4552495548851216,0.4091364977544062,1.195899969911821,1.3169667615708525,3,right
5.155,-0.5902873315621404,0.20058608127973543,-0.1869908693655905,0.8352037888795166,-4.066366744304335,0.4363349212993441,0.4003582379137976,1.2116379441859466,1.3600850613500404,3,right
5.156000000000001,-0.5911807638231162,0.20439390836860385,-0.187941840677573,0.7831090220098189,-4.168178074445593,0.41704951108561183,0.3913744303983705,1.2269436219278076,1.402278588569555,3,right
5.16,-0.5921015139152035,0.2083963529513798,-0.1887866612398432,0.7308709063764924,-4.268554933617733,0.39741564196509754,0.3821922689629544,1.2418145187050285,1.4435243780021467,3,right
5.1610000000000005,-0.5930498064940429,0.2125913943802151,-0.18952515767535377,0.6785000546890595,-4.367451345232895,0.37745578220439124,0.3728191265658571,1.2562482050547148,1.483800179511943,3,right
5.1610000000000005,-0.5940258066952827,0.21697695112571516,-0.19015722911488012,0.6260067359889867,-4.464822069585097,0.35719252591674683,0.3632625435654552,1.2702423122087523,1.523084482557555,3,right
5.167000000000001,-0.5950296192801731,0.22155088170121992,-0.19068284693670443,0.5734008854781588,-4.560622642887931,0.33664856882747896,0.35353021559990205,1.2837945387810494,1.56135654091458,3,right
5.167999999999999,-0.5960612878187573,0.22631098564881214,-0.19110205446135065,0.5206921158114747,-4.654809420057567,0.3158466844601713,0.34362998148877644,1.2969026576824518,1.5985963965014778,3,right
5.169,-0.5971207939283011,0.23125500459302678,-0.19141496662034613,0.46788972973472714,-4.7473396206336975,0.2948097007692378,0.3335698114035372,1.3095645227217303,1.6347849014978497,3,right
5.17,-0.5982080565792988,0.23638062336805257,-0.19162176962237037,0.4150027339965186,-4.838171375896034,0.2735604773691294,0.3233577953885627,1.3217780746988503,1.6699037384955346,3,right
5.171,-0.5993229314735744,0.24168547122344128,-0.19172272063981968,0.3620398544892844,-4.9272637744901635,0.2521218835794919,0.31300213222263773,1.3335413469893869,1.7039354387278665,3,right
5.1770000000000005,-0.6004652104900076,0.24716712310960876,-0.19171814753561547,0.3090095525476093,-5.014576904610988,0.2305167774351505,0.3025111185920057,1.3448524706564589,1.7368633984810165,3,right
5.178,-0.6016346211845549,0.25282310103875705,-0.19160844864208149,0.25592004228386733,-5.100071892117591,0.2087679856836318,0.29189313854566706,1.355709679125261,1.7686718937882704,3,right
5.178999999999999,-0.6028308263254851,0.25865087551274274,-0.19139409259149806,0.20277930881437747,-5.183710934687553,0.1868982847226356,0.2811566532031928,1.3661113124539817,1.7993460935049677,3,right
5.18,-0.6040534234454943,0.2646478670071953,-0.19107561818703755,0.14959512722375257,-5.265457332261455,0.16493038241543953,0.2703101906849331,1.3760558212335992,1.8288720708586639,3,right
5.184,-0.6053019443999571,0.2708114474978746,-0.19065363429662363,0.0963750821149449,-5.345275514023098,0.14288690072180812,0.2593623362341374,1.3855417701477424,1.8572368135658586,3,right
5.185,-0.6065758549322896,0.2771389420093363,-0.19012881975117718,0.04312658759234729,-5.423131062155624,0.12079035908162837,0.2483217225001598,1.394567841222493,1.8844282326033788,3,right
5.189,-0.6078745542599636,0.28362763015892667,-0.1895019232325775,-0.010143092474818594,-5.498990732608311,0.09866315848821323,0.23719701995161083,1.403132836794694,1.9104351697192123,3,right
5.19,-0.6091973747053316,0.2902747476630598,-0.18877376314276664,-0.06342682406169739,-5.5728224731032485,0.07652756618799618,0.22599692738802296,1.4112356822260093,1.9352474037642478,3,right
5.195,-0.6105435814024792,0.297077487768998,-0.18794522744874267,-0.11671758262253194,-5.644595438605494,0.05440570094318777,0.2147301625183322,1.4188754283886693,1.9588556559230106,3,right
5.196000000000001,-0.61191237211541,0.3040330025746662,-0.18701727349664257,-0.17000843290394602,-5.714280004474558,0.032319518793876574,0.20340545257423584,1.426051253947498,1.9812515939180835,3,right
5.2,-0.6133028772055166,0.31113840420106115,-0.1859909277840718,-0.22329250908983278,-5.781847777509253,0.010290799256032447,0.19203152492627035,1.4327624674614978,2.002427835259471,3,right
5.2010000000000005,-0.6147141597873932,0.31839076578541553,-0.18486728567668614,-0.27656299543092416,-5.847271605092029,-0.011658868108090678,0.18061709767026246,1.4390085093269391,2.022377949606712,3,right
5.205,-0.6161452161103852,0.3257871222675211,-0.18364751105483917,-0.3298131075121167,-5.910525582632902,-0.03350809681055344,0.1691708701516385,1.4447889535825682,2.041096460308059,3,right
5.205,-0.6175949761983235,0.33332447094633677,-0.18233283587951793,-0.38303607431061015,-5.971585059507056,-0.05523571631256716,0.15770151339493665,1.4501035095962098,2.0585788451775446,3,right
5.21,-0.619062304772042,0.340999771788923,-0.1809245596724143,-0.43622512119787626,-6.030426643673979,-0.07682078471657693,0.14621766040575065,1.454952023650706,2.0748215365672396,3,right
5.211,-0.6205460024691064,0.3488099474775464,-0.17942404890918126,-0.48937345403841614,-6.0870282051598,-0.09824260133831313,0.1347278963122413,1.4593344804457984,2.0898219207884563,3,right
5.215,-0.6220448073637116,0.3567518831826671,-0.17783273632498542,-0.5424742445381879,-6.14136887857819,-0.11948071922118385,0.12324074831328619,1.4632510045312195,2.103578336932123,3,right
5.216,-0.6235573967784811,0.36482242605073306,-0.17615212012881248,-0.5955206169954865,-6.193429064858797,-0.14051495765497168,0.1117646754002959,1.466701861684923,2.1160900751349727,3,right
5.218999999999999,-0.6250823893703629,0.37301838439769264,-0.17438376312080778,-0.6485056366069433,-6.2431904323458,-0.1613254147603303,0.10030805781970821,1.4696874602490413,2.1273573743346508,3,right
5.221,-0.6266183474668227,0.3813365266016555,-0.17252929170639186,-0.701422299481174,-6.290635917422626,-0.18189248020004847,0.08887918624317873,1.4722083524348235,2.1373814195532397,3,right
5.223,-0.6281637796277071,0.38977357969082155,-0.17059039480155472,-0.7542635245124493,-6.335749724812346,-0.2021968480774647,0.07748625061251865,1.474265235606466,2.1461643387451588,3,right
5.224,-0.6297171434112682,0.3983262276262961,-0.16856882262640158,-0.8070221472665836,-6.378517327696674,-0.22221953008177295,0.06613732862648543,1.4758589535524143,2.153709199241804,3,right
5.228,-0.6312768483268045,0.4069911092844685,-0.16646638538985023,-0.8596909160310433,-6.418925467789821,-0.24194186893926145,0.0548403738366119,1.476990497751382,2.1600200038217263,3,right
5.229,-0.6328412589598676,0.41576481615008687,-0.1642849518745421,-0.9122624901810571,-6.456962155496793,-0.26134555222877315,0.04360320334176552,1.4776610086418176,2.165101686425866,3,right
5.23,-0.6344086982594709,0.42464388973744455,-0.16202644793199036,-0.9647294410132741,-6.492616670278934,-0.28041262661886707,0.032433485183268954,1.4778717769163432,2.16896010750515,3,right
5.234,-0.6359774509802321,0.4336248187615919,-0.1596928548929266,-1.0170842551119281,-6.525879561312016,-0.29912551255621816,0.021338725744188627,1.4776242448867647,2.1716020489326913,3,right
5.235,-0.63754576727492,0.4427040360843887,-0.157286207891768,-1.0693193398805345,-6.556742648361448,-0.3174670192984791,0.010326257568582738,1.4769200079780516,2.173035208380644,3,right
5.235,-0.6391118664336601,0.4518779154628096,-0.15480859410128867,-1.1214270300948752,-6.585199022515314,-0.3354203599401396,-0.0005967720953200669,1.4757608163942473,2.1732681930869013,3,right
5.2379999999999995,-0.6406739407646732,0.4611427681298369,-0.15226215087331826,-1.173399593901054,-6.611243046255226,-0.35296916594350475,-0.011423411925450903,1.474148576972537,2.1723105129848785,3,right
5.2379999999999995,-0.6422301596082236,0.4704948392406574,-0.1496490637803453,-1.2252292371137121,-6.634870352491938,-0.3700975008212451,-0.022146916338957393,1.4720853552262836,2.170172573194787,3,right
5.245,-0.6437786734725325,0.479930304216974,-0.14697156454993815,-1.2769081054460982,-6.656077842462801,-0.3867898728595793,-0.03276075451935094,1.4695733775737014,2.1668656658770926,3,right
5.246,-0.6453176182804008,0.48944526501971575,-0.14423192888122618,-1.3284282847349465,-6.6748636825350784,-0.4030312469053878,-0.04325861868883205,1.466615033747542,2.1624019614454255,3,right
5.247999999999999,-0.6468451197193439,0.4990357463771784,-0.14143247413307472,-1.3797817993090415,-6.691227299983004,-0.41880705526642914,-0.053634431656585435,1.4632128793798698,2.1567944991328294,3,right
5.247999999999999,-0.6483592976959635,0.5086976919935663,-0.1385755568780901,-1.4309606086499125,-6.705169377799471,-0.4341032077725794,-0.06388235367352195,1.4593696387547166,2.15005717690187,3,right
5.252999999999999,-0.6498582709052564,0.5184269607623014,-0.1356635703253439,-1.4819566024926423,-6.716691848596355,-0.44890610104472006,-0.07399678862361195,1.4550882077201206,2.1422047406858136,3,right
5.254,-0.6513401615333634,0.5282193230087204,-0.13269894162646084,-1.5327615945142972,-6.7257978876404625,-0.4632026270165646,-0.08397238958160437,1.4503716567497844,2.1332527729447923,3,right
5.257000000000001,-0.6528031001138186,0.5380704567876134,-0.12968412909120597,-1.583367314756987,-6.732491905065159,-0.4769801807533356,-0.09380406376655905,1.4452232341433178,2.123217680517636,3,right
5.257999999999999,-0.6542452305516889,0.5479759442625576,-0.1266216193464317,-1.6337654009320342,-6.736779537290789,-0.49022666760978834,-0.10348697692023678,1.4396463693527686,2.112116681746847,3,right
5.263999999999999,-0.6556647153185945,0.5579312681957714,-0.12351392447397418,-1.6839473887511822,-6.738667637680054,-0.5029305097686255,-0.11301655713899356,1.433644676421903,2.0999677928510354,3,right
5.265,-0.6570597408067608,0.5679318085781649,-0.12036357915770167,-1.7339047014302014,-6.7381642664476,-0.515080652198855,-0.12238849818741214,1.427221957523454,2.086789813516022,3,right
5.268,-0.658428522814783,0.5779728394289549,-0.11717313785871196,-1.7836286385096571,-6.735278679836127,-0.5266665680721192,-0.13159876232147782,1.4203822065783194,2.0726023116727594,3,right
5.269,-0.6597693121243907,0.5880495257939915,-0.11394517202607739,-1.8331103641369801,-6.730021318564482,-0.5376782636734673,-0.14064358264866456,1.4131296129394808,2.0574256074272124,3,right
5.272,-0.6610804001182553,0.5981569209731432,-0.11068226734406654,-1.8823408949533305,-6.722403795546304,-0.5481062828414525,-0.1495194650518465,1.4054685651221996,2.0412807561043804,3,right
5.273,-0.6623601243851255,0.6082899640093604,-0.10738702101610025,-1.9313110877280868,-6.7124388828709405,-0.5579417109708151,-0.1582231897034849,1.3974036545608526,2.0241895303657507,3,right
5.278,-0.6636068742593794,0.6184434774747357,-0.10406203908910586,-1.9800116268830845,-6.700140498031578,-0.5671761786093652,-0.16675181219606663,1.3889396793715767,2.0061744013566285,3,right
5.28,-0.6648190962440178,0.6286121655925797,-0.10070993382790713,-2.0284330120480107,-6.685523689378716,-0.5758018646790016,-0.17510266431428514,1.3800816480987304,1.9872585188370093,3,right
5.2829999999999995,-0.6659952992676066,0.6387906127398251,-0.09733332115444104,-2.0765655457876138,-6.668604620770395,-0.5838114993491056,-0.18327335447396095,1.3708347834220116,1.9674656902469467,3,right
5.2829999999999995,-0.6671340597288115,0.6489732823805885,-0.09393481816753087,-2.1243993216406087,-6.649400555383881,-0.5911983665888186,-0.19126176785219684,1.3612045257999261,1.94682035865471,3,right
5.287999999999999,-0.6682340262878942,0.6591545164883952,-0.0905170407565959,-2.1719242126093636,-6.627929838646845,-0.5979563064229696,-0.19906606623275175,1.351196537024173,1.9253475795334438,3,right
5.289,-0.66929392437072,0.6693285355200811,-0.08708260132057417,-2.219129860238618,-6.604211880239473,-0.6040797169146449,-0.2066846875901015,1.3408167036583947,1.9030729963095245,3,right
5.292000000000001,-0.6703125603568597,0.6794894390079886,-0.0836341066038689,-2.2660056644206166,-6.5782671351123865,-0.6095635558956098,-0.21411634543513092,1.3300711403336407,1.880022814623355,3,right
5.292999999999999,-0.6712888254314676,0.6896312068391289,-0.0801741556647678,-2.312540774063173,-6.550117083458729,-0.6144033424639825,-0.22136002794487342,1.3189661928718028,1.8562237752409714,3,right
5.297000000000001,-0.6722216990915617,0.6997477012908162,-0.07670533799664302,-2.358724078756242,-6.5197842095723235,-0.6185951582667405,-0.22841499689818165,1.3075084412072207,1.8317031255525253,3,right
5.297999999999999,-0.6731102523084589,0.7098326698911397,-0.07323023182421877,-2.4045442015716465,-6.487291979517412,-0.6221356485828041,-0.2352807864265254,1.2957047020741717,1.8064885896324319,3,right
5.2989999999999995,-0.6739536503555817,0.719879749168124,-0.06975140259306259,-2.4499894931296082,-6.452664817529175,-0.6250220232205912,-0.24195720152781997,1.2835620314197973,1.7806083370385415,3,right
5.3020000000000005,-0.674751155313629,0.7298824693445014,-0.0662714016622435,-2.4950480270647373,-6.41592808105793,-0.6272520572420786,-0.24844431618128948,1.2710877264881515,1.7540909508941416,3,right
5.303,-0.6755021282661542,0.7398342600303617,-0.06279276520386988,-2.5397075969918883,-6.377108034438965,-0.6288240915158183,-0.25474247084007257,1.2582893275129294,1.7269653959993168,3,right
5.303,-0.6762060312001525,0.7497284569651532,-0.05931801331122972,-2.5839557149152297,-6.3362318215401245,-0.6297370330609005,-0.2608522691384894,1.245174618962601,1.6992609875115678,3,right
5.307,-0.6768624286278414,0.7595583098596864,-0.05584964931676767,-2.6277796107420004,-6.293327438410429,-0.6299903550725247,-0.26677457375970154,1.231751630293564,1.6710073603652442,3,right
5.309,-0.6774709889488665,0.7693169913877157,-0.05239015932148283,-2.6711662324053,-6.248423707323325,-0.6295840964793759,-0.2725105014697077,1.2180286361731414,1.6422344393928767,3,right
5.312,-0.678031485578393,0.7789976073788689,-0.04894201194048447,-2.714102246255061,-6.201550253225961,-0.6285188609196848,-0.27806141733522977,1.2040141561347624,1.6129724100688838,3,right
5.313,-0.6785437978719876,0.7885932082680491,-0.045507658277320756,-2.7565740376558887,-6.152737482922835,-0.6267958150904057,-0.2834289281425047,1.1897169536267873,1.583251689794553,3,right
5.316,-0.6790079118773836,0.7980968018551046,-0.04208953215566013,-2.7985677118851813,-6.1020165669401285,-0.6244166864606286,-0.2886148750334622,1.1751460344155702,1.553102899641704,3,right
5.317,-0.6794239209391133,0.8075013674217744,-0.038690050657787405,-2.840069095454845,-6.049419423936122,-0.6213837603461695,-0.2936213253752389,1.1603106443025195,1.5225568364710411,3,right
5.321000000000001,-0.6797920261876332,0.8167998712477204,-0.03531161502381954,-2.881063737978588,-5.994978707517554,-0.617699876340392,-0.2984505638784516,1.145220266114104,1.491644445339875,3,right
5.322,-0.680112536971381,0.8259852835742392,-0.03195661193089092,-2.9215369147053964,-5.938727795316261,-0.6133684240944317,-0.30310508297913286,1.1298846159229625,1.4603967921126746,3,right
5.3260000000000005,-0.6803858713296979,0.8350505970854772,-0.028627415108312612,-2.9614736298383844,-5.880700780175102,-0.6083933384381142,-0.3075875724987151,1.1143136384575256,1.4288450361867642,3,right
5.327000000000001,-0.6806125566250046,0.8439888469992285,-0.02532638719430915,-3.00085862075675,-5.820932463286804,-0.6027790938309937,-0.3119009085959419,1.0985175016568134,1.3970204032444309,3,right
5.332000000000001,-0.6807932304225189,0.8527931328617198,-0.022055881732826268,-3.0396763632570805,-5.759458349124254,-0.5965306981310762,-0.316048142024084,1.0825065903263795,1.3649541579417384,3,right
5.332999999999999,-0.6809286416227355,0.8614566421115804,-0.018818245241569248,-3.0779110779286944,-5.6963146419955875,-0.5896536856669453,-0.3200324857063428,1.0662914988506922,1.332677576443483,3,right
5.335,-0.681019651744774,0.8699726754208434,-0.015615819332906473,-3.1155467377761314,-5.631538244052455,-0.582154109597173,-0.32385730164183874,1.0498830229165927,1.300221918712928,3,right
5.336,-0.6810672361598942,0.8783346737438217,-0.012450942911751223,-3.1525670772002723,-5.565166754574954,-0.5740385335390776,-0.32752608715410586,1.033292150201864,1.267618400464269,3,right
5.34,-0.6810724849929847,0.886536246908559,-0.009325954479220988,-3.188955602447891,-5.497238470351907,-0.5653140224470865,-0.33104246049354563,1.0165300499823466,1.234898164685176,3,right
5.341,-0.6810366033325446,0.8945712034597779,-0.006243194513879231,-3.2246956036377195,-5.427792386970476,-0.5559881327191717,-0.3344101458048349,0.9996080616104928,1.2020922526362423,3,right
5.345,-0.6809609103013553,0.9024335812991453,-0.003205007784645338,-3.259770168469338,-5.356868200824535,-0.5460689015080618,-0.3376329574698359,0.9825376818177166,1.1692315742337456,3,right
5.346,-0.6808468364426878,0.9101176784878626,-0.00021374529741705677,-3.2941621977193956,-5.284506311646741,-0.5355648352121823,-0.3407147838361169,0.9653305507924168,1.1363468777217922,3,right
5.351,-0.6806959188007068,0.917618083433027,0.002728234572547318,-3.3278544226277904,-5.210747825364893,-0.5244848971195506,-0.3436595703407673,0.9479984369850807,1.1034687185396688,3,right
5.352,-0.680509793068,0.9249297036338402,0.005618566316948427,-3.3608294242745336,-5.135634557078917,-0.5128384941761489,-0.34647130203877247,0.9305532205914572,1.0706274272900658,3,right
5.356,-0.6802901822740699,0.9320477922418183,0.008454879467026132,-3.3930696550460575,-5.059209033950686,-0.5006354628486198,-0.3491539855448121,0.9130068756643935,1.0378530767137728,3,right
5.357,-0.6800388816931969,0.9389679718707121,0.011234803144320082,-3.4245574622877277,-4.9815144977948895,-0.4878860540494737,-0.351711630396948,0.8953714508045686,1.005175447576459,3,right
5.36,-0.6797577399216838,0.945686255332828,0.013955973157134373,-3.4552751142372364,-4.902594907155242,-0.4746009170913729,-0.354148229850289,0.8776590483800354,0.9726239933732581,3,right
5.361000000000001,-0.6794486363649843,0.9521990632276712,0.01661604143556471,-3.4852048283314696,-4.822494938646592,-0.4607910826354589,-0.35646774110834695,0.8598818022241906,0.9402278037570718,3,right
5.365,-0.6791134556390077,0.9585032385144713,0.019212687220643957,-3.514328801977256,-4.7412599873398245,-0.44646794459711925,-0.35867406499944093,0.8420518537615378,0.908015566596781,3,right
5.3660000000000005,-0.6787540595773021,0.9645960583198727,0.02174362915968475,-3.5426292458742097,-4.658936165962934,-0.43164324097105333,-0.3607710251377042,0.8241813265675704,0.8760155286441679,3,right
5.367000000000001,-0.6783722575893495,0.9704752432479764,0.024206637408084996,-3.570088419975602,-4.575570302688269,-0.41632903353599005,-0.3627623467706496,0.8062822996548442,0.8442554551500694,3,right
5.371,-0.6779697760311622,0.9761389643937239,0.02659954499594963,-3.5966886721240603,-4.49120993730701,-0.4005376864455422,-0.36465163580784665,0.7883667802918266,0.8127625894210901,3,right
5.372000000000001,-0.6775482271246696,0.981585848167753,0.028920257950039132,-3.6224124791623478,-4.405903315760527,-0.38428184394827647,-0.36644235868768543,0.7704466774469165,0.781563613670083,3,right
5.372999999999999,-0.6771090779065574,0.9868149789618575,0.03116676384297546,-3.6472424898955476,-4.319699383304289,-0.3675744079071292,-0.3681378235761648,0.7525337766640223,0.7506846121530238,3,right
5.375,-0.6766536197426509,0.9918258996120405,0.03333713857913744,-3.6711615690443415,-4.2326477767488555,-0.3504285160249639,-0.36974116309842103,0.7346397166613698,0.7201510369353892,3,right
5.376,-0.6761829390869566,0.9966186095378087,0.03542955137515244,-3.694152841560724,-4.144798816048072,-0.33285752144369773,-0.3712553186406968,0.7167759676592699,0.6899876762707206,3,right
5.379,-0.6756978903039147,1.0011935603720903,0.03744226805715558,-3.716199737096441,-4.056203495192946,-0.31487497395466857,-0.3726830262276271,0.6989538113854138,0.6602186255027226,3,right
5.381,-0.6751990714176173,1.0055516488727743,0.039373652931621546,-3.737286034645985,-3.966913472195589,-0.296494602818623,-0.3740268039794549,0.6811843227063151,0.6308672604032342,3,right
5.385,-0.6746868035923798,1.009694206930837,0.04122216954188411,-3.7573959074301744,-3.876981057910967,-0.277730301144877,-0.3752889411535314,0.663478352833604,0.6019562128594735,3,right
5.385,-0.6741611150159968,1.0136229885608108,0.0429863805971603,-3.776513968083605,-3.7864592034420474,-0.25859611177802044,-0.37647148877420855,0.6458465140540003,0.5735073488250884,3,right
5.388999999999999,-0.6736217296768205,1.0173401538817344,0.0446649472990922,-3.7946253142065154,-3.6954014858719657,-0.23910621463939255,-0.377576251854989,0.6282991659319419,0.5455417484507413,3,right
5.39,-0.6730680613309263,1.0208482502684413,0.04625662823444645,-3.8117155743388142,-3.6038620920649604,-0.21927491546945477,-0.37860478321656293,0.6108464029340254,0.5180796883112241,3,right
5.394,-0.6724992127787977,1.024150191044355,0.047760277967923606,-3.8277709544111453,-3.511895800276154,-0.19911663591612336,-0.37955837890413363,0.5934980434246314,0.49114062564742006,3,right
5.395,-0.671913980421219,1.0272492322394955,0.049174845454649015,-3.8427782847249947,-3.419557959308707,-0.1786459049131036,-0.3804380752072086,0.5762636199823473,0.4647431845428205,3,right
5.4,-0.6713108639228101,1.0301489479968289,0.05049937239130848,-3.856725067510908,-3.326904464955503,-0.1578773512912865,-0.3812446472848135,0.5591523709870694,0.4389051439557459,3,right
5.401,-0.6706880806586332,1.0328532051676187,0.05173299162658704,-3.869599525110906,-3.233991733461277,-0.13682569756533033,-0.3819786093988703,0.5421732334279712,0.4136434275299237,3,right
5.404,-0.6700435844613858,1.035366137533643,0.05287492574072065,-3.8813906488281895,-3.14087667174006,-0.11550575483665071,-0.38264021675827004,0.5253348368828441,0.3889740951076271,3,right
5.405,-0.6693750880553513,1.037692119985755,0.053924485878476695,-3.892088248484176,-3.0476166440818777,-0.09393241875318947,-0.38322946897595583,0.5086454986196763,0.36491233587118654,3,right
5.41,-0.6686800884885484,1.0398357429060199,0.05488107089329249,-3.901683002719815,-2.9542694350819256,-0.07212066646551767,-0.3837461151411273,0.49211321977171135,0.3414724630403387,3,right
5.4110000000000005,-0.6679558948657224,1.041801786949123,0.055744166838671706,-3.9101665100750465,-2.8608932085248395,-0.05008555451805841,-0.38418966050846587,0.4757456825376311,0.31866791005457507,3,right
5.415,-0.6671996577295498,1.0435951983900187,0.05651334681682791,-3.917531340877116,-2.76754646195628,-0.027842217613487753,-0.3845593748060737,0.45955024835893804,0.2965112281714006,3,right
5.415,-0.6664083995125673,1.0452210651873957,0.05718827116051593,-3.9237710899652787,-2.6742879766737953,-0.005405868187686306,-0.384854302163609,0.4435339570270584,0.27501408541319283,3,right
5.417999999999999,-0.6655790455663093,1.0466845938938045,0.05776868789203801,-3.9288804302762563,-2.5811767628688354,0.017208203268026717,-0.3850732726618909,0.4277035266731649,0.25418726679717885,3,right
5.419,-0.6647084553510283,1.0479910875133425,0.05825443338011085,-3.9328551673115872,-2.4882719996518934,0.03998462720124333,-0.38521491550503373,0.41206535459420685,0.234040675784903,3,right
5.4239999999999995,-0.6637934534255431,1.0491459243635308,0.058645433098998064,-3.9356922945047845,-2.3956329696929917,0.06290795337382127,-0.3852776738159545,0.39662551886915315,0.21458333688945513,3,right
5.425,-0.6628308599005056,1.0501545379436752,0.05894170238654099,-3.9373900495029726,-2.303318988210154,0.0859626486831742,-0.38525982105588147,0.3813897807199844,0.1958233993806491,3,right
5.428999999999999,-0.6618175200067495,1.0510223977579911,0.05914334710489058,-3.937947971374405,-2.211389326039102,0.10913309449489506,-0.38515947906826536,0.3663635875725235,0.17776814203029626,3,right
5.43,-0.6607503323950034,1.0517549910025028,0.05925056413284604,-3.9373669587500264,-2.1199031265181763,0.13240358355253143,-0.3849746377472714,0.3515520767727624,0.16042397884169496,3,right
5.434,-0.6596262757519453,1.052357805012545,0.0592636416556716,-3.93564932890394,-2.0289193159234182,0.15575831653070957,-0.3847031762905014,0.3369600799120468,0.14379646571211302,3,right
5.435,-0.6584424333292418,1.0528363103850134,0.05918295925378787,-3.9327988777743945,-1.9384965071898486,0.1791813982981355,-0.3843428857938864,0.32259212770067275,0.12789030799232523,3,right
5.436,-0.6571960150455338,1.0531959447270893,0.05900898781791055,-3.928820940923621,-1.848692896656253,0.20265683395728945,-0.38389149258379535,0.308452455304132,0.11270936893318473,3,right
5.439,-0.655884376886794,1.053442097026807,0.058742289340552645,-3.9237224552886794,-1.7595661538150429,0.22616852473414142,-0.38334668147968337,0.29454500804246075,0.09825667902452778,3,right
5.439,-0.6545050373650845,1.0535800926777679,0.05838351665402802,-3.9175120208576537,-1.6711733052643991,0.24970026382276597,-0.3827061183818217,0.28087344736820175,0.08453444622051792,3,right
5.44,-0.6530556908321847,1.053615179217533,0.05793341319313463,-3.910199960116083,-1.5835706162469865,0.2732357323463194,-0.38196747194103986,0.26744115706507715,0.07154406702374211,3,right
5.443,-0.6515342175024473,1.053552512869446,0.05739281285593659,-3.9017983723907084,-1.496813474375489,0.2967584956273006,-0.38112843426861526,0.2542512496245465,0.05928613838919753,3,right
5.444,-0.64993869010299,1.0533971460190599,0.05676264002251349,-3.892321180929009,-1.4109562789332988,0.32025199992871944,-0.38018674068446523,0.2413065727609822,0.04776047040875181,3,right
5.4479999999999995,-0.648267377148099,1.0531540157912411,0.05604390975687774,-3.881784171836067,-1.3260523369556658,0.34369956977137317,-0.37914018850151426,0.2286097160268821,0.036966099738760035,3,right
5.4479999999999995,-0.646518742943207,1.0528279339000797,0.05523772815509338,-3.87020502470174,-1.242153766085008,0.3670844059010403,-0.37798665484382155,0.2161630174902338,0.026901303735624445,3,right
5.452999999999999,-0.6446914445417361,1.0524235779198363,0.054345292736475155,-3.8576033348909533,-1.159311403953851,0.3903895839730461,-0.3767241134957587,0.20396857043685016,0.017563615266184506,3,right
5.454,-0.6427843259755338,1.0519454840824374,0.053367892737353165,-3.8440006274668677,-1.0775747238516045,0.4135980540215224,-0.37535065077922697,0.1920282300612057,0.008949838161924349,3,right
5.457999999999999,-0.6407964101430624,1.0513980416543154,0.05230690917312801,-3.829420362713719,-0.9969917564342603,0.43669264078050385,-0.3738644804555956,0.18034362011002333,0.0010560632880787651,3,right
5.46,-0.6387268887695674,1.0507854888894401,0.05116381457713533,-3.8138879332231657,-0.9176090172391431,0.4596560449237733,-0.37226395764872994,0.16891613944358283,-0.006122314799193798,3,right
5.462000000000001,-0.6365751108589635,1.05011191050224,0.049940172384971775,-3.797430652505113,-0.8394714397700047,0.48247084529009115,-0.3705475917851599,0.157746968480454,-0.012590580632324759,3,right
5.462999999999999,-0.6343405700492585,1.049381236557444,0.04863763599053038,-3.78007773508119,-0.7626223139210696,0.5051195021601153,-0.3687140585471163,0.1468370754920904,-0.018354680071222054,3,right
5.4670000000000005,-0.6320228912697096,1.048597242635983,0.047257947541547204,-3.7618602680163167,-0.6871032295120829,0.5275843616509431,-0.3667622108338346,0.1361872227144585,-0.02342120202216285,3,right
5.468,-0.6296218170811579,1.0477635511094283,0.045802936562235705,-3.7428111738411447,-0.6129540247099865,0.549847661293778,-0.3646910887261904,0.1257979722446175,-0.02779735965528674,3,right
5.473,-0.6271371940597968,1.0468836333417255,0.04427451848849592,-3.7229651648155944,-0.540212739116544,0.5718915368597455,-0.3624999284493993,0.11566969169091124,-0.03149097113726233,3,right
5.473,-0.6245689595558831,1.045960812636586,0.04267469318103043,-3.7023586884812136,-0.4689155713050561,0.5936980304983565,-0.36018817032817063,0.10580255954617834,-0.03451043989369754,3,right
5.478,-0.621917129120103,1.0449982677595067,0.041005543450771016,-3.681029864447721,-0.399096840593236,0.6152491002525367,-0.35775546572836364,0.09619657025413643,-0.0368647344138819,3,right
5.479,-0.6191817848410154,1.0439990368798733,0.03926923359878315,-3.659018412356796,-0.3307889528433576,0.6365266310135079,-0.3552016829788509,0.08685153893984447,-0.0385633676084898,3,right
5.482,-0.6163630647786216,1.042966021796355,0.037468007947460455,-3.636365570964,-0.26402237008493173,0.6575124469781277,-0.3525269122669469,0.07776710577589817,-0.03961637572893815,3,right
5.483,-0.6134611536147802,1.041901992325583,0.03560418932474688,-3.6131140082776434,-0.19882558375941037,0.6781883256705598,-0.34973146950041245,0.06894273995676206,-0.04003429685518197,3,right
5.487,-0.6104762745772585,1.040809590749008,0.033680177456755334,-3.589307722691449,-0.13522509139075295,0.6985360135893578,-0.3468158991287001,0.060377743254391956,-0.03982814895684961,3,right
5.4879999999999995,-0.6074086826386972,1.039691336226727,0.031698447222941684,-3.56499193504604,-0.07324537649011477,0.7185372435402131,-0.34378097591575546,0.052071253129049457,-0.039009407530764935,3,right
5.492999999999999,-0.6042586589492347,1.0385496291025484,0.029661546728823332,-3.54021297155254,-0.012908891507421118,0.7381737537137211,-0.3406277056563469,0.044022245369956935,-0.03758998281608112,3,right
5.494,-0.6010265064320556,1.0373867550435545,0.02757209515133268,-3.515018137510001,0.04576395635282775,0.757427308566582,-0.33735732482754893,0.03622953624118619,-0.03558219658645826,3,right
5.499,-0.5977125464526498,1.0362048889793782,0.025432780309158104,-3.4894555817468986,0.10275481662952314,0.7762797215636543,-0.3339712991666619,0.02869178410891624,-0.03299875851695856,3,right
5.499,-0.5943171164621449,1.035006098828428,0.0232463559061956,-3.4635741517156187,0.15804740458997285,0.7947128798372313,-0.330471321166514,0.021407490526935025,-0.029852742121608062,3,right
5.502999999999999,-0.5908405685093023,1.0337923490165501,0.021015638396047403,-3.437423239167667,0.21162750787049645,0.8127087708188124,-0.3268593064787523,0.014375000757995793,-0.026157560255884317,3,right
5.504,-0.5872832685133517,1.0325655038046109,0.01874350342404193,-3.4110526163362547,0.2634829909362754,0.8302495108974891,-0.3231373892326499,0.0075925037275140364,-0.021926940198443833,3,right
5.504,-0.5836455961943358,1.0313273304434871,0.016432881819232897,-3.3845122625520303,0.3136037975192681,0.8473173761578588,-0.31930791636287825,0.001058031497534286,-0.01717489843332299,3,right
5.507000000000001,-0.5799279455701798,1.030079502170586,0.014086755127861365,-3.3578521812169395,0.3619819511880851,0.8638948352491277,-0.31537344119461974,-0.005230541487093019,-0.01191571544763316,3,right
5.507000000000001,-0.5761307259397088,1.028823601057634,0.011708150700823114,-3.3311222070605604,0.40861155419877065,0.8799645844357505,-0.3113367166203324,-0.01127549903695096,-0.006163910966768619,3,right
5.507999999999999,-0.5722543632711953,1.0275611207185544,0.009300136370119677,-3.3043718039556125,0.45348878471576526,0.8955095848156923,-0.30720068811591794,-0.01707928348734163,6.578006088693849e-05,3,right
5.5120000000000005,-0.5682993019187841,1.026293468885941,0.006865814764830403,-3.2776498553331717,0.496611892213879,0.9105131013764172,-0.30296848668849635,-0.022644495507829366,0.006758430614589679,3,right
5.5120000000000005,-0.5642660066044003,1.0250219698627365,0.004408317318068638,-3.2510044524134205,0.5379811903748745,0.9249587429910401,-0.29864342176144637,-0.027973893451269383,0.01389894388198529,3,right
5.516,-0.5601549646199733,1.023747866855006,0.0019307980099312824,-3.224482687231888,0.5775990465137837,0.9388305021410049,-0.294228973984837,-0.03307039225900021,0.021472074687843117,3,right
5.517,-0.5559666882112096,1.022472324193751,-0.0005635731103795998,-3.198130455677035,0.6154698668384959,0.9521127934646606,-0.28972878795909907,-0.037937061938193156,0.029462450089968457,3,right
5.522,-0.551701717100607,1.0211964294557818,-0.003071616578310575,-3.171992272579747,0.6516000773333256,0.9647904907957232,-0.2851466648595203,-0.04257712562667512,0.03785458916277297,3,right
5.523,-0.547360621099362,1.0199211954939225,-0.005590150299256597,-3.146111099131475,0.6859981003256929,0.9768489626685269,-0.2804865549488888,-0.04699395725987213,0.04663292199022563,3,right
5.527,-0.5429440027467842,1.0186475623866948,-0.00811599642337896,-3.1205281825554243,0.7186743268447229,0.9882741063281881,-0.27575254996536713,-0.051191078853861316,0.05578180789110523,3,right
5.528,-0.5384524999022854,1.0173763993188203,-0.01064598826960027,-3.095282907955789,0.7496410848755731,0.9990523802820703,-0.27094887537244033,-0.05517215741786825,0.06528555290062912,3,right
5.532,-0.5338867882015984,1.0161085064075484,-0.01317697725947985,-3.0704126622707713,0.7789126036083305,1.009170835427161,-0.266079882457561,-0.05894100150890543,0.07512842653364242,3,right
5.532,-0.5292475832795431,1.0148446164964238,-0.01570583982243469,-3.045952710255986,0.8065049737753716,1.0186171447861512,-0.2611500402659001,-0.06250155744061726,0.08529467785561613,3,right
5.5360000000000005,-0.524535642659142,1.0135853969457644,-0.01822948423446966,-3.021936082425797,0.8324361041661787,1.0273796318831554,-0.25616392735541377,-0.06585790515777624,0.09576855088872212,3,right
5.5360000000000005,-0.519751767211622,1.0123314514549346,-0.02074485735229647,-2.9983934748812278,0.8567256744037341,1.03544729778811,-0.25112622335924767,-0.06901425378726557,0.1065342993812268,3,right
5.542999999999999,-0.5148968021031245,1.0110833219541913,-0.023248951202079905,-2.9753531609542323,0.8793950840617947,1.0428098468569642,-0.2460417003413276,-0.07197493687578572,0.11757620096937466,3,right
5.542999999999999,-0.509971637160963,1.0098414906034419,-0.0257388093785159,-2.9528409145994194,0.900467398197588,1.0494577111928107,-0.2409152139308219,-0.07474440732393596,0.12887857076181639,3,right
5.546,-0.5049772066146707,1.0086063819316218,-0.02821153321032177,-2.930879945465647,0.9199672893697478,1.0553820738511122,-0.23575169422101427,-0.07732723202574716,0.14042577437747464,3,right
5.547000000000001,-0.49991448819506007,1.007378365144227,-0.030664287656948636,-2.909490845581358,0.9379209762066644,1.0605748908101496,-0.23055613641799083,-0.07972808622218118,0.15220224046853428,3,right
5.551,-0.49478450160680554,1.0061577566193682,-0.03309430691825211,-2.8886915475890302,0.9543561585858387,1.0650289117257756,-0.2253335912244252,-0.08195174757656226,0.16419247276099225,3,right
5.5520000000000005,-0.4895883064226578,1.0049448226058675,-0.03549889975831171,-2.8684972944657043,0.9693019494803128,1.068737699487471,-0.2200891549436387,-0.08400308997937055,0.17638106164590525,3,right
5.555,-0.4843269994756882,1.0037397821308012,-0.03787545455886875,-2.84892062066818,0.9827888035238135,1.0716956485906095,-0.2148279592890213,-0.08588707708930475,0.18875269535513267,3,right
5.557,-0.4790017118473002,1.0025428101179583,-0.040221444121786805,-2.8299713446431607,0.9948484423418854,1.0738980023377087,-0.20955516088382123,-0.0876087556170127,0.20129217075598627,3,right
5.561,-0.47361360556311255,1.0013540407119768,-0.04253443023286358,-2.811656572644365,1.005513776692015,1.0753408688793133,-0.20427593043624853,-0.08917324835739326,0.21398440379976832,3,right
5.562,-0.4681638701175169,1.0001735707948984,-0.04481206798443931,-2.793980713800383,1.0148188254515573,1.0760212361029937,-0.1989954415747894,-0.09058574697589279,0.2268144396597058,3,right
5.566,-0.46265371895163554,0.999001463672217,-0.04705210983659935,-2.7769455063788597,1.0227986314881798,1.075936985376782,-0.19371885932859553,-0.09185150455375302,0.23976746259427043,3,right
5.567,-0.45708438600921025,0.9978377528943708,-0.04925240938195583,-2.760550055194399,1.029489174443538,1.0750869041511812,-0.18845132823779315,-0.09297582789671587,0.25282880557231424,3,right
5.571000000000001,-0.45145712249195785,0.9966824461687928,-0.051410924772908796,-2.74479088010942,1.0349272804569845,1.0734706974217005,-0.18319796007855405,-0.09396406961125452,0.26598395969684585,3,right
5.572,-0.44577319392928294,0.9955355293101498,-0.05352572177561925,-2.7296619755790155,1.0391505288523186,1.071088998051668,-0.17796382120749066,-0.09482161995740472,0.27921858345336853,3,right
5.5729999999999995,-0.4400338776616658,0.9943969701757668,-0.0555949764274619,-2.715154881192716,1.0421971558068706,1.067943375952882,-0.17275391962851244,-0.09555389851399868,0.292518511752726,3,right
5.575,-0.43424046081230394,0.993266722539559,-0.0576169772875823,-2.7012587631678704,1.0441059550186265,1.0640363461194573,-0.16757319206270666,-0.09616634574055344,0.3058697646373528,3,right
5.5760000000000005,-0.42839423880173283,0.9921447298642694,-0.05959012728100084,-2.6879605067511587,1.0449161753836087,1.0593713755080287,-0.16242649140041207,-0.0966644145468249,0.31925855546376897,3,right
5.5760000000000005,-0.4224965144555393,0.9910309289332281,-0.061512945147222546,-2.675244819282998,1.0446674158169638,1.0539528887437615,-0.15731857481617323,-0.09705356195354375,0.3326712984306313,3,right
5.58,-0.4165485977539677,0.9899252533047614,-0.06338406651348587,-2.6630943426635794,1.043399517971038,1.0477862725718463,-0.15225409264996168,-0.09733924087866568,0.346094615423123,3,right
5.581,-0.4105518062605658,0.9888276365608781,-0.0652022446157718,-2.651489772129032,1.041152458722126,1.0408778788683202,-0.14723757805959825,-0.0975268920560047,0.3595153422008554,3,right
5.585,-0.40450746625129236,0.9877380153334517,-0.06696635068684295,-2.6404099772301293,1.037966244917628,1.0332350259642986,-0.14227343742971305,-0.09762193608737992,0.3729205339677864,3,right
5.585,-0.3984169145553464,0.9866563321004823,-0.06867537402521351,-2.62983212192533,1.0338808122493381,1.0248659980931516,-0.1373659415227037,-0.09762976562910729,0.3862974703626861,3,right
5.59,-0.3922815011106093,0.9855825377524435,-0.070328421755684,-2.6197317825334507,1.0289359289942004,1.015780042871687,-0.13251921735729097,-0.09755573771338794,0.39963365990867833,3,right
5.591,-0.3861025922227514,0.9845165939360411,-0.07192471828982831,-2.6100830633105514,1.0231711047380836,1.0059873667818826,-0.12773724080041926,-0.0974051662048771,0.4129168439603394,3,right
5.596,-0.3798815744967759,0.9834584751890931,-0.07346360449149748,-2.6008587096205864,1.016625504070928,0.9954991286291479,-0.12302382985841381,-0.09718331439246805,0.426135000186755,3,right
5.597,-0.3736198593845852,0.9824081708830382,-0.07494453654831261,-2.5920302186707613,1.0093378652391396,0.9843274309510343,-0.11838263865347934,-0.09689538771608963,0.43927634562882084,3,right
5.601,-0.36731888826384346,0.981365686987443,-0.07636708454863192,-2.5835679477838043,1.0013464237387573,0.9724853093482861,-0.11381715207181112,-0.09654652662809628,0.45232933936892,3,right
5.602,-0.360980137936338,0.9803310476655533,-0.07773093076770696,-2.5754412201806023,0.9926888408306729,0.9599867197081292,-0.10933068106978618,-0.09614179958862429,0.46528268485092367,3,right
5.605,-0.35460512641375685,0.9793042967047221,-0.07903586767479544,-2.5676184282477688,0.9834021369570503,0.9468465232877304,-0.10492635862490894,-0.09568619619409838,0.47812533188824186,3,right
5.605,-0.3481954188480091,0.9782854987825201,-0.08028179567921775,-2.560067134265775,0.9735226300360671,0.9330804696238413,-0.10060713631840318,-0.09518462043789726,0.4908464783973985,3,right
5.61,-0.3417526334614555,0.9772747405684532,-0.08146872063489535,-2.5527541685742254,0.9630858786101887,0.9187051772327498,-0.09637578153656844,-0.09464188410202631,0.5034355718943168,3,right
5.611000000000001,-0.3352784473374733,0.9762721316615003,-0.0825967511218243,-2.545645725151734,0.9521266298213733,0.903738112062829,-0.09223487527825504,-0.09406270027849903,0.5158823107901874,3,right
5.6160000000000005,-0.328774601940428,0.9752778053647845,-0.08366609552269605,-2.53870745458864,0.9406787721849056,0.8881975636601693,-0.08818681055605557,-0.09345167701899669,0.5281766455234393,3,right
5.617000000000001,-0.3222429082442294,0.9742919193006127,-0.0846770589154287,-2.5319045544314815,0.9287752931319502,0.8721026190060379,-0.08423379137906283,-0.09281331111125743,0.5403087795639566,3,right
5.62,-0.31568525136033115,0.9733146558708864,-0.0856300398063727,-2.525201856878732,0.9164482412894142,0.855473133983206,-0.0803778323053037,-0.0921519819805406,0.5522691703252767,3,right
5.622000000000001,-0.3091035945697658,0.9723462225676819,-0.08652552673094109,-2.518563913807792,0.9037286934643043,0.8383297024265435,-0.0766207585522246,-0.09147194571442088,0.564048530020066,3,right
5.625,-0.30249998267914496,0.9713868521357206,-0.08736409474700839,-2.51195507911362,0.8906467262984527,0.8206936227116858,-0.07296420665387711,-0.09077732920908776,0.575637826493706,3,right
5.626,-0.2958765446371953,0.9704368025829802,-0.08814640184323895,-2.505339588339667,0.8772313925582653,0.8025868618340458,-0.06940962565373028,-0.09007212443525958,0.5870282840703273,3,right
5.627999999999999,-0.28923549536690313,0.969496357028936,-0.08887318528099689,-2.4986816355819728,0.8635107020230182,0.7840320169289681,-0.06595827882232021,-0.08936018282176773,0.5982113844451132,3,right
5.629,-0.28257913678926416,0.9685658233741699,-0.08954525788477583,-2.4919454476473604,0.849511606934181,0.7650522741824084,-0.06261124588923576,-0.08864520975482396,0.6091788676561449,3,right
5.6339999999999995,-0.2759098580376036,0.9676455337735369,-0.09016350429228058,-2.485095355446645,0.8352599919672933,0.7456713650801728,-0.05936942577923176,-0.08793075919095311,0.6199227331684921,3,right
5.636,-0.26923013488554454,0.9667358438989069,-0.09072887717186993,-2.4780958626036576,0.8207806686870326,0.7259135199424618,-0.05623353984255702,-0.0872202283815544,0.6304352411026588,3,right
5.64,-0.26254252843398884,0.9658371319843277,-0.09124239341256538,-2.4709117112606522,0.806097374445316,0.7058034186892453,-0.053204135564511444,-0.08651685271350389,0.6407089136278696,3,right
5.64,-0.25584968311491807,0.9649497976533032,-0.09170513029040603,-2.4635079450603423,0.7912327756815474,0.6853661387808502,-0.050281590712683025,-0.08582370070250792,0.6507365364850367,3,right
5.641,-0.24915432406942578,0.9640742605342194,-0.09211822161398328,-2.455849969284383,0.7762084755834646,0.6646271002770469,-0.047466117832264024,-0.08514366923406096,0.6605111605045636,3,right
5.644,-0.2424592539562427,0.9632109586772037,-0.09248285385129275,-2.4479036081541428,0.7610450260165393,0.6436120080459208,-0.044757768973286115,-0.08447947917917706,0.6700261029284514,3,right
5.645,-0.23576734925216272,0.9623603467925059,-0.09280026224020921,-2.439635159431745,0.7457619433797605,0.6223467915978469,-0.04215644056078569,-0.08383367147979716,0.6792749484004751,3,right
5.646,-0.2290815561080438,0.9615228943337824,-0.09307172688556463,-2.431011446697637,0.7303777275959157,0.6008575438199922,-0.03966187836757382,-0.08320860374067976,0.6882515495864822,3,right
5.649,-0.22240488582473442,0.9606990834519202,-0.09329856884606118,-2.421999869812867,0.7149098831944835,0.57917046033096,-0.03727368257645745,-0.08260644733233141,0.6969500274411367,3,right
5.649,-0.2157404100232519,0.9598894068503412,-0.09348214621487824,-2.4125684539405903,0.6993749416945012,0.5573117807294867,-0.03499131292443826,-0.08202918500312699,0.7053647711476607,3,right
5.653,-0.20909125559567013,0.9590943655782181,-0.09362385019974735,-2.4026858972612692,0.6837884849437416,0.5353077322094953,-0.03281409392172225,-0.08147860899882865,0.7134904377563493,3,right
5.654,-0.20246059952422532,0.958314466799094,-0.09372510120983797,-2.392321617382176,0.6681651693198783,0.5131844755682542,-0.030741220138678155,-0.08095631968777785,0.7213219515468374,3,right
5.659,-0.19585166364804021,0.9575502215691318,-0.09378734495600807,-2.381445796414033,0.65251875074905,0.49096805354490664,-0.028771761554186568,-0.08046372469010625,0.7288545031382766,3,right
5.66,-0.1892677094471937,0.9568021426533987,-0.09381204856819617,-2.3700294246863383,0.6368621104970751,0.4686843414262137,-0.026904668959123572,-0.08000203850938702,0.7360835483707575,3,right
5.664,-0.18271203290545493,0.9560707424013993,-0.0938006967304103,-2.358044343071529,0.6212072816884682,0.44635899985601285,-0.025138779409021986,-0.07957228266522921,0.743004806980462,3,right
5.664,-0.17618795950567054,0.9553565306960161,-0.09375478783135517,-2.3454632838866907,0.6055654765083356,0.4240174297846264,-0.02347282172025022,-0.07917528632540298,0.7496142610901771,3,right
5.667999999999999,-0.16969883940478292,0.9546600129842653,-0.09367583012952324,-2.332259910339944,0.5899471140422006,0.40168472949425976,-0.021905422004342666,-0.07881168743617115,0.7559081535359268,3,right
5.669,-0.16324804282850414,0.9539816883944278,-0.09356533793727691,-2.3184088544870285,0.5743618487088082,0.37938565363630883,-0.020435109235405882,-0.07848193434959463,0.7618829860495965,3,right
5.672999999999999,-0.15683895571786133,0.9533220479428907,-0.09342482783779729,-2.3038857536618784,0.5588185992409999,0.3571445742164509,-0.019060320845811777,-0.07818628794667261,0.7675355173165302,3,right
5.672999999999999,-0.15047497564925222,0.9526815728355893,-0.09325581495850659,-2.288667285343209,0.5433255781698091,0.33498544346341413,-0.01777940834567196,-0.07792482425527365,0.7728627609261715,3,right
5.678999999999999,-0.14415950803652983,0.9520607328719249,-0.09305980933197575,-2.2727312004172697,0.5278903217670263,0.3129317585174209,-0.01659064296186598,-0.07769743756191141,0.7778619832329069,3,right
5.68,-0.13789596261037607,0.9514599849613813,-0.09283831237839942,-2.256056354794994,0.5125197204015988,0.29100652787446235,-0.015492221292670591,-0.07750384401651539,0.7825307011433441,3,right
5.684,-0.13168775015794618,0.9508797717622932,-0.0925928135404949,-2.2386227393397795,0.4972200492653737,0.2692322395227987,-0.014482270974306547,-0.07734358572944576,0.7868666798453208,3,right
5.685,-0.1255382794945269,0.9503205204466761,-0.09232478709199102,-2.22041150806007,0.48199699942385926,0.24763083070837938,-0.013558856355984056,-0.07721603536009816,0.790867930493002,3,right
5.688,-0.11945095462963366,0.9497826415863314,-0.09203568912749854,-2.2014050045187976,0.46685570914786056,0.2262236592662473,-0.012719984180287403,-0.07712040119654141,0.7945327078614717,3,right
5.689,-0.11342917208439471,0.9492665281475999,-0.09172695472843242,-2.181586786409559,0.45180079548205165,0.20503147645542144,-0.011963609265993236,-0.0770557327257266,0.7978595079832719,3,right
5.694,-0.1074763183172208,0.9487725545773451,-0.0913999952908833,-2.160941648247174,0.43683638600676195,0.18407440123524985,-0.011287640190665506,-0.07702092669389914,0.8008470657783794,3,right
5.695,-0.10159576722014003,0.9483010759610284,-0.0910561960013064,-2.1394556421179907,0.4219661507494909,0.16337189592177984,-0.010689944970612793,-0.07701473365693708,0.8034943526881445,3,right
5.6979999999999995,-0.09579087765490092,0.9478524272355975,-0.09069691345555331,-2.11711609643297,0.40719333420291104,0.14294274316330977,-0.01016835673603069,-0.07703576502042783,0.8058005743227463,3,right
5.699,-0.0900649910029164,0.947426922445399,-0.0903234734298212,-2.0939116326242107,0.392520787406378,0.12280502417495967,-0.00972067939938272,-0.07708250056938014,0.807765168130745,3,right
5.702000000000001,-0.08442142870640393,0.9470248540360814,-0.08993716881967309,-2.0698321797231682,0.3779510000482371,0.10297609817282906,-0.009344693315298143,-0.07715329648755084,0.8093878010983335,3,right
5.704,-0.07886348978041242,0.9466464921867305,-0.08953925776184583,-2.0448689867563634,0.3634861325464937,0.08347258294909281,-0.009038160930483497,-0.0772463938664436,0.8106683674849146,3,right
5.707999999999999,-0.07339444827667764,0.9462920841840023,-0.0891309619451414,-2.0190146328919023,0.3491280480657023,0.06431033653022239,-0.008798832422357104,-0.07735992770411002,0.8116069866006429,3,right
5.707999999999999,-0.06801755068039392,0.9459618538444898,-0.08871346510465343,-1.9922630352676114,0.33487834442822423,0.0455044398614051,-0.008624451321389486,-0.07749193638199989,0.8122040006293182,3,right
5.709,-0.0627360132208321,0.9456560009922097,-0.08828791168248751,-1.9646094544290618,0.32073838587830406,0.027069180461167002,-0.008512760092671991,-0.07764037154840403,0.8124599724926287,3,right
5.712999999999999,-0.05755301907745139,0.9453747009963291,-0.0878554056329679,-1.9360504973429384,0.306709334645881,0.009018037013277098,-0.008461505617040403,-0.07780310822951288,0.8123756837392564,3,right
5.7139999999999995,-0.052471715465069145,0.9451181043715466,-0.08741700935124963,-1.906584118147347,0.292792182198155,-0.0086363350255021,-0.008468444492606659,-0.07797795492940032,0.8119521324349736,3,right
5.715,-0.04749521058382962,0.9448863364412763,-0.08697374270697365,-1.876209617155751,0.278987779960675,-0.025882116523351418,-0.008531348097392139,-0.07816266354005566,0.811190531035278,3,right
5.716,-0.04262657042177349,0.9446794970615258,-0.08652658216588413,-1.8449276388273355,0.26529686923082824,-0.042708336086985786,-0.008648007389318138,-0.07835493899020678,0.8100923042326538,3,right
5.718999999999999,-0.03786881540088006,0.9444976604010119,-0.08607645998215348,-1.8127401692152925,0.25172011006613687,-0.05910487951019302,-0.00881623743963659,-0.0785524486214789,0.8086590867759611,3,right
5.718999999999999,-0.0332249168621095,0.9443408747716421,-0.08562426344576195,-1.779650533044218,0.2382581090366606,-0.07506249717428085,-0.009033881699977018,-0.07875283129241437,0.8068927212597733,3,right
5.724,-0.028697793390057687,0.9442091625034654,-0.08517083417605911,-1.7456633903665084,0.22491144579033553,-0.09057280942665454,-0.009298816003340107,-0.078953706210901,0.8047952558805068,3,right
5.725,-0.024290306982078066,0.9441025198595437,-0.08471696746311112,-1.7107847327052952,0.21168069839224807,-0.10562830998460801,-0.009608952299516565,-0.07915268149557128,0.8023689421552326,3,right
5.729,-0.02000525906961486,0.9440209169890436,-0.0842634116679074,-1.67502187858887,0.19856646739917208,-0.12022236741015245,-0.009962242125551893,-0.07934736246674273,0.7996162325980991,3,right
5.729,-0.015845386400971714,0.9439642979205691,-0.0838108676985381,-1.638383468378977,0.18556939863102967,-0.1343492247004233,-0.010356679812013684,-0.07953535966747168,0.7965397783483457,3,right
5.733,-0.011813356795510125,0.9439325806015065,-0.08335998858207391,-1.6008794582927934,0.17269020460126838,-0.14800399703690148,-0.010790305425947973,-0.07971429661528656,0.793142426742942,3,right
5.734,-0.007911764780193436,0.9439256569921975,-0.08291137915146347,-1.562521113515875,0.15992968456848233,-0.16118266773536183,-0.011261207451535218,-0.07988181728515517,0.7894272188259501,3,right
5.7379999999999995,-0.004143127120330764,0.9439433932245411,-0.0824655958649253,-1.5233210003008408,0.14728874317194174,-0.1738820824371203,-0.011767525209574801,-0.08003559332422054,0.7853973867857795,3,right
5.739,-0.0005098782569398036,0.9439856298326266,-0.08202314677402839,-1.4832929769440808,0.13476840761403408,-0.18609994158079837,-0.012307451017039651,-0.08017333099881452,0.7810563513105806,3,right
5.742999999999999,0.0029856343361054586,0.9440521820603933,-0.0815844916548077,-1.4424521835303155,0.1223698433529614,-0.19783479119245626,-0.01287923208804972,-0.08029277787422542,0.776407718851111,3,right
5.744,0.006341154860324005,0.9441428402497514,-0.08115004231080186,-1.400815030332434,0.11009436826938179,-0.20908601203057198,-0.013481172177714948,-0.08039172922765644,0.7714552787795064,3,right
5.749,0.009554523948997919,0.9442573703110847,-0.08072016304835006,-1.3583991847516481,0.09794346527103026,-0.21985380712096206,-0.014111632970395022,-0.0804680341947655,0.76620300043149,3,right
5.75,0.012623683450872196,0.9443955142750662,-0.08029517131818016,-1.3152235566806731,0.08591879329970348,-0.23013918771535388,-0.014769035214014811,-0.08051960165012527,0.7606550300186788,3,right
5.752999999999999,0.015546681214694444,0.9445569909204959,-0.07987533851741752,-1.2713082821703618,0.07402219670534797,-0.2399439577059308,-0.01545185960216122,-0.08054440582188267,0.7548156873967653,3,right
5.754,0.01832167584003449,0.9447414964691918,-0.07946089095100016,-1.226674705277983,0.062255712952348885,-0.24927069652678654,-0.016158647405769146,-0.08054049164083285,0.7486894626744957,3,right
5.757999999999999,0.020946941350881355,0.9449487053374821,-0.07905201095700315,-1.1813453579731579,0.05062157862347951,-0.2581227405718389,-0.016888000856281834,-0.08050597982405108,0.742281012647517,3,right
5.757999999999999,0.023420871740931628,0.9451782709350258,-0.07864883820341921,-1.1353439379753398,0.03912223368734039,-0.2665041631573754,-0.01763858328224407,-0.08043907169314997,0.735595157040327,3,right
5.7620000000000005,0.025741985335799453,0.9454298265045842,-0.07825147116126989,-1.0886952843946665,0.027760323995490648,-0.2744197530560309,-0.018409119001355608,-0.08033805372714645,0.7286368745387377,3,right
5.763,0.0279089289196194,0.9457029859991771,-0.07785996874908865,-1.0414253510460192,0.01653870197585515,-0.28187499162763596,-0.019198392970077142,-0.08020130184983557,0.721411298594454,3,right
