time,gFx,gFy,gFz,ax,ay,az,wx,wy,wz,subject_number,foot
2.085,0.5889531318006427,0.8445824474999403,0.2723222346877705,0.12328769150550749,1.5486983635246847,0.31096423237221804,-0.2588280762941169,-0.3413952784038388,0.8328883238922207,3,left
2.0869999999999997,0.592902650276912,0.84231080774739,0.27282257286269085,0.13530962316917491,1.5304323274506109,0.3114919793535236,-0.25434269246288227,-0.3409457725505248,0.8270024279468661,3,left
2.088,0.5967730261912999,0.8401608319825293,0.27329785122279693,0.14830665871142415,1.5103811692493785,0.31242428424399166,-0.2497209497329195,-0.34048557906864063,0.8205475732004237,3,left
2.093,0.6005621908576133,0.8381326218738129,0.27374578213106154,0.16228750773306522,1.4886171977157172,0.3137572097814671,-0.24496461121400973,-0.34001093336575816,0.8135385477965205,3,left
2.094,0.6042680690034722,0.8362261731453383,0.2741641157207447,0.17725937760846316,1.465213895844992,0.31548647754179293,-0.24007548292664133,-0.33951812120892816,0.8059902714454484,3,left
2.094,0.607888579016614,0.8344413692302058,0.274550647644382,0.19322793676848124,1.4402456856042085,0.317607501183921,-0.23505541384368359,-0.3390034704368514,0.7979177756722583,3,left
2.0980000000000003,0.6114216345634839,0.8327779745743741,0.27490322634034164,0.2101972809228388,1.4137876960282039,0.32011541897143864,-0.22990629611638888,-0.3384633436645714,0.7893361848836795,3,left
2.099,0.6148651474556088,0.831235627841357,0.27521975974492674,0.2281699026560919,1.38591553985611,0.32300512446809737,-0.2246300654706831,-0.33789413197926504,0.7802606982322166,3,left
2.103,0.6182170315978683,0.8298138352916558,0.2754982213753477,0.2471466645995929,1.3567051007493778,0.32627129497047835,-0.21922870175932646,-0.3372922496256452,0.7707065722542626,3,left
2.103,0.6214752078268945,0.8285119646003937,0.2757366557229603,0.2671267762542619,1.3262323313676614,0.329908417611163,-0.21370422965515734,-0.3366541296794157,0.7606891042576109,3,left
2.1069999999999998,0.6246376094425766,0.8273292393369743,0.27593318292454244,0.28810777451580255,1.2945730622226608,0.33391081314069887,-0.20805871947026558,-0.335976220707136,0.7502236164323253,3,left
2.108,0.627702188244511,0.8262647342820468,0.2760860027116379,0.3100855079568753,1.2618028212261692,0.33827265739773144,-0.20229428808558347,-0.3352549844107579,0.7393254406575571,3,left
2.112,0.6306669209011858,0.8253173717070266,0.2761933976665537,0.33305412492362096,1.2279966638449489,0.3429880004777385,-0.1964130999750282,-0.3344868942549951,0.7280099039755626,3,left
2.113,0.6335298154976756,0.8244859186918444,0.2762537358346556,0.35700606550679803,1.19322901377165,0.3480507836118522,-0.1904173683079825,-0.3336684350755692,0.7162923147028908,3,left
2.116,0.6362889181251802,0.8237689855108107,0.27626547275586094,0.381932057450657,1.1575735140177934,0.3534548537682863,-0.1843093561135583,-0.3327961036662529,0.7041879491474656,3,left
2.117,0.6389423193924083,0.8231650250784726,0.2762271529857415,0.407821116065519,1.1211028883318637,0.3591939759899014,-0.17809137748975334,-0.3318664103424968,0.6917120388990906,3,left
2.122,0.6414881607537534,0.8226723334190792,0.2761374111812467,0.43466054821284544,1.0838888128427875,0.36526184348243984,-0.17176579884028104,-0.3308758814792805,0.6788797586597461,3,left
2.123,0.6439246405609736,0.8222890511047489,0.2759949728297483,0.46243596043438095,1.0460017978265315,0.3716520854689395,-0.16533504012153258,-0.32982106302067443,0.6657062145789402,3,left
2.127,0.6462500197539475,0.8220131655981473,0.2757986547018762,0.4911312712997157,1.0075110794911992,0.3783582728268017,-0.15880157608181297,-0.32869852495843505,0.6522064330583045,3,left
2.128,0.6484626271141397,0.8218425144336748,0.2755473651059134,0.5207287280493366,0.9684845216738753,0.38537392152492994,-0.1521679374746851,-0.32750486677677915,0.6383953499886061,3,left
2.1319999999999997,0.650560864013124,0.8217747891739366,0.2752401040135818,0.5512089276129258,0.9289885273405257,0.39269249387928346,-0.14543671222795296,-0.3262367238603012,0.6242878003813614,3,left
2.133,0.6525432085979594,0.8218075400845197,0.27487596311393303,0.5825508420853017,0.8890879597785266,0.4003073976460962,-0.13861054654952099,-0.32489077486180007,0.6098985083563045,3,left
2.137,0.6544082193652413,0.8219381814799567,0.2744541258354027,0.6147318487449857,0.8488460733698524,0.40821198297290145,-0.1316921459510779,-0.32346375002657973,0.5952420774450663,3,left
2.138,0.6561545380864352,0.8221639977047516,0.2739738673608687,0.6477277647029118,0.8083244538316002,0.41639953722837236,-0.12468427617027408,-0.3219524404695738,0.5803329811705673,3,left
2.142,0.6577808920591142,0.8224821497214367,0.2734345546494246,0.6815128862712675,0.7675829678093653,0.4248632777328399,-0.11758976397178862,-0.32035370840141975,0.5651855538608213,3,left
2.142,0.6592860956721646,0.8228896822815437,0.27283564646876224,0.7160600331448594,0.7266797217079931,0.4335963424121808,-0.11041149780741687,-0.31866449829937726,0.5498139816550751,3,left
2.147,0.660669051288065,0.8233835316569057,0.27217669343235634,0.7513405974897404,0.6856710296434315,0.4425917783985824,-0.10315242831505328,-0.31688184901874145,0.5342322936594867,3,left
2.148,0.6619287494610531,0.8239605339095415,0.27145733802978017,0.7873245980360905,0.6446113903987678,0.45184252860248236,-0.09581556864036027,-0.3150029068121522,0.5184543532233906,3,left
2.148,0.6630642685223519,0.8246174336791474,0.27067731463922334,0.8239807392745385,0.6035534732670687,0.46134141628075825,-0.08840399458550127,-0.3130249390839391,0.5024938493792299,3,left
2.151,0.6640747735701026,0.8253508934673127,0.26983644951668706,0.8612764758572103,0.562548112663331,0.4710811276269906,-0.08092084462657284,-0.3109453484543721,0.4863642886194338,3,left
2.1519999999999997,0.6649595149084314,0.8261575033940809,0.2689346607624336,0.8991780823068082,0.5216443113877072,0.48105419241036046,-0.0733693198619748,-0.3087616865684116,0.47007898725563124,3,left
2.156,0.6657178259941403,0.8270337913942672,0.2679719582682437,0.9376507281389558,0.4808892524221629,0.49125296269045393,-0.06575268393291601,-0.30647166722326624,0.45365106453239123,3,left
2.157,0.6663491209674006,0.8279762338119985,0.2669484436449242,0.9766585585048763,0.44032831914287796,0.5016695896359356,-0.05807426291955805,-0.30407317864077943,0.43709343653638943,3,left
2.161,0.6668528918565105,0.8289812663459154,0.2658643101166219,1.016164780463209,0.4000051238309836,0.5122959984757258,-0.050337445195275866,-0.3015642948503653,0.4204188108687792,3,left
2.162,0.6672287055522153,0.8300452952944937,0.2647198423496927,1.056131754991409,0.3599615443646577,0.5231238616119624,-0.042545681217162054,-0.29894328617591104,0.4036396820336021,3,left
2.1630000000000003,0.6674762006429442,0.8311647090514206,0.26351541616528246,1.0965210946739377,0.32023776881407445,0.5341445699989275,-0.034702483230723856,-0.29620862881975224,0.38676832749470025,3,left
2.167,0.6675950841883892,0.8323358898066165,0.26225149807480547,1.1372937661320033,0.2808723468510037,0.5453492032640888,-0.02681142486655466,-0.2933590135365089,0.36981680435325487,3,left
2.167,0.6675851284894595,0.8335552254169795,0.26092864458074216,1.178410194687973,0.24190224542697344,0.5567284997164503,-0.018876140606603836,-0.29039335338925,0.35279694659777616,3,left
2.171,0.667446167897212,0.8348191214134907,0.25954750119466746,1.2198303678849045,0.20336290536444027,0.5682728277593219,-0.010900325097521172,-0.28731079058012804,0.33572036287810253,3,left
2.1719999999999997,0.667178095696679,0.8361240131018651,0.25810880113182527,1.261513935356631,0.1652882963168211,0.579972159853781,-0.0028877322884148853,-0.28411070234729474,0.3185984347547387,3,left
2.176,0.666780861097986,0.8374663776967616,0.25661336364997983,1.30342030411778,0.1277109690130559,0.5918160495111381,0.005157825629764846,-0.28079270591957645,0.30144231537466354,3,left
2.177,0.6662544663617138,0.8388427464116625,0.25506209201457736,1.3455087292178562,0.09066210451398488,0.6037936114218201,0.013232479506121098,-0.27735666252005253,0.28426292852457574,3,left
2.18,0.6655989640805381,0.8402497164097068,0.2534559710894933,1.3877383998790422,0.05417156037123245,0.615893504754261,0.021332304755994017,-0.27380268040934347,0.2670709680124144,3,left
2.181,0.6648144546364853,0.8416839625047458,0.2517960645681798,1.4300685212380202,0.018267913580715205,0.6281039196577974,0.02945332315453763,-0.2701311169590759,0.24987689732789378,3,left
2.186,0.6639010838494813,0.8431422484878179,0.25008351187186517,1.4724583918126346,-0.017021499775593085,0.6404125670039553,0.03759150492087752,-0.26634257974565406,0.23269094953272262,3,left
2.187,0.662859040825988,0.8446214379442066,0.24831952474900243,1.5148674768146195,-0.05167054830440548,0.6528066714008602,0.04574277111610947,-0.2624379266541298,0.21552312733114357,3,left
2.19,0.6616885560088308,0.8461185044219571,0.24650538361340385,1.557255477429909,-0.08565427259545758,0.6652729675158241,0.053902996378459855,-0.25841826498162324,0.1983832032714197,3,left
2.191,0.6603898994250164,0.8476305408144411,0.24464243365682378,1.5995823961882178,-0.11894885613675574,0.6777976997414386,0.062068012018977936,-0.2542849495294142,0.18128072002891998,3,left
2.195,0.6589633791300504,0.8491547678269332,0.24273208076498612,1.641808598543635,-0.15153159995022142,0.690366625240752,0.07023360950116742,-0.25003957967248897,0.16422499072150565,3,left
2.1959999999999997,0.6574093398557534,0.8506885414101084,0.24077578725699228,1.6838948707879136,-0.1833809010453066,0.7029650204073133,0.07839554432799059,-0.2456839953949976,0.1472250992079998,3,left
2.2,0.6557281618834832,0.8522293590614191,0.23877506746138027,1.7258024744179639,-0.21447623478617778,0.7155776907760317,0.08654954035969187,-0.2412202722797519,0.1302899003206293,3,left
2.2,0.6539202601841911,0.853774864917287,0.2367314831408829,1.7674931970787744,-0.2447981412660235,0.7281889844209273,0.0946912945858891,-0.23665071543957214,0.11342801998246202,3,left
2.205,0.6519860838863921,0.8553228535832467,0.23464663878177305,1.8089294002025746,-0.2743282157799359,0.7407828088759332,0.10281648237537067,-0.23197785237797416,0.0966478551610224,3,left
2.206,0.6499261161465778,0.8568712726743739,0.23252217677015125,1.850074063464551,-0.3030491034856526,0.7533426516149462,0.11092076322701304,-0.22720442476637914,0.07995757360945345,3,left
2.211,0.6477408744994061,0.8584182240647366,0.23035977248492087,1.890890826174797,-0.33094449833922684,0.7658516041273218,0.118999787045199,-0.22233337912472392,0.06336511334680384,3,left
2.2119999999999997,0.645430911756369,0.8599619638721578,0.22816112934466443,1.9313440257254586,-0.35799914639041897,0.7782923896249562,0.1270492009630682,-0.2173678563920543,0.04687818182925249,3,left
2.217,0.6429968175022084,0.8615009012313658,0.22592797385198354,1.9713987332111875,-0.38419885352028366,0.7906473944169998,0.13506465673687282,-0.21231118037339494,0.030504254764341213,3,left
2.218,0.6404392202110394,0.863033595930819,0.22366205068287737,2.0110207863400866,-0.40953049770105415,0.8028987029881006,0.1430418187145995,-0.20716684507710217,0.014250574542192456,3,left
2.218,0.6377587899771502,0.864558754999935,0.22136511786839666,2.050176819751282,-0.43398204585601485,0.815028136815877,0.15097637228174918,-0.20193850109760159,-0.0018758516338764502,3,left
2.219,0.634956241834244,0.8660752283332434,0.21903894211000657,2.088834292854113,-0.45754257539459847,0.8270172969630769,0.15886403250673142,-0.19662994145188908,-0.017868253639970418,3,left
2.22,0.6320323396147601,0.8675820034411773,0.21668529426326374,2.126961515302694,-0.4802023004954532,0.8388476104795741,0.16670055260803374,-0.19124508741888926,-0.03372009996161657,3,left
2.224,0.6289879002698598,0.8690781994370655,0.21430594502037464,2.164527670218262,-0.5019526032076982,0.8505003806490135,0.1744817319653913,-0.18578797478955641,-0.04942509858306488,3,left
2.225,0.6258237985363125,0.8705630603956499,0.21190266081534953,2.2015028352702934,-0.5227860694380307,0.8619568411144998,0.18220342357738267,-0.18026274068163678,-0.06497719715205962,3,left
2.229,0.6225409718127761,0.8720359482310033,0.20947719996094638,2.23785800170708,-0.5426965297055703,0.8731982138072045,0.18986154096791766,-0.174673610931824,-0.08037058244397974,3,left
2.23,0.6191404251059156,0.8734963352334547,0.2070313090108972,2.273565091330953,-0.5616791036277624,0.884205770050875,0.1974520645639617,-0.16902488804964003,-0.09559967917045163,3,left
2.231,0.6156232359239467,0.8749437963825096,0.2045667193313366,2.3085969712426846,-0.5797302454493212,0.8949608932239875,0.20497104756666998,-0.16332093971717765,-0.1106591481770986,3,left
2.234,0.6119905590104867,0.8763780015366205,0.2020851438600877,2.3429274660839177,-0.5968477870075797,0.9054451408103006,0.21241462133792277,-0.15756618781865886,-0.1255438840746362,3,left
2.235,0.6082436308115712,0.8777987076045426,0.1995882740283158,2.376531367598501,-0.6130309754409183,0.91564030421826,0.21977900032405884,-0.1517650979835899,-0.14024901234705106,3,left
2.239,0.6043837735685283,0.8792057508127678,0.197077776818945,2.409384441500658,-0.628280504592976,0.9255284657396657,0.22706048653839855,-0.14592216962713755,-0.15476988598011407,3,left
2.24,0.6004123989452808,0.8805990391815204,0.1945552919430859,2.441463431729781,-0.6425985399786267,0.9350920525676,0.23425547362393223,-0.14004192647120417,-0.16910208165297724,3,left
2.244,0.596331011125178,0.8819785453094182,0.19202242912650727,2.4727460621883317,-0.6559887373582126,0.9443138879028722,0.24136045051732105,-0.1341289075295457,-0.18324139553508817,3,left
2.245,0.5921412093391274,0.8833442995508991,0.18948076550782092,2.503211036057178,-0.6684562549638466,0.9531772391773442,0.24837200473512155,-0.12818765854015798,-0.1971838387301274,3,left
2.252,0.587844689810445,0.8846963836525745,0.18693184315649297,2.532838032780469,-0.6800077594189241,0.9616658634215733,0.2552868253028942,-0.12222272382804811,-0.21092563240813156,3,left
2.253,0.583443247120978,0.8860349248964312,0.18437716672219331,2.5616077028098783,-0.6906514253893213,0.9697640498032309,0.2621017053476006,-0.11623863858141449,-0.22446320266641287,3,left
2.253,0.578938775015717,0.887360090781638,0.18181820122795328,2.5895016601956824,-0.7003969290021114,0.9774566593617215,0.26881354437342336,-0.11023992152417769,-0.23779317515931958,3,left
2.254,0.5743332666694057,0.8886720842625762,0.179256370019356,2.616502473109741,-0.7092554350649981,0.9847291619633551,0.27541935024086717,-0.1042310679677361,-0.25091236953630597,3,left
2.259,0.5696288144401112,0.8899711395470907,0.17669305288154064,2.6425936523829936,-0.7172395781170665,0.9915676705003041,0.2819162408687113,-0.09821654322476538,-0.26381779372719444,3,left
2.259,0.5648276091332382,0.891257518445686,0.17412958433506678,2.6677596381375657,-0.7243634373388703,0.9979589723554125,0.2883014456780881,-0.0922007763678389,-0.27650663811291665,3,left
2.263,0.5599319387975112,0.8925315072502061,0.17156725212036225,2.691985784591008,-0.7306425053473309,1.003890558153718,0.29457230679765845,-0.08618815431561674,-0.28897626961941497,3,left
2.2640000000000002,0.554944187073766,0.8937934141094117,0.16900729587850624,2.715258343107596,-0.7360936508984136,1.009350647820307,0.3007262800485423,-0.08018301622933485,-0.301224225771772,3,left
2.269,0.549866831117344,0.8950435668588466,0.1664509060337881,2.737564443568953,-0.7407350755180832,1.0143282139628307,0.30676093572734064,-0.0741896482023218,-0.3132482087450142,3,left
2.269,0.5447024391144311,0.8962823112540701,0.16389922288221523,2.758892074133555,-0.7445862640796077,1.0188130025957043,0.3126739592052587,-0.06821227822528025,-0.3250460794474065,3,left
2.273,0.5394536674132401,0.8975100095497489,0.16135333589155454,2.7792300594519572,-0.7476679293429144,1.0227955512216427,0.31846315136100345,-0.06225507141009099,-0.3366158516714175,3,left
2.274,0.534123257294267,0.898727039361992,0.15881428322210658,2.798568037401783,-0.7500019504693708,1.0262672042848155,0.3241264288647867,-0.05632212545493104,-0.3479556863468927,3,left
2.278,0.5287140314087544,0.8999337927479306,0.1562830514804464,2.816896434403732,-0.751611305523099,1.0292201260084837,0.3296618243304153,-0.05041746633354389,-0.3590638859303238,3,left
2.279,0.5232288899188765,0.9011306754355112,0.1537605757183002,2.834206439377,-0.7525199979677231,1.0316473106285373,0.33506748635209505,-0.044545044191556867,-0.3699388889634464,3,left
2.283,0.5176708063772065,0.9023181061384579,0.1512477396844464,2.8504899763896496,-0.7527529771653054,1.0335425900328947,0.34034167944221333,-0.03870872943281077,-0.3805792648337396,3,left
2.285,0.5120428233867136,0.9034965158972146,0.14874537632920773,2.8657396760565614,-0.7523360528821454,1.034900638815227,0.34548278388265785,-0.03291230898183576,-0.3909837087616733,3,left
2.285,0.5063480480818804,0.9046663473972015,0.14625426855194265,2.879948845734681,-0.7512958038041057,1.03571697674997,0.35048929548516017,-0.027159482724141173,-0.4011510370035787,3,left
2.2880000000000003,0.500589647464711,0.905828054228753,0.1437751501763291,2.8931114385623156,-0.7496594800621897,1.0359879686940556,0.3553598252257185,-0.021453860153884063,-0.4110801821947948,3,left
2.2880000000000003,0.4947708436245291,0.9069821000624685,0.14130870713588933,2.9052220213862814,-0.7474548997672321,1.035710821919254,0.36009309870107387,-0.015798957274036622,-0.42077018872176625,3,left
2.295,0.488894908875213,0.9081289577163721,0.1388555788499343,2.916275741617708,-0.7447103395507683,1.0348835808774648,0.3646879553715266,-0.010198193778856737,-0.4302202080463879,3,left
2.296,0.48296516085269897,0.9092691080915886,0.1364163597679005,2.926268293054291,-0.7414544191074466,1.0335051193997309,0.3691433475840446,-0.004654890520807686,-0.4394294939687542,3,left
2.298,0.47698495762002985,0.9104030389557763,0.1339916010597067,2.9351958807593106,-0.737715979935901,1.031575130359016,0.3734583393859181,0.0008277327512225331,-0.44839739784908755,3,left
2.299,0.47095769282355965,0.9115312435583968,0.1315818124313135,2.943055185362299,-0.7335239594894131,1.0290941129794473,0.3776321051421598,0.006246559398484561,-0.4571233638159914,3,left
2.299,0.4648867909346429,0.9126542190673838,0.12918746404646825,2.9498433276429292,-0.728907263774954,1.0260633582507515,0.3816639279694456,0.011598577659631236,-0.46560692398748277,3,left
2.3040000000000003,0.45877570260488604,0.9137724648208793,0.1268089885354254,2.955557834534247,-0.7238946424537691,1.0224849330592587,0.385553197998992,0.016880882194424747,-0.47384769373056507,3,left
2.305,0.4526279001652943,0.9148864803897963,0.12444678306953248,2.9601966074006967,-0.7185145694794053,1.018361663491041,0.3892994104803572,0.022090675419447762,-0.4818453669844079,3,left
2.307,0.4464468733036205,0.9159967634500025,0.12210121148035932,2.9637578929435775,-0.712795130479133,1.0136971174835585,0.3929021637377479,0.027225268651187153,-0.4895997116715043,3,left
2.3080000000000003,0.4402361249520416,0.9171038074688411,0.11977260640453645,2.9662402568058646,-0.7067639170676167,1.0084955868463852,0.3963611569900027,0.032282083071658974,-0.4971105652204774,3,left
2.312,0.43399916740980177,0.9182080992175221,0.11746127143734579,2.96764255988972,-0.7004479280774367,1.0027620686391783,0.3996761880450145,0.03725865053153524,-0.5043778302235117,3,left
2.313,0.4277395187159212,0.9193101161270323,0.11516748327679971,2.9679639373969233,-0.693873477690095,0.9965022458934991,0.40284715087893896,0.042152614205517254,-0.5114014702506843,3,left
2.3169999999999997,0.4214606992769347,0.9204103235114374,0.11289149383682803,2.967203780599345,-0.6870661104502325,0.9897224676635533,0.40587403311012754,0.04696172911447714,-0.5181815058427742,3,left
2.318,0.41516622874567805,0.9215091716889378,0.1106335323062855,2.965361721343492,-0.6800505231449752,0.9824297283893934,0.40875691337730613,0.051683862528658656,-0.5247180107034245,3,left
2.322,0.4088596231411375,0.9226070930364454,0.10839380713140415,2.9624376192900495,-0.6728504935295739,0.9746316465546125,0.4114959586311099,0.056316994265991745,-0.5310111081108349,3,left
2.323,0.40254439219657523,0.9237044990168107,0.10617250790362132,2.958431551886231,-0.6654888158798363,0.96633644261907,0.4140914213476697,0.06085921689933133,-0.5370609675684637,3,left
2.327,0.3962240369233374,0.9248017772193029,0.10396980714262131,2.953343807065647,-0.657987243351248,0.9575529162057136,0.4165436366725317,0.06530873588618157,-0.5428678017135147,3,left
2.3280000000000003,0.3899020473808205,0.9258992884538831,0.10178586197378126,2.9471748786672882,-0.650366437124149,0.9482904225191147,0.41885301950277937,0.06966386963421113,-0.5484318635012894,3,left
2.332,0.38358190064759207,0.9269973639382384,0.09962081570595667,2.9399254645621227,-0.6426459223138637,0.9385588479719061,0.42102006151481536,0.07392304951560431,-0.5537534436827841,3,left
2.333,0.3772670589915454,0.9280963026142883,0.09747479931879717,2.931596467472685,-0.634844050624279,0.9283685849939085,0.42304532814484785,0.07808481984302647,-0.5588328685922144,3,left
2.338,0.3709609682361682,0.9291963686295318,0.09534793287211682,2.922188998467943,-0.6269779697230177,0.9177305059973596,0.42492945552871714,0.08214783781971181,-0.56367049826045,3,left
2.339,0.36466705631667645,0.9302977890177685,0.09324032685498411,2.9117043831126144,-0.6190635993160734,0.9066559364703112,0.4266731474072888,0.08611087347590565,-0.5682667248696512,3,left
2.343,0.3583887320158831,0.931400751611315,0.09115208349563075,2.90014417024701,-0.6111156138995247,0.8951566271689438,0.42827717200323323,0.089972809603614,-0.5726219715636962,3,left
2.344,0.3521293838654642,0.9325054032129843,0.08908329805168191,2.887510143370382,-0.6031474321657707,0.8832447253782632,0.4297423588746053,0.09373264170132985,-0.5767366916283,3,left
2.346,0.34589237919340754,0.933611848052296,0.08703406009440799,2.873804334597658,-0.5951712130415802,0.8709327452093889,0.43106959575023474,0.09738947794011825,-0.5806113680540279,3,left
2.346,0.33968106329296044,0.9347201465458442,0.085004454792966,2.8590290411563597,-0.5871978583351536,0.8582335369004306,0.4322598253515375,0.10094253916215273,-0.5842465134947168,3,left
2.352,0.3334987586830538,0.9358303143755252,0.08299456419684416,2.843186844387417,-0.5792370219693316,0.845160255086751,0.4333140422063911,0.10439115891768995,-0.5876426706253555,3,left
2.352,0.32734876442730004,0.9369423218922888,0.0810044685091729,2.826280631210502,-0.5712971257780608,0.8317263260052827,0.43423328946747863,0.10773478352211524,-0.5908004128639381,3,left
2.353,0.3212343554793125,0.9380560938486043,0.07903424734145896,2.8083136180114514,-0.5633853818432327,0.8179454135964409,0.4350186557600033,0.11097297207108715,-0.593720345351185,3,left
2.356,0.3151587820225061,0.9391715094578748,0.07708398094074133,2.789289376906267,-0.5555078213490434,0.8038313844661062,0.43567127209043943,0.11410539632745006,-0.5964031060424927,3,left
2.3569999999999998,0.3091252687694794,0.9402884027715358,0.07515375138164766,2.7692118643331396,-0.547669329931082,0.7893982716691155,0.4361923088404432,0.11713184041734198,-0.5988493668046388,3,left
2.362,0.30313701418321193,0.9414065633558176,0.07324364371737294,2.7480854519208826,-0.5398736894974309,0.7746602372747002,0.4365829728567712,0.12005220031592828,-0.6010598344790103,3,left
2.363,0.2971971895843834,0.9425257372423197,0.07135374708481713,2.72591495957914,-0.5321236264991596,0.7596315336733582,0.43684450464051766,0.12286648312694753,-0.6030352519112956,3,left
2.366,0.29130893811434666,0.9436456281212833,0.06948415576001143,2.7027056906947227,-0.5244208665036981,0.7443264636464365,0.43697817563716795,0.12557480616476366,-0.6047763989546686,3,left
2.367,0.28547537352743296,0.9447658987460444,0.06763497016054539,2.678463469025575,-0.5167661943046814,0.7287593395323834,0.43698528562859545,0.12817739584731352,-0.6062840934528156,3,left
2.3680000000000003,0.2796995787888988,0.9458861725213191,0.06580629779256882,2.6531946763591265,-0.509159517685954,0.7129444423871901,0.43686716022775346,0.13067458640803525,-0.6075591922084831,3,left
2.373,0.27398460445778994,0.9470060352502472,0.06399825414187728,2.6269062897089466,-0.5015999323375433,0.6968959823493034,0.43662514847645106,0.13306681843455767,-0.6086025919425484,3,left
2.374,0.2683334668384965,0.948125037011475,0.06221096351099105,2.599605917110517,-0.4940857860415598,0.6806280611049815,0.43626062054623505,0.13535463724162844,-0.6094152302479482,3,left
2.376,0.2627491458910117,0.949242694133134,0.060444559806198825,2.571301831595719,-0.48661474136215127,0.664154636784959,0.43577496554204126,0.13753869108545544,-0.6099980865421283,3,left
2.377,0.25723458289699785,0.9503584912306678,0.05869918728026202,2.5420030032125633,-0.47918383669378656,0.6474894913090572,0.43516958940792455,0.1396197292263349,-0.6103521830210147,3,left
2.381,0.2517926778857751,0.9514718832791017,0.056975001237024016,2.5117191290117478,-0.47178954564627845,0.6306462001320388,0.43444591293382107,0.14159859984613984,-0.6104785856168425,3,left
2.381,0.24642628683125423,0.9525822976955206,0.05527216870338072,2.4804606609187605,-0.4644278347450772,0.6136381043434099,0.43360536986195247,0.143476247826945,-0.6103784049615193,3,left
2.386,0.24113821863724327,0.9536891364133807,0.05359086907432672,2.448238831407378,-0.45709421942547945,0.5964782850733278,0.43264940509113503,0.14525371239676768,-0.6100527973565413,3,left
2.387,0.2359312319340582,0.9547917779354841,0.0519312947390739,2.4150656768875787,-0.4497838182995026,0.5791795401562523,0.43157947297691873,0.14693212464811176,-0.6095029657498306,3,left
2.391,0.2308080317149046,0.9558895793562275,0.05029365169795284,2.3809540587181077,-0.44249140567426604,0.5617543630035134,0.4303970357251436,0.14851270493471141,-0.6087301607192062,3,left
2.392,0.22577126584660107,0.9569818783463898,0.04867816017870174,2.3459176817511467,-0.435211462300802,0.5442149236355253,0.4291035618761708,0.14999676015158253,-0.6077356814615551,3,left
2.396,0.22082352149535608,0.9580679950952249,0.04708505525688299,2.309971110313821,-0.4279382243322838,0.5265730518239784,0.42770052487671867,0.15138568090320625,-0.6065208767861301,3,left
2.397,0.21596732151464548,0.9591472342047584,0.045514587479269356,2.273129781528584,-0.42066573047071026,0.5088402222939793,0.42618940173590836,0.15268093856438822,-0.6050871461097524,3,left
2.4,0.21120512084836196,0.960218886530317,0.043967023482031214,2.2354100158718526,-0.4133878672811209,0.491027541935776,0.4245716717618089,0.15388408223805985,-0.6034359404510697,3,left
2.401,0.2065393030061505,0.9612822309599538,0.04244264658849281,2.1968290248676694,-0.40609841265243385,0.47314573897541506,0.42284881537445146,0.15499673561401456,-0.6015687634203788,3,left
2.405,0.20197217666809442,0.9623365361240298,0.04094175736483594,2.1574049158105852,-0.39879107738400305,0.4552051540534111,0.4210223129909772,0.15602059373230318,-0.5994871722009001,3,left
2.406,0.1975059724735188,0.9633810620258265,0.039464674107894955,2.1171566934094455,-0.3914595448769734,0.4372157331602815,0.41909364397827314,0.15695741965474883,-0.5971927785167634,3,left
2.41,0.19314284004409016,0.9644150615861076,0.03801173323954569,2.076104258241282,-0.38409750890947864,0.4191870223775986,0.4170642856681514,0.15780904104778073,-0.5946872495823429,3,left
2.41,0.188884845284681,0.9654377820989528,0.036583289587648955,2.0342684019021013,-0.3766987094746782,0.4011281643730424,0.414935712429826,0.1585773466795323,-0.5919723090269653,3,left
2.416,0.1847339679979247,0.9664484666006005,0.035179716541410645,1.9916707987389837,-0.36925696666055596,0.38304789659779515,0.4127093947941518,0.1592642828338985,-0.5890497377884057,3,left
2.417,0.18069209984145543,0.9674463551552427,0.033801406076078525,1.948333994045611,-0.36176621255032043,0.36495455113450664,0.4103867986237977,0.1598718496440035,-0.5859213749679747,3,left
2.42,0.17676104265023082,0.9684306860618349,0.0324487686462575,1.904281388601082,-0.3542205211221359,0.34685605614397047,0.4079693843232431,0.16040209734728916,-0.5825891186394019,3,left
2.421,0.17294250713885023,0.969400696985083,0.031122232948722628,1.859537219429695,-0.34661413612679537,0.3287599388585887,0.4054586060845702,0.16085712246712947,-0.5790549266051357,3,left
2.4219999999999997,0.16923811198996866,0.9703556260126608,0.029822245555627937,1.8141265366572528,-0.33894149692180214,0.31067333007066544,0.4028559111765765,0.1612390639402798,-0.5753208171031418,3,left
2.425,0.16564938332518,0.9712947126408766,0.02854927041836031,1.7680751763373899,-0.3311972622401718,0.29260297006355385,0.4001627393057486,0.16155009923558777,-0.5713888694847943,3,left
2.426,0.16217775454476788,0.9722171986935331,0.027303788241563667,1.7214097291194388,-0.3233763318720913,0.2745552159336848,0.3973805220891981,0.16179244052380973,-0.5672612248939308,3,left
2.4290000000000003,0.1588245665134769,0.9731223291820145,0.026086295727325428,1.6741575046274353,-0.315473866237382,0.2565360502515356,0.39451068266756834,0.16196833094353313,-0.5629400869665124,3,left
2.43,0.15559106806225675,0.9740093531161171,0.024897304692045867,1.6263464914180328,-0.30748530382650874,0.23855109100964011,0.3915546354643718,0.1620800409816635,-0.5584277225516622,3,left
2.435,0.15247841677150553,0.9748775242742679,0.02373734106272382,1.5780053123833213,-0.299406376487657,0.22060560280580718,0.38851378608613407,0.1621298649721028,-0.5537264624442414,3,left
2.435,0.14948767999959572,0.9757261019397528,0.022606943763642737,1.529163175590338,-0.2912331225630618,0.2027045092000593,0.38538953135510273,0.16212011771312987,-0.5488387021165542,3,left
2.436,0.14661983612174406,0.9765543516074783,0.021506663505541826,1.4798498211847992,-0.2829618980069996,0.18485240613522133,0.38218325946603304,0.16205313120380863,-0.5437669024362233,3,left
2.439,0.14387577594767167,0.9773615456642893,0.02043706148588998,1.4300954661322645,-0.2745893858506523,0.16705357622357936,0.37889635025831697,0.16193125149957222,-0.5385135903567362,3,left
2.44,0.14125630428786135,0.9781469640451855,0.01939870800403655,1.3799307492058668,-0.2661126045082541,0.14931200365347758,0.37553017559448426,0.16175683568696003,-0.5330813595666257,3,left
2.445,0.1387621416355056,0.97890989486793,0.018392180992038414,1.3293866779910346,-0.2575289152891797,0.131631389518539,0.37208609983586677,0.1615322489773202,-0.5274728710827206,3,left
2.445,0.13639392592853344,0.979649635049529,0.01741806446073114,1.2784945785291515,-0.24883602924728473,0.11401516745997274,0.3685654804059877,0.16125986191913272,-0.5216908537723808,3,left
2.449,0.13415221435775437,0.9803654909085777,0.01647694686085902,1.2272860475835825,-0.2400320133690359,0.09646651956127297,0.36496966843200757,0.1609420477284571,-0.5157381047891175,3,left
2.45,0.13203748519308356,0.9810567787557798,0.015569419361167642,1.1757929073829303,-0.2311152960757681,0.0789883924445254,0.3613000094543368,0.16058117973686425,-0.5096174899054919,3,left
2.4530000000000003,0.13005013960819056,0.9817228254716931,0.014696074047978406,1.1240471626953923,-0.22208467201509102,0.06158351351772102,0.3575578441943035,0.16017962895607557,-0.5033319437266887,3,left
2.454,0.1281905034930486,0.9823629690684027,0.013857502052663518,1.0720809600871792,-0.21293930611615092,0.04425440732267147,0.35374450936954976,0.15973976175840138,-0.49688446976766976,3,left
2.459,0.12645882925117785,0.9829765592316553,0.013054291615561056,1.0199265492171359,-0.20367873688312962,0.02700341193332139,0.3498613385466171,0.15926393767194685,-0.4902781403763319,3,left
2.459,0.12485529758153024,0.9835629578419073,0.01228702609802002,0.9676162460189848,-0.19430287890103595,0.009832695354463957,0.3459096630199739,0.15875450728943702,-0.48351609648461746,3,left
2.464,0.12338001924365584,0.9841215394764149,0.011556281957417541,0.915182397621974,-0.18481202452751677,-0.007255728128917405,0.341890812706533,0.1582138102894027,-0.47660154716906356,3,left
2.465,0.12203303680035017,0.9846516918996538,0.01086262670231381,0.862657348860175,-0.17520684474408427,-0.02425998170123394,0.337806117044507,0.1576441735683649,-0.46953776900181804,3,left
2.468,0.1208143263270674,0.9851528165550625,0.010206616847186106,0.8100734102202257,-0.1654883891398255,-0.041178309914125646,0.3336569058852524,0.15704790948255962,-0.46232810517270334,3,left
2.469,0.11972379907541367,0.9856243290754546,0.009588795889124957,0.7574628270769601,-0.15565808500033118,-0.05800906278163098,0.32944451036655936,0.1564273141976549,-0.454975964362472,3,left
2.474,0.11876130308018104,0.9860656598310741,0.009009692331585452,0.7048577500661038,-0.1457177354742527,-0.07475068012153706,0.32517026375565705,0.15578466614482855,-0.4474848193469686,3,left
2.474,0.11792662470313035,0.9864762545333648,0.008469817780812277,0.6522902064430449,-0.13566951678957226,-0.09140167619150864,0.3208355022500163,0.15512222458149827,-0.4398582053114933,3,left
2.479,0.11721949010914236,0.9868555749098511,0.007969665137363042,0.5997920722766138,-0.12551597449134957,-0.10796062466834282,0.3164415657238527,0.15444222825492698,-0.4320997178542554,3,left
2.479,0.11663956667114551,0.9872030994618125,0.0075097068987078,0.5473950453268208,-0.11526001867239448,-0.12442614401844039,0.3119897984080539,0.1537468941668614,-0.4242130106574029,3,left
2.483,0.11618646430069957,0.9875183243128878,0.007090393581571036,0.49513061845560596,-0.10490491816800468,-0.14079688330732473,0.30748154949108103,0.15303841643730606,-0.41620179280372716,3,left
2.484,0.115859736701839,0.987800764154469,0.006712152266723379,0.4430300534198583,-0.09445429368560657,-0.1570715084957746,0.30291817362822443,0.1523189652654838,-0.4080698257167625,3,left
2.489,0.1156588825459397,0.9880499532923317,0.006375385265275216,0.3911243548962485,-0.08391210983984357,-0.17324868926986892,0.2983010313508679,0.15159068598505238,-0.39982091971590583,3,left
2.49,0.11558334656420097,0.988265446797175,0.00608046890384564,0.33944424458780076,-0.07328266606337225,-0.1893270864519698,0.29363148938944833,0.15085569820591704,-0.39145893024919454,3,left
2.49,0.11563252055257481,0.9884468217601595,0.005827752424037868,0.28802013526259923,-0.06257058636335308,-0.20530534003939316,0.28891092096359366,0.15011609502650566,-0.38298775399449736,3,left
2.4930000000000003,0.11580574428243302,0.9885936786543404,0.005617556986734979,0.2368821045755853,-0.05178080789336002,-0.2211820579172368,0.28414070611496345,0.1493739422956559,-0.3744113250909078,3,left
2.494,0.11610230630892533,0.9887056428029994,0.005450174764978004,0.1860598685250464,-0.04091856831018337,-0.2369558052915523,0.27932223213597,0.1486312779079358,-0.36573361169043556,3,left
2.498,0.11652144466849645,0.9887823659543278,0.005325868105426777,0.13558275439613404,-0.02998939188476366,-0.2526250948887588,0.2744568941074578,0.1478901111246487,-0.35695861289131237,3,left
2.498,0.1170623474582122,0.9888235279589503,0.005244868739760501,0.08547967304456948,-0.01899907433627159,-0.26818837796690487,0.2695460955360792,0.14715242191745706,-0.3480903560425557,3,left
2.503,0.11772415329176572,0.9888288385438592,0.005207377031120202,0.03577909044092087,-0.007953666394293216,-0.2836440361697441,0.26459124907752835,0.14642016033249527,-0.3391328943948722,3,left
2.504,0.11850595162923246,0.9887980391744681,0.0052135612442752045,-0.013491001271574755,0.003140543725354458,-0.29899037418255936,0.25959377733165856,0.14569524587284735,-0.3300903050726996,3,left
2.504,0.11940678298023591,0.9887309049959208,0.005263556832072602,-0.06230311235471983,0.014277048420463314,-0.314225613019257,0.25455511369537964,0.1449795668972741,-0.3209666873419202,3,left
2.5069999999999997,0.12042563898423246,0.9886272468440954,0.005357465735759704,-0.11063028250491609,0.02544913868661524,-0.3293478836982117,0.24947670325910326,0.14427498003309047,-0.3117661611475224,3,left
2.508,0.12156146237626365,0.9884869133143356,0.005495355702501158,-0.1584461054812604,0.0366499214752879,-0.34435522113575945,0.2443600037323838,0.14358330960111462,-0.30249286589524277,3,left
2.513,0.12281314684926757,0.9883097928731778,0.005677259629095188,-0.20572475107442423,0.04787233624095357,-0.3592455582150264,0.2392064863842828,0.1429063470506366,-0.2931509594509864,3,left
2.513,0.12417953682359431,0.9880958159979573,0.005903174945279166,-0.25244098448877134,0.05910917067309904,-0.37401672005918685,0.23401763698387132,0.1422458504023868,-0.2837446173316054,3,left
2.5180000000000002,0.1256594271316276,0.9878449573311869,0.006173063051308087,-0.29857018327501983,0.07035307564532828,-0.38866641855225675,0.22879495672617448,0.1416035436975207,-0.2742780320604033,3,left
2.5180000000000002,0.12725156262195378,0.9875572378391839,0.0064868488222727715,-0.34408835194921333,0.08159657941377142,-0.40319224715019447,0.22353996312875626,0.14098111645067934,-0.2647554126605386,3,left
2.522,0.12895463768466722,0.9872327269667454,0.0068444201873925515,-0.3889721344321518,0.09283210109706444,-0.4175916760247385,0.21825419088404266,0.14038022310523127,-0.2551809842593141,3,left
2.523,0.13076729569820905,0.9868715447814187,0.00724562778816818,-0.43319882444174634,0.10405196347018446,-0.4318620475820602,0.2129391926523818,0.13980248248885505,-0.24555898777616658,3,left
2.528,0.13268812839849975,0.9864738641011928,0.007690284715501696,-0.4767463739690109,0.1152484051044237,-0.4460005723979554,0.20759653978074918,0.13924947726767753,-0.23589367966700872,3,left
2.529,0.1347156751719377,0.9860399125978471,0.008178166321948899,-0.5195933999665792,0.12641359188576246,-0.46000432561093524,0.20222782293191616,0.138722753397245,-0.22618933169742958,3,left
2.532,0.13684842227496793,0.9855699748651786,0.008709010101176085,-0.5617191893767522,0.13753962794385574,-0.47387024381420484,0.19683465260881639,0.13822381956867102,-0.2164502307171197,3,left
2.533,0.13908480198483836,0.9850643944373153,0.009282515624447374,-0.6031037026241297,0.14861856602378148,-0.4875951224871396,0.19141865955876627,0.1377541466483761,-0.20668067840776486,3,left
2.536,0.14142319168814996,0.9845235757380841,0.009898344525251195,-0.6437275756958701,0.1596424173326075,-0.5011756140064825,0.1859814950421198,0.13731516710990851,-0.19688499097653986,3,left
2.537,0.14386191291519654,0.9839479859389578,0.010556120527719053,-0.6835721209305515,0.1706031608927226,-0.5146082262770868,0.18052483094986768,0.13690827445641685,-0.18706749876723328,3,left
2.542,0.14639923032987248,0.9833381567011868,0.011255429520882916,-0.7226193266344784,0.18149275243374122,-0.527889322021627,0.17505035975462596,0.13653482263242755,-0.1772325457609478,3,left
2.543,0.14903335068846488,0.982694685777605,0.011995819685827101,-0.7608518556420955,0.1923031328546331,-0.5410151187682815,0.1695597942793982,0.13619612542366996,-0.16738448893824456,3,left
2.548,0.15176242178576077,0.9820182384505874,0.012776801682296113,-0.7982530429349328,0.20302623628754785,-0.5539816895749694,0.1640548672684393,0.13589345584378223,-0.15752769747453768,3,left
2.548,0.15458453141181466,0.9813095487839727,0.013597848895329981,-0.8348068924312172,0.21365399779459954,-0.5667849645282853,0.15853733074449802,0.13562804550682897,-0.1476665517404957,3,left
2.551,0.15749770634497046,0.9805694206693453,0.014458397735380943,-0.870498073055946,0.22417836072865024,-0.5794207330548304,0.1530089551366689,0.13540108398465941,-0.13780544207916828,3,left
2.552,0.16049991140466144,0.9797987286524085,0.015357847980454545,-0.9053119141988312,0.23459128378887908,-0.5918846470821815,0.14747152816304293,0.1352137181482399,-0.12794876733153154,3,left
2.557,0.16358904858234327,0.9789984185326971,0.01629556314698068,-0.9392344006650916,0.24488474780165018,-0.604172225086268,0.141926853452311,0.13506705149220063,-0.11810093308213321,3,left
2.5580000000000003,0.1667629562643599,0.9781695077366712,0.017270870877301774,-0.9722521672215925,0.255050762256896,-0.6162788570614485,0.1363767488970287,0.13496214344303786,-0.10826634960747991,3,left
2.5580000000000003,0.17001940855895387,0.9773130854676573,0.018283063335080674,-1.0043524928383132,0.26508137162991247,-0.6281998104490797,0.13082304477415946,0.13490000865698012,-0.09844942956462802,3,left
2.562,0.17335611473979098,0.9764303126369006,0.01933139760474027,-1.0355232947225643,0.27496866151811883,-0.6399302370598713,0.12526758174577388,0.13488161632346063,-0.08865458555611677,3,left
2.563,0.17677071881818796,0.975522421581181,0.020415096096527616,-1.065753122240777,0.2847047646219694,-0.6514651810247913,0.1197122088956999,0.1349078894957113,-0.07888622776222627,3,left
2.5660000000000003,0.18026079925545707,0.9745907155748949,0.02153334696351565,-1.095031150820057,0.29428186659881567,-0.6627995878087599,0.11415878191497607,0.1349797044646634,-0.0691487617767876,3,left
2.5669999999999997,0.1838238688260798,0.9736365681464938,0.02268530453923501,-1.1233471759190214,0.30369221181810496,-0.6739283143208181,0.10860916147167246,0.1350978901826479,-0.05944658668418425,3,left
2.573,0.1874573746418947,0.9726614222100126,0.023870089803805346,-1.1506916071547375,0.31292810904586865,-0.6848461401538979,0.1030652117577114,0.13526322773806426,-0.049784093360453925,3,left
2.573,0.19115869834684474,0.9716667890228201,0.025086790882800174,-1.177055462655954,0.32198193708866113,-0.695547779959089,0.0975287991967384,0.13547644988122542,-0.04016566297052676,3,left
2.574,0.19492515649106862,0.9706542469802365,0.02633446357874129,-1.2024303636405667,0.33084615043996446,-0.706027896820433,0.09200179129710458,0.13573824060172004,-0.030595665633737803,3,left
2.576,0.19875400109231828,0.9696254402563471,0.02761213193200354,-1.2268085290874,0.33951328499556843,-0.7162811162467793,0.0864860556340384,0.13604923475776906,-0.021078459229865416,3,left
2.577,0.2026424203911771,0.968582077300664,0.028918788805134186,-1.2501827703000845,0.34797596391724384,-0.7263020402583441,0.08098345894510618,0.13641001775818995,-0.011618388318073778,3,left
2.582,0.2065875398038373,0.967525929203705,0.03025339648027669,-1.2725464852274582,0.35622690371015125,-0.7360852611832486,0.07549586632308769,0.13682112529772242,-0.0022197831412768816,3,left
2.583,0.21058642307319503,0.9664588279489983,0.031614887254393584,-1.2938936525271243,0.36425892055486614,-0.7456253750275521,0.0700251404904255,0.1372830431466104,0.007113041311407039,3,left
2.585,0.21463607361706197,0.9653826645716579,0.03300216401405901,-1.3142188254254046,0.3720649369209802,-0.7549169944199022,0.06457314113944496,0.13779620699547745,0.01637578621127759,3,left
2.5860000000000003,0.21873343607184734,0.9642993872438884,0.03441410077238085,-1.3335171254379208,0.37963798848596797,-0.7639547611588933,0.05914172432258397,0.13836100235667792,0.025564169792741183,3,left
2.591,0.22287539803060147,0.9632109993063158,0.03584954315527703,-1.3517842360121155,0.38697123138237627,-0.7727333583905295,0.05373274187692106,0.1389777645234519,0.03467392827886838,3,left
2.593,0.2270587919739768,0.9621195572612004,0.0373073088316986,-1.3690163961500903,0.3940579497957464,-0.7812475224424735,0.04834804086734323,0.13964677858835864,0.04370081685641973,3,left
2.595,0.23128039738904665,0.9610271687399272,0.03878618788976598,-1.385210394067193,0.4008915639350096,-0.7894920543410304,0.04298946303275487,0.14036827952261188,0.05264061072672674,3,left
2.596,0.235536943062998,0.9599359904540615,0.040284943165762865,-1.4003635609388199,0.407465638396408,-0.7974618310360749,0.037658844219792986,0.14114245231808945,0.06148910625858871,3,left
2.6010000000000004,0.23982510952793862,0.9588482261375799,0.04180231053500267,-1.4144737647849321,0.413773890941285,-0.8051518163583717,0.03235801378858391,0.14196943219393948,0.07024212226910827,3,left
2.602,0.24414153162230245,0.9577661244872205,0.04333699917310002,-1.4275394045387984,0.41981020170736216,-0.8125570717329587,0.027088793975151654,0.1428493048698565,0.07889550145813802,3,left
2.605,0.24848280112579604,0.9566919771071322,0.04488769179394296,-1.4395594043434932,0.4255686228723745,-0.8196727666714803,0.0218529991951685,0.14378210690825136,0.08744511202174886,3,left
2.6060000000000003,0.25284546942000935,0.955628116462332,0.04645304486909022,-1.4505332081166824,0.43104338878817455,-0.8264941890655501,0.016652435273823846,0.14476782612769126,0.09588684946985584,3,left
2.61,0.2572260501269854,0.9545769138433506,0.04803168883510907,-1.460460774421223,0.4362289266026302,-0.8330167553024063,0.011488898586678073,0.14580640209013743,0.10421663867285198,3,left
2.61,0.26162102168284446,0.9535407773424603,0.04962222830024957,-1.469342571676112,0.44111986738584913,-0.83923602022329,0.006364175096464365,0.14689772666465997,0.11243043616180139,3,left
2.616,0.2660268298112159,0.9525221498395643,0.05122324226716271,-1.4771795737393065,0.4457110577764434,-0.8451476869441347,0.0012800392709024925,0.14804164467046163,0.12052423270643411,3,left
2.617,0.27043988987006146,0.951523506992711,0.052833284392483776,-1.4839732558909364,0.4499975721627205,-0.8507476165572925,-0.0037617471333050785,0.14923795460219377,0.1284940561948632,3,left
2.62,0.27485658905385496,0.9505473552251682,0.0544508833065153,-1.4897255912424228,0.45397472541283973,-0.8560318377321564,-0.008759436435012865,0.15048640944069927,0.1363359748386114,3,left
2.62,0.2792732884404933,0.949596229699271,0.05607454301617077,-1.494439047594024,0.45763808616711227,-0.8609965562316523,-0.013711296556309418,0.15178671755246817,0.14404610072619017,3,left
2.625,0.2836863248801995,0.9486726922668001,0.05770274341255743,-1.4981165847603275,0.4609834907047494,-0.865638164360677,-0.018615612727811703,0.15313854368124213,0.151620593748118,3,left
2.6260000000000003,0.2880920127321406,0.9477793293856546,0.05933394090364628,-1.5007616523802203,0.46400705739647413,-0.8699532503616559,-0.02347068937921508,0.15454151003322134,0.15905566590427136,3,left
2.627,0.2924866454607982,0.9469187499932905,0.0609665691923063,-1.5023781882248801,0.4667052017535112,-0.8739386077714753,-0.028274852189030454,0.15599519744681614,0.1663475859459559,3,left
2.6289999999999996,0.2968664971077826,0.9460935833285796,0.062599040217668,-1.5029706170143626,0.4690746520825586,-0.8775912447531143,-0.033026450206868584,0.1574991466188446,0.17349268420006533,3,left
2.63,0.30122782365944517,0.945306476693496,0.06422974527296432,-1.5025438497503922,0.47111246575541726,-0.8809083934143691,-0.03772385792791492,0.1590528593485626,0.18048735736416702,3,left
2.634,0.30556686433832936,0.9445600931440261,0.06585705630813558,-1.5011032835700064,0.47281604610102335,-0.8838875191251058,-0.04236547723266727,0.16065579977172065,0.18732807311906988,3,left
2.635,0.3098798428550885,0.9438571090989142,0.06747932742161536,-1.4986548021217718,0.47418315992668464,-0.8865263298435359,-0.0469497391652929,0.16230739557617396,0.19401137450963998,3,left
2.64,0.3141629686645427,0.9432002118573002,0.0690948965418083,-1.495204776456981,0.4752119556488094,-0.8888227854542915,-0.051475105557380815,0.16400703920137547,0.20053388410232376,3,left
2.64,0.3184124382728492,0.9425920970202134,0.07070208729450608,-1.4907600663934966,0.47590098188466884,-0.8907751070864046,-0.05594007051042017,0.1657540890263561,0.20689230793902333,3,left
2.641,0.32262443664125834,0.9420354658140125,0.07229921104872519,-1.4853280222496732,0.4762492061257396,-0.8923817863176351,-0.0603431617501707,0.16754787055093512,0.2130834393065157,3,left
2.6439999999999997,0.3267951387301314,0.9415330223163638,0.07388456912934567,-1.4789164868110778,0.476256032984412,-0.8936415941369042,-0.0646829418659222,0.1693876775750417,0.21910416234014662,3,left
2.645,0.3309207112299912,0.9410874705876902,0.07545645517892355,-1.471533797421714,0.4759213216326661,-0.894553589569307,-0.06895800944746655,0.17127277338116567,0.22495145548005782,3,left
2.6489999999999996,0.33499731453092857,0.9407015117122268,0.07701315764513075,-1.4631887881459489,0.4752454022803652,-0.895117127927867,-0.07316700013242802,0.17320239192508824,0.23062239479772662,3,left
2.65,0.3390211049804758,0.940377840752112,0.07855296236776056,-1.4538907919763666,0.47422909166762606,-0.8953318686889095,-0.07730858757641589,0.17517573904017694,0.23611415721010717,3,left
2.655,0.34298823747160206,0.9401191436162306,0.08007415523975024,-1.4436496430663648,0.4728737075703066,-0.8951977829936666,-0.08138148435827762,0.17719199366065821,0.24142402359816517,3,left
2.655,0.3468948683896162,0.9399280938443039,0.08157502491731082,-1.432475678963536,0.47118108231667105,-0.894715160777738,-0.08538444283254099,0.1792503090694094,0.24654938184609024,3,left
2.66,0.35073715893162344,0.939807349307274,0.08305386555333927,-1.4203797428171496,0.4691535753123143,-0.8938846175290212,-0.08931625594094007,0.18134981417593707,0.2514877298169575,3,left
2.661,0.35451127879592986,0.939759548828302,0.08450897952598613,-1.407373185530333,0.46679408456945737,-0.8927071006737277,-0.09317575799472283,0.18348961483033213,0.25623667828008556,3,left
2.665,0.35821341022318465,0.9397873087341091,0.0859386801312307,-1.3934678678248755,0.4641060572357562,-0.8911838955891004,-0.0969618254392369,0.18566879517911292,0.2607939538048102,3,left
2.6660000000000004,0.3618397523585111,0.9398932193520173,0.08734129420552791,-1.3786761621839334,0.46109349911680453,-0.8893166312404461,-0.1006733776120866,0.1878864190689854,0.2651574016348544,3,left
2.668,0.3653865258961377,0.940079841472381,0.08871516464373765,-1.3630109546352964,0.4577609831855615,-0.8871072854391062,-0.10430937750594553,0.19014153150466606,0.2693249885569333,3,left
2.668,0.3688499779647515,0.940349702799016,0.09005865278024353,-1.3464856463352937,0.4541136570709901,-0.8845581897169911,-0.107868832546899,0.19243316016702497,0.27329480577667975,3,left
2.674,0.37222638721067186,0.9407052944120691,0.09137014060767522,-1.3291141549108783,0.45015724951726166,-0.8816720338123194,-0.11135079539897641,0.1947603169979183,0.27706507181442247,3,left
2.675,0.3755120690350721,0.9411490672681171,0.09264803281709093,-1.3109109155149141,0.44589807580396496,-0.8784518697602207,-0.11475436480531669,0.19712199985818624,0.2806341354327846,3,left
2.678,0.37870338094103906,0.9416834287603955,0.0938907586547548,-1.2918908815472225,0.44134304211685316,-0.8749011155808826,-0.11807868647619008,0.19951719426539752,0.2840004786075027,3,left
2.678,0.3817967279471919,0.942310739358088,0.09509677360233859,-1.272069524991519,0.4364996488577773,-0.8710235585569603,-0.1213229540338771,0.20194487521802337,0.2871627195522942,3,left
2.6839999999999997,0.3847885680259586,0.9430333093387427,0.09626456089750221,-1.2514628363159777,0.4313759928815864,-0.8668233580910036,-0.12448641002418044,0.20440400911282353,0.2901196158080226,3,left
2.6839999999999997,0.38767541752398443,0.943853395623316,0.09739263291913472,-1.230087323882813,0.42598076864692375,-0.8623050481327081,-0.12756834700411768,0.2068935557623227,0.29287006740582794,3,left
2.688,0.3904538565184113,0.9447731987195391,0.0984795324666971,-1.2079600128099792,0.42032326826702354,-0.857473539164864,-0.1305681087151136,0.20941247051934966,0.29541312011330506,3,left
2.6889999999999996,0.3931205340573025,0.9457948597757727,0.09952383396670678,-1.1850984432258207,0.4144133804458076,-0.852334119735943,-0.13348509135077785,0.21195970651570056,0.2977479687722203,3,left
2.696,0.39567217322788845,0.946920457743699,0.10052414464082397,-1.1615206678553038,0.4082615882838034,-0.8468924575263548,-0.13631874492812054,0.21453421702207645,0.2998739607356671,3,left
2.697,0.3981055759957695,0.9481520066447131,0.10147910566937073,-1.137245248874305,0.4018789659376518,-0.8411545999345051,-0.13906857476637785,0.21713495793244877,0.30179059940747,3,left
2.697,0.40041762776510864,0.9494914529332942,0.1023873933820068,-1.1122912539663161,0.3952771741162505,-0.8351269741679036,-0.1417341430551637,0.21976089035568683,0.3034975478635852,3,left
2.698,0.4026053016237951,0.9509406729509534,0.1032477205035518,-1.0866782515138755,0.3884684543958828,-0.8288163868237024,-0.14431507045343075,0.22241098326063843,0.3049946324942067,3,left
2.698,0.40466566225193407,0.9525014704636703,0.10405883747896102,-1.0604263048550289,0.3814656223360228,-0.8222300229421936,-0.14681103763826361,0.22508421610052867,0.3062818465822203,3,left
2.705,0.4065958694816294,0.9541755742717635,0.104819533898676,-1.0335559655331763,0.3742820593768783,-0.8153754445159686,-0.14922178674450468,0.22777958136301593,0.30735935375551193,3,left
2.705,0.4083931815038613,0.9559646358755309,0.10552864004196334,-1.0060882654667682,0.36693170349913795,-0.8082605884366221,-0.15154712267596387,0.2304960870290348,0.3082274912904728,3,left
2.708,0.4100549577282957,0.9578702271758455,0.10618502855021095,-0.9780447079991925,0.35942903864519077,-0.8008937638674648,-0.1537869142909381,0.23323275894402282,0.3088867732659046,3,left
2.7089999999999996,0.4115786613114304,0.9598938381881057,0.10678761623720748,-0.9494472579659772,0.35178908299734046,-0.7932836490667643,-0.15594109546896526,0.23598864310927214,0.3093378935704232,3,left
2.7089999999999996,0.4129618613741378,0.9620368747503667,0.10733536604132617,-0.9203183312361204,0.3440273763822571,-0.7854392877515816,-0.15800966606549274,0.23876280790120807,0.30958172876585416,3,left
2.7119999999999997,0.4142022349343537,0.9643006562086348,0.10782728912549526,-0.8906807843612693,0.33615996716724533,-0.7773700851283756,-0.15999269276089456,0.24155434622645353,0.3096193408085164,3,left
2.713,0.41529756858831607,0.9666864130612723,0.10826244713504228,-0.8605579047863171,0.32820339891674066,-0.769085803679023,-0.16189030981002575,0.244362377620595,0.3094519796296908,3,left
2.717,0.4162457599826197,0.969195284542055,0.10863995462852992,-0.829973401752057,0.3201746969029023,-0.7605965587239328,-0.16370271969825617,0.24718605029861687,0.3090810855759785,3,left
2.718,0.41704481912613794,0.9718283161203716,0.10895898169752001,-0.7989513978405163,0.3120913544670908,-0.7519128137464618,-0.16543019370968104,0.25002454316502215,0.3085082917096574,3,left
2.722,0.41769286959573726,0.9745864568976093,0.10921875678564388,-0.7675164210764849,0.30397131920941145,-0.7430453754548543,-0.16707307241296004,0.252877067791704,0.30773542596856013,3,left
2.7230000000000003,0.41818814969428536,0.9774705568807177,0.109418569707258,-0.7356933974974305,0.29583297898329564,-0.7340053885573421,-0.16863176606999192,0.2557428703716784,0.3067645131844124,3,left
2.727,0.4185290136235899,0.980481364117752,0.10955777485358278,-0.7035076441027331,0.28769514767193843,-0.7248043302254815,-0.1701067549723879,0.25862123365683015,0.30559777695798857,3,left
2.728,0.41871393273690755,0.9836195216862286,0.1096357945609276,-0.6709848620919903,0.279577050723305,-0.7154540042202764,-0.1714985897104645,0.261511478887865,0.30423764138886966,3,left
2.7319999999999998,0.4187414969348986,0.9868855645327758,0.10965212260265775,-0.6381511303010284,0.2714983104203668,-0.705966534655145,-0.17280789137923452,0.2644129677246999,0.302686732657019,3,left
2.7319999999999998,0.418610416266724,0.9902799161697098,0.1096063277558733,-0.6050328987432141,0.2634789308632312,-0.6963543593693222,-0.17403535172563447,0.26732510418555744,0.3009478804528295,3,left
2.737,0.418319522795818,0.993802885238751,0.10949805738739499,-0.5716569821626909,0.2555392826398863,-0.6866302228848605,-0.17518173324098824,0.27024733660306693,0.29902411925173994,3,left
2.738,0.417867772787732,0.9974546619538754,0.10932704100232615,-0.538050553505279,0.24770008716239525,-0.676807168920007,-0.17624786920246954,0.27317915960570605,0.29691868942897204,3,left
2.742,0.41725424927414906,1.001235314435428,0.10909309370227216,-0.504241137211953,0.23998240064554702,-0.6668985324313637,-0.17723466366709156,0.27612011613294657,0.29463503820939885,3,left
2.742,0.41647816504088814,1.0051447849477115,0.10879611950935208,-0.47025660223907745,0.23240759770519878,-0.65691793115693,-0.17814309142151832,0.2790697994924996,0.29217682044702553,3,left
2.7460000000000004,0.41553886607700374,1.0091828860536465,0.1084361145236552,-0.4361251547089168,0.2249973545538367,-0.6468792566318344,-0.17897419789076227,0.28202785546807996,0.28954789922804147,3,left
2.747,0.41443583550722607,1.0133492967028837,0.10801316989011103,-0.4018753300933547,0.21777363177122924,-0.6367966646483204,-0.17972909900860565,0.28499398448613866,0.28675234629089086,3,left
2.7510000000000003,0.41316869801329836,1.017643558272757,0.10752747455316444,-0.3675359848332547,0.2107586566284596,-0.6266845651313446,-0.18040898105235698,0.2879679438500361,0.28379444225630845,3,left
2.752,0.4117372247342502,1.022065070583447,0.10697931777609275,-0.33313628729547323,0.2039749049440974,-0.6165576114009795,-0.181015100444333,0.2909495500501523,0.2806786766597779,3,left
2.7569999999999997,0.41014133862303637,1.026613087909733,0.10636909139866745,-0.2987057079691957,0.1974450824518046,-0.6064306887926878,-0.18154878352223694,0.2939386811584555,0.27740974777838995,3,left
2.758,0.40838112022680567,1.0312867150126463,0.10569729180421028,-0.2642740088030126,0.19119210565927297,-0.5963189026064496,-0.18201142628038913,0.2969352793160722,0.2739925622436131,3,left
2.761,0.40645681384936866,1.0360849032153259,0.10496452156793756,-0.22987123158397602,0.18523908217905377,-0.5862375653556827,-0.18240449408355422,0.2999393533224221,0.2704322344310368,3,left
2.762,0.40436883404856594,1.0410064465479583,0.1041714907648211,-0.19552768525979214,0.17960929051257013,-0.5762021832868964,-0.18272952135507115,0.30295098132326287,0.26673408561997697,3,left
2.762,0.40211777242095126,1.0460499779866181,0.10331901792543155,-0.16127393210530058,0.17432615926939976,-0.5662284421410644,-0.18298811124164183,0.3059703135387876,0.2629036429267671,3,left
2.766,0.3997044046297893,1.0512139658098016,0.10240803063870237,-0.12714077263447582,0.16941324580477551,-0.5563321921277884,-0.18318193525846985,0.3089975748717448,0.2589466380355865,3,left
2.767,0.39712969763147854,1.0564967100946978,0.10143956581009662,-0.09315922915935723,0.16489421425918208,-0.5465294320834565,-0.18331273291909714,0.31203306717935037,0.2548690057616391,3,left
2.773,0.39439481704478613,1.061896339373776,0.1004147695934544,-0.05936052789757198,0.1607928129849223,-0.53683629278478,-0.18338231135324387,0.31507717104900695,0.2506768824697602,3,left
2.7739999999999996,0.39150113459248237,1.0674108074714468,0.09933489702286188,-0.025776079530461835,0.15713285134559074,-0.5272690193893128,-0.18339254491423593,0.3181303470190617,0.2463766043507239,3,left
2.7760000000000002,0.388450235534977,1.073037890540066,0.09820131137246493,0.0075625418857384425,0.15393817587552378,-0.5178439529748288,-0.18334537477656962,0.32119313624208,0.2419747055458221,3,left
2.7769999999999997,0.3852439260139963,1.0787751843139808,0.09701548326654352,0.04062362170533403,0.1512326457984696,-0.5085775111693368,-0.18324280852381755,0.3242661605993817,0.23747791610768554,3,left
2.778,0.381884240231928,1.0846201015995132,0.09577898955437471,0.07337532898744031,0.14904010796086412,-0.4994861679618448,-0.1830869197269095,0.32735012227561033,0.2328931597850074,3,left
2.781,0.37837344740591433,1.0905698700177084,0.09449351196045122,0.10578574168433219,0.14738437133520785,-0.4905864329607241,-0.18287984751265712,0.3304458028021374,0.22822755161853872,3,left
2.782,0.3747140584448502,1.0966215300158895,0.0931608355237185,0.13782287187149564,0.14628918130531743,-0.48189483046495035,-0.18262379612223215,0.33355406157812956,0.2234883953354522,3,left
2.785,0.37090883229573157,1.1027719331648873,0.09178284684805091,0.16945469040293681,0.14577819389182597,-0.4734278786160332,-0.18232103445915482,0.3366758338781401,0.21868318052891905,3,left
2.786,0.36696078189895637,1.1090177407620863,0.09036153219467011,0.20064915080060086,0.14587494997907485,-0.4652020687226602,-0.18197389562620286,0.33981212835512004,0.2138195796095119,3,left
2.79,0.3628731796874038,1.1153554227655873,0.08889897545160698,0.23137421242250192,0.1466028495512769,-0.4572338447527162,-0.1815847764505098,0.3429640240477802,0.20890544451483464,3,left
2.7910000000000004,0.3586495625620614,1.12178125709105,0.08739735601469328,0.26159786300036436,0.1479851259365336,-0.44953958296839014,-0.18115613699598807,0.3461326669012735,0.20394880316359262,3,left
2.7960000000000003,0.35429373627611616,1.128291329308895,0.08585894660729043,0.2912881406363203,0.15004482005903447,-0.4421355716807729,-0.18069050006208492,0.3493192658102106,0.1989578556401479,3,left
2.7960000000000003,0.34980977915992645,1.1348815327829473,0.08428611105108134,0.3204131553468588,0.15280475470157995,-0.4350379911010934,-0.1801904506677585,0.3525250881930654,0.1939409700954599,3,left
2.8,0.3452020451229233,1.1415475692896986,0.08268130198175364,0.3489411102407826,0.15628750878244835,-0.42826289326652206,-0.17965863551944822,0.35575145510707556,0.1889066783501898,3,left
2.801,0.34047516587610116,1.1482849501505072,0.08104705848851142,0.37684032241639615,0.16051539165257273,-0.4218261820193071,-0.17909776246170744,0.3589997359127956,0.18386367118564906,3,left
2.807,0.33563405232809035,1.1550889979007892,0.07938600365040106,0.40407924366152426,0.16551041742100525,-0.4157435930188907,-0.17851059990906742,0.36227134249751375,0.1788207933081988,3,left
2.807,0.33068389511500634,1.1619548485139535,0.07770084194460254,0.4306264810382477,0.17129427931872176,-0.4100306737675735,-0.17789997625761064,0.36556772306680513,0.17378703797265582,3,left
2.8110000000000004,0.32563016422633645,1.168877454194184,0.07599435650579305,0.45645081743243276,0.17788832411295974,-0.40470276363127294,-0.17726877927464849,0.3688903555135557,0.16877154125023786,3,left
2.812,0.32047860768649866,1.1758515867506147,0.074269406217009,0.4815212321462387,0.18531352658648584,-0.39977497383793287,-0.1766199554648224,0.37224074037385757,0.1637835759265799,3,left
2.8160000000000003,0.3152352492494638,1.1828718415651813,0.07252892261321622,0.505806921609799,0.1935904640984543,-0.395262167437208,-0.17595650941088067,0.37562039337924924,0.15883254501538113,3,left
2.8160000000000003,0.3099063850683114,1.1899326421648657,0.07077590658328388,0.5292773202861957,0.20273929124584436,-0.39117893920614827,-0.1752815030873238,0.3790308376148494,0.15392797487329374,3,left
2.82,0.3044985793161093,1.197028245403208,0.06901342486565573,0.5519021218416803,0.21277971464685194,-0.3875395954867599,-0.17459805514506094,0.38247359529301095,0.1490795079017456,3,left
2.821,0.2990186587569817,1.20415274724637,0.06724460634668919,0.5736513006508432,0.22373096787005553,-0.3843581339425104,-0.17390934016517867,0.38595017915220886,0.14429689482149347,3,left
2.827,0.29347370628932373,1.2113000891488157,0.06547263818645559,0.59449513370409,0.23561178653568216,-0.3816482232220779,-0.17321858787988909,0.38946208349096156,0.1395899865058385,3,left
2.827,0.2878710534981541,1.2184640649954759,0.06370076181166097,0.6144042229823542,0.24844038361785734,-0.37942318251992085,-0.1725290823587009,0.3930107748466794,0.13496872535859658,3,left
2.83,0.2822182722555183,1.2256383285831245,0.06193226882517709,0.6333495183614629,0.26223442497934,-0.37769596102455694,-0.1718441611578421,0.39659768232943116,0.13044313622310527,3,left
2.8310000000000004,0.27652316539757565,1.2328164016144352,0.0601704968824082,0.6513023411059709,0.2770110051729117,-0.37647911724679617,-0.17116721443095675,0.4002241876207199,0.12602331680876752,3,left
2.8310000000000004,0.2707937564903135,1.2399916821822317,0.05841882557311649,0.6682344080095933,0.2927866235463109,-0.3757847982215631,-0.17050168399711402,0.4038916146589607,0.12171942763112466,3,left
2.835,0.2650382786795346,1.2471574537272487,0.05668067232446943,0.6841178562366009,0.30957716069037705,-0.3756247185783741,-0.16985106235223807,0.4076012190909419,0.11754168150795873,3,left
2.8360000000000003,0.25926516260841487,1.2543068944593647,0.05495948831363423,0.6989252689156896,0.3273978552728878,-0.37601013947699974,-0.16921889159219508,0.4113541776721199,0.11350033273744886,3,left
2.84,0.2534830233770474,1.2614330872364274,0.053258754352392614,0.7126297015349058,0.3462632813034434,-0.37695184740634335,-0.16860876220586277,0.4151515778561953,0.10960566613097175,3,left
2.841,0.24770064651246967,1.2685290298937555,0.05158197668744424,0.7252047091831983,0.3661873258776657,-0.37846013284609986,-0.16802431170649462,0.4189944077570605,0.10586798602726591,3,left
2.844,0.241926972916995,1.2755876460138955,0.04993268265570402,0.7366243746810764,0.38718316745193754,-0.3805447687923248,-0.16746922308763934,0.42288354656287575,0.10229760533185188,3,left
2.845,0.23617108276955012,1.2826017961235834,0.048314416143351774,0.7468633376396847,0.40926325470290675,-0.3832149891496422,-0.16694722309988227,0.42681975542467926,0.09890483457978877,3,left
2.846,0.23044217836811198,1.2895642893026955,0.04673073280981442,0.7558968244916001,0.4324392859976096,-0.3864794670086693,-0.16646208034673793,0.4308036688305726,0.09569997101105202,3,left
2.8510000000000004,0.22474956591612247,1.296467895188717,0.045185195048120116,0.7637006795695186,0.4567221893460856,-0.3903462929000127,-0.1660176031981065,0.4348357864766561,0.09269328764829803,3,left
2.852,0.2191026362681678,1.303305356360177,0.04368136666736863,0.770251397370723,0.4821221024287659,-0.39482295324589417,-0.16561763751980346,0.43891646564602305,0.08989502236729094,3,left
2.855,0.21351084466569653,1.3100694010774114,0.04222280730774104,0.7755261561779487,0.5086483521370071,-0.39991630930329247,-0.16526606421777656,0.44304591410725835,0.08731536695080729,3,left
2.855,0.20798368951862908,1.3167527563432575,0.04081306663013245,0.7795028531675481,0.536309433225377,-0.40563257682309234,-0.16496679659574146,0.4472241835440257,0.08496445611740303,3,left
2.859,0.2025306903170597,1.3233481612252804,0.039455678347729714,0.7821601410671384,0.5651129859602104,-0.41197730652346354,-0.16472377752509548,0.45145116352746634,0.0828523565170262,3,left
2.86,0.19716136477802979,1.3298483803638683,0.038154154172839065,0.7834774663850735,0.5950657728092434,-0.418955365406339,-0.16454097642610832,0.45572657604327266,0.08098905568608661,3,left
2.864,0.19188520534429881,1.336246217578807,0.03691197773844936,0.7834351092231177,0.6261736542518086,-0.42657091893342625,-0.16442238605953796,0.46004997058543895,0.07938445095525032,3,left
2.865,0.18671165515865618,1.3425345294786954,0.03573259852982949,0.7820142246799107,0.658441563792347,-0.43482741407998826,-0.1643720191279824,0.4644207198288322,0.07804833830391325,3,left
2.8689999999999998,0.1816500836388873,1.348706238973358,0.0346194258355712,0.7791968858489671,0.6918734822632981,-0.44372756328644986,-0.16439390468645076,0.46883801589286345,0.07699040115602244,3,left
2.8689999999999998,0.17670976177568135,1.3547543485909939,0.03357582270499146,0.7749661284110463,0.7264724115067434,-0.4532733293297138,-0.16449208436182153,0.4733008672086788,0.07622019911265623,3,left
2.8739999999999997,0.17189983727340144,1.360671953507679,0.03260509988532534,0.7693059968167729,0.7622403475275056,-0.46346591113791175,-0.16467060838105213,0.47780809600242446,0.0757471566175461,3,left
2.875,0.16722930965671085,1.366452254202942,0.03171050971349741,0.7622015920513783,0.7991782532137567,-0.4743057305741609,-0.16493353140821126,0.48235833640727305,0.07558055155252158,3,left
2.878,0.1627070054745615,1.3720885686594904,0.030895239955055078,0.7536391209693738,0.8372860307245278,-0.48579242021675295,-0.16528490819062489,0.48695003321702923,0.07572950376068596,3,left
2.8789999999999996,0.15834155374207542,1.3775743440290582,0.030162407610993758,0.7436059471828659,0.876562493646877,-0.49792481216505513,-0.16572878901465712,0.49158144129426,0.07620296349598371,3,left
2.883,0.15414136176421628,1.38290316769297,0.029515052737660984,0.7320906434830716,0.9170053390288271,-0.5107009279022643,-0.1662692149718908,0.4962506256460176,0.07700969979870086,3,left
2.884,0.15011459147875114,1.3880687776578615,0.028956132333207072,0.7190830457704118,0.9586111193975442,-0.5241179692480077,-0.1669102130367249,0.5009554621803421,0.0781582887973453,3,left
2.888,0.14626913644028958,1.3930650722433675,0.02848851433746361,0.7045743084643321,1.0013752148755826,-0.5381723104356415,-0.16765579095667374,0.5056936391568453,0.07965710193828617,3,left
2.889,0.14261259954773509,1.3978861190357068,0.028114971782093223,0.6885569613597533,1.0452918055113711,-0.5528594913509418,-0.16850993195692793,0.5104626593447821,0.08151429414548839,3,left
2.8939999999999997,0.13915227160101107,1.4025261630951098,0.02783817712281563,0.6710249678927618,1.090353843943452,-0.5681742119707237,-0.16947658926102824,0.5152598429021237,0.08373779191365971,3,left
2.895,0.13589511076373414,1.4069796344137468,0.027660696785485283,0.6519737847738439,1.1365530285213106,-0.5841103280417544,-0.17055968042980205,0.5200823309892355,0.08633528133913372,3,left
2.898,0.1328477230087719,1.411241154624063,0.027584985955512047,0.6314004229426409,1.183879777008942,-0.6006608480421409,-0.17176308152102493,0.5249270901308561,0.08931419609384116,3,left
2.898,0.13001634363041925,1.4153055429576447,0.027613383628521535,0.6093035097938456,1.2323232010005842,-0.617817931469174,-0.1730906210759772,0.5297909173272731,0.09268170535586547,3,left
2.8989999999999996,0.12740681990957134,1.4191678214554777,0.02774810792370301,0.5856833526195101,1.2818710811813203,-0.6355728884993932,-0.17454607395632174,0.5346704458512762,0.09644470174661303,3,left
2.9019999999999997,0.1250245950121437,1.422823219433045,0.027991251654017165,0.5605420032086553,1.332509843568479,-0.6539161810684021,-0.17613315508553512,0.5395621515516295,0.10060978938955184,3,left
2.903,0.12287469320019653,1.426267177206392,0.028344778157888117,0.5338833235407082,1.3842245368729758,-0.672837425419702,-0.1778555131664023,0.5444623594194691,0.10518327224204906,3,left
2.908,0.12096170644999579,1.4294953490859663,0.028810517420798314,0.5057130525049139,1.4369988111228997,-0.6923253961735295,-0.17971672442953113,0.5493672502384677,0.11017114281751221,3,left
2.908,0.11928978258653711,1.4325036056436877,0.02939016253888398,0.4760388735735087,1.4908148976947886,-0.71236803196837,-0.1817202864377601,0.5542728672555427,0.1155790713523655,3,left
2.9139999999999997,0.11786261504170074,1.4352880352570965,0.030085266585918546,0.4448704832342056,1.5456535909018847,-0.7329524427056945,-0.18386961195479898,0.5591751228732987,0.12141239543810436,3,left
2.915,0.11668343432320057,1.4378449449343114,0.030897239936110807,0.4122196593938252,1.601494231295548,-0.7540649183111651,-0.1861680228834576,0.5640698053782872,0.12767611013276942,3,left
2.9160000000000004,0.11575500125406135,1.4401708604255297,0.031827348078913104,0.37810032789970316,1.6583146908458941,-0.7756909387130769,-0.18861874427922468,0.5689525857191661,0.1343748585673868,3,left
2.918,0.1150796020179279,1.4422625256307762,0.03287670995291292,0.3425286247318322,1.7160913601745034,-0.7978151846214369,-0.19122489844537927,0.5738190243488334,0.14151292306414337,3,left
2.9189999999999996,0.11465904502730637,1.4441169013193715,0.034046296825907076,0.30552295200382834,1.7747991380110784,-0.820421548811515,-0.19398949911624414,0.5786645781445875,0.14909421678430046,3,left
2.9219999999999997,0.11449465961436475,1.445731163183379,0.03533693174731303,0.26710402696748164,1.834411423041843,-0.8434931478312522,-0.19691544573562775,0.5834846074203304,0.1571222759250994,3,left
2.923,0.11458729652542493,1.4471026992532825,0.03674928959082719,0.22729492380086658,1.894900108316361,-0.8670123341722593,-0.20000551783794862,0.5882743830447834,0.1656002524861729,3,left
2.929,0.1149373301874228,1.4482291067076252,0.03828389769366791,0.18612110807374965,1.9562355783813783,-0.8909607089693141,-0.20326236953998994,0.5930290936796278,0.17453090762724904,3,left
2.93,0.1155446627115369,1.4491081881091779,0.03994113708652459,0.14361046377997666,2.0183867093128756,-0.9153191352945965,-0.20668852415169603,0.5977438531514041,0.18391660564021678,3,left
2.9330000000000003,0.1164087296016244,1.4497379471005398,0.04172124429282956,0.09979331282253304,2.081320871820035,-0.9400677521141876,-0.21028636891489338,0.6024137079709221,0.1937593085599145,3,left
2.9339999999999997,0.1175285071357476,1.4501165835943854,0.04362431366127018,0.05470242683305653,2.1450039375972563,-0.9651859889755864,-0.21405814987929755,0.6070336450138271,0.2040605714393014,3,left
2.938,0.11890252138401744,1.4502424884978258,0.04565030019203531,0.008373031203745548,2.209400289102689,-0.9906525814961785,-0.2180059669256538,0.6115985993758588,0.21482153831597905,3,left
2.9389999999999996,0.12052885881525295,1.4501142380147956,0.04779902282373871,-0.03915719879414132,2.274472832944011,-1.0164455877237086,-0.22213176894635153,0.6161034624162062,0.22604293889834176,3,left
2.9419999999999997,0.12240517842947167,1.4497305875753936,0.05007016814938325,-0.08784814993465258,2.3401830170543123,-1.0425424054408696,-0.2264373491943527,0.6205430900022174,0.23772508600095088,3,left
2.943,0.12452872533387803,1.4490904654481518,0.052463294519224234,-0.13765729113738895,2.4064908518430013,-1.0689197904871164,-0.23092434081177932,0.6249123109685715,0.2498678737600484,3,left
2.947,0.12689634565841354,1.4481929660998782,0.054977836476188285,-0.18853970188008137,2.4733549355085858,-1.095553876171756,-0.23559421255001636,0.6292059358038385,0.2624707766614462,3,left
2.949,0.1295045026850726,1.4470373433770125,0.05761310946661418,-0.24044810906328679,2.5407324837020133,-1.122420193853233,-0.24044826469370234,0.6334187655771739,0.27553284941435047,3,left
2.952,0.13234929404452192,1.4456230035921587,0.06036831477168597,-0.293332932470193,2.608579363730962,-1.14949369476033,-0.24548762520150033,0.6375456011176834,0.28905272770600327,3,left
2.952,0.13542646981487075,1.4439494986088852,0.06324254460080186,-0.34714233896760216,2.6768501334970725,-1.176748773131748,-0.2507132460770679,0.641581252458786,0.3030286298733441,3,left
2.957,0.13873145134235199,1.4420165190252547,0.06623478727373283,-0.4018223055971061,2.745498085359587,-1.2041592907511893,-0.2561258999841727,0.6455205485596647,0.31745835952921225,3,left
2.9610000000000003,0.14225935059542524,1.4398238875600404,0.0693439324027221,-0.4573166917082646,2.8144752951202023,-1.2316986029556634,-0.26172617712043256,0.649358347315647,0.33233930918192467,3,left
2.9619999999999997,0.14600498986452942,1.437371552743529,0.07256877597881875,-0.5135673202882517,2.88373267632516,-1.2593395861952574,-0.26751448236469344,0.6530895458691011,0.34766846488837494,3,left
2.964,0.14996292162811747,1.4346595830065525,0.0759080252709736,-0.5705140686449282,2.9532200400816775,-1.2870546672230556,-0.2734910327135953,0.6567090912321502,0.36344241198209887,3,left
2.965,0.15412744841873363,1.43168816124816,0.07936030345755632,-0.6280949686026378,3.022886160586764,-1.314815853994263,-0.2796558550234156,0.6602119912322204,0.3796573419190505,3,left
2.969,0.15849264253990192,1.4284575799464672,0.08292415392415475,-0.6862463163721892,3.09267884656728,-1.3425947683538777,-0.2860087840645137,0.6635933257729507,0.3963090602470356,3,left
2.971,0.1630523655083516,1.4249682368600987,0.08659804417839566,-0.7449027922584837,3.1625450188307416,-1.3703626805924722,-0.29254946084971556,0.6668482583117779,0.41339299551561864,3,left
2.972,0.16780028712366643,1.4212206313512412,0.09038036934949904,-0.803997590371065,3.2324307941268873,-1.3980905459497706,-0.299277331114774,0.6699720472915636,0.43090420860185025,3,left
2.9739999999999998,0.17272990408209246,1.4172153613515457,0.09426945524975527,-0.8634625585045069,3.302281575520399,-1.4257490431457622,-0.30619164378305436,0.6729600571723872,0.4488374017380077,3,left
2.975,0.1778345580433001,1.4129531209936208,0.09826356097483764,-0.9232283483569952,3.372042149475357,-1.4533086150190602,-0.3132914492936598,0.675807768800158,0.46718692671919115,3,left
2.98,0.18310745304430576,1.4084346989388528,0.10236088101760722,-0.9832245762567234,3.4416567898520776,-1.480739511352095,-0.3205755977564925,0.6785107890119388,0.485946792112578,3,left
2.9810000000000003,0.18854167215417117,1.4036609774373492,0.10655954687214582,-1.0433799942814763,3.5110693687849714,-1.5080118338902624,-0.328042736944806,0.6810648594683728,0.5051106694817595,3,left
2.9819999999999998,0.19413019328101214,1.3986329321525452,0.11085762811073772,-1.1036226702311243,3.5802234732502036,-1.535095583200505,-0.3356913101456424,0.683465864721388,0.5246718986788599,3,left
2.985,0.19986590407071708,1.3933516327729416,0.11525313292525523,-1.1638801723456844,3.6490625240443006,-1.5619607063639884,-0.34351955388907746,0.685709839524933,0.5446234922583164,3,left
2.986,0.20574161586083572,1.3878182444227665,0.11974400813518461,-1.2240797532355494,3.7175298927346927,-1.5885771441357177,-0.35152549557772045,0.6877929753960732,0.5649581390673588,3,left
2.989,0.21175007666843038,1.382034029873751,0.12432813867525917,-1.2841485289172434,3.785569013302003,-1.6149148765647625,-0.3597069510384379,0.6897116264333369,0.5856682070693666,3,left
2.989,0.21788398320728586,1.3760003525452984,0.1290033465851748,-1.344013651415838,3.8531234872802296,-1.6409439667185675,-0.36806152201878506,0.6914623143987483,0.606745745457406,3,left
2.9930000000000003,0.22413599195509906,1.3697186802558146,0.13376738953341058,-1.4036024748215064,3.9201371823594773,-1.6666346025154792,-0.3765865936511396,0.693041733069525,0.6281824861163434,3,left
2.995,0.23049872931958731,1.363190589658188,0.13861795891760736,-1.4628427149726153,3.986554324646567,-1.6919571367410824,-0.3852793319080356,0.6944467518649435,0.6499698444930152,3,left
2.9989999999999997,0.23696480097518235,1.3564177712655185,0.14355267759376986,-1.521662602937182,4.052319584777471,-1.7168821253230526,-0.3941366810726919,0.6956744187533944,0.6720989199349843,3,left
3.0,0.24352680045350542,1.3494020349547946,0.1485690972944761,-1.5799910324637174,4.1173781580739695,-1.7413803639382734,-0.40315536124922,0.6967219624441597,0.6945604955594489,3,left
3.003,0.25017731706827395,1.3421453158277494,0.15366469580059214,-1.6377577015714846,4.181675838935212,-1.7654229230248923,-0.41233186593747634,0.6975867938679395,0.7173450377148715,3,left
3.0039999999999996,0.2569089432393516,1.3346496803079133,0.1588368739236914,-1.6948932484489947,4.245159089652978,-1.7889811812708567,-0.4216624596979958,0.6982665069496504,0.740442695098881,3,left
3.009,0.2637142812544409,1.326917332356949,0.16408295232889006,-1.751329381828149,4.307775103837423,-1.8120268576492453,-0.4311431759329099,0.6987588786765003,0.7638432975969521,3,left
3.01,0.27058594947566716,1.3189506196974583,0.16940016819239326,-1.8069990059998253,4.369471864637915,-1.834532042069401,-0.4407698148091996,0.6990618684638166,0.7875363549072957,3,left
3.013,0.2775165879742418,1.3107520399308388,0.17478567168112957,-1.8618363406349014,4.430198197941203,-1.8564692247114805,-0.45053794135108155,0.6991736168205771,0.8115110550182916,3,left
3.014,0.2844988635772609,1.3023242464344458,0.18023652228662676,-1.9157770355726902,4.489903820726685,-1.8778113241105652,-0.46044288372875236,0.6990924433160538,0.8357562626056645,3,left
3.0180000000000002,0.29152547434507603,1.2936700539107873,0.18574968511811182,-1.9687582807365755,4.54853938475592,-1.8985317140549258,-0.4704797317711371,0.698816843848434,0.8602605174174431,3,left
3.0189999999999997,0.298589153554933,1.28479244344936,0.19132202731470052,-2.0207189113342383,4.606056515770712,-1.9186042493614002,-0.48064333573069296,0.6983454872157392,0.8850120327155522,3,left
3.023,0.3056826733243462,1.275694566962144,0.19695031475514033,-2.0715995084972967,4.662407848371175,-1.9380032905891391,-0.4909283053287113,0.697677210988803,0.9099986938436633,3,left
3.023,0.31279884804637614,1.2663797508760892,0.20263120923949046,-2.1213424955124314,4.7175470567421325,-1.9567037277511876,-0.5013290091099414,0.696811016685514,0.9352080569916716,3,left
3.029,0.31993053782018677,1.2568514990103419,0.20836126630297802,-2.169892229793133,4.771428881392976,-1.9746810030815083,-0.51183957413572,0.6957460642449687,0.9606273482278794,3,left
3.029,0.32707065204597185,1.2471134946254543,0.2141369337984967,-2.2171950907381173,4.824009152072752,-1.9919111329131234,-0.5224538860451415,0.694481665799609,0.9862434628706355,3,left
3.033,0.3342121533215526,1.2371696016948652,0.2199545513517317,-2.2631995636191875,4.8752448070188015,-2.008370728721041,-0.5331655895141348,0.6930172787428577,1.0120429652718268,3,left
3.034,0.34134806173994897,1.2270238655017545,0.225810350756482,-2.3078563196378923,4.925093908693629,-2.0240370173815596,-0.5439680891426266,0.6913524980891881,1.038012089085216,3,left
3.04,0.3484714596543848,1.216680512693441,0.2317004573417461,-2.351118292286768,4.97351565616097,-2.0388878606973977,-0.5548545507937439,0.6894870481446287,1.0641367380808342,3,left
3.0410000000000004,0.35557549695567636,1.2061439509209875,0.2376208923119789,-2.3929407501472033,5.020470394248138,-2.0529017742358846,-0.5658179033766548,0.6874207736132766,1.0904024875054263,3,left
3.0410000000000004,0.36265339689642273,1.1954187681599913,0.24356757604053533,-2.433281366252128,5.065919619637776,-2.066057945525167,-0.576850841006167,0.6851536304595,1.1167945858782977,3,left
3.042,0.36969846249363636,1.1845097317758058,0.24953633227515257,-2.472100284137696,5.109825984028033,-2.0783362516510504,-0.5879458254398138,0.6826856769530857,1.1432979570506125,3,left
3.043,0.3767040835415728,1.17342178737951,0.2555228931837285,-2.50936018070402,5.152153294495964,-2.0897172762946874,-0.5990950887260089,0.6800170652158584,1.1698972024183436,3,left
3.048,0.3836637442622326,1.1621600575086444,0.2615229051355513,-2.5450263260007686,5.192866511194635,-2.1001823262488633,-0.6102906360557895,0.6771480333930416,1.1965766032905711,3,left
3.05,0.39057103160750295,1.1507298401461876,0.26753193509362994,-2.5790666399870696,5.231931742544297,-2.109713447450156,-0.6215242488434768,0.6740788984639048,1.2233201234768822,3,left
3.05,0.3974196442085829,1.1391366070680178,0.27354547749776414,-2.6114517460008138,5.269316238244955,-2.1182934405719105,-0.632787488068268,0.6708100496840271,1.2501114121702532,3,left
3.052,0.4042034019514651,1.127386001992421,0.27955896154133664,-2.6421550201100623,5.304988380741756,-2.125905876238746,-0.6440716979089001,0.6673419426509405,1.2769338072020213,3,left
3.053,0.41091625613612737,1.115483838494772,0.2855677587664509,-2.6711526352046957,5.338917675941386,-2.1325351099308834,-0.6553680097036417,0.6636750939843328,1.3037703387457382,3,left
3.057,0.4175523001436385,1.1034360976404627,0.2915671909059949,-2.6984235989915906,5.371074743801346,-2.1381662966336044,-0.6666673462679494,0.659810076611423,1.3306037335468337,3,left
3.0580000000000003,0.4241057804974089,1.0912489252771789,0.29755253789863617,-2.7239497856096064,5.401431309100328,-2.1427854052659576,-0.6779604266021848,0.6557475156475469,1.3574164197551044,3,left
3.062,0.4305711081766251,1.0789286289160387,0.3035190460108391,-2.7477159608856523,5.429960192521396,-2.146379232909773,-0.6892377710218263,0.6514880848614194,1.3841905324370893,3,left
3.063,0.4369428700261888,1.0664816741224694,0.309461936017788,-2.769709801310144,5.456635302140296,-2.1489354188551286,-0.7004897067426143,0.6470325037139734,1.4109079198453742,3,left
3.0669999999999997,0.4432158401061374,1.0539146803344672,0.3153764114138117,-2.7899219068051475,5.4814316254060405,-2.150442458475514,-0.7117063739530523,0.6423815349591032,1.437550150521816,3,left
3.068,0.4493849908314525,1.0412344160301565,0.3212576666396945,-2.8083458073534477,5.504325221695658,-2.1508897169429826,-0.722877732406637,0.6375359827940815,1.4640985213115594,3,left
3.073,0.4554455037668889,1.028447793177312,0.32710089532975906,-2.8249779635517163,5.525293215519704,-2.1502674427906174,-0.7339935685661237,0.6324966915468492,1.490534066364563,3,left
3.074,0.46139277995832517,1.0155618609120842,0.3329012985940455,-2.839817761145822,5.544313790449701,-2.148566781326613,-0.7450435033320268,0.627264544886819,1.516837567201126,3,left
3.076,0.46722244970019394,1.0025837984113917,0.33865409335649044,-2.8528674996012025,5.561366183833222,-2.1457797879012364,-0.756017000387424,0.6218404655452769,1.5429895639176416,3,left
3.077,0.4729303816551141,0.9895209069431606,0.34435452076674566,-2.8641323747560805,5.5764306823568175,-2.141899441024864,-0.7669033751909765,0.6162254155309032,1.5689703676084807,3,left
3.0810000000000004,0.4785126912544728,0.9763806011001559,0.34999785469251915,-2.873620455600155,5.58948861851137,-2.136919655332191,-0.7776918046498851,0.6104203968253871,1.5947600740795245,3,left
3.082,0.4839657483175524,0.9631703992451235,0.355579410285074,-2.881342655216276,5.600522368008844,-2.1308352943845867,-0.7883713375042842,0.6044264525435554,1.6203385789284326,3,left
3.0860000000000003,0.48928618383410855,0.949897913215995,0.36109455259731893,-2.887312695917464,5.60951534819363,-2.123642183299444,-0.7989309054543231,0.5982446685418848,1.6456855940662378,3,left
3.0869999999999997,0.4944708958625426,0.936570837358756,0.3665387052238209,-2.8915470686065734,5.616452017485996,-2.1153371211922,-0.809359335060903,0.5918761754587254,1.6707806657543152,3,left
3.091,0.49951705450344147,0.9231969369705695,0.37190735892438903,-2.894064986380799,5.621317875889269,-2.1059178934135416,-0.8196453604507258,0.585322151169018,1.6956031942301568,3,left
3.092,0.5044221059173368,0.9097840362449356,0.3771960801866151,-2.894888332398225,5.6240994665865855,-2.0953832835611266,-0.8297776368559664,0.5785838236357497,1.7201324549947272,3,left
3.096,0.5091837753667623,0.8963400058137386,0.38240051967852534,-2.8940416020186066,5.624784378647085,-2.083733085241955,-0.8397447550185004,0.5716624741398539,1.744347621833445,3,left
3.096,0.5138000692752891,0.8828727499799428,0.38751642054164004,-2.891551839225679,5.623361250855489,-2.0709681135583327,-0.849535256488213,0.564559440869732,1.7682277916420543,3,left
3.1010000000000004,0.5182692763089136,0.869390193731776,0.3925396264758053,-2.887448567333399,5.619819776673059,-2.057090216287159,-0.8591376498444718,0.5572761228510387,1.791752011127808,3,left
3.1010000000000004,0.522589967496861,0.8559002696255541,0.39746608956618695,-2.8817637139737555,5.614150710331838,-2.0421022847190753,-0.8685404278693711,0.5498139841968538,1.8148993054554803,3,left
3.1060000000000003,0.5267609954190083,0.8424109046201389,0.4022918777998432,-2.8745315303590537,5.606345874058106,-2.0260082641208097,-0.8777320857008503,0.5421745586578366,1.8376487089067675,3,left
3.1069999999999998,0.5307814924953358,0.8289300069400943,0.4070131822202967,-2.865788504806959,5.596398166414818,-2.0088131637808515,-0.8867011399621062,0.5343594544493332,1.8599792975585623,3,left
3.1069999999999998,0.5346508684169735,0.8154654530323222,0.4116263236782993,-2.8555732705120374,5.584301571746745,-1.9905230665954123,-0.8954361487074611,0.5263703593213472,1.8818702236742706,3,left
3.112,0.5383688067573194,0.8020250746620393,0.41612775915237665,-2.8439265075430997,5.570051170705879,-1.9711451381484457,-0.9039257317440016,0.5182090458177837,1.9033007509427855,3,left
3.112,0.5419352607993438,0.7886166461809574,0.42051408762474674,-2.830890839041314,5.553643151828497,-1.9506876352363505,-0.9121585907319731,0.5098773766603277,1.9242502893882896,3,left
3.1180000000000003,0.5453504486158486,0.7752478720030019,0.4247820555032323,-2.8165107215898284,5.53507482412914,-1.9291599137848194,-0.9201235286219349,0.5013773102023662,1.944698429083028,3,left
3.1189999999999998,0.5486148474419124,0.7619263743301258,0.42892856158409404,-2.800832329846976,5.514344630660234,-1.9065724360921246,-0.9278094682662108,0.4927109059168516,1.9646249723522935,3,left
3.1189999999999998,0.5517291873792869,0.7486596811668275,0.4329506615587917,-2.783903436158356,5.491452162928297,-1.8829367772796768,-0.935205470197125,0.4838803298920699,1.9840099644697184,3,left
3.12,0.5546944444704115,0.73545521464753,0.4368455720758541,-2.765773286988166,5.466398175958601,-1.8582656307370202,-0.9423007495948821,0.47488786031089747,2.002833722901569,3,left
3.1210000000000004,0.5575118331792958,0.722320279690055,0.44061067437349805,-2.7464924786336464,5.4391846037423335,-1.8325728122950375,-0.949084692467145,0.46573589288865525,2.021076865157244,3,left
3.127,0.5601827983208968,0.709262052988708,0.4442435174993782,-2.726112834055706,5.409814574845716,-1.8058732629084737,-0.9555468710615362,0.4564269462441978,2.03872033530162,3,left
3.127,0.5627090064857544,0.696287572364567,0.4477418211316465,-2.704687281526395,5.378292428047192,-1.778183049716528,-0.9616770585314214,0.44696366717840946,2.055745429183284,3,left
3.13,0.5650923370078408,0.6834037264899077,0.45110347801121614,-2.682269735163387,5.344623727914198,-1.7495193653976684,-0.9674652428744416,0.43734883583382084,2.0721338184310127,3,left
3.1310000000000002,0.5673348725217375,0.6706172449999666,0.45432655599093785,-2.658914977293033,5.308815280235142,-1.7199005257420015,-0.9729016401623358,0.4275853707086104,2.0878675732691487,3,left
3.136,0.5694388891527633,0.6579346890035064,0.4574092997065104,-2.634678542580564,5.270875147216067,-1.689345965361689,-0.977976707079644,0.4176763334978113,2.1029291842007383,3,left
3.137,0.5714068463812373,0.6453624420049746,0.4603501318773143,-2.6096166038631536,5.2308126623452775,-1.657876231457108,-0.9826811527878949,0.40762493373410824,2.1173015826054744,3,left
3.139,0.5732413766201644,0.6329067012531405,0.46314765424949855,-2.5837858596188683,5.1886384448230745,-1.6255129755537097,-0.987005950130878,0.39743453320018435,2.130968160297607,3,left
3.14,0.574945274544149,0.6205734695327577,0.4658006481947615,-2.557243423002006,5.144364413447643,-1.5922789431218434,-0.9909423461955565,0.3871086500841582,2.143912788087048,3,left
3.1439999999999997,0.576521486204664,0.608368547417978,0.46830807497630844,-2.5300467123729424,5.098003799842015,-1.5581979609891925,-0.9944818722421203,0.37665096284924265,2.1561198333849276,3,left
3.145,0.5779730979624065,0.5962975260095063,0.4706690756906125,-2.5022533432484098,5.049571160900988,-1.5232949224528962,-0.997616353015579,0.3660653137883605,2.1675741768928245,3,left
3.15,0.5793033252640036,0.5843657801812201,0.4728829708916702,-2.4739210215960776,4.999082390330821,-1.4875957699959388,-1.0003379154501904,0.3553557122340599,2.1782612284128215,3,left
3.1510000000000002,0.5805155012911926,0.5725784623655482,0.4749492599038875,-2.445107438395432,4.94655472914858,-1.451127475509951,-1.0026389967768696,0.34452633739369554,2.188166941813429,3,left
3.155,0.5816130655165254,0.5609404969094333,0.47686761982910325,-2.415870165385233,4.89200677500202,-1.413918017924219,-1.0045123520425703,0.3335815407794763,2.1972778291842405,3,left
3.156,0.5825995522077042,0.5494565750330993,0.47863790424997515,-2.38626655191629,4.8354584901650055,-1.3759963581383954,-1.0059510610494382,0.32252584820262015,2.20558097421,3,left
3.161,0.5834785789285178,0.538131150422485,0.48026014162500696,-2.3563536228268975,4.776931208057605,-1.337392411154217,-1.0069485347203326,0.31136396130051724,2.2130640447924996,3,left
3.161,0.5842538350869684,0.5269684354845063,0.4817345333616289,-2.326187977257068,4.716447638134208,-1.2981370152993972,-1.0074985208960816,0.30010075856546964,2.219715304946459,3,left
3.1639999999999997,0.5849290705828885,0.5159723982920268,0.4830614515454884,-2.29582568831664,4.65403186897726,-1.2582618984348122,-1.0075951095685907,0.28874129584325653,2.2255236259932123,3,left
3.1639999999999997,0.5855080846092521,0.5051467602413833,0.48424143629838456,-2.2653222035214475,4.589709369428523,-1.217799641034158,-1.0072327375526564,0.27729080626947133,2.2304784970736704,3,left
3.1689999999999996,0.5859947146622192,0.49449499444008266,0.4852751927354584,-2.2347322459110277,4.523506987584183,-1.176783636023371,-1.0064061925980536,0.26575469961128523,2.2345700349996482,3,left
3.17,0.5863928258137133,0.4840203248367687,0.4861635874954209,-2.204109715760744,4.455452947474522,-1.1352480452653313,-1.0051106169421584,0.25413856098201537,2.237788993460214,3,left
3.174,0.5867063002964176,0.4737257260989501,0.48690764482643945,-2.1735075928008256,4.385576843243465,-1.0932277525736855,-1.003341510310735,0.24244814890277483,2.2401267715970152,3,left
3.175,0.5869390274435493,0.46361392423549624,0.4875085422227339,-2.142977838854565,4.313909630637852,-1.0507583131380338,-1.0010947324165584,0.23068939272103256,2.241575421958753,3,left
3.176,0.5870948940159142,0.45368739795215374,0.4879676056183653,-2.11257130080781,4.240483615611025,-1.0078758992412358,-0.9983665050822904,0.21886838946011627,2.2421276578401304,3,left
3.18,0.5871777749418179,0.44394838072204656,0.4882863041531098,-2.0823376138219545,4.165332439840033,-0.9646172421481979,-0.9951534141560496,0.20699140020927595,2.241776860006764,3,left
3.181,0.5871915244944514,0.4343988635492492,0.4884662445313979,-2.05232510470283,4.088491062950667,-0.9210195700442184,-0.9914524113433602,0.19506484612793135,2.240517082806299,3,left
3.1839999999999997,0.5871399679316591,0.42504059839962405,0.4885091649979276,-2.022580695450115,4.009995741310701,-0.8771205420119085,-0.9872608159996938,0.18309530407311542,2.2383430596657417,3,left
3.185,0.5870268936191719,0.4158751022689558,0.4884169289510959,-1.993149807571617,3.929884003603011,-0.8329581785952844,-0.9825763168830456,0.17108950182316748,2.235250207973723,3,left
3.185,0.5868560456513455,0.4069036618549664,0.48819151821015205,-1.964076268754111,3.8481946240266454,-0.7885707905078324,-0.9773969738559046,0.15905431286342803,2.2312346333440685,3,left
3.1889999999999996,0.5866311169763015,0.3981273387953278,0.4878350259494369,-1.9354022240424273,3.7649675943253773,-0.7439969076011326,-0.9717212195245751,0.14699675069956453,2.2262931332544174,3,left
3.1889999999999996,0.586355743025496,0.38954697542679834,0.48734964931648195,-1.9071680531201287,3.6802440954824247,-0.6992752096492234,-0.9655478608023834,0.1349239626640539,2.220423200050994,3,left
3.194,0.5860334958395962,0.3811632010132658,0.4867376817584578,-1.879412294279462,3.5940664692742312,-0.6544444594940602,-0.9588760803818914,0.12284322318126235,2.213623023307992,3,left
3.195,0.5856678786727529,0.3729764383853208,0.48600150509051343,-1.8521715751101477,3.506478189515559,-0.6095434385362328,-0.9517054380998081,0.11076192645650021,2.205891491527374,3,left
3.2,0.5852623210482553,0.3649869109309203,0.48514358134961777,-1.825480549825989,3.4175238327525936,-0.5646108844425538,-0.9440358721768624,0.09868757855438524,2.1972281931622115,3,left
3.2,0.5848201742339082,0.3571946498747738,0.4841664444897603,-1.7993718431496344,3.3272490481565984,-0.5196854309418116,-0.9358677003134701,0.08662778883182581,2.187633416944034,3,left
3.2030000000000003,0.5843447071074794,0.34959950178295984,0.4830726919872426,-1.7738760006773198,3.2357005263665846,-0.4748055495797865,-0.9272016206205971,0.07459026069093373,2.1771081514919746,3,left
3.2030000000000003,0.5838391023904409,0.34220113622909876,0.4818649764339296,-1.7490214456469821,3.1429259670255596,-0.43000949330453003,-0.9180387123637835,0.06258278161719665,2.1656540841788257,3,left
3.208,0.5833064532386237,0.3349990535597653,0.48054599719954794,-1.7248344420348078,3.0489740447511213,-0.38533524175293477,-0.9083804364968708,0.050613212468282105,2.1532735992264405,3,left
3.2089999999999996,0.5827497601872094,0.32799259270026865,0.4791184922429525,-1.701339063907033,2.9538943732775,-0.3408204481097466,-0.8982286359605322,0.03868947597890936,2.139969775000251,3,left
3.214,0.5821719284532041,0.3211809389478234,0.4775852301486793,-1.6785571709556517,2.8577374675026426,-0.2965023874104158,-0.8875855357192918,0.026819544447311702,2.125746380470001,3,left
3.214,0.5815757656026241,0.3145631317076574,0.4759490024587086,-1.6565083901486046,2.760554703170541,-0.25241790615952975,-0.8764537425092901,0.015011426568920912,2.1106078708011387,3,left
3.218,0.5809639795916046,0.3081380721375097,0.47421261635804185,-1.635210103426993,2.6623982739157803,-0.20860337313702898,-0.8648362442676348,0.003273153383037224,2.094559382038651,3,left
3.219,0.5803391771874258,0.30190453067524853,0.4723788877560387,-1.6146774413839202,2.5633211453941827,-0.16509463126497184,-0.85273640921277,-0.008387236701596983,2.0776067248425023,3,left
3.2230000000000003,0.5797038627662972,0.29586115443278,0.47045063478668026,-1.594923282861654,2.4633770062204734,-0.12192695040828297,-0.8401579845438906,-0.019961713836224103,2.059756377231182,3,left
3.2239999999999998,0.579060437473208,0.29000647444810873,0.4684306717344253,-1.5759582604059592,2.362620215431119,-0.0791349809836955,-0.8271050947260358,-0.03144227365020245,2.0410154762872863,3,left
3.228,0.5784111987196741,0.2843389127962084,0.46632180338190526,-1.5577907715186419,2.2611057461878166,-0.03675270825197378,-0.8135822393261094,-0.042820955191321536,2.0213918087764395,3,left
3.2289999999999996,0.577758339990329,0.27885678956688786,0.4641268197734224,-1.5404269956515855,2.1588891254346483,0.005186592830517891,-0.7995942903637023,-0.054089859921534644,2.0008938006282935,3,left
3.234,0.5771039509286406,0.27355832972290467,0.46184849139156925,-1.5238709168878068,2.0560263692195657,0.04665040232375738,-0.7851464891392285,-0.06524117180107211,1.9795305052257819,3,left
3.235,0.5764500176727371,0.2684416698536857,0.4594895647477037,-1.5081243522573617,1.9525739133887057,0.08760699970119885,-0.7702444425005378,-0.07626717849360627,1.9573115904462766,3,left
3.239,0.5757984234109366,0.2635048648386664,0.45705275838769677,-1.4931869856382252,1.8485885393600103,0.12802550805250937,-0.7548941185078333,-0.08716029372482378,1.934247324395781,3,left
3.239,0.5751509491215622,0.2587458944288498,0.4545407593131689,-1.4790564071945873,1.744127294680783,0.16787593821095417,-0.7391018414553997,-0.09791308082642337,1.9103485597748056,3,left
3.242,0.5745092744560296,0.2541626697465419,0.4519562198158025,-1.4657281583073298,1.6392474080721062,0.20712923292302143,-0.7228742862073483,-0.10851827749719782,1.8856267168121226,3,left
3.2430000000000003,0.5738749787237382,0.24975303969407703,0.4493017547173411,-1.4531957819537678,1.5340061986615208,0.24575731117633362,-0.7062184718032924,-0.11896882181247655,1.860093764700167,3,left
3.2430000000000003,0.5732495419433412,0.2455147972550795,0.44657993900092846,-1.4414508784960525,1.4284609791040062,0.28373311280026237,-0.6891417543119513,-0.12925787945633202,1.8337622015136053,3,left
3.247,0.5726343459337964,0.2414456856672353,0.4437933058133638,-1.4304831668399363,1.3226689522900872,0.32103064345195076,-0.6716518190261797,-0.1393788718681705,1.8066450328410164,3,left
3.248,0.5720306754271205,0.23754340444361322,0.44094434481501077,-1.4202805509278706,1.2166871013388636,0.35762502009865327,-0.653756672301841,-0.14932550448663912,1.7787557498087092,3,left
3.252,0.5714397191917937,0.23380561521912016,0.4380355008529835,-1.410829191441067,1.1105720728492314,0.39349251701069804,-0.635464633458482,-0.15909179399095968,1.7501083074241774,3,left
3.253,0.5708625711607934,0.23022994739861807,0.4350691729322881,-1.4021135821292783,1.0043800547635924,0.42861061180376714,-0.6167843270418314,-0.16867209372167566,1.7207171039136653,3,left
3.253,0.5703002315625636,0.22681400358406814,0.4320477134614122,-1.394116629364689,0.8981666526849358,0.46295803021457654,-0.5977246755368314,-0.17806111697054397,1.6905969612746923,3,left
3.258,0.5697536080586308,0.22355536475996765,0.4289734277542334,-1.3868197330603838,0.7919867698695345,0.49651478781828645,-0.5782948925020243,-0.18725395811114298,1.659763107011429,3,left
3.258,0.5692235168975959,0.2204515952190639,0.4258485737748944,-1.3802028675540474,0.6858944947355339,0.5292622273674898,-0.5585044760716473,-0.1962461115977076,1.6282311569685204,3,left
3.262,0.5687106840996199,0.21750024721521927,0.42267536211439966,-1.3742446618841766,0.5799429972405137,0.5611830512830077,-0.5383632027707049,-0.20503348885915293,1.5960170991768636,3,left
3.263,0.5682157466866825,0.2146988653382032,0.41945595618882,-1.3689224793461843,0.4741844340994662,0.592261349298119,-0.5178811215872197,-0.21361243311468509,1.5631372786227944,3,left
3.2680000000000002,0.5677392539716198,0.21204499061439072,0.4161924726490915,-1.3642124963093396,0.3686698625385253,0.6224826213502626,-0.49706854824483204,-0.22197973213682273,1.529608382850137,3,left
3.2689999999999997,0.5672816689142832,0.20953616434578665,0.41288698198951357,-1.3600897802773777,0.26344916228019083,0.6518337958118758,-0.47593605961791,-0.230132628987065,1.49544742830261,3,left
3.272,0.5668433695480347,0.20716993170702683,0.4095415093360964,-1.3565283671774409,0.1585709654563427,0.6803032431496203,-0.4544944882303508,-0.23806883074884416,1.4606717473121649,3,left
3.273,0.5664246504758579,0.20494384512653144,0.40615803539031015,-1.3535013378637653,0.05408259414603448,0.7078807850987814,-0.4327549167783086,-0.24578651528179424,1.4252989756369796,3,left
3.2760000000000002,0.5660257244331813,0.20285546748385527,0.40273849750308316,-1.3509808938242154,-0.049969994764097525,0.7345576994371374,-0.41072867261616286,-0.2532843360207513,1.3893470404510069,3,left
3.2769999999999997,0.5656467239147738,0.20090237515931678,0.3992847908583464,-1.3489384320793751,-0.15354225769799623,0.7603267204400611,-0.38842732214415737,-0.26056142484228006,1.3528341486852127,3,left
3.282,0.5652877028668999,0.19908216097257422,0.39579876975044936,-1.347344619265442,-0.2565911057869844,0.7851820350960554,-0.36586266503528014,-0.2676173930208957,1.3157787756189292,3,left
3.283,0.5649486384530912,0.19739243704359066,0.3922822489426995,-1.3461694648936209,-0.3590749398440237,0.8091192751593456,-0.3430467282381345,-0.27445233029651694,1.2781996536180795,3,left
3.287,0.5646294329105039,0.19583083760342615,0.38873700509727,-1.345382393780088,-0.46095367921287483,0.832135505113542,-0.31999175969176047,-0.2810668020740555,1.2401157609154232,3,left
3.287,0.5643299155216969,0.19439502177488965,0.3851647782713407,-1.344952317641879,-0.562188784788101,0.8542292061177683,-0.29671022168761124,-0.2874618447754119,1.2015463103264128,3,left
3.292,0.5640498447312332,0.1930826763351499,0.3815672734786328,-1.3448477058552644,-0.6627432765002366,0.8754002560040106,-0.27321478381316594,-0.29363895936351403,1.1625107377927468,3,left
3.293,0.5637889104356358,0.1918915184640904,0.3779461623177786,-1.3450366553742792,-0.7625817455587094,0.8956499053918074,-0.2495183154109749,-0.2996001030574014,1.1230286906442548,3,left
3.2960000000000003,0.563546736468969,0.19081929847435125,0.37430308466941836,-1.345486959808107,-0.861670361743258,0.9149807499837476,-0.22563387748628339,-0.30534767925673095,1.083120015468359,3,left
3.2969999999999997,0.5633228832969444,0.18986380251383803,0.37063965046239805,-1.3461661776569476,-0.9599768760326334,0.9333966991025983,-0.20157471399576538,-0.31088452569345215,1.0428047454750147,3,left
3.301,0.563116850922343,0.18902285522982004,0.36695744150586573,-1.3470416997068408,-1.057470618857323,0.95090294052824,-0.17735424244932133,-0.31621390082778306,1.0021030872437509,3,left
3.301,0.5629280819938263,0.18829432238400953,0.36325801338021,-1.348080815584674,-1.154122494260881,0.967505901689949,-0.15298604375635555,-0.32133946850500356,0.9610354067382053,3,left
3.306,0.5627559650968248,0.1876761134090812,0.35954289737835865,-1.3492507794752484,-1.2499049702522074,0.9832132072669441,-0.12848385124744605,-0.32626528088897894,0.9196222144723876,3,left
3.306,0.5625998381893834,0.18716618389910816,0.35581360249090127,-1.3505188750028552,-1.3447920656287888,0.9980336332474997,-0.10386153880185753,-0.330995759687732,0.8778841497117827,3,left
3.312,0.5624589921313655,0.1867625380296487,0.3520716174314475,-1.3518524792802709,-1.4387593335484954,1.0119770574943412,-0.07913310801092335,-0.33553567568579595,0.835841963591368,3,left
3.312,0.562332674245503,0.18646323090773273,0.34831841269905406,-1.3532191261284652,-1.5317838421250336,1.025054406861461,-0.05431267434217423,-0.33989012663081036,0.7935165010863149,3,left
3.313,0.5622200918463659,0.18626637085634673,0.3445554426720624,-1.3545865684705942,-1.6238441523195914,1.0372776009049536,-0.029414452444925587,-0.3440645136877669,0.7509286820437101,3,left
3.319,0.5621204156796118,0.18617012163992974,0.34078414772475896,-1.3559228399040384,-1.7149202933985659,1.0486594922279462,-0.004452741054853944,-0.3480645169734769,0.7080994819750455,3,left
3.32,0.5620327832221348,0.18617270463655602,0.33700595635647757,-1.3571963154543425,-1.8049937362245638,1.0592138034972234,0.020558091868992018,-0.35189607084980673,0.6650499135819032,3,left
3.322,0.561956301797816,0.1862724009600548,0.3332222873218356,-1.358375771487978,-1.8940473646184868,1.06895506125272,0.04560362331770297,-0.35556533948720426,0.6218010097130198,3,left
3.323,0.5618900514688951,0.1864675535319349,0.32943455175001596,-1.3594304446260506,-1.9820654448946464,1.0778985270588446,0.07066938857680506,-0.35907869290982825,0.5783738079579265,3,left
3.324,0.5618330876751049,0.18675656909888097,0.32564415523949636,-1.3603300892584322,-2.0690335934285,1.086060127318554,0.09574089377792311,-0.3624426835666008,0.5347893368082431,3,left
3.326,0.5617844436076861,0.18713792018630482,0.32185249991150755,-1.3610450331228243,-2.1549387419806276,1.0934563834989697,0.12080362772972902,-0.36566402343873905,0.49106860326242646,3,left
3.326,0.5617431323197868,0.18761014697135855,0.3180609864015425,-1.3615462305476003,-2.239769100630639,1.1001043440848344,0.14584307310015143,-0.36874956169387224,0.4472325817492623,3,left
3.3310000000000004,0.5617081485904654,0.18817185905094297,0.31427101576608757,-1.361805313199306,-2.3235141184111665,1.1060215187995195,0.17084471702183873,-0.37170626289642233,0.4033022042449427,3,left
3.332,0.5616784705766443,0.18882173707343045,0.3104839912822705,-1.361794638309869,-2.406164441862096,1.1112258152009091,0.19579406119284345,-0.3745411857835176,0.35929835145817385,3,left
3.3369999999999997,0.5616530613025686,0.18955853419805802,0.30670132011888557,-1.3614873343848903,-2.487711871748703,1.1157354776712947,0.22067663154442768,-0.3772614626153176,0.315241844957431,3,left
3.338,0.561630870047506,0.1903810773433462,0.302924414856424,-1.3608573443937106,-2.5681493181842514,1.1195690288183169,0.24547798754778177,-0.379874279108259,0.27115344011420467,3,left
3.34,0.5616108336993066,0.19128826818586686,0.29915469483237034,-1.359879466441156,-2.6474707543944787,1.1227452133019467,0.2701837312312978,-0.3823868549593807,0.22705381973587224,3,left
3.341,0.56159187814445,0.19227908387410136,0.2953935872879459,-1.358529391920027,-2.7256711693581996,1.1252829441004972,0.29477951597984803,-0.38480642496955964,0.18296358826167675,3,left
3.345,0.5615729197646239,0.1933525774287019,0.2916425282945051,-1.3567837411424701,-2.802746519555108,1.1272012512267213,0.3192510551872845,-0.3871402207731776,0.138903266395203,3,left
3.346,0.5615528671047133,0.19450787780838755,0.2879029634412845,-1.3546200964473636,-2.8786936800486225,1.1285192329031608,0.34358413083310196,-0.38939545318145335,0.09489328604670941,3,left
3.3489999999999998,0.5615306227668142,0.19574418962842927,0.28417634826973986,-1.3520170327797931,-2.953510395128424,1.1292560092040764,0.36776460205389055,-0.3915792951464059,0.050953985458699926,3,left
3.35,0.5615050855717576,0.1970607925255732,0.2804641484430467,-1.3489541457375542,-3.0271952287340924,1.1294306781695127,0.3917784137798487,-0.3936988653521692,0.007105604388206621,3,left
3.355,0.561475153016601,0.1984570401694871,0.27676783964335216,-1.345412077078417,-3.099747514878012,1.1290622743953236,0.4156116055062266,-0.39576121244015255,-0.03663172078060217,3,left
3.3560000000000003,0.5614397240446687,0.19993235892700462,0.2730889071936023,-1.3413725376806354,-3.171167308282474,1.1281697301013167,0.43925032026913535,-0.3977732998743344,-0.08023796211967055,3,left
3.36,0.5613977021333699,0.2014862461915981,0.26942884540410184,-1.3368183279478558,-3.2414553354426463,1.1267718386780596,0.4626808138946764,-0.3997419914527954,-0.12369320556208181,3,left
3.36,0.5613479986936991,0.2031182683965702,0.26578915664676883,-1.3317333556482152,-3.3106129463238445,1.1248872207113294,0.4858894645898278,-0.4016740374714291,-0.1669776567544659,3,left
3.365,0.5612895367646037,0.20482805873663334,0.2621713501635584,-1.326102651175983,-3.378642066898266,1.1225342924816835,0.5088627829429655,-0.40357606154562625,-0.2100716474820138,3,left
3.366,0.5612212549763123,0.20661531462724753,0.25857694061991443,-1.3199123802226302,-3.4455451527231102,1.119731236935175,0.5315874224013004,-0.40545454809560133,-0.2529556427908912,3,left
3.3689999999999998,0.5611421117498925,0.20847979493179236,0.25500744641795525,-1.3131498538426865,-3.511325143758763,1.1164959771198395,0.5540501902918736,-0.4073158305009275,-0.2956102489323545,3,left
3.3689999999999998,0.5610510896959685,0.21042131698372074,0.25146438778635816,-1.3058035358981808,-3.5759854206224833,1.1128461520812307,0.5762380594520772,-0.4091660799297565,-0.33801622225232364,3,left
3.3739999999999997,0.5609472001730754,0.2124397534269712,0.24794928466607377,-1.2978630478638522,-3.639529762469783,1.108799095208994,0.5981381805349557,-0.41101129484813415,-0.3801544791495652,3,left
3.375,0.5608294879639442,0.2145350288951886,0.24446365441508766,-1.289319170973682,-3.7019623066924834,1.1043718150252184,0.6197378950537872,-0.4128572912147721,-0.4220061072249791,3,left
3.3789999999999996,0.5606970360243293,0.21670711654980201,0.241009009360669,-1.2801638456876192,-3.763287510619211,1.0995809784041244,0.6410247492296578,-0.4147096933666032,-0.46355237774376923,3,left
3.38,0.5605489702546249,0.21895603449859827,0.23758685423073003,-1.2703901684556695,-3.8235101154008757,1.0944428962114918,0.6619865086687998,-0.416573925596857,-0.5047747594767648,3,left
3.38,0.5603844642441385,0.2212818421181816,0.23419868349389789,-1.259992385754785,-3.8826351122605063,1.0889735113511512,0.6826111737150223,-0.4184552044095058,-0.5456549337126207,3,left
3.384,0.5602027439441194,0.2236846363040646,0.2308459786316481,-1.2489658853722403,-3.9406677112836133,1.0831883892048058,0.7028869949966258,-0.4203585314017521,-0.5861748097390552,3,left
3.385,0.5600030922339422,0.22616454767139668,0.22753020536176288,-1.237307184907404,-3.9976133129221023,1.0771027104504636,0.7228024885056774,-0.4222886867083759,-0.6263165398166343,3,left
3.389,0.5597848533525123,0.22872173672622156,0.22425281083344847,-1.225013917511155,-4.053477482309229,1.0707312662230137,0.7423464497271391,-0.4242502229596942,-0.6660625329413509,3,left
3.39,0.5595474371774405,0.23135639001969208,0.2210152208161022,-1.2120848151260288,-4.108265926118123,1.0640884554756687,0.7615079666593743,-0.4262474597371475,-0.7053954671839004,3,left
3.39,0.5592903233430342,0.23406871629084558,0.21781883690554782,-1.198519689930521,-4.161984471041995,1.0571882842130833,0.780276431747106,-0.42828447852848894,-0.744298300666189,3,left
3.395,0.5590130651817109,0.23685894260661436,0.2146650337774913,-1.184319414934791,-4.2146390426092015,1.050044366162233,0.7986415527829492,-0.43036511818822165,-0.782754281289214,3,left
3.3960000000000004,0.5587152934538343,0.23972731052072185,0.21155515651955237,-1.1694859044275523,-4.266235643405089,1.042669924550257,0.816593362832537,-0.43249297090902944,-0.820746955325279,3,left
3.398,0.558396719818085,0.24267407228416377,0.20849051805552685,-1.1540220945299462,-4.316780330420742,1.035077794844785,0.8341222292371386,-0.43467137871006206,-0.8582601749862578,3,left
3.398,0.5580571400018436,0.2456994871397626,0.20547239664276296,-1.137931923864744,-4.366279191607549,1.0272804284154629,0.8512188617465046,-0.4369034304480592,-0.8952781050783496,3,left
3.404,0.5576964366523184,0.24880381772537963,0.20250203340171236,-1.1212203142982646,-4.41473832178584,1.0192898970955293,0.8678743198334888,-0.439191959357433,-0.9317852288524331,3,left
3.405,0.5573145818699655,0.25198732660293044,0.19958062984657743,-1.1038931517105972,-4.462163798052781,1.0111178986216516,0.8840800192407833,-0.4415395411255747,-0.9677663531577505,3,left
3.408,0.5569116394383306,0.25525027292530805,0.19670934541907065,-1.0859572667479165,-4.508561654831752,1.0027757629296532,0.8998277378088608,-0.4439484925098024,-1.0032066130052293,3,left
3.409,0.5564877667681456,0.2585929092489014,0.1938892950566903,-1.067420415508891,-4.553937858702432,0.9942744592832008,0.9151096206329539,-0.44642087050253043,-1.0380914756452866,3,left
3.4139999999999997,0.5560432165687375,0.2620154784961201,0.19112154683777782,-1.0482912601154295,-4.59829828314784,0.9856246042119984,0.9299181845956059,-0.44895847205141004,-1.0724067442634482,3,left
3.4139999999999997,0.5555783382464066,0.2655182110717338,0.18840711974195373,-1.02857934911625,-4.641648683351639,0.9768364702355498,0.944246322320018,-0.451562834341364,-1.106138561395559,3,left
3.418,0.555093579010521,0.26910132213813087,0.18574698155493632,-1.0082950976700453,-4.683994671176062,0.9679199953480889,0.9580873055880743,-0.454235235645624,-1.1392734121627701,3,left
3.4189999999999996,0.5545894846512645,0.272765009055986,0.18314204693835576,-0.987449767453307,-4.72534169044791,0.9588847932398512,0.9714347882655736,-0.45697669675306174,-1.171798127424854,3,left
3.423,0.5540666999457541,0.2765094489973235,0.18059317568244757,-0.9660554462362074,-4.765694992677181,0.9497401642294617,0.9842828087758125,-0.4597879829793004,-1.2036998869487165,3,left
3.423,0.5535259686530062,0.28033479673641504,0.1781011711608272,-0.9441250270682907,-4.80505961332997,0.9404951068818468,0.9966257921612685,-0.4626696067692836,-1.23496622268727,3,left
3.43,0.5529681330677902,0.28424118262013875,0.1756667790075597,-0.9216721870141161,-4.843440348774436,0.9311583302857326,1.0084585517717124,-0.46562183089918,-1.2655850222620695,3,left
3.431,0.552394133112485,0.2882287107159315,0.17329068603663378,-0.8987113653774212,-4.880841734015792,0.9217382669644804,1.0197762906156502,-0.4686446722857016,-1.295544532741337,3,left
3.4339999999999997,0.5518050049522016,0.2922974571341886,0.1709735194239513,-0.8752577413508335,-4.917268021333381,0.9122430863937188,1.0305746024105369,-0.471737906411112,-1.3248333648031592,3,left
3.4339999999999997,0.5512018791229559,0.2964474685208968,0.16871584617094287,-0.8513272110266624,-4.952723159930121,0.9026807090989688,1.0408494723657478,-0.4749010723724085,-1.3534404973718002,3,left
3.4389999999999996,0.5505859781679374,0.30067876071245253,0.16651817286414314,-0.8269363637028422,-4.98721077670178,0.8930588213062179,1.05059727773081,-0.47813347856335925,-1.3813552828131672,3,left
3.44,0.549958613784426,0.30499131753838726,0.1643809457356969,-0.8021024574166836,-5.0207341582307174,0.8833848901181837,1.0598147881399047,-0.481434208998282,-1.4085674527735454,3,left
3.443,0.5493211834935013,0.3093850897517743,0.16230455101887203,-0.7768433936377278,-5.053296234105956,0.8736661791888126,1.0684991657821519,-0.484802130286648,-1.435067124743757,3,left
3.443,0.5486751668553344,0.3138599940624992,0.1602893155845378,-0.7511776910496656,-5.084899561668679,0.8639097648683888,1.07664796542567,-0.4882358992677969,-1.4608448094289195,3,left
3.448,0.5480221212621845,0.3184159122458288,0.15833550784061023,-0.7251244583500233,-5.115546312279439,0.8541225527914796,1.0842591343152301,-0.4917339712962632,-1.4858914189650407,3,left
3.45,0.5473636773450079,0.32305269030030803,0.1564433388757262,-0.6987033659950918,-5.145238259200652,0.8443112948798115,1.0913310119285062,-0.4952946090735189,-1.5101982758370955,3,left
3.45,0.5467015340270633,0.32777013763429125,0.15461296382960582,-0.6719346168164084,-5.173976767185146,0.8344826067320651,1.0978623295144758,-0.4989158917513239,-1.5337571220189674,3,left
3.4530000000000003,0.5460374532568432,0.33256802626251875,0.15284448347309434,-0.6448389154339911,-5.201762783858821,0.824642985372488,1.103852209302701,-0.5025957239371677,-1.5565601276689869,3,left
3.4539999999999997,0.5453732544593687,0.33744608998978615,0.15113794597843488,-0.6174374363904663,-5.228596832982725,0.8147988273301544,1.1093001633039512,-0.5063318443273594,-1.5785998988972183,3,left
3.4589999999999996,0.544710808753488,0.3424040235541013,0.14949334885700308,-0.5897517909630772,-5.254479009653972,0.8049564469973303,1.1142060916809873,-0.5101218338642952,-1.5998694844507024,3,left
3.4589999999999996,0.5440520329833977,0.3474414817036159,0.14791064104181992,-0.5618039927788165,-5.27940897738664,0.7951220950987821,1.1185702807000608,-0.5139631234094909,-1.620362381345231,3,left
3.4610000000000003,0.543398883605229,0.35255807818871654,0.14638972509555795,-0.5336164226616145,-5.303385966802989,0.7853019768939835,1.122393400278774,-0.5178530009431096,-1.640072539506954,3,left
3.463,0.5427533504638452,0.3577533846557638,0.1449304595270265,-0.5052117933088914,-5.326408775547007,0.7755022696175917,1.125676501144398,-0.5217886183008644,-1.6589943654849084,3,left
3.464,0.5421174504966799,0.3630269294292231,0.14353266119849148,-0.4766131142248368,-5.348475769145167,0.7657291387801748,1.1284210116151863,-0.5257669974593262,-1.6771227252933243,3,left
3.467,0.5414932214054593,0.36837819616950546,0.1421961078056887,-0.4478436570325266,-5.369584882744562,0.755988753161081,1.1306287340156675,-0.5297850363808048,-1.6944529464403186,3,left
3.468,0.5408827153370844,0.37380662239858414,0.14092054041412924,-0.4189269211171704,-5.389733623771441,0.7462872984419961,1.1323018407353558,-0.5338395144291026,-1.7109808191973275,3,left
3.4730000000000003,0.5402879926124113,0.37931159789201,0.13970566603812481,-0.38988659951838167,-5.408919075573544,0.7366309894531243,1.1334428699387622,-0.5379270973675648,-1.7267025971613386,3,left
3.4739999999999998,0.5397111155387094,0.38489246294164425,0.1385511602514299,-0.360746544988875,-5.427137902106839,0.7270260810040245,1.134054720933058,-0.542044341950959,-1.7416149971597006,3,left
3.478,0.5391541423390016,0.39054850649786255,0.13745666981946214,-0.3315307361365701,-5.444386353724582,0.7174788772712456,1.1341406491981985,-0.5461877001228264,-1.755715198544986,3,left
3.478,0.5386191212286948,0.3962789642029088,0.13642181534216344,-0.30226324356673095,-5.460660274123767,0.7079957397150356,1.1337042610827937,-0.55035352283004,-1.7690008419250594,3,left
3.484,0.5381080846664354,0.4020830163287899,0.13544619389459706,-0.2729681959404782,-5.475955108501324,0.6985830934975451,1.1327495081674892,-0.5545380634663886,-1.7814700273711888,3,left
3.485,0.5376230438029425,0.4079597856347102,0.13452938165033435,-0.24366974586579848,-5.490265912969586,0.6892474323751108,1.1312806812961131,-0.5587374809570821,-1.7931213121446998,3,left
3.487,0.5371659831494188,0.4139083351611801,0.13367093647078362,-0.2143920355370242,-5.5035873652777845,0.6799953220373928,1.1293024042733428,-0.5629478424961374,-1.8039537079803327,3,left
3.487,0.5367388554849906,0.41992766598009024,0.13287040044235104,-0.18515916203867994,-5.515913776883484,0.6708334018663382,1.1268196272261595,-0.567165125948658,-1.8139666779621229,3,left
3.491,0.5363435770191567,0.42601671492107634,0.13212730234340703,-0.15599514222957978,-5.527239106415068,0.6617683850881662,1.1238376196248783,-0.5713852219300615,-1.8231601330252702,3,left
3.492,0.5359820228203276,0.43217435229424417,0.1314411600246813,-0.12692387712312103,-5.53755697456352,0.6528070572918104,1.120361962958085,-0.5756039355743432,-1.8315344281151194,3,left
3.4960000000000004,0.5356560225161567,0.43839937962929754,0.13081148268999013,-0.0979691156798475,-5.546860680438918,0.6439562732875144,1.1163985430543555,-0.5798169880034805,-1.8390903580320102,3,left
3.498,0.5353673562668942,0.44469052745225657,0.13023777306866985,-0.0691544179285534,-5.555143219424137,0.6352229522795512,1.1119535420422038,-0.5840200175100937,-1.845829152988414,3,left
3.5010000000000003,0.5351177510104591,0.45104645312180724,0.1297195294743418,-0.04050311733246541,-5.562397302555403,0.6266140713273399,1.1070334299382898,-0.5882085804654723,-1.8517524739024116,3,left
3.502,0.5349088769778702,0.45746573874576163,0.12925624774365174,-0.012038282317373727,-5.568615377456412,0.6181366570695475,1.1016449558525094,-0.5923781519650603,-1.8568624074492215,3,left
3.5060000000000002,0.5347423444804145,0.46394688919379007,0.1288474230435585,0.01621732312101416,-5.573789650849776,0.6097977756861027,1.0957951387972151,-0.5965241262234656,-1.8611614608901454,3,left
3.5069999999999997,0.5346197009750667,0.4704883302164234,0.12849255152941927,0.0442412798127551,-5.577912112666638,0.6016045210734071,1.0894912580864466,-0.6006418167310166,-1.8646525566959449,3,left
