time,gFx,gFy,gFz,ax,ay,az,wx,wy,wz,subject_number,foot
5.507999999999999,0.4058228063197989,0.1808774276931441,0.13251205863843404,-2.2370335458079613,-4.6591770128259,1.5287121676149644,0.6966576069845974,-0.30884780259235073,-1.2853725754547907,2,left
5.5089999999999995,0.4040863098106269,0.1874605485125874,0.1307676083345865,-2.2370834973193863,-4.742640868542338,1.5170300014832647,0.7004064228434286,-0.3049733336139361,-1.3340986205134366,2,left
5.513,0.4024011080129308,0.19418706898760785,0.12903740282840448,-2.2368174760306103,-4.823980463171818,1.5050856072295096,0.703800960600511,-0.30124284417861336,-1.3820432579746227,2,left
5.513999999999999,0.40076822973310755,0.20105428826588026,0.1273198676681281,-2.2362260988725664,-4.903181273249963,1.4929065111764046,0.7068393597735273,-0.29767463254004034,-1.4291860409066783,2,left
5.52,0.39918867577881684,0.20805955131079504,0.12561339055567833,-2.2352999435995877,-4.980230473532954,1.4805196347912721,0.7095200449246359,-0.294286500107136,-1.4755070582589602,2,left
5.521,0.39766342018863093,0.21520024473477303,0.12391632538344242,-2.234029538430091,-5.055116892520792,1.4679512458024693,0.7118417236493908,-0.29109573426803836,-1.5209869409500723,2,left
5.522,0.3961934111660814,0.22247379229351744,0.12222699660833206,-2.232405353585825,-5.1278309658736605,1.455226912459264,0.7138033843713797,-0.288119091899525,-1.5656068667241732,2,left
5.522,0.39477957172655304,0.22987765006879882,0.12054370394232274,-2.2304177947597017,-5.198364687914469,1.4423714609398952,0.7154042939502819,-0.28537278355219853,-1.6093485639083926,2,left
5.528,0.3934228000651548,0.23740930136819002,0.11886472733272711,-2.228057198508547,-5.2667115614327376,1.4294089358717594,0.7166439951100115,-0.28287245830230795,-1.652194314201973,2,left
5.529,0.39212396965099794,0.24506625137077032,0.11718833220119901,-2.225313829566079,-5.332866545998661,1.4163625639272317,0.7175223036925796,-0.2806331892616896,-1.6941269546252729,2,left
5.532,0.3908839290501636,0.25284602154905655,0.1155127749080408,-2.2221778800703826,-5.396826004989968,1.403254720458234,0.7180393057422753,-0.27866945973797225,-1.7351298787542555,2,left
5.5329999999999995,0.38970350147722543,0.26074614389954837,0.11383630840854705,-2.218639470699085,-5.4585876515279255,1.39010689913237,0.7181953544237233,-0.27699515003789543,-1.77518703736351,2,left
5.537000000000001,0.38858348407408133,0.2687641550173076,0.11215718807097509,-2.214688653704322,-5.518150493512494,1.3769396845331932,0.7179910667763455,-0.27562352490733966,-1.8142829385982273,2,left
5.537999999999999,0.3875246469150862,0.27689759005373543,0.11047367762987388,-2.21031541783847,-5.575514777940399,1.3637727276869986,0.7174273203067085,-0.274567221602457,-1.8524026477928932,2,left
5.541,0.3865277317380105,0.2851439766002649,0.10878405525159764,-2.2055096951604565,-5.630681934683521,1.350624724478413,0.7165052494192088,-0.2738382385871213,-1.88953178705173,2,left
5.542999999999999,0.38559345040033816,0.2935008285432474,0.10708661969079285,-2.2002613697112774,-5.683654519898717,1.3375133969170006,0.7152262416845109,-0.2734479248527844,-1.9256565347031749,2,left
5.547000000000001,0.38472248306142626,0.301965639936662,0.10537969651989434,-2.1945602880461355,-5.7344361592338755,1.3244554772170978,0.713591933944121,-0.2734069698577298,-1.960763624737867,2,left
5.547000000000001,0.38391547609590665,0.3105358789389055,0.10366164441819485,-2.1883962716093746,-5.783031490988685,1.3114666946531457,0.711604208248449,-0.2737253940836542,-1.9948403463367754,2,left
5.5520000000000005,0.3831730397530174,0.31920898185719027,0.10193086150944065,-2.181759130937109,-5.829446109382299,1.2985617651528916,0.7092651876246904,-0.27441254020847883,-2.027874543593221,2,left
5.5520000000000005,0.38249574558755234,0.3279823473384094,0.10018579173484575,-2.174638681671149,-5.873686508073796,1.2857543835909797,0.7065772316698349,-0.27547706489529367,-2.0598546155296114,2,left
5.557,0.3818841236965773,0.33685333074027207,0.098424931242563,-2.167024762366493,-5.915760024075035,1.2730572187456497,0.7035429319630986,-0.2769269311983707,-2.090769516506762,2,left
5.558,0.38133865979929116,0.34581923871288356,0.09664683476696108,-2.1589072540732963,-5.95567478218928,1.260481910881502,0.7001651072910623,-0.2787694015882379,-2.120608757120673,2,left
5.561,0.3808597921956335,0.3548773240196404,0.09485012196389622,-2.1502761016728433,-5.993439640102673,1.2480390719215642,0.6964467986778032,-0.28101103159888907,-2.1493624056786116,2,left
5.562,0.38044790863354694,0.3640247806261364,0.09303348366360241,-2.1411213369456252,-6.029064134249462,1.2357382881722063,0.6923912642113075,-0.2836576641013114,-2.1770210903432807,2,left
5.566,0.3801033431062376,0.3732587390847475,0.09119568800143235,-2.1314331033481815,-6.06255842656565,1.2235881255648031,0.6880019736564652,-0.2867144242086362,-2.203576002030783,2,left
5.567,0.37982637259262936,0.38257626224069946,0.08933558638805535,-2.1212016824738904,-6.093933252239583,1.2115961373784214,0.6832826028439771,-0.29018571481936684,-2.229018898144953,2,left
5.568,0.37961721375040375,0.39197434128415354,0.0874521192847907,-2.1104175221713906,-6.123199868561846,1.1997688744082113,0.6782370278338177,-0.294075212804218,-2.253342107194871,2,left
5.572,0.3794760195713919,0.4014498921725456,0.08554432175658087,-2.0990712662927753,-6.150370004970694,1.1881118975446143,0.6728693189024115,-0.29838586583288845,-2.276538534176058,2,left
5.5729999999999995,0.3794028760106877,0.41099975244724635,0.08361132878314549,-2.087153786042151,-6.17545581438317,1.176629792728953,0.6671837344943609,-0.30311988981957383,-2.2986016662990028,2,left
5.577000000000001,0.3793977986035188,0.42062067846755624,0.08165238031476164,-2.0746562128935593,-6.1984698258960504,1.1653261882514363,0.6611847153300842,-0.3082787669568339,-2.319525578482325,2,left
5.577999999999999,0.3794607290895697,0.4303093430829887,0.07966682606120429,-2.0615699730456436,-6.2194248989346415,1.1542037743581044,0.6548768788083472,-0.31386324431902896,-2.3393049381877766,2,left
5.577999999999999,0.37959153207200413,0.4400623337624966,0.07765413000243022,-2.04788682332713,-6.2383341789364035,1.1432643251059071,0.648265013749113,-0.3198733330364587,-2.357935009464677,2,left
5.582000000000001,0.3797899917433435,0.44987615119766733,0.07561387460973426,-2.0335988882070666,-6.255211054724622,1.1325087222664696,0.6413540754697825,-0.32630830805294764,-2.3754116562312624,2,left
5.582000000000001,0.3800558087100511,0.45974720839660277,0.07354576476688769,-2.018698697096918,-6.270069117855087,1.1219369808291544,0.6341491811767145,-0.33316670848291824,-2.3917313448497515,2,left
5.586,0.3803885969460679,0.4696718302849175,0.07144963138157558,-2.003179220871456,-6.282922124287087,1.111548275515404,0.6266556056530406,-0.3404463385852173,-2.4068911460486366,2,left
5.587000000000001,0.38078788090702664,0.47964625382671644,0.06932543467683185,-1.9870339067920766,-6.293783958649967,1.1013409678560193,0.618878777222935,-0.3481442693721772,-2.4208887362424085,2,left
5.591,0.38125309283798947,0.4896666286703578,0.06717326714956875,-1.9702567114796075,-6.30266860123704,1.0913126336340293,0.6108242739716507,-0.35625684087361054,-2.4337223982955782,2,left
5.5920000000000005,0.3817835703030354,0.4997290183136145,0.06499335618047908,-1.952842131840323,-6.309590097778682,1.0814600906354703,0.6024978201998075,-0.3647796650766437,-2.445391021774549,2,left
5.596,0.3823785539565332,0.5098294017732183,0.06278606627851259,-1.934785233898771,-6.314562532025808,1.0717794266787504,0.5939052830896038,-0.373707629563496,-2.455894102727544,2,left
5.596,0.3830371855681142,0.5199636757358111,0.06055190094366758,-1.9160816794892004,-6.3176000011693105,1.0622660278937806,0.5850526695598254,-0.38303490187049904,-2.465231743029455,2,left
5.6,0.3837585063084153,0.5301276571610853,0.058291504133096576,-1.8967277507555569,-6.318716594115356,1.0529146072225617,0.575946123285743,-0.3927549345928312,-2.4734046493251314,2,left
5.601,0.3845414553011544,0.5403170863031056,0.05600566131763751,-1.87672037240816,-6.3179263726308745,1.0437192331134086,0.5665919218592302,-0.4028604712606004,-2.480414131601282,2,left
5.605,0.3853848684489326,0.5505276301119123,0.05369530011945376,-1.8560571316833263,-6.31524335536797,1.0346733583814682,0.5569964740636812,-0.41334355301305653,-2.486262101413818,2,left
5.606,0.3862874775442397,0.5607548859742332,0.05136149052632472,-1.8347362959503324,-6.3106815047705185,1.025769849208656,0.547166317237583,-0.42419552609884154,-2.4909510697941153,2,left
5.61,0.3872479096815342,0.5709943857499616,0.04900544468247691,-1.8127568279082367,-6.30425471686069,1.0170010142565802,0.5371081146998826,-0.4354070502312888,-2.4944841448543373,2,left
5.612,0.3882646869888104,0.5812416000605496,0.04662851625692909,-1.7901183983131943,-6.295976813897739,1.0083586338664536,0.5268286532095989,-0.446968107828871,-2.4968650291086276,2,left
5.615,0.38933622669691176,0.5914919427865798,0.04423219938759619,-1.7668213961750192,-6.285861539895967,0.9998339893203961,0.5163348404314532,-0.45886801417194845,-2.4980980165236413,2,left
5.6160000000000005,0.39046084156329447,0.601740775733677,0.04181812719580491,-1.7428669363598452,-6.273922558983443,0.9914178921389232,0.505633702378639,-0.4710954285080059,-2.4981879893085805,2,left
5.621,0.3916367406657922,0.6119834134270364,0.0393880698640684,-1.7182568645338563,-6.260173456577723,0.9831007133897721,0.4947323808032174,-0.4836383661385658,-2.497140414451579,2,left
5.622000000000001,0.39286203058155955,0.6222151279948068,0.03694393226957519,-1.6929937593811617,-6.244627743349526,0.9748724129835573,0.48363813050400356,-0.4964842115219387,-2.4949613400059896,2,left
5.625,0.3941347169661983,0.6324311541008123,0.034487751165743034,-1.6670809320270052,-6.227298861940131,0.9667225689320574,0.472358316521222,-0.5096197324269119,-2.491657391126841,2,left
5.625,0.3954527065487218,0.642626693888721,0.03202169190411122,-1.6405224225956152,-6.208200196392995,0.9586404065452186,0.4609004111866275,-0.5230310951733805,-2.4872357658544755,2,left
5.63,0.39681380956099116,0.6527969219026848,0.029548044688535443,-1.6133229938301303,-6.187345084254979,0.9506148275432158,0.4492719909972371,-0.5367038809967967,-2.4817042306391146,2,left
5.63,0.39821574262498843,0.6629369899537033,0.027069220353197653,-1.5854881217001662,-6.16474683129742,0.9426344390601338,0.4374807332802853,-0.55062310357414,-2.4750711155968785,2,left
5.6339999999999995,0.39965613212498236,0.6730420319063942,0.024587745656337,-1.5570239829207395,-6.140418728802223,0.9346875825160286,0.4255344126165041,-0.5647732277499078,-2.4673453094845765,2,left
5.6370000000000005,0.40113251809279293,0.6831071683666392,0.022106258083337063,-1.5279374393044245,-6.114374073353083,0.9267623623342883,0.41344089698833797,-0.5791381895013686,-2.4585362543773934,2,left
5.6370000000000005,0.40264235863353204,0.6931275112560525,0.019627500154800893,-1.4982360188667931,-6.086626189066955,0.9188466744813417,0.4012081436277263,-0.5937014171675037,-2.4486539400428073,2,left
5.638,0.40418303491622254,0.7030981682653987,0.017154313236315225,-1.4679278936033824,-6.057188452195898,0.9109282348058624,0.38884419458007907,-0.6084458538890642,-2.437708898062788,2,left
5.643,0.4057518567476856,0.713014247186902,0.014689630847512174,-1.437021853854649,-6.02607431802451,0.9029946071546726,0.37635717207704267,-0.6233539810680171,-2.4257121958645556,2,left
5.644,0.407346068740311,0.722870860132189,0.012236471470616735,-1.405527279281338,-5.99329734996462,0.8950332312593741,0.36375527385269146,-0.6384078425775628,-2.4126754308789438,2,left
5.645,0.4089628570777943,0.7326631276456759,0.009797930862410185,-1.373454107009603,-5.958871250650729,0.8870314504716845,0.3510467684949652,-0.6535890695320848,-2.3986107249805073,2,left
5.647,0.41059935687782084,0.7423861827245614,0.007377173876445854,-1.3408127984730995,-5.922809894666966,0.8789765395765399,0.33823999084742634,-0.6688789055666345,-2.3835307192491655,2,left
5.648,0.4122526601433565,0.75203517475815,0.004977425806247192,-1.3076143070162343,-5.885127362438243,0.8708557329959056,0.3253433374336416,-0.684258232653626,-2.367448569028328,2,left
5.652,0.4139198242824907,0.7616052733997632,0.002601963269161201,-1.2738700477824354,-5.845837974906845,0.862656253612164,0.3123652618676961,-0.6997075975003124,-2.3503779392391184,2,left
5.653,0.41559788116275087,0.7710916723835654,0.0002541046639317891,-1.2395918704400937,-5.804956328778947,0.8543653422886609,0.2993142702140694,-0.7152072385709277,-2.33233299990741,2,left
5.656000000000001,0.41728384665216667,0.7804895932970174,-0.0020627997514968,-1.2047920347585532,-5.762497332214161,0.8459702880808483,0.2861989162598421,-0.7307371137776311,-2.313328421857499,2,left
5.657,0.4189747305875904,0.7897942893180192,-0.004345378104782257,-1.1694831889372446,-5.718476240845294,0.8374584591144406,0.2730277966619684,-0.7462769288845938,-2.2933793725234124,2,left
5.662999999999999,0.4206675471024923,0.7990010489246228,-0.006590247411735819,-1.1336783505895127,-5.672908694010892,0.8288173341067391,0.2598095459321423,-0.7618061666697116,-2.2725015118260363,2,left
5.662999999999999,0.42235932524252345,0.808105199584424,-0.008794024265847149,-1.097390890281198,-5.625810751078644,0.8200345345069807,0.24655283122159788,-0.7773041168885122,-2.2507109880615053,2,left
5.667000000000001,0.42404711979650983,0.817102111430068,-0.010953335639657056,-1.0606345175225615,-5.5771989277332015,0.8110978572312328,0.23326634686802608,-0.7927499070848558,-2.2280244337435824,2,left
5.667000000000001,0.425728022271827,0.8259872009265145,-0.01306482972164453,-1.0234232691107308,-5.527090232097569,0.801995307966982,0.21995880866665268,-0.8081225342929956,-2.2044589613400807,2,left
5.671,0.42739917194624394,0.8347559345338142,-0.01512518671464085,-0.9857714997184466,-5.475502200552776,0.7927151350221616,0.206638947827415,-0.8234008976754728,-2.1800321588407696,2,left
5.672000000000001,0.4290577669341162,0.8434038323657865,-0.01713112952646316,-0.9476938746235536,-5.42245293311623,0.7832458636929188,0.19331550458008623,-0.8385638321411746,-2.1547620850916287,2,left
5.676,0.43070107521281514,0.8519264718422458,-0.019079434290055562,-0.9092053644723652,-5.367961128234843,0.7735763311239463,0.17999722138913798,-0.8535901429876708,-2.1286672648277887,2,left
5.6770000000000005,0.4323264455626411,0.8603194913324154,-0.02096694065919345,-0.8703212419687721,-5.3120461168447655,0.7636957216346951,0.16669283574009489,-0.8684586416116737,-2.1017666833350255,2,left
5.681,0.43393131837746585,0.868578593789367,-0.02279056183656247,-0.8310570803797384,-5.254727895545372,0.753593602484242,0.1534110724591257,-0.8831481823311357,-2.0740797806672577,2,left
5.682,0.43551323630486105,0.8766995503779402,-0.024547294302155995,-0.7914287537466526,-5.196027158731005,0.7432599600470092,0.1401606355276299,-0.8976377003621034,-2.045626445345121,2,left
5.688,0.4370698546764144,0.884678204100761,-0.026234227218136296,-0.7514524386908633,-5.135965329519883,0.7326852363709296,0.12695019935361843,-0.911906250992999,-2.016427007458386,2,left
5.688,0.4385989516923731,0.8925104734289183,-0.027848551489793014,-0.7111446177006365,-5.074564589315566,0.721860366089017,0.11378839946175251,-0.9259330499984794,-1.9865022310927198,2,left
5.691,0.4400984383289044,0.9001923559458173,-0.029387568463234474,-0.6705220837857296,-5.011847905832386,0.710776813654634,0.10068382256399414,-0.9396975153344542,-1.9558733059991036,2,left
5.691,0.4415663679399728,0.907719932014556,-0.030848698243074967,-0.6296019463847758,-4.947839059412356,0.6994266108700573,0.08764499597293675,-0.9531793101552091,-1.9245618384220642,2,left
5.697,0.44300094552758396,0.9150893684816541,-0.03222948761992826,-0.5884016384097209,-4.882562667457207,0.6878023946772304,0.07468037632002437,-0.9663583871928809,-1.8925898410008002,2,left
5.6979999999999995,0.4444005366537614,0.9222969224340796,-0.033527617606009426,-0.5469389243106519,-4.816044206795452,0.6758974451788407,0.06179833754103165,-0.979215034538789,-1.8599797216552592,2,left
5.7,0.4457636759672701,0.9293389450314375,-0.03474091058298769,-0.5052319090435028,-4.748310033800635,0.6637057238571024,0.0490071580913657,-0.9917299228653027,-1.8267542713672686,2,left
5.7010000000000005,0.447089075319233,0.9362118854393628,-0.0358673370675917,-0.4632990478223176,-4.679387402073309,0.651221911956837,0.03631500735396414,-1.0038841541260661,-1.7929366507649163,2,left
5.706,0.4483756314444337,0.942912294893291,-0.03690502209983158,-0.4211591565369994,-4.6093044774957015,0.6384414489986383,0.023729931237003787,-1.0156593116962735,-1.7585503754535108,2,left
5.707999999999999,0.44962243319002454,0.9494368309237083,-0.03785225125810919,-0.37883142271677045,-4.538090350464552,0.6253605713870869,0.011259837129912992,-1.027037511537717,-1.7236193002194813,2,left
5.709,0.4508287682802304,0.9557822617741436,-0.038707476303730025,-0.3363354169189232,-4.46577504510418,0.6119763510781415,-0.0010875213057040393,-1.0380014532955073,-1.6881676025645123,2,left
5.711,0.4519941296110524,0.9619454710430637,-0.03946932045355242,-0.2936911044218471,-4.3923895252585154,0.5982867342689843,-0.013304558862297774,-1.0485344698562893,-1.6522197662103697,2,left
5.712000000000001,0.45311822107059385,0.9679234625832425,-0.040136583276880064,-0.25091885710077527,-4.317965697057583,0.584290580072737,-0.02538387255251302,-1.0586205742726311,-1.6158005650285174,2,left
5.712999999999999,0.4542009628802803,0.9737133656959196,-0.04070824521550563,-0.2080394653379847,-4.242536407932757,0.5699876990796564,-0.03731825424547118,-1.068244503633855,-1.5789350475144888,2,left
5.715,0.455242496452349,0.9793124406572942,-0.041183471733360275,-0.16507414968759726,-4.166135442361956,0.5553788914058573,-0.049100702174071933,-1.0773917598383345,-1.5416485217407603,2,left
5.716,0.45624318875970493,0.9847180846103136,-0.041561617110449305,-0.1220445717786784,-4.088797515360917,0.540465983290305,-0.060724431347999465,-1.0860486472962017,-1.503966540683557,2,left
5.72,0.45720363621486665,0.9899278378497541,-0.04184222790472238,-0.07897284380886545,-4.010558265143716,0.5252518610002506,-0.07218288290670252,-1.0942023075900815,-1.4659148878177382,2,left
5.721,0.45812466805532887,0.9949393905259544,-0.042025046116475985,-0.03588153611166929,-3.9314542459629664,0.5097405011040924,-0.08346973244618144,-1.1018407511200987,-1.427519562872706,2,left
5.726,0.45900734923386144,0.9997505897896409,-0.04211001209360214,0.00720631748350497,-3.8515229213995523,0.49393699670921026,-0.09457889735295998,-1.1089528857579989,-1.3888067676411424,2,left
5.726,0.4598529828124824,1.0043594473932518,-0.04209726719539353,0.0502672166485354,-3.7708026579591984,0.4778475795611343,-0.10550454317814527,-1.115528542533784,-1.349802891731316,2,left
5.73,0.4606631118519131,1.008764147751037,-0.04198715618316085,0.09327719403469863,-3.689332718748707,0.46147963795950175,-0.1162410890839871,-1.1215584983767768,-1.31053449815272,2,left
5.731,0.4614395207653453,1.0129630564412324,-0.041780229249085775,0.13621181735545262,-3.607153257002333,0.4448417304454153,-0.12678321239483745,-1.127034495931528,-1.2710283086238816,2,left
5.734,0.4621842360596193,1.0169547291104273,-0.041477243566779474,0.17904619419753767,-3.5243053092264867,0.42794359521399883,-0.13712585228388482,-1.1319492604674348,-1.2313111884903534,2,left
5.736000000000001,0.4628995263174314,1.0207379207123448,-0.0410791642723862,0.2217549796838993,-3.440830787728811,0.4107961552051469,-0.1472642126264952,-1.136296513899375,-1.1914101311401402,2,left
5.7410000000000005,0.46358790118793763,1.0243115949765262,-0.04058716485551178,0.2643123871117188,-3.3567724722956456,0.3934115188246946,-0.1571937640504332,-1.140070985935072,-1.1513522418031255,2,left
5.742000000000001,0.46425210906810305,1.0276749339524656,-0.04000262701722784,0.306692201688549,-3.272174000779965,0.3758029762474857,-0.16691024521266493,-1.1432684223632972,-1.1111647206204578,2,left
5.745,0.4648951331000185,1.0308273474117344,-0.03932714009859157,0.3488677974891905,-3.187079858360081,0.3579849912531058,-0.17640966333185767,-1.1458855904953864,-1.0708748448693342,2,left
5.745,0.46552018510268367,1.033768481823814,-0.03856250018014049,0.390812157755508,-3.1015353652277264,0.33997318854436825,-0.1856882940050921,-1.147920281770903,-1.0305099502281592,2,left
5.75,0.46613069710764937,1.0364982285691797,-0.037710708904532354,0.43249789866087496,-3.015586662462597,0.3217843364979989,-0.19474268033669095,-1.149371311536628,-0.9900974109666948,2,left
5.75,0.4667303102686189,1.0390167310359744,-0.036773971994309734,0.4738972966603486,-2.929280695848982,0.3034363252963664,-0.2035696314064461,-1.15023851600639,-0.949664618945514,2,left
5.755,0.4673228610453186,1.0413243902788527,-0.035754697342880636,0.5149823195470103,-2.8426651973888424,0.2849481403885518,-0.21216622010389097,-1.1505227464075765,-0.909238961308862,2,left
5.756,0.46791236469118885,1.0434218690043895,-0.03465549247038303,0.5557246613341636,-2.755788664264535,0.2663398312285444,-0.22052978035462267,-1.1502258603184963,-0.8688477967548871,2,left
5.7589999999999995,0.4685029961776671,1.0453100937720996,-0.03347916107439477,0.5960957810822597,-2.668700335003338,0.24763247523789486,-0.2286579037640248,-1.1493507101990865,-0.8285184302671514,2,left
5.76,0.46909906876552887,1.0469902554266446,-0.0322286983801895,0.6360669457885152,-2.5814501625950785,0.22884813693975867,-0.23654843570308115,-1.1479011291157826,-0.7882780861913447,2,left
5.763999999999999,0.4697050105064168,1.0484638078663375,-0.030907285018175756,0.675609277456203,-2.4940887843133774,0.21000982221091674,-0.24419947086030075,-1.1458819136597045,-0.7481538795412275,2,left
5.765,0.4703253390366664,1.0497324652942022,-0.029518279231165147,0.7146938044595292,-2.4066674879904473,0.19114142759808092,-0.2516093482831005,-1.143298804055656,-0.7081727854180098,2,left
5.769,0.47096463509858427,1.0507981981089827,-0.028065207324009345,0.7532915173188611,-2.319238174494903,0.17226768464457076,-0.2587766459313079,-1.1401584614577807,-0.6683616064276195,2,left
5.77,0.47162751526903945,1.0516632276000295,-0.026551752384943273,0.7913734289998375,-2.231853316161727,0.15341409917329585,-0.2657001747647602,-1.1364684424260882,-0.6287469379806558,2,left
5.775,0.47231860437186846,1.0523300196223238,-0.024981741406811035,0.8289106398485803,-2.1445659109233692,0.13460688547189312,-0.2723789723925447,-1.1322371706191117,-0.5893551314447901,2,left
5.776,0.47304250798651476,1.0528012774343347,-0.02335913099261219,0.8658744072738234,-2.057429431890925,0.11587289532585447,-0.27881229634203747,-1.1274739059497056,-0.5502122555426758,2,left
5.777,0.47380378535803,1.0530799338729198,-0.021687991840203504,0.9022362202852967,-1.9704977721344845,0.09723954184554039,-0.28499961706155313,-1.1221887118334415,-0.5113440571500443,2,left
5.779,0.4746069229174586,1.053169143035058,-0.019972492203410193,0.9379678788623776,-1.8838251845420144,0.07873471815055408,-0.2909406108010235,-1.1163924213708414,-0.4727759230721134,2,left
5.78,0.4754563085669387,1.0530722716452905,-0.01821688054242732,0.973041577456563,-1.7974662172866605,0.06038671156239031,-0.29663515248311,-1.1100966030898298,-0.4345328439543419,2,left
5.78,0.47635620684549734,1.0527928902880752,-0.01642546758035102,1.0074299907257365,-1.7114756466030552,0.04222411501357179,-0.3020833086200935,-1.1033135264892546,-0.39663938072329397,2,left
5.7829999999999995,0.4773107350510905,1.0523347646774628,-0.014602607977466237,1.041106358927585,-1.6259084092240366,0.024275737969082882,-0.30728533029987065,-1.0960561274095189,-0.35911963353143633,2,left
5.784,0.478323840365732,1.0517018471463213,-0.012752681849161803,1.074044571066436,-1.5408195361800123,0.00657051856913499,-0.3122416462574144,-1.0883379732122682,-0.32199721309605606,2,left
5.789,0.4793992780208123,1.050898268550661,-0.010880076368300339,1.1062192450896782,-1.4562640884941438,-0.01086256235417826,-0.3169528560473519,-1.0801732277496734,-0.28529521432349497,2,left
5.79,0.4805405905455859,1.0499283307733402,-0.008989167674663966,1.1376058050966948,-1.3722970946576678,-0.027994565320389176,-0.3214197233326036,-1.071576616102487,-0.24903619211096584,2,left
5.792999999999999,0.48175108816280554,1.0487964999772952,-0.007084303271785451,1.1681805556548701,-1.288973489641037,-0.04479667435512746,-0.32564316930332327,-1.062563389064734,-0.21324213921935825,2,left
5.792999999999999,0.4830338304272711,1.0475074007152698,-0.0051697850517250545,1.1979207533150498,-1.2063480551980947,-0.06124027730557324,-0.3296242662396747,-1.053149287351614,-0.177934466111647,2,left
5.7989999999999995,0.48439160923677443,1.0460658109539358,-0.0032498530635997457,1.2268046754165707,-1.1244753612221876,-0.07729704436604544,-0.33336423123127945,-1.0433505055059493,-0.1431339826527887,2,left
5.8,0.48582693337314886,1.0444766580115512,-0.0013286701291617567,1.254811686269642,-1.0434097079149627,-0.09293900486193166,-0.3368644200654704,-1.0331836554773233,-0.10886088156832499,2,left
5.803,0.4873420147480954,1.042745015339756,0.0005896926021310016,1.2819223008004634,-0.963205068530611,-0.10813862233913683,-0.3401263212957908,-1.022665729846898,-0.07513472356030841,2,left
5.803999999999999,0.48893875652866564,1.0408761000112001,0.002501269081032668,1.3081182457420217,-0.8839150324604759,-0.12286886800511723,-0.34315155050148466,-1.0118140646697973,-0.04197442398062154,2,left
5.809,0.4906187432962733,1.038875270718114,0.004402210706743055,1.3333825184509687,-0.8055927484252573,-0.13710329256637557,-0.3459418447480381,-1.0006463019058867,-0.009398240963274114,2,left
5.81,0.4923832333505073,1.0367480260456936,0.006288797542548816,1.3576994434284306,-0.7282908675445267,-0.15081609650602365,-0.3484990572581448,-0.98918035140877,0.022576235081167427,2,left
5.813,0.49423315321031047,1.034500002751864,0.008157448353359813,1.3810547266199633,-0.652061486055885,-0.1639821988436716,-0.3508251523017905,-0.9774343524418694,0.053932090704239204,2,left
5.814,0.49616909429845174,1.032136973757889,0.010004729434482412,1.4034355075671983,-0.5769560874588787,-0.17657730441847974,-0.35292220031347593,-0.9654266346895433,0.08465309748487293,2,left
5.82,0.49819131172771414,1.029664845537115,0.01182736223246324,1.4248304094810025,-0.5030254838617171,-0.18857796973471255,-0.3547923732439288,-0.9531756787303433,0.1147237190131404,2,left
5.821000000000001,0.500299725045176,1.027089654589383,0.013622229806971344,1.4452295873032217,-0.4303197563119175,-0.19996166740756496,-0.3564379401529917,-0.9407000759387072,0.1441291168824913,2,left
5.8229999999999995,0.5024939207405277,1.0244175627104692,0.015386382235017114,1.464624773821273,-0.3588881938952286,-0.21070684924539285,-0.3578612630497141,-0.9280184877806322,0.17285515577870453,2,left
5.824,0.5047731562895592,1.0216548508081496,0.01711704109618464,1.4830093238970288,-0.28877923139055683,-0.22079300800277413,-0.35906479298502697,-0.915149604468174,0.20088840775190553,2,left
5.827999999999999,0.5071363654872971,1.0188079110734236,0.018811603186694472,1.500378256868577,-0.2200403852721377,-0.2302007378370561,-0.3600510664017313,-0.9021121029369733,0.22821615575609316,2,left
5.829,0.5095821648306548,1.0158832373796456,0.020467643590545155,1.516728297180558,-0.15271818785385285,-0.2389117934992135,-0.3608227017458955,-0.8889246041104215,0.25482639653866984,2,left
5.832000000000001,0.5121088607408096,1.01288741384834,0.022082918195340067,1.5320579132958825,-0.08685811937439092,-0.24690914828794935,-0.36138239634312397,-0.8756056294135324,0.28070784296047896,2,left
5.832999999999999,0.5147144574676976,1.0098271015868783,0.023655365687287516,1.5463673549387214,-0.022504537825883634,-0.25417705079402647,-0.3617329235425367,-0.86217355649911,0.3058499258248298,2,left
5.837000000000001,0.5173966655839664,1.006709023671447,0.025183109001776255,1.559658688715731,0.04029939366728326,-0.26070108045981627,-0.3618771301306805,-0.8486465741483681,0.3302427952919286,2,left
5.837999999999999,0.5201529110424495,1.003539948518407,0.02666445615171928,1.5719358321595545,0.10151178210858743,-0.26646820197700616,-0.36181793401698775,-0.8350426363077771,0.35387732195304517,2,left
5.843,0.5229803448269547,1.0003266718471187,0.028097900318296353,1.583204586235708,0.16109208271319325,-0.271466818543313,-0.3615583221868842,-0.8213794152918746,0.37674509761888847,2,left
5.843999999999999,0.525875853256846,0.9970759974634258,0.029482119080733546,1.5934726663510466,0.21900117999581,-0.2756868239969159,-0.36110134889350337,-0.8076742545229044,0.39883843578586614,2,left
5.845,0.5288360690069432,0.9937947170800002,0.030815972682398593,1.6027497318990873,0.2752014720383442,-0.2791196538451514,-0.3604501340141841,-0.7939441217924622,0.42015037158215257,2,left
5.847,0.5318573828873253,0.9904895893795079,0.03209850125979924,1.6110474143745805,0.32965695810842044,-0.2817583352018089,-0.35960786147280205,-0.7802055643715594,0.44067466090463897,2,left
5.847,0.5349359564061729,0.9871673185499351,0.03332892098424028,1.6183793439709955,0.38233332963028654,-0.28359753555079237,-0.35857777765296933,-0.7664746669539899,0.4604057785442665,2,left
5.848,0.5380677351172132,0.9838345325386367,0.034506619089127534,1.6247611739924848,0.4331980636809132,-0.2846336097799689,-0.357363189770775,-0.7527670128032806,0.47933891525457184,2,left
5.852,0.5412484627328804,0.9804977612447262,0.03563114778710411,1.6302106013664124,0.4822205166962457,-0.28486464407770307,-0.3559674641997437,-0.7390976481320732,0.4974699738046631,2,left
5.853,0.5444736959625113,0.9771634148365226,0.036702217120290384,1.6347473809605046,0.529372015243659,-0.2842904948105968,-0.3543940247450601,-0.7254810496745274,0.5147955640732998,2,left
5.856,0.5477388200082837,0.9738377623859196,0.03771968683258583,1.6383933319852153,0.5746259415352656,-0.2829128209703379,-0.3526463508635776,-0.7119310954123979,0.5313129972384557,2,left
5.857,0.5510390646264567,0.9705269110331001,0.03868355739825486,1.6411723358018924,0.6179578128342837,-0.2807351096242935,-0.35072797582560794,-0.6984610384155479,0.547020279114444,2,left
5.862,0.5543695206467459,0.9672367858973082,0.03959396037534264,1.6431103250339685,0.6593453547250998,-0.27776269427386524,-0.34864248481398075,-0.6850834837578144,0.5619161026863713,2,left
5.862,0.5577251568377047,0.9639731109346409,0.040451148273122635,1.6442352639917077,0.6987685683769769,-0.2740027661166553,-0.34639351295535853,-0.6718103684693254,0.5759998398893659,2,left
5.8660000000000005,0.5611008370052252,0.9607413909275763,0.04125548413279514,1.6445771204185458,0.7362097919258398,-0.2694643782061993,-0.3439847432783052,-0.6586529444866025,0.5892715326776992,2,left
5.867000000000001,0.564491337211355,0.9575468947764619,0.04200743102171483,1.6441678285646464,0.7716537560929916,-0.2641584425007427,-0.34141990459212385,-0.6456217645620422,0.6017318834265926,2,left
5.872000000000001,0.5678913630002876,0.9543946402475683,0.0427075416332827,1.6430412435909763,0.8050876341539736,-0.25809771979027846,-0.33870276928001164,-0.6327266710946728,0.6133822447071675,2,left
5.872999999999999,0.5712955665175772,0.9512893803146992,0.04335644816639701,1.6412330873049465,0.8365010863650971,-0.25129680248883224,-0.33583715099961997,-0.6199767878444093,0.6242246084726668,2,left
5.876,0.5746985634087648,0.9482355912125271,0.0439548526297093,1.6387808852265189,0.8658862989494389,-0.24377209027678004,-0.3328269022836595,-0.6073805144923946,0.6342615946917453,2,left
5.877000000000001,0.5780949493869824,0.945237462298927,0.04450351767972064,1.6357238949816137,0.8932380177383235,-0.2355417585758185,-0.32967591203275354,-0.5949455240104009,0.6434964394623016,2,left
5.881,0.5814793163679928,0.9422988877985666,0.045003258064938975,1.6321030260177125,0.9185535765585199,-0.2266257198370867,-0.32638810289231474,-0.5826787628026829,0.6519329826370054,2,left
5.881,0.5848462680866563,0.9394234604721673,0.045454932718485296,1.6279607506346903,0.9418329204495586,-0.21704557762086144,-0.3229674285048069,-0.5705864535841139,0.659575654989359,2,left
5.8870000000000005,0.5881904351291232,0.9366144672300153,0.04585943752207459,1.6233410063221858,0.963078623789734,-0.20682457344422545,-0.3194178706283483,-0.5586741009588961,0.6664294649468328,2,left
5.888,0.5915064893348182,0.9338748866879015,0.046217698752953326,1.6182890893931974,0.9822959034035182,-0.1959875263711421,-0.31574343611221894,-0.5469464996646219,0.6724999849153186,2,left
5.891,0.5947891575360471,0.9312073886492964,0.0465306672175035,1.6128515399021006,0.9994926267172684,-0.18456076531746474,-0.3119481537194549,-0.5354077454469571,0.6777933372168672,2,left
5.891,0.598033234608697,0.9286143354886479,0.046799313067039314,1.6070760178339158,1.0146793150242706,-0.17257205404157214,-0.30803607078634077,-0.5240612485307378,0.6823161796604118,2,left
5.897,0.6012335958061715,0.9260977854057152,0.0470246212792324,1.6010111705504093,1.0278691419143446,-0.16005050878955546,-0.30401124970825366,-0.512909749653797,0.6860756907629297,2,left
5.898,0.6043852083428548,0.9236594975169818,0.04720758777038193,1.5947064914775135,1.0390779269174326,-0.1470265085621893,-0.2998777642409642,-0.5019553386303838,0.6890795546362611,2,left
5.9,0.6074831421866269,0.9213009387436947,0.047349216081961056,1.588212170017578,1.0483241244048271,-0.13353159796931002,-0.2956396956061652,-0.4911994754115823,0.6913359455525954,2,left
5.901,0.6105225800176861,0.9190232924429241,0.04745051456591673,1.5815789326691325,1.0556288077859663,-0.11959838263569547,-0.2913011283896743,-0.48064301361070205,0.6928535121994416,2,left
5.905,0.6134988263168641,0.916827468704942,0.047512493984599294,1.5748578753361635,1.0610156490330318,-0.10526041712109921,-0.28686614622044543,-0.47028622646217205,0.6936413616327288,2,left
5.906000000000001,0.6164073155592568,0.9147141162068237,0.04753616544712578,1.568100286808354,1.0645108935599592,-0.09055208531574256,-0.2823388272182222,-0.46012883518304315,0.6937090429345372,2,left
5.9110000000000005,0.6192436195044344,0.9126836354730492,0.04752253861920696,1.5613574633933414,1.0661433304768964,-0.07550847327131012,-0.2777232391973795,-0.45017003970677255,0.6930665305798394,2,left
5.912000000000001,0.6220034535893206,0.9107361933603053,0.047472620157880834,1.5546805146817961,1.0659442582356409,-0.0601652344263336,-0.27302343462524953,-0.44040855170754123,0.6917242075236751,2,left
5.912999999999999,0.6246826824403812,0.9088717385729043,0.0473874123323823,1.548120160426018,1.063947445676158,-0.04455844718378638,-0.2682434453881066,-0.43084262957394437,0.6896928480638078,2,left
5.915,0.6272773245263099,0.9070900180327601,0.047267911799278715,1.541726518858472,1.0601890884824299,-0.028724465057538603,-0.26338727751699015,-0.42147011452349553,0.6869836006141233,2,left
5.916,0.6297835559732979,0.9053905939536387,0.04711510850406194,1.5355488885052655,1.0547077610680902,-0.01269976090240969,-0.2584589060804442,-0.41228846678996967,0.6836079705677157,2,left
5.916,0.6321977135653858,0.9037728614777253,0.04692998468146588,1.5296355286610268,1.0475443639385664,0.003479230920096804,-0.25346227039588043,-0.4032948010761527,0.6795778033809301,2,left
5.921,0.634516296953947,0.9022360667113679,0.04671351392311136,1.5240334454205129,1.038742066588863,0.019776269289996953,-0.24840126961179404,-0.39448592093308826,0.6749052679254409,2,left
5.922000000000001,0.6367359701032653,0.9007793249509028,0.046466660276352295,1.5187881884345018,1.0283462459737043,0.03615545414008436,-0.24327975865771137,-0.3858583519874431,0.6696028401078297,2,left
5.925,0.6388535620018786,0.8994016388437633,0.0461903773378483,1.5139436604471572,1.0164044205505107,0.05258136581790586,-0.2381015445475239,-0.37740837399114613,0.6636832867451126,2,left
5.926,0.6408660666713968,0.8981019162077816,0.04588560731269624,1.5095419399445527,1.0029661798735057,0.06901919578540541,-0.23287038302167856,-0.36913205166799123,0.6571596496828215,2,left
5.93,0.6427706425089531,0.8968789872305216,0.04555328002370877,1.5056231168993797,0.9880831097091949,0.08543486870321301,-0.2275899755135188,-0.36102526433240845,0.6500452301404323,2,left
5.931,0.6445646110099341,0.8957316207799385,0.0451943118738142,1.5022251415980141,0.9718087126390189,0.10179515594669088,-0.22226396642490967,-0.3530837342561216,0.6423535732671649,2,left
5.934,0.6462454549352152,0.8946585395760616,0.0448096047851718,1.4993836865373813,0.9541983241106834,0.11806778060088521,-0.2168959406961267,-0.3453030537589075,0.6340984528894431,2,left
5.935,0.647810816009975,0.8936584340030032,0.04440004515615771,1.497132021380445,0.93530902389553,0.1342215139814697,-0.21148942165484766,-0.33767871100015884,0.6252938564296032,2,left
5.941,0.6492584922645859,0.8927299743820223,0.04396650288457649,1.4955009009606355,0.9151995429053119,0.15022626372861006,-0.20604786912895426,-0.330206114448428,0.6159539699737882,2,left
5.942,0.6505864351461184,0.8918718215788163,0.04350983049710186,1.4945184663271238,0.8939301653179109,0.16605315352042935,-0.20057467780773056,-0.32288061600659,0.6060931634653397,2,left
5.944,0.6517927465373836,0.8910826358799048,0.04303086240358486,1.4942101588245429,0.8715626259578555,0.1816745944524146,-0.19507317583593442,-0.315697532770711,0.5957259759984284,2,left
5.945,0.6528756758178486,0.8903610841405165,0.042530414270690334,1.4945986472025288,0.8481600028740005,0.19706434812867998,-0.18954662362511687,-0.30865216740114726,0.5848671011851188,2,left
5.95,0.6538336170875524,0.8897058452729166,0.04200928249245933,1.4957037677523135,0.8237866050534022,0.21219758151049345,-0.18399821286647353,-0.301739827084819,0.5735313725675766,2,left
5.95,0.6546651066521236,0.8891156142001118,0.0414682437286117,1.4975424774695334,0.7985078552072674,0.22705091356688686,-0.17843106572943096,-0.2949558410680146,0.5617337490456642,2,left
5.955,0.6553688208366235,0.8885891044392753,0.04090805448049725,1.500128820244415,0.7723901675618858,0.24160245377150635,-0.1728482342300981,-0.28829557673947515,0.5494893002887647,2,left
5.956,0.6559435741629251,0.8881250495025877,0.040329450675227085,1.5034739060825415,0.7455008205846676,0.25583183248912666,-0.1672526997536509,-0.28175445424389234,0.5368131920993009,2,left
5.959,0.6563883178943631,0.8877222033135274,0.039733147230806516,1.5075859033615235,0.7179078245728104,0.2697202232944518,-0.16164737271466353,-0.2753279596063206,0.5237206716940885,2,left
5.96,0.6567021389250048,0.8873793398358879,0.039119837581369894,1.5124700441310164,0.6896797840297126,0.28325035726496106,-0.1560350923393548,-0.26901165634836177,0.510227052868385,2,left
5.966,0.6568842589696678,0.8870952521027069,0.03849019315082898,1.5181286424657183,0.6608857547520314,0.29640652928863676,-0.15041862655368118,-0.2628011955773198,0.4963477010062485,2,left
5.9670000000000005,0.6569340339943925,0.8868687508153299,0.037844862770422434,1.5245611258831735,0.6315950955482688,0.3091745964264343,-0.14480067196118016,-0.2566923245298558,0.48209801789963025,2,left
5.968999999999999,0.6568509538154325,0.8866986626615928,0.03718447203886835,1.531764079840411,0.6018773145079394,0.3215419683683293,-0.13918385389444757,-0.2506808935519886,0.4674934263374695,2,left
5.97,0.656634641789205,0.8865838284784255,0.03650962262642297,1.539731305325679,0.571801909738754,0.33349759002070506,-0.1335707265241198,-0.2447628614975901,0.4525493544249516,2,left
5.974,0.6562848545170498,0.8865231013593234,0.0358208915282917,1.5484538895637434,0.5414382044878241,0.34503191626173313,-0.12796377300922762,-0.23893429952781822,0.4372812195920292,2,left
5.976,0.6558014814952778,0.8865153447829393,0.03511883027760698,1.557920289855429,0.5108551765616652,0.356136878900251,-0.12236540567279151,-0.23319139329420852,0.421704412249282,2,left
5.979,0.6551845446497339,0.8865594308172048,0.03440396413233376,1.5681164305742743,0.48012128195874904,0.3668058458724612,-0.1167779661906328,-0.22753044351758356,0.405834279076283,2,left
5.98,0.6544341977041438,0.8866542384336717,0.03367679125225495,1.57902581334533,0.4493042726275279,0.3770335727095701,-0.11120372580185992,-0.22194786512103004,0.38968610606702025,2,left
5.98,0.6535507253419578,0.8867986519488128,0.03293778188204758,1.5906296404332692,0.4184710082622204,0.38681614630825367,-0.10564488558635728,-0.21644018533794696,0.37327510170860445,2,left
5.985,0.6525345421275295,0.8869915595943728,0.03218737755829509,1.602906951078476,0.38768726235733403,0.3961509211880587,-0.10010357687510313,-0.21100404136223863,0.3566163808089648,2,left
5.986000000000001,0.6513861911531297,0.8872318522093964,0.03142599036142418,1.6158347690689319,0.3570175242872575,0.4050364491859409,-0.09458186183871244,-0.20563617796211686,0.3397249493481225,2,left
5.986000000000001,0.6501063423791377,0.8875184220410938,0.030654002232698797,1.6293882572224616,0.32652480195928246,0.41347240491810655,-0.08908173426280248,-0.2003334452166854,0.32261569047430744,2,left
5.989,0.648695790636971,0.8878501616357538,0.0298717643733322,1.643540873002929,0.2962704311341512,0.4214595101053963,-0.0836051204983603,-0.1950927963888511,0.3053033516251576,2,left
5.99,0.6471554532631666,0.8882259627927271,0.02907959674402607,1.6582645209487472,0.26631389596295535,0.42899945908980575,-0.078153880571254,-0.18991128591913414,0.28780253272550804,2,left
5.994,0.6454863673284256,0.8886447155480071,0.028277787688089296,1.6735297002090908,0.23671266250763706,0.43609484648720737,-0.07272980943509152,-0.18478606752513743,0.2701276754126521,2,left
5.995,0.6436896864219588,0.8891053071523375,0.027466593704491813,1.6893056469378254,0.20752202546742743,0.44274909715269223,-0.06733463835169823,-0.17971439239161388,0.25229305323937146,2,left
5.999,0.6417666769530865,0.8896066210105745,0.02664623939731011,1.7055604715873887,0.178794968025289,0.44896639848019804,-0.061970036383557026,-0.17469360743624016,0.23431276280449154,2,left
6.0,0.6397187139406165,0.890147535552259,0.02581691762563694,1.722261291146409,0.1505820347294449,0.4547516350568142,-0.056637611982633014,-0.169721153636368,0.21620071576021735,2,left
6.004,0.6375472762743604,0.89072692300799,0.02497878987279827,1.7393743563663138,0.12293121732625191,0.46011032569088806,-0.05133891466008721,-0.16479456440217766,0.19797063164504664,2,left
6.004,0.6352539414491426,0.8913436480718061,0.024131986846314887,1.75686517402355,0.09588785346200071,0.46504856283180424,-0.04607543672147193,-0.15991146398180428,0.17963603149063737,2,left
6.01,0.6328403797892268,0.891996566434526,0.023276609312887688,1.774698624265325,0.06949453817269886,0.4695729543980675,-0.04084861505209225,-0.15506956588414772,0.1612102321506281,2,left
6.011,0.6303083482006826,0.8926845231762756,0.022412729167713908,1.792839073087953,0.0437910480825005,0.4736905680290969,-0.03565983293731537,-0.15026667130520777,0.14270634129906998,2,left
6.013,0.6276596835093422,0.893406351009919,0.02154039073565696,1.8112504799979774,0.01881427823318619,0.47740887777493246,-0.030510421902710087,-0.14550066754391186,0.12413725304582891,2,left
6.013999999999999,0.6248962954602998,0.8941608683721917,0.020659612304730447,1.8298965009072232,-0.005401808531042437,0.48073571323686476,-0.025401663559004316,-0.14076952639352144,0.10551564411605373,2,left
6.02,0.6220201594702223,0.8949468773658154,0.01977038790034901,1.848740586313816,-0.028826219697213086,0.4836792111708348,-0.02033479143695737,-0.13607130249481467,0.08685397054058115,2,left
6.021,0.6190333092353602,0.8957631615637371,0.018872689317823554,1.8677460748219774,-0.0514309588073566,0.4862477695643005,-0.015310992797357044,-0.1314041316373495,0.06816446480396114,2,left
6.023,0.6159378293045493,0.8966084836968451,0.01796646843463871,1.8868762820540885,-0.07319103884190378,0.48845000419614626,-0.010331410401467926,-0.1267662289952123,0.04945913339663416,2,left
6.024,0.6127358477258964,0.8974815832599179,0.017051659819541928,1.9060945850090685,-0.09408448332993716,0.4902947076881083,-0.00539714422737777,-0.12215588728375044,0.030749754717677023,2,left
6.028,0.6094295288678995,0.898381174087256,0.016128183641974297,1.925364501921595,-0.11409231525118103,0.4917908110551141,-0.0005092531178123868,-0.11757147482387792,0.012047877274453046,2,left
6.029,0.6060210665020641,0.8993059419682773,0.015195948866007116,1.9446497676770402,-0.13319853379219357,0.4929473477608799,0.004331243654883632,-0.11301143350062694,-0.006635181874543553,2,left
6.032,0.6025126772170492,0.9002545423914696,0.01425485669331258,1.9639144048372505,-0.1513900790167412,0.4937734202840862,0.009123364920772897,-0.10847427660269734,-0.025288338487371057,2,left
6.0329999999999995,0.5989065942163229,0.9012255985200888,0.013304804203661086,1.9831227903324549,-0.168656784507798,0.4942781691994483,0.013866166255397317,-0.10395858652983091,-0.04390074237055273,2,left
6.037000000000001,0.5952050615342257,0.9022176995142507,0.012345688131330954,2.0022397178746205,-0.18499131803602908,0.494470744777023,0.018558738747799654,-0.09946301235490757,-0.06246177852886584,2,left
6.037999999999999,0.591410328691006,0.9032293993199854,0.011377408714825869,2.021230456147522,-0.2003891103069954,0.4943602811021459,0.02320020790725899,-0.09498626722772638,-0.08096106828656947,2,left
6.044,0.5875246457972735,0.9042592160430368,0.010399873563540189,2.040060802828633,-0.21484827183666705,0.493955872717467,0.027789732722362948,-0.09052712560749604,-0.09938847043351669,2,left
6.045,0.5835502591128688,0.9053056320123877,0.00941300148917423,2.0586971344976783,-0.22836949800215947,0.49326655378765916,0.03232650488589528,-0.0860844203111174,-0.11773408244944963,2,left
6.047999999999999,0.5794894070632551,0.906367094617471,0.008416726248458824,2.077106452486331,-0.2409559623119224,0.49230127978650123,0.03680974819887077,-0.08165703936439501,-0.1359882418595992,2,left
6.047999999999999,0.57534431671597,0.90744201797673,0.007411000146123376,2.0952564247230763,-0.25261319793692044,0.4910689117051924,0.041238718161172604,-0.07724392265483832,-0.15414152775799578,2,left
6.0489999999999995,0.5711172007182533,0.9085287854682516,0.006395797459174534,2.1131154236267062,-0.263348967541655,0.4895782027799384,0.04561270172745843,-0.07284405844212488,-0.17218476245211692,2,left
6.053,0.56681025469406,0.9096257531304532,0.005371117658181096,2.1306525601012636,-0.27317312145119654,0.48783778773605513,0.04993101715530003,-0.0684564798855999,-0.19010901303365202,2,left
6.053999999999999,0.5624256550955161,0.9107312539223361,0.004336988409658834,2.1478377137119127,-0.28209744448181967,0.4858561745082654,0.05419301384372795,-0.06408026180559132,-0.20790559259732944,2,left
6.055,0.5579655575015781,0.9118436028174464,0.0032934683478725007,2.1646415592574226,-0.29013549323062526,0.48364173821211137,0.05839807208883229,-0.059714517837993586,-0.2255660609119813,2,left
6.058,0.5534320953545692,0.9129611026929764,0.0022406496094801516,2.181035590200692,-0.29730242826370457,0.4812027168094639,0.06254560273445861,-0.055358398038351776,-0.24308222449626365,2,left
6.059,0.5488273791221198,0.9140820509576262,0.0011786601281298984,2.1969921395547707,-0.30361484711025394,0.4785472077264076,0.06663504672451352,-0.0510110869343452,-0.260446136133629,2,left
6.062,0.5441534958672045,0.915204746830424,0.00010766568422059017,2.212484398683708,-0.3090906224970707,0.47568316486512036,0.07066587456895888,-0.04667180201412726,-0.2776500938772679,2,left
6.064,0.5394125092033789,0.9163274991438367,-0.0009721283001417112,2.227486434229713,-0.31374874760857685,0.47261839578194415,0.07463758573540803,-0.04233979263800559,-0.2946866395953212,2,left
6.067,0.534606459608369,0.9174486345111454,-0.0020604752333603454,2.241973203239806,-0.31760918868463117,0.4693605589872332,0.0785497079780709,-0.0380143393609724,-0.3115485571062287,2,left
6.068,0.5297373650687832,0.9185665056751987,-0.00315708610340333,2.2559205665364224,-0.3206927449718997,0.4659171613587692,0.08240179661562622,-0.03369475365361757,-0.3282288699536202,2,left
6.072,0.5248072220326687,0.919679499842746,-0.004261628508594183,2.269305300375001,-0.3230209160422101,0.46229555565995456,0.08619343376942969,-0.029380378008978334,-0.34472083886967536,2,left
6.0729999999999995,0.5198180066553414,0.9207860468052191,-0.005373725971563005,2.282105106430132,-0.3246157764890243,0.45850293815344256,0.08992422757329555,-0.02507058642289822,-0.3610179589753764,2,left
6.077000000000001,0.5147716763368057,0.9218846266521553,-0.006492957534834688,2.29429862015027,-0.32549985801093373,0.45454634630032725,0.09359381136591664,-0.020764785235484726,-0.3771139567655578,2,left
6.077999999999999,0.5096701715642197,0.9229737768953012,-0.007618857630920582,2.3058654175194273,-0.325696038888913,0.45043265653450465,0.0972018428768146,-0.016462414321270418,-0.39300278692611534,2,left
6.082999999999999,0.5045154180875165,0.924052098838459,-0.008750916211914962,2.3167860202625565,-0.32522744086196215,0.4461685821013257,0.10074800341653674,-0.012162948615695213,-0.40867862903017954,2,left
6.084,0.4993093294667643,0.9251182630517472,-0.009888579117832218,2.327041899529624,-0.3241173334037265,0.4417606709491895,0.10423199708164083,-0.007865899965539278,-0.4241358841594787,2,left
6.086,0.4940538100324241,0.9261710138419049,-0.011031248660753753,2.3366154780915496,-0.3223890454007075,0.4372153036622737,0.10765354998483209,-0.003570819290945833,-0.4393691714965239,2,left
6.087999999999999,0.48875075829208153,0.9272091726533745,-0.012178284401242778,2.345490131079349,-0.32006588423076815,0.4325386914221659,0.11101240952043855,0.000722700953318419,-0.45437332493263594,2,left
6.0920000000000005,0.48340207079873365,0.9282316403851312,-0.01332900409415652,2.3536501852959,-0.31717106223879415,0.4277368739857483,0.11430834367523306,0.0050150240297104805,-0.46914338973620817,2,left
6.0920000000000005,0.4780096464671213,0.9292373986600084,-0.014482684784227005,2.3610809171278015,-0.3137276306045971,0.42281571766629056,0.11754114039443062,0.009306465895205352,-0.4836746193249547,2,left
6.096,0.472575391288266,0.9302255101307176,-0.015638564038455184,2.3677685490827884,-0.3097584205964341,0.4177809133043295,0.12071060701250959,0.013597291916372361,-0.49796247218523587,2,left
6.097,0.46710122335276816,0.9311951179447251,-0.016795841313366314,2.373700244976106,-0.30528599220187946,0.4126379742145536,0.12381656975832457,0.017887713334564896,-0.5120026089808819,2,left
6.101,0.4615890780577859,0.9321454445158665,-0.01795367946904396,2.3788641037871647,-0.3003325901262031,0.4073922340945679,0.12685887334379753,0.022177883493552295,-0.5257908898932487,2,left
6.103,0.4560409133481325,0.9330757897639415,-0.01911120645283639,2.383249152205661,-0.29492010714690453,0.40204884488108655,0.129837380645292,0.026467893841920744,-0.5393233722335422,2,left
6.106,0.45045871483228267,0.933985528985111,-0.020267517177801068,2.386845335884175,-0.28907005481159964,0.39661277453879196,0.13275197248659246,0.030757769722568738,-0.5525963083677352,2,left
6.106,0.44484450061979325,0.9348741105071111,-0.02142167561345408,2.389643509412057,-0.2828035414650795,0.3910888047667999,0.1356025475322284,0.03504746596162184,-0.5656061439936796,2,left
6.111000000000001,0.439200325746119,0.9357410532675297,-0.02257271709353025,2.3916354250231837,-0.27614125759003816,0.38548152860739304,0.13838902229969907,0.03933686226909079,-0.5783495168092794,2,left
6.1129999999999995,0.43352828607982496,0.9365859444336103,-0.023719650833296517,2.3928137200478825,-0.26910346844470906,0.37979534794141556,0.14111133129897208,0.04362575846359663,-0.5908232556098469,2,left
6.1160000000000005,0.4278305216395962,0.9374084371588393,-0.02486146264241483,2.3931719031170586,-0.26171001397945304,0.3740344708544704,0.14376942730383044,0.04791386954370625,-0.6030243798352771,2,left
6.1160000000000005,0.4221092192773378,0.9382082485454826,-0.025997117820078037,2.392704339124222,-0.25398031601320253,0.3682029088578199,0.14636328174139332,0.05220082067952428,-0.614950099503236,2,left
6.117000000000001,0.416366614704069,0.938985157856726,-0.027125564224350685,2.391406232948788,-0.24593339264958697,0.36230447394766524,0.14889288515343008,0.05648614229017107,-0.626597815313188,2,left
6.121,0.4106049938472924,0.9397390050023856,-0.02824573551229997,2.3892736119710123,-0.23758787976597479,0.3563427755088896,0.15135824766483616,0.06076926542387771,-0.6379651186216333,2,left
6.122999999999999,0.4048266935349753,0.9404696893099499,-0.029356554548804193,2.3863033075532574,-0.22896205867986735,0.35032121718228526,0.15375939941252245,0.06504951760632188,-0.6490497910718014,2,left
6.122999999999999,0.3990341015048451,0.9411771685836564,-0.030456936980612463,2.3824929359239926,-0.2200738877860657,0.3442429940177366,0.15609639092030422,0.06932611923083791,-0.6598498038108576,2,left
6.125,0.3932296557426684,0.9418614584432495,-0.031545794969337376,2.37784087904523,-0.2109410352293398,0.33811109034878484,0.15836929342325903,0.07359818051302436,-0.6703633163105368,2,left
6.126,0.3874158431632095,0.9425226319198194,-0.03262204107211153,2.3723462658950023,-0.20158091040435716,0.3319282787106925,0.1605781991484515,0.07786469902204363,-0.6805886748230453,2,left
6.131,0.38159519766005906,0.9431608192703419,-0.033684592251332614,2.366008954329983,-0.19201069338397433,0.32569711992031686,0.16272322155873878,0.08212455780089713,-0.6905244105032506,2,left
6.132000000000001,0.37577029755992475,0.9437762079572273,-0.03473237398655327,2.358829513544221,-0.18224736210412634,0.3194199643228092,0.16480449556618598,0.08637652408794635,-0.7001692372273594,2,left
6.136,0.3699437625206523,0.9443690427266884,-0.03576432445499577,2.350809207108214,-0.17230771727846175,0.3130989541873852,0.16682217772143798,0.09061924865193403,-0.7095220491374546,2,left
6.1370000000000005,0.3641182499111172,0.9449396257122136,-0.036779398744869976,2.341949976570108,-0.1622084050152671,0.3067360272342696,0.16877644638520925,0.09485126575274017,-0.7185819179404327,2,left
6.14,0.35829645070897864,0.9454883164865997,-0.037776573066995105,2.3322544255984043,-0.1519659371086696,0.30033292127478844,0.17066750188787166,0.09907099374008475,-0.7273480899890435,2,left
6.142,0.35248108495300007,0.9460155319862138,-0.038754848932303625,2.3217258046431395,-0.14159670897560006,0.29389117994645336,0.17249556668293667,0.10327673630236228,-0.7358199831719017,2,left
6.145,0.34667489679047314,0.9465217462341936,-0.039713257263995966,2.3103679960900902,-0.13111701520953895,0.2874121595247637,0.17426088550004612,0.10746668437776206,-0.7439971836384907,2,left
6.146,0.34088064916533883,0.9470074897957986,-0.04065086241390275,2.298185499880161,-0.12054306272165694,0.2808970367933346,0.17596372550290518,0.1116389187397929,-0.7518794423843456,2,left
6.15,0.33510111819809274,0.9474733489085845,-0.04156676605406972,2.2851834195637135,-0.10989098143959738,0.27434681795384963,0.1776043764574092,0.11579141326929004,-0.7594666717207489,2,left
6.15,0.3293390873144493,0.947919964241143,-0.04246011091730198,2.2713674487572226,-0.09917683253382965,0.2677623485572259,0.17918315091503628,0.11992203892493732,-0.7667589416524291,2,left
6.155,0.32359734118530287,0.9483480292462714,-0.043330084364747855,2.2567438579672694,-0.08841661414123253,0.2611443244372804,0.180700384416398,0.12402856842428518,-0.7737564761859066,2,left
6.156000000000001,0.31787865954424355,0.9487582880885134,-0.04417592176464497,2.241319481744536,-0.07762626455534144,0.25449330362808004,0.1821564357196622,0.12810868164718958,-0.7804596495902825,2,left
6.16,0.312185810949138,0.9491515331425987,-0.04499690967277711,2.2251017061281244,-0.06682166285251502,0.2478097192460628,0.183551687058384,0.1321599717735329,-0.786868982631421,2,left
6.16,0.3065215465502526,0.9495286020765944,-0.045792388809418785,2.2080984563382025,-0.056018626923144334,0.24109389331791878,0.1848865444331045,0.13617995216701875,-0.7929851387996264,2,left
6.164,0.30088859391983835,0.9498903745485737,-0.046561756828566336,2.190318184672686,-0.04523290887694095,0.23434605153512558,0.1861614379409003,0.140166064016757,-0.7988089205500728,2,left
6.165,0.29528965098960774,0.9502377685568492,-0.04730447087577066,2.1717698585613814,-0.03448018779129929,0.22756633891593883,0.18737682214689377,0.1441156847482712,-0.8043412655744013,2,left
6.17,0.2897273801358466,0.9505717364918,-0.04802004993392462,2.1524629487287643,-0.02377605977173292,0.22075483635554533,0.18853317650155899,0.14802613721547206,-0.8095832431210547,2,left
6.171,0.2842044024472678,0.9508932609430868,-0.04870807696017453,2.1324074174143344,-0.013136025293434148,0.21391157804499428,0.18963100580748693,0.1518946996850419,-0.8145360503810832,2,left
6.175,0.27872329220675846,0.951203350319992,-0.049368200817250976,2.1116137065972804,-0.002575473793100705,0.20703656973943066,0.19067084073910273,0.15571861662457048,-0.8192010089553168,2,left
6.176,0.27328657161476094,0.951503034344598,-0.05000013799769177,2.0900927261700186,0.007890334519687146,0.2001298078560631,0.19165323841865753,0.1594951103056702,-0.8235795614179634,2,left
6.178999999999999,0.2678967057794993,0.9517933594776047,-0.05060367413202092,2.0678558420030044,0.01824628966207192,0.19319129938220791,0.19257878305164994,0.16322139323317808,-0.8276732679908668,2,left
6.18,0.2625560979964594,0.9520753843354215,-0.0511786652649594,2.0449148638411163,0.02847745571881142,0.18622108257365813,0.19344808662466595,0.16689468141142366,-0.8314838033418263,2,left
6.184,0.25726708533489634,0.9523501751542313,-0.051725038880157094,2.021282032969803,0.03856909755449138,0.17921924842353745,0.19426178966470767,0.17051220842984888,-0.835012953515929,2,left
6.185,0.2520319345423202,0.9526188013501411,-0.05224279465579747,1.9969700095871445,0.048506710426776026,0.17218596288170604,0.1950205620401562,0.1740712402073377,-0.8382626129898717,2,left
6.186,0.24685283827044796,0.952882331215782,-0.05273200493980382,1.971991859815946,0.05827605253005613,0.16512148980469477,0.19572510374957938,0.17756908997745094,-0.8412347818057521,2,left
6.189,0.24173191162107366,0.9531418277885743,-0.053192814941252095,1.9463610423139521,0.06786318041365007,0.15802621457677404,0.19637614562567393,0.18100313295381687,-0.8439315627218449,2,left
6.19,0.2366711890087039,0.9533983449246872,-0.0536254426413677,1.920091394568025,0.0772544867942512,0.15090066814627223,0.196974449900235,0.18437082025754434,-0.8463551583352357,2,left
6.191,0.23167262133623945,0.9536529236090062,-0.05403017843189925,1.8931971191897319,0.0864367395185966,0.14374555086764756,0.19752081060966392,0.18766969194536107,-0.8485078681630631,2,left
6.194,0.22673807347962044,0.9539065885243604,-0.05440738449134142,1.8656927706576278,0.09539712000778891,0.13656175534332943,0.1980160538391334,0.1908973891197794,-0.850392085686494,2,left
6.195,0.2218693220790615,0.9541603448971975,-0.05475749391124295,1.837593242819962,0.10412325993816206,0.1293503876556585,0.1984610378071308,0.194051665130959,-0.8520102953643957,2,left
6.199,0.21706805363820877,0.9544151756306786,-0.05508100958393016,1.8089137572362461,0.11260327567621703,0.12211278673269202,0.19885665279195064,0.1971303958797382,-0.853365069622896,2,left
6.2,0.21233586293592657,0.954672038726442,-0.05537850285839065,1.7796698523046508,0.12082580040853821,0.11485054178795914,0.19920382090156064,0.20013158923110128,-0.8544590658262508,2,left
6.204,0.20767425175694723,0.9549318649848179,-0.055650611965835775,1.7498773730945345,0.12878001399173247,0.10756550781345331,0.19950349568812262,0.20305339354713872,-0.8552950232336688,2,left
6.204,0.2030846279471474,0.955195555964124,-0.055898040212178327,1.719552461801757,0.1364556705467271,0.10025981910507298,0.1997566616083054,0.20589410534834057,-0.8558757599459982,2,left
6.209,0.19856830479678658,0.9554639821738959,-0.05612155392922783,1.6887115487427982,0.1438431238210247,0.09293590079965265,0.19996433333039002,0.20865217611184006,-0.8562041698454163,2,left
6.21,0.1941265007503579,0.955737981473186,-0.05632198017082541,1.657371343802131,0.15093335034174327,0.0855964784026602,0.20012755488902953,0.21132621821499797,-0.8562832195305344,2,left
6.2139999999999995,0.18976033943500834,0.956018357643486,-0.05650020413938741,1.625548828245767,0.15771797038147092,0.07824458528557927,0.20024739868839364,0.2139150100324847,-0.8561159452485924,2,left
6.215,0.1854708499920974,0.9563058791067753,-0.05665716633444339,1.593261246812418,0.16418926675813766,0.07088356813194222,0.20032496435429634,0.2164175001947803,-0.8557054498256895,2,left
6.218999999999999,0.18125896769004254,0.9566012777610419,-0.056793859424621534,1.5605260999922712,0.17034020148925474,0.06351709031093627,0.2003613774357782,0.2188328110157719,-0.8550548995952888,2,left
6.22,0.17712553479246712,0.9569052479067955,-0.056911324853703926,1.5273611364020037,0.17616443031999554,0.05614913315747017,0.20035778795648954,0.22116024109688273,-0.8541675213245193,2,left
6.223,0.17307130165432022,0.957218445238851,-0.05701064919799671,1.4937843451633182,0.18165631514369265,0.04878399513756261,0.20031536881610035,0.2233992671149201,-0.8530465991371032,2,left
6.224,0.16909692802026582,0.9575414858788956,-0.05709296029722043,1.4598139481909962,0.18681093433240817,0.04142628887789953,0.20023531404184308,0.22554954480057945,-0.8516954714310485,2,left
6.228,0.16520298450431137,0.9578749454264728,-0.05715942318471545,1.4254683922952383,0.1916240909942956,0.034080936038403065,0.20011883689018178,0.22761090911428908,-0.8501175277885624,2,left
6.228,0.16138995423565528,0.958219358009213,-0.05721123584406542,1.3907663410018682,0.19609231917352032,0.026753160006664056,0.19996716779848714,0.22958337362582748,-0.8483162058749727,2,left
6.234,0.15765823465988943,0.9585752153178291,-0.05724962481903571,1.355726665992857,0.20021288800753714,0.01944847639311207,0.19978155218649074,0.2314671291038897,-0.8462949883227852,2,left
6.235,0.15400813948560996,0.9589429656180141,-0.05727584070454931,1.3203684380685403,0.20398380385554438,0.012172681305832865,0.19956324810718626,0.23326254132152438,-0.8440573995963492,2,left
6.2379999999999995,0.15043990076593708,0.9593230127397375,-0.05729115355044718,1.2847109175318772,0.20740381041094466,0.004931837383994446,0.19931352374674477,0.23497014808310884,-0.8416070028319654,2,left
6.239,0.1469536711046956,0.9597157150534481,-0.057296848217394836,1.2487735438941374,0.21047238680964514,-0.0022677424310901975,0.19903365477291377,0.2365906554782738,-0.8389473966476372,2,left
6.242000000000001,0.1435495259775922,0.960121384450969,-0.05729421973318976,1.2125759248004784,0.21318974374502767,-0.00941951340815205,0.19872492153127502,0.2381249333679373,-0.836082211916043,2,left
6.242999999999999,0.1402274661576502,0.96054028535571,-0.05728456870390087,1.1761378240730216,0.21555681759941245,-0.016516719842194157,0.19838860608864692,0.23957401010735402,-0.833015108493702,2,left
6.247999999999999,0.13698742023177551,0.9609726337922244,-0.05726919683369151,1.1394791487682334,0.21757526260083077,-0.023552418195427225,0.19802598912283015,0.24093906651083835,-0.8297497718986966,2,left
6.247999999999999,0.13382924719356812,0.9614185965480455,-0.05724940259706315,1.102619935144664,0.219247441012915,-0.030519502583443305,0.19763834665781238,0.24222142906256983,-0.8262899099287313,2,left
6.252000000000001,0.13075273909704346,0.9618782904592093,-0.05722647708981617,1.0655803334364122,0.2205764113647097,-0.03741073262700103,0.19722694664867124,0.24342256239080762,-0.8226392492162045,2,left
6.252999999999999,0.1277576237571762,0.9623517818449263,-0.05720170006810815,1.0283805913270485,0.22156591472620693,-0.044218763689618745,0.19679304544635023,0.2445440610884025,-0.8188015317438045,2,left
6.254,0.12484356748634377,0.962839086109027,-0.05717633617432551,0.991041036018152,0.22222035903441617,-0.05093617952097462,0.19633788421923212,0.2455876410807038,-0.8147805113929101,2,left
6.257000000000001,0.12201017785925408,0.9633401675188634,-0.057151631342398174,0.9535820548356966,0.2225448014991067,-0.05755552725819672,0.19586268543437732,0.24655513080753005,-0.8105799506239247,2,left
6.257999999999999,0.1192570065009438,0.9638549391680526,-0.05712880937059813,0.9160240745650353,0.2225449292429424,-0.06406935439839823,0.19536864947521868,0.24744846241983867,-0.8062036173597417,2,left
6.2589999999999995,0.11658355189329953,0.9643832631273463,-0.05710906864747336,0.8783875401511835,0.22222703855757303,-0.07047024674627271,0.1948569514256219,0.2482696630730617,-0.8016552820936785,2,left
6.265,0.11398926219732515,0.9649249507861695,-0.057093579016669324,0.8406928936487386,0.22159801328285517,-0.07675086600179369,0.19432873802415113,0.24902084633305108,-0.7969387152153028,2,left
6.266,0.1114735380919532,0.965479763385065,-0.0570834787671268,0.8029605540575128,0.22066530268888898,-0.08290398599124879,0.19378512478712293,0.24970420369720456,-0.7920576845415859,2,left
6.267,0.10903573563376201,0.9660474127368349,-0.057079871736819415,0.7652108982333713,0.21943689901184144,-0.08892252715379383,0.19322719329898178,0.2503219962331354,-0.7870159530403258,2,left
6.268,0.10667516914325575,0.9666275621326813,-0.05708382452333651,0.7274642428156293,0.21792131466707607,-0.09479958923385637,0.19265598866848177,0.2508765463370491,-0.7818172767322987,2,left
6.272,0.10439111412176384,0.9672198274298083,-0.05709636380371757,0.6897408270626565,0.2161275591369279,-0.10052848219704973,0.19207251714911439,0.251370229613795,-0.7764654027581236,2,left
6.272,0.1021828101986921,0.967823778317771,-0.05711847377501663,0.6520607964872897,0.21406511552961208,-0.10610275538687214,0.19147774392218306,0.25180546688037225,-0.770964067595367,2,left
6.277,0.1000494641030658,0.9684389397603196,-0.05715109373026564,0.6144441871836579,0.2117439168049323,-0.1115162249390601,0.19087259104088503,0.25218471629448824,-0.7653169954109602,2,left
6.278,0.09799025264884684,0.9690647936060617,-0.05719511578028851,0.5769109107370972,0.20917432166165592,-0.11676299947003926,0.19025793553372664,0.2525104656095935,-0.7595278965335626,2,left
6.282,0.09600432572180397,0.969700780355136,-0.05725138272425046,0.5394807396089517,0.20636709008065304,-0.12183750405547326,0.1896346076655653,0.25278522455764824,-0.7536004660300747,2,left
6.2829999999999995,0.09409080925535072,0.9703463010623133,-0.057320686065334935,0.5021732928882411,0.20333335851715317,-0.1267345025144494,0.1890033893545417,0.2530115173607154,-0.7475383823700875,2,left
6.287000000000001,0.09224880818326688,0.9710007193517142,-0.05740376416440036,0.4650080223024164,0.20008461473476097,-0.13144911801436124,0.1883650127431382,0.2531918753723217,-0.7413453061616444,2,left
6.287999999999999,0.0904774093606066,0.9716633635149212,-0.05750130052379482,0.42800419837971687,0.19663267227319067,-0.13597685201105494,0.18772015892157456,0.25332882984938043,-0.7350248789412972,2,left
6.291,0.08877568445023447,0.9723335286619721,-0.05761392219351255,0.3911808966559964,0.19298964454102868,-0.14031360153829658,0.18706945680172932,0.2534249048553335,-0.7285807220010481,2,left
6.292000000000001,0.08714269277772617,0.9730104788936567,-0.05774219829038061,0.3545569838192956,0.18916791852421722,-0.14445567486009459,0.18641348213975378,0.253482610295034,-0.7220164352343932,2,left
6.296,0.08557748416030676,0.9736934494643351,-0.05788663862041735,0.31815110368589744,0.18518012810036838,-0.14839980549887524,0.18575275670552882,0.25350443508177006,-0.7153355959833222,2,left
6.296,0.08407910171802471,0.9743816489066511,-0.0580476923999115,0.2819816629021247,0.18103912694847027,-0.15214316465196184,0.18508774759709484,0.25349284043670994,-0.7085417578677661,2,left
6.301,0.08264658467891066,0.9750742610916961,-0.05822574708176804,0.24606681626670796,0.1767579610430329,-0.15568337200824936,0.18441886669817253,0.2534502533209405,-0.7016384495786453,2,left
6.3020000000000005,0.08127897119454372,0.9757704472005869,-0.058421127304122064,0.2104244515691794,0.17234984072124632,-0.15901850497639922,0.18374647027687743,0.25337906000016663,-0.6946291736153327,2,left
6.306,0.07997530118733574,0.9764693475875998,-0.05863409398329711,0.17507217384042653,0.16782811231128275,-0.1621471063353028,0.1830708587237182,0.2532815997420437,-0.6875174049480216,2,left
6.307,0.07873461925274738,0.9771700835214292,-0.05886484357317908,0.1400272889122707,0.16320622930947257,-0.165068190316979,0.18239227642695816,0.2531601586460255,-0.6803065895851766,2,left
6.311,0.07755597763508319,0.9778717587997343,-0.059113507512341075,0.10530678618371683,0.15849772309371962,-0.16778124713148437,0.18171091178340926,0.25301696360552867,-0.6730001430259371,2,left
6.312,0.07643843928451521,0.9785734612435437,-0.05938015188271512,0.07092732049235453,0.153716173160195,-0.17028624594282088,0.18102689734271804,0.2528541764021381,-0.6656014485770527,2,left
6.315,0.07538108098885556,0.9792742640919317,-0.059664777308362116,0.03690519299027212,0.14887517687006102,-0.17258363630423199,0.1803403100831945,0.25267388793150947,-0.6581138555136418,2,left
6.316,0.07438299655983102,0.9799732273306628,-0.05996731912555916,0.0032563309247769924,0.1439883186927284,-0.17467434806068072,0.1796511718172266,0.25247811256056235,-0.6505406770627906,2,left
6.32,0.07344330004306426,0.9806693989967716,-0.060287647852117564,-0.030003733774805707,0.13906913893193973,-0.1765597897257069,0.17895944972416378,0.2522687826198949,-0.6428851882001756,2,left
6.322,0.07256112891683954,0.9813618165009633,-0.060625569973837494,-0.06285988720195843,0.13413110192080152,-0.17824184533926532,0.17826505700778056,0.2520477430572727,-0.6351506233067727,2,left
6.322,0.07173564724739201,0.9820495080024897,-0.06098082905265312,-0.09529745756605118,0.12918756367175582,-0.17972286981255395,0.17756785367405148,0.25181674631754997,-0.6273401738353275,2,left
6.325,0.07096604877249692,0.9827314938629075,-0.06135310714890461,-0.12730224069730528,0.12425173900268235,-0.18100568277616452,0.1768676474241981,0.2515774475363126,-0.6194569861931623,2,left
6.3260000000000005,0.07025155988672746,0.9834067881998761,-0.06174202654269625,-0.15886052662668215,0.11933666833674024,-0.18209356100186427,0.17616419465872343,0.25133140011252797,-0.6115041599905309,2,left
6.327000000000001,0.06959144250306684,0.9840744005576059,-0.06214715173788155,-0.1899591262555663,0.11445518469118943,-0.18299022956594765,0.17545720158951486,0.25108005168590775,-0.6034847467006562,2,left
6.332999999999999,0.06898499676624562,0.984733337704394,-0.06256799173335166,-0.22058539676944042,0.10961988154692505,-0.18369985197608832,0.17474632545785124,0.25082474052269454,-0.5954017487202409,2,left
6.334,0.06843156359005273,0.9853826055609832,-0.06300400254360822,-0.25072726480789814,0.1048430821140462,-0.18422701942850328,0.17403117585629221,0.2505666923091675,-0.587258118807611,2,left
6.335,0.06793052698653633,0.9860212112576587,-0.06345458994236682,-0.2803732470489905,0.10013681019122826,-0.1845767392634849,0.1733113161524182,0.25030701735214866,-0.5790567598754612,2,left
6.336,0.06748131615415907,0.9866481653138511,-0.06391911239341233,-0.30951246822397627,0.09551276264032925,-0.18475442263226197,0.1725862650123783,0.25004670818577907,-0.5708005251149885,2,left
6.3420000000000005,0.06708340729432459,0.9872624839316338,-0.0643968841266914,-0.33813467664904084,0.09098228346253308,-0.18476587137671446,0.17185549802219022,0.24978663758382544,-0.5624922184280245,2,left
6.3420000000000005,0.06673632512915502,0.9878631913922215,-0.06488717831572988,-0.36623025735912484,0.08655633946253562,-0.18461726412295804,0.17111844940472384,0.2495275569767736,-0.5541345951436142,2,left
6.345,0.0664396440973638,0.9884493225406455,-0.06538923031376444,-0.39379024292755016,0.08224549748751406,-0.18431514158932194,0.17037451383028393,0.24927009527296332,-0.5457303629953271,2,left
6.346,0.06619298920913856,0.9890199253383336,-0.06590224090986668,-0.4208063220536462,0.07805990322788839,-0.18386639110876601,0.16962304831869165,0.24901475808301834,-0.5372821833354416,2,left
6.35,0.06599603654464091,0.9895740634578502,-0.06642537957329989,-0.4472708459990682,0.0740092615671831,-0.1832782303653239,0.1688633742307463,0.24876192734682884,-0.5287926725619969,2,left
6.35,0.06584851338368936,0.9901108188902398,-0.06695778766434722,-0.47317683295196256,0.07010281846862713,-0.1825581903437198,0.1680947793469286,0.24851186136234835,-0.5202644037345757,2,left
6.354,0.06575019795561476,0.9906292945337501,-0.06749858159972072,-0.4985179703965727,0.0663493443864889,-0.1817140974908849,0.16731652003118555,0.24826469521547148,-0.5116999083545551,2,left
6.355,0.06570091879779642,0.9911286167320074,-0.06804685596553248,-0.5232886155642953,0.06275711919052988,-0.1807540550877,0.16652782347761283,0.2480204416102675,-0.5031016782854423,2,left
6.359,0.06570055371042956,0.9916079377291723,-0.06860168657019432,-0.5474837940405953,0.05933391859237346,-0.17968642382891278,0.16572789003782495,0.24777899209885162,-0.49447216778880027,2,left
6.36,0.06574902829557977,0.9920664380105293,-0.06916213342790355,-0.5710991966005647,0.05608700206302406,-0.1785198016088224,0.16491589562677614,0.24754011871018322,-0.4858137956511677,2,left
6.367000000000001,0.0658463140714054,0.9925033285001689,-0.06972724366297214,-0.5941311743442746,0.05302310223123397,-0.17726300250999136,0.1640909942047644,0.24730347597709032,-0.4771289473772749,2,left
6.367000000000001,0.06599242615769992,0.9929178525918554,-0.07029605432493846,-0.616576732201418,0.05014841575289945,-0.17592503499193626,0.16325232033331885,0.24706860336082492,-0.46841997742477254,2,left
6.37,0.0661874205353711,0.9933092879944779,-0.07086759510551235,-0.6384335208730744,0.047468595642173046,-0.17451507927646479,0.16239899180263612,0.24683492807246316,-0.4596892114556054,2,left
6.37,0.06643139088779872,0.9936769483803123,-0.07144089095576553,-0.6596998272767571,0.044988745055503744,-0.17304246392606815,0.16153011232819398,0.24660176829046906,-0.450938948579086,2,left
6.376,0.06672446503615202,0.9940201848323507,-0.0720149646162457,-0.6803745635592164,0.042713412520359026,-0.171516641611545,0.16064477431413118,0.24636833677374623,-0.44217146356165515,2,left
6.377000000000001,0.06706680098588039,0.9943383870951473,-0.07258883908767491,-0.7004572547397836,0.04064658860094132,-0.16994716406482643,0.15974206168093996,0.24613374486950426,-0.4333890089782524,2,left
6.379,0.06745858260819915,0.9946309846409634,-0.07316154007905018,-0.7199480250453475,0.03879170399378461,-0.16834365621279207,0.1588210527549735,0.2458970069152689,-0.42459381728016543,2,left
6.38,0.06790001498702013,0.9948974475683602,-0.073732098470801,-0.7388475829963533,0.03715162904670351,-0.1667157894877145,0.15788082321722285,0.2456570450343628,-0.41578810275417555,2,left
6.385,0.06839131946828253,0.9951372873533659,-0.07429955282379982,-0.7571572053015182,0.035728674695164726,-0.16507325430984413,0.15692044910876818,0.24541269432418175,-0.4069740633477745,2,left
6.385,0.06893272845653867,0.9953500574742512,-0.07486295195316767,-0.774878719617256,0.03452459481075849,-0.16342573173754846,0.1559390098902562,0.24516270843658292,-0.3981538823351917,2,left
6.388999999999999,0.06952448001267898,0.9955353539297125,-0.07542135757141166,-0.7920144862261072,0.0335405899570634,-0.16178286428035107,0.15493559155270137,0.24490576554969426,-0.38932972979894037,2,left
6.39,0.0701668123140822,0.9956928156671904,-0.07597384698876482,-0.8085673786867772,0.03277731254882084,-0.16015422587017172,0.15390928977684953,0.24464047473043968,-0.3805037639015655,2,left
6.391,0.07085995804147549,0.995822124934609,-0.07651951584233793,-0.8245407635066959,0.0322348734109623,-0.1585492909860558,0.15285921313576453,0.24436538267881816,-0.37167813193020616,2,left
6.394,0.07160413875202762,0.9959230075660668,-0.0770574808181384,-0.839938478891648,0.031912849718922824,-0.1569774029694476,0.1517844863226449,0.2440789808037489,-0.3628549711362975,2,left
6.394,0.07239955928401584,0.9959952332093677,-0.07758688233593633,-0.8547648126519184,0.03181029422359781,-0.1554477417758696,0.15068425336314764,0.24377971250609945,-0.3540364094642339,2,left
6.395,0.07324640222379478,0.9960386155011006,-0.07810688717780176,-0.8690244793905679,0.03192574552325891,-0.15396929178471783,0.14955768075883882,0.24346598050328086,-0.3452245663025447,2,left
6.399,0.07414482246528621,0.9960530121947617,-0.07861669104469188,-0.8827225971243737,0.03225723906666816,-0.15255081049774546,0.14840396052090962,0.24313615407096603,-0.3364215533514124,2,left
6.4,0.07509494190536904,0.9960383252485704,-0.07911552102236366,-0.8958646634597534,0.032802318650967395,-0.1512007987481604,0.1472223130758861,0.24278857615162114,-0.32762947562887423,2,left
6.404,0.07609684432942368,0.9959945008800096,-0.07960263793605557,-0.9084565313965351,0.03355804832022025,-0.14992747266662868,0.146011990037577,0.2424215703207045,-0.3188504325983432,2,left
6.405,0.07715057053984911,0.9959215295932333,-0.08007733857299854,-0.9205043848042552,0.0345210246498121,-0.14873873744188087,0.14477227684194335,0.24203344760958148,-0.31008651939216364,2,left
6.4110000000000005,0.0782561137701774,0.995819446183483,-0.08053895774922158,-0.9320147136087438,0.03568738941826744,-0.1476421628720605,0.14350249524149364,0.24162251318415362,-0.30133982810594845,2,left
6.412999999999999,0.07941341541503096,0.9956883297190513,-0.08098687019497022,-0.9429942887251885,0.037052842668648514,-0.14664496070317365,0.14220200565572638,0.24118707287814395,-0.29261244913848333,2,left
6.414,0.08062236109458844,0.995528303496112,-0.08142049223606736,-0.953450136772301,0.03861265616229308,-0.14575396375124147,0.14087020937405687,0.24072543957991954,-0.2839064725520258,2,left
6.414,0.08188277706291548,0.9953395349558861,-0.0818392832557272,-0.9633895146006627,0.04036168722823291,-0.14497560680502064,0.13950655060757922,0.2402359394716677,-0.2752239894278766,2,left
6.419,0.08319442696408212,0.9951222355485986,-0.08224274692796778,-0.972819883666812,0.04229439301220527,-0.14431590930644173,0.13811051838592642,0.23971691811967089,-0.26656709319215666,2,left
6.42,0.08455700893864589,0.9948766605258299,-0.08263043221818835,-0.9817488842831208,0.04440484512972724,-0.14378045980622006,0.13668164829540122,0.23916674641435087,-0.25793788088678354,2,left
6.422999999999999,0.08597015308415257,0.9946031086424422,-0.08300193415202398,-0.9901843097720316,0.0466867447282456,-0.14337440219241565,0.13521952405445942,0.23858382635867195,-0.2493384543607107,2,left
6.4239999999999995,0.08743341927506013,0.9943019217505319,-0.08335689436321868,-0.9981340805517639,0.04913343796390144,-0.14310242369005952,0.13372377892253418,0.23796659670340936,-0.2407709213565638,2,left
6.428999999999999,0.08894629534932563,0.9939734842703946,-0.08369500144233606,-1.0056062181791525,0.0517379318989589,-0.14296874463031883,0.13219409693809556,0.237313538427698,-0.23223739646788974,2,left
6.428999999999999,0.09050819567040876,0.993618222527505,-0.0840159911151765,-1.0126088193738747,0.05449291082643889,-0.14297710998804472,0.13063021398174426,0.2366231800631845,-0.22374000194231938,2,left
6.433,0.09211846007364355,0.9932366039502745,-0.0843196462803332,-1.0191500300469143,0.05739075302897141,-0.1431307826869304,0.129031918660042,0.23589410286000573,-0.2152808683060359,2,left
6.434,0.09377635320414646,0.9928291361302449,-0.08460579693087188,-1.0252380193547501,0.06042354797933291,-0.14343253867190403,0.1273990530056835,0.23512494579271456,-0.20686213478503865,2,left
6.438,0.0954810642497137,0.9923963657529975,-0.08487431997851236,-1.0308809537994,0.06358311399056632,-0.14388466374878656,0.1257315129895174,0.23431441040416684,-0.19848594949879686,2,left
6.438,0.09723170706667578,0.9919388774135174,-0.08512513899218987,-1.0360869713931309,0.06686101632399166,-0.1444889521916629,0.12402924883982373,0.23346126548527155,-0.19015446940199676,2,left
6.444,0.09902732069070865,0.991457292334451,-0.08535822385743794,-1.0408641559053415,0.070248585763802,-0.14524670711883766,0.12229226516415719,0.23256435158839261,-0.18186985995020163,2,left
6.445,0.10086687022078136,0.9909522670090012,-0.08557359035863844,-1.0452205112078452,0.07373693766730302,-0.14615874263867817,0.12052062086896574,0.2316225853720709,-0.17363429446536735,2,left
6.449,0.10274924806355926,0.9904244917906334,-0.08577129968316771,-1.0491639357335256,0.07731699150019443,-0.14722538776708408,0.11871442887209452,0.23063496377461284,-0.16544995317728362,2,left
6.45,0.10467327552533859,0.9898746894500928,-0.08595145784667577,-1.0527021970621084,0.08097949086660511,-0.14844649211876132,0.11687385560318493,0.22960056801396714,-0.1573190219171463,2,left
6.452999999999999,0.10663770473659151,0.9893036137188831,-0.08611421504366396,-1.0558429066455763,0.08471502404388415,-0.14982143337492185,0.11499912028688007,0.2285185674111815,-0.14924369043960709,2,left
6.454,0.10864122089011699,0.988712047838256,-0.08625976493412271,-1.0585934946845772,0.08851404503241192,-0.15134912653047253,0.11309049400364793,0.2273882230346008,-0.14122615034979336,2,left
6.457999999999999,0.11068244476811377,0.9881008031335107,-0.08638834387852122,-1.0609611851660026,0.09236689513093263,-0.15302803492420014,0.1111482985229353,0.22620889116183276,-0.13326859261194535,2,left
6.457999999999999,0.11275993552764609,0.9874707176336321,-0.08650023012729481,-1.0629529710707777,0.09626382504811873,-0.15485618305589977,0.10917290490805255,0.22498002655522276,-0.12537320462981702,2,left
6.459,0.11487219371163462,0.9868226547539224,-0.0865957429623942,-1.0645755897597784,0.10019501756126019,-0.15683117119483206,0.10716473191601601,0.22370118554069396,-0.11754216695585501,2,left
6.462000000000001,0.11701766445577776,0.986157502054278,-0.08667524178337531,-1.0658354985826255,0.10415061071005403,-0.15895019175385472,0.1051242442585431,0.22237202886932808,-0.10977764980640382,2,left
6.462999999999999,0.11919474086694354,0.9854761700808239,-0.08673912512951393,-1.0667388509426947,0.10812072139823811,-0.16121004725163415,0.10305195081422407,0.22099232433517305,-0.10208180962706617,2,left
6.465,0.12140176754984937,0.9847795912954412,-0.08678782963182365,-1.0672914733920214,0.11209546906826634,-0.16360716941150386,0.10094840285787605,0.21956194912836713,-0.09445678588583026,2,left
6.4670000000000005,0.1236370442533078,0.984068719095409,-0.08682182889486088,-1.0674988445184024,0.1160649989989349,-0.1661376387935815,0.09881419232992782,0.21808089191286578,-0.08690469815170485,2,left
6.468,0.12589882959616824,0.9833445269225964,-0.08684163231454783,-1.0673660761963073,0.12001950489126832,-0.16879720450952773,0.09664995014466846,0.21654925462365873,-0.0794276434500987,2,left
6.473,0.12818534482275218,0.9826080074575082,-0.08684778383997317,-1.0668978974307974,0.12394925061563312,-0.1715813038439838,0.09445634453131825,0.2149672539793679,-0.07202769387304479,2,left
6.474,0.13049477753458133,0.9818601718875354,-0.0868408606845168,-1.0660986408329949,0.12784459110838917,-0.17448508175947536,0.09223407940179207,0.21333522270597177,-0.06470689442257811,2,left
6.478,0.13282528534914786,0.9811020492320658,-0.0868214719895119,-1.0649722317267303,0.1316959924294185,-0.17750341029241226,0.08998389273893932,0.21165361046725684,-0.05746726106579235,2,left
6.479,0.13517499944251676,0.980334685702201,-0.08679025744444498,-1.063522179885032,0.13549405099179973,-0.18063090784817237,0.08770655499896052,0.2099229844974519,-0.05031077898032153,2,left
6.483,0.13754202793762074,0.9795591440714815,-0.08674788586873819,-1.061751573894171,0.1392295119747975,-0.1838619584035996,0.08540286752161796,0.2081440299313579,-0.04323940096922037,2,left
6.484,0.13992445910432136,0.9787765030359288,-0.08669505375876307,-1.0596630781420324,0.14289328693121142,-0.1871907306255759,0.08307366094177802,0.20631754982714393,-0.03625504602444992,2,left
6.4879999999999995,0.14232036434154752,0.9779878565456221,-0.08663248380150991,-1.0572589324266548,0.14647647059997485,-0.19061119691463957,0.08071979359574458,0.20444446487683882,-0.02935959801841436,2,left
6.489,0.1447278009155898,0.9771943130955506,-0.08656092335583392,-1.0545409541798556,0.14997035693471517,-0.19411715238291885,0.07834214991576753,0.20252581279941023,-0.02255490450323856,2,left
6.492000000000001,0.14714481443121752,0.9763969949706734,-0.08648114290334996,-1.0515105432999499,0.1533664543587814,-0.19770223377593085,0.07594163880603706,0.20056274741118524,-0.015842775597726445,2,left
6.492000000000001,0.1495694410153768,0.9755970374475559,-0.086393934472447,-1.0481686895866578,0.15665650025701375,-0.20135993834805846,0.07351919199340338,0.19855653736823473,-0.00922498294219533,2,left
6.497000000000001,0.15199970919898403,0.9747955879599867,-0.08630011003923549,-1.0445159827703971,0.15983247471427403,-0.20508364270176324,0.07107576234599385,0.19650856457521212,-0.0027032587016420314,2,left
6.497000000000001,0.1544336414900457,0.9739938052375013,-0.08620049990840076,-1.0405526251272565,0.16288661351047531,-0.20886662160081937,0.06861232215283317,0.19442032225500916,0.0037207054020375703,2,left
6.501,0.15686925563963883,0.9731928584254402,-0.08609595107611058,-1.0362784466700508,0.1658114203815446,-0.21270206676806172,0.0661298613575098,0.19229341267346928,0.010045259047782924,2,left
6.502000000000001,0.15930456561175535,0.9723939261952484,-0.08598732557687261,-1.0316929229049652,0.16859967855542593,-0.21658310567833097,0.06362938573887139,0.19012954451327788,0.016268794281788724,2,left
6.506,0.16173758227905805,0.9715981958542262,-0.08587549881641855,-1.0267951951424044,0.1712444615718812,-0.2205028203574689,0.0611119150316744,0.1879305298910342,0.022389746511061105,2,left
6.507000000000001,0.16416631387782568,0.9708068624635807,-0.08576135789334619,-1.021584093349764,0.1737391433944754,-0.22445426619836656,0.05857848098005883,0.18569828101139865,0.028406595542275426,2,left
6.511,0.16658876626481336,0.9700211279723111,-0.08564579991251746,-1.0160581615329507,0.17607740782274164,-0.2284304908052,0.05603012531666692,0.1834348064521028,0.03431786668381082,2,left
6.5120000000000005,0.16900294302507646,0.9692422003732862,-0.0855297302921015,-1.0102156856325792,0.1782532572121088,-0.2324245528770993,0.05346789766017609,0.1811422070735096,0.04012213192854212,2,left
6.516,0.1714068454828956,0.9684712928871254,-0.08541406106473119,-1.0040547239198723,0.1802610205087453,-0.2364295411425865,0.05089285332397041,0.1788226715463147,0.04581801123467071,2,left
6.516,0.17379847266889614,0.9677096231785209,-0.08529970917337243,-0.9975731398763857,0.1820953606060229,-0.2404385933561912,0.04830605102863214,0.1764784714908921,0.05140417392157292,2,left
6.521,0.17617582129610893,0.9669584126084573,-0.08518759476440692,-0.9907686375407702,0.18375128102883942,-0.24444491536870172,0.045708550510895084,0.1741119562217014,0.05687934019733684,2,left
6.522,0.1785368857955345,0.9662188855253641,-0.0850786394827018,-0.9836387993048665,0.18522413195155604,-0.24844180028254306,0.043101410021664475,0.17172554709009935,0.06224228283434767,2,left
6.527,0.18087965845713758,0.9654922685994515,-0.08497376477448455,-0.9761811261405107,0.18650961555480874,-0.25242264770378375,0.040485683711092464,0.16932173142943746,0.06749182900222873,2,left
6.527,0.1832021297152265,0.9647797902065373,-0.08487389020335417,-0.9683930802374927,0.1876037907259399,-0.2563809831022662,0.037862418925756175,0.1669030561593188,0.0726268622334397,2,left
6.528,0.18550228860872303,0.9640826798688703,-0.08477993178387574,-0.9602721300321863,0.18850307710727315,-0.2603104772913282,0.035232653491718,0.16447212120133184,0.07764632443587374,2,left
6.531000000000001,0.18777812343970104,0.9634021677611976,-0.08469280033702847,-0.9518157976054159,0.18920425849591457,-0.26420496603853805,0.03259741308431204,0.16203157291158446,0.08254921783278263,2,left
6.532,0.1900276226499284,0.9627394842924173,-0.0846133998722675,-0.9430217083496768,0.18970448560265146,-0.2680584697962986,0.029957708758389833,0.15958409768226256,0.08733460674371724,2,left
6.5329999999999995,0.19224877593228074,0.9620958597755045,-0.08454262600093185,-0.9338876424173088,0.19000127819913346,-0.271865213428587,0.02731453466397983,0.1571324157689028,0.09200161918047613,2,left
6.5360000000000005,0.19443957558782488,0.9614725241979962,-0.08448136438409415,-0.9244115867626822,0.19009252672186605,-0.27561964560747954,0.024668865945210235,0.1546792753469852,0.09654944826540753,2,left
6.5360000000000005,0.19659801813028105,0.9608707071025305,-0.08443048921518724,-0.9145917862029251,0.18997649342314385,-0.27931645744048933,0.022021656814914088,0.15222744679082068,0.10097735348580983,2,left
6.541,0.19872210613004224,0.9602916375848678,-0.08439086173536564,-0.9044267923083006,0.18965181313629317,-0.2829506000021158,0.019373838797325706,0.1497797171676964,0.10528466179783606,2,left
6.542000000000001,0.20080985028099146,0.9597365444162149,-0.08436332877817825,-0.8939155096299479,0.18911749368209138,-0.2865173006453714,0.01672631913127015,0.14733888494023736,0.10947076859296537,2,left
6.545,0.20285927166533638,0.9592066562951824,-0.08434872133876203,-0.8830572391592655,0.1883729159204613,-0.29001207808139184,0.014079979326242989,0.14490775486994725,0.11353513853976024,2,left
6.546,0.2048684041869018,0.9587032022307432,-0.0843478531599219,-0.8718517189897307,0.18741783344650575,-0.29343075623756104,0.011435673863775853,0.1424891331149025,0.1174773063132821,2,left
6.551,0.20683529714393337,0.9582274120521813,-0.084361519322653,-0.8602991621509608,0.1862523719293461,-0.2967694769043857,0.00879422903648409,0.140085822514594,0.12129687722418929,2,left
6.551,0.20875801791655263,0.9577805170366884,-0.08439049482315586,-0.8484002915838195,0.1848770280916251,-0.3000247111811515,0.006156441917196087,0.13770061805493858,0.1249935277591929,2,left
6.555,0.21063465474745735,0.9573637506400082,-0.08443553311412438,-0.8361563722243803,0.18329266832693084,-0.30319326973017247,0.0035230794505696703,0.13533630250651785,0.12856700604419377,2,left
6.556,0.2124633195954965,0.9569783493104179,-0.08449736458566937,-0.8235692401635615,0.18150052695179475,-0.30627231184921816,0.0008948776596091444,0.13299564222914673,0.1320171322410729,2,left
6.56,0.2142421510411297,0.9566255533626515,-0.08457669496057903,-0.8106413288482504,0.17950220408831447,-0.30925935337146215,-0.0017274590404930542,0.13068138313592545,0.13534379888875422,2,left
6.56,0.21596931722142715,0.9563066078870852,-0.08467420358129449,-0.7973756922887508,0.17729966317285242,-0.3121522734020488,-0.004343258428753439,0.12839624680998887,0.138546971198805,2,left
6.565,0.21764301877060238,0.9560227636701787,-0.08479054157392199,-0.7837760252363986,0.17489522808566638,-0.3149493199001185,-0.006951880972581907,0.12614292676723504,0.1416266873154846,2,left
6.566,0.21926149174060255,0.9557752781038829,-0.08492632988618067,-0.7698466802942111,0.17229157989573404,-0.31764911411486674,-0.009552720237285345,0.12392408485839077,0.1445830585497989,2,left
6.571000000000001,0.22082301047610636,0.9555654160640533,-0.0850821572068388,-0.7555926819224734,0.16949175321445048,-0.32025065388394536,-0.012145203218403523,0.121742347803855,0.1474162695967613,2,left
6.571000000000001,0.22232589042045067,0.9553944507404308,-0.08525857778146377,-0.7410197373001977,0.1664991321512964,-0.3227533158022364,-0.014728790604369862,0.11960030385485289,0.15012657874470875,2,left
6.5760000000000005,0.2237684908333287,0.9552636644028487,-0.08545610914416,-0.726134244002457,0.16331744586400426,-0.32515685626875346,-0.01730297697696733,0.11750049957453187,0.1527143180851654,2,left
6.5760000000000005,0.2251492174067867,0.9551743490899641,-0.0856752297877966,-0.7109432944526539,0.1599507636951866,-0.32746141141914276,-0.019867290957025857,0.1154454367327381,0.1551798937313936,2,left
6.579,0.22646652477261656,0.9551278072084844,-0.08591637679506083,-0.6954546771078755,0.1564034898868371,-0.329667495950972,-0.0224212953027821,0.11343756930832476,0.15752378605341938,2,left
6.58,0.22771891890092172,0.9551253520328027,-0.08617994345176024,-0.6796768743345858,0.1526803578635737,-0.3317760008487126,-0.024964586968295503,0.11147930059296574,0.1597465499369665,2,left
6.584,0.22890495939526934,0.9551683080970179,-0.08646627686752531,-0.6636190569310352,0.14878642407496082,-0.3337881900150368,-0.02749679712928635,0.10957298039057628,0.16184881507338358,2,left
6.585,0.23002326169395101,0.9552580114733653,-0.08677567563848192,-0.6472910752519092,0.1447270613867315,-0.3357056958147689,-0.03001759118373183,0.10772090230657763,0.16383128628729882,2,left
6.5889999999999995,0.2310724991903143,0.9553958099326011,-0.08710838759506037,-0.6307034468899116,0.1405079520102239,-0.33753051353755054,-0.03252666873452561,0.10592530112138526,0.1656947439083887,2,left
6.59,0.23205140528859097,0.955583062981819,-0.08746460767826279,-0.6138673408681722,0.136135079958858,-0.33926499478500416,-0.035023763561474436,0.10418835024264907,0.1674400441933021,2,left
6.595,0.2329587754140383,0.9558211417736879,-0.08784447597796875,-0.5967945582965971,0.1316147230200032,-0.34091183978790746,-0.03750864358709886,0.10251215923369073,0.169068119800388,2,left
6.596,0.23379346899591427,0.9561114288802792,-0.08824807595310588,-0.5794975094445338,0.12695344423012914,-0.3424740886586257,-0.0399811108268014,0.10089877142954731,0.17057998030429564,2,left
6.596,0.2345544114386809,0.9564553179260303,-0.08867543284446737,-0.5619891871814089,0.12215808284069131,-0.3439551115837908,-0.0424410012889655,0.09935016167704389,0.17197671270974596,2,left
6.6,0.23524059609244344,0.9568542130768906,-0.08912651229041986,-0.5442831368194473,0.11723574477825319,-0.34535859797682644,-0.0448881847766434,0.0978682342492946,0.17325948190819773,2,left
6.601,0.23585108622971193,0.9573095283845142,-0.08960121915891571,-0.5263934228075617,0.11219379268430894,-0.3466885446839862,-0.04732256455632572,0.0964548209714092,0.17442953103603695,2,left
6.601,0.23638501703249054,0.9578226869850748,-0.0900993966098474,-0.5083345934730227,0.10703983576814612,-0.3479492434710948,-0.049744076884215185,0.09511167956952381,0.17548818172001784,2,left
6.604,0.2368415975911929,0.9583951201523953,-0.0906208253996915,-0.4901216454225795,0.10178171978809039,-0.3491452680922723,-0.052152690394260286,0.09384049224166291,0.17643683421059514,2,left
6.604,0.2372201129149183,0.9590282662048694,-0.09116522343737797,-0.4717699887985511,0.09642751739376444,-0.3502814611673995,-0.05454840535494211,0.09264286444637627,0.177276967406512,2,left
6.61,0.23751992595052215,0.9597235692650014,-0.0917322455959661,-0.45329541383679073,0.09098551891341178,-0.3513629209611262,-0.05693125280177073,0.0915203239052957,0.1780101387736876,2,left
6.611000000000001,0.23774047960448821,0.9604824778698831,-0.09232148378046236,-0.4347140587573628,0.0854642235876715,-0.35239498808173214,-0.059301293552410296,0.0904743198159633,0.178637984161133,2,left
6.614,0.23788129875678016,0.9613064434315929,-0.09293246725073508,-0.4160423789352459,0.07987233123444017,-0.3533832321031148,-0.06165861711131535,0.08950622227149432,0.17916221751631195,2,left
6.615,0.2379419922507806,0.9621969185483722,-0.09356466319838451,-0.39729711729802536,0.07421873432920596,-0.35433343811302226,-0.06400334047072356,0.0886173218838528,0.1795846305020566,2,left
6.619,0.23792225483882282,0.9631553551695394,-0.09421747757374364,-0.3784952758972296,0.06851251048501251,-0.35525159319050803,-0.06633560681481372,0.08780882960773782,0.17990709201684518,2,left
6.619,0.23782186905782732,0.9641832026189581,-0.09489025615407619,-0.35965408859970943,0.06276291531600768,-0.3561438728154598,-0.06865558413380111,0.0870818767623026,0.1801315476199516,2,left
6.624,0.23764070700322282,0.9652819054840325,-0.09558228583982581,-0.34079099484524555,0.05697937566835547,-0.3570166272129439,-0.07096346375470644,0.08643751524815488,0.1802600188626844,2,left
6.625,0.23737873196275647,0.9664529013801963,-0.09629279616329417,-0.3219236144164096,0.05117148320213855,-0.3578763676350168,-0.07325945879549853,0.08587671795731892,0.18029460252664575,2,left
6.627999999999999,0.23703599986720428,0.9676976186039352,-0.09702096099188362,-0.3030697231665896,0.045348988307754724,-0.3587297525825803,-0.07554380254927599,0.08540037937407276,0.18023746976965965,2,left
6.629,0.23661266051315824,0.9690174736895868,-0.09776590040635023,-0.28424722965203003,0.03952179434021326,-0.3595835739698021,-0.07781674680511821,0.08500931636481188,0.1800908651797428,2,left
6.6339999999999995,0.23610895851341845,0.9704138688870664,-0.09852668273399526,-0.2654741526137234,0.033699952154667784,-0.36044474323358583,-0.08007856011220188,0.08470426915533019,0.179857105737222,2,left
6.635,0.23552523393275046,0.9718881895798954,-0.0993023267152881,-0.2467685992550295,0.02789365492648043,-0.3613202773905561,-0.08232952599374604,0.08448590249415158,0.179538579684839,2,left
6.638,0.23486192257084668,0.973441801664376,-0.10009180377861533,-0.22814874426098977,0.022113233239098966,-0.36221728504402706,-0.08456994111731563,0.0843548070007903,0.1791377453054269,2,left
6.638999999999999,0.23411955585972344,0.9750760489103131,-0.10089404039422818,-0.20963280950544524,0.016369150423044303,-0.3631429523434428,-0.08680011342798181,0.0843115006980653,0.17865712960649116,2,left
6.644,0.23329876034927563,0.9767922503216366,-0.10170792047845909,-0.19123904439226103,0.01067199812935066,-0.3641045288988208,-0.0890203602508063,0.08435643072784241,0.1780993269107859,2,left
6.645,0.2324002567630645,0.9785916975124936,-0.10253228782290796,-0.17298570677720712,0.005032492120875272,-0.36510931365278976,-0.09123100636908604,0.084489975249829,0.17746699735173924,2,left
6.648,0.23142485861654727,0.9804756521118331,-0.10336594852760886,-0.15489104441734342,-0.0005385317350006873,-0.3661646407128978,-0.09343238208476615,0.08471244552329764,0.17676286527235266,2,left
6.649,0.23037347039983566,0.9824453432075908,-0.10420767342037651,-0.13697327689510747,-0.006030121288623323,-0.36727786514696803,-0.09562482126739955,0.08502408817186852,0.17598971752597767,2,left
6.655,0.22924708533510735,0.9845019648393798,-0.10505620044765501,-0.11925057796470781,-0.01143121176144682,-0.368456348744405,-0.09780865939800491,0.08542508763173508,0.17515040167715906,2,left
6.656000000000001,0.22804678272585757,0.9866466735452919,-0.1059102370264458,-0.10174105826888061,-0.0167306292465243,-0.36970744574649805,-0.09998423161414736,0.0859155687839724,0.17424782410052825,2,left
6.6579999999999995,0.22677372492287018,0.9888805859645311,-0.1067684623517629,-0.08446274837457617,-0.021917094071860793,-0.37103848854893623,-0.10215187076254109,0.0864955997718241,0.17328494797553134,2,left
6.6579999999999995,0.2254291539397131,0.9912047764942157,-0.10762952965822586,-0.06743358207670119,-0.026979224042120078,-0.37245677337993616,-0.1043119054654482,0.08716519500411986,0.17226479117458757,2,left
6.662999999999999,0.22401438775684818,0.9936202749967626,-0.10849206843644107,-0.05067137991965603,-0.03190553757388501,-0.37396954595759296,-0.10646465820712435,0.08792431834623292,0.17119042404209106,2,left
6.662999999999999,0.2225308163565379,0.9961280645540299,-0.10935468660406662,-0.034193832887069085,-0.03668445673934604,-0.375583987130293,-0.10861044344586541,0.08877288649576857,0.17006496706612015,2,left
6.664,0.22097989752884495,0.9987290792654511,-0.11021597262930453,-0.018018486210846864,-0.04130431023293544,-0.3773071985042782,-0.11074956575382157,0.0897107725180559,0.1688915884676699,2,left
6.667999999999999,0.21936315248137062,1.0014242020892348,-0.11107449760364885,-0.002162723258682338,-0.04575333627740416,-0.37914618806643646,-0.1128823179806642,0.09073780947649585,0.1676735017736776,2,left
6.669,0.21768216127592643,1.0042142627276331,-0.11192881726197886,0.013356250503727272,-0.050019685497264904,-0.3811078558292432,-0.11500897943380466,0.09185379407069957,0.16641396346308096,2,left
6.67,0.21593855811044435,1.0071000355580833,-0.11277747395025146,0.028521423413311153,-0.05409142380839767,-0.3831989795585008,-0.11712981407121098,0.09305849021798294,0.16511627075189528,2,left
6.672999999999999,0.2141340264672175,1.0100822376105365,-0.113618998543413,0.04331599327345354,-0.05795653538397318,-0.38542620066341665,-0.11924506870891069,0.09435163255431642,0.16378375954155652,2,left
6.6739999999999995,0.21227029415725382,1.013161526587417,-0.11445191231899773,0.05772338271669345,-0.061602925744474804,-0.3877960103103514,-0.12135497124861558,0.09573292985346035,0.1624198025315428,2,left
6.678,0.21034912830016092,1.0163384989175515,-0.11527472879373177,0.07172725426627598,-0.06501842499770996,-0.39031473578853076,-0.1234597289315622,0.0972020683677459,0.16102780749255347,2,left
6.678999999999999,0.20837233028626237,1.0196136878308828,-0.11608595552910703,0.0853115251317621,-0.06819079124225852,-0.3929885271378462,-0.12555952662464495,0.09875871509421583,0.15961121569642486,2,left
6.682,0.20634173077355664,1.0229875614381179,-0.11688409590867845,0.09846038178005057,-0.07110771414480699,-0.39582334404556535,-0.12765452514490322,0.10040252097009272,0.15817350049887224,2,left
6.683,0.20425918477767957,1.0264605207982356,-0.1176676508890589,0.11115829432200633,-0.07375681870115397,-0.39882494301920096,-0.12974485962840945,0.10213312400179435,0.1567181660710661,2,left
6.688,0.20212656691648492,1.030032897955919,-0.11843512073024272,0.12339003075368583,-0.07612566918997377,-0.4019988648432328,-0.1318306379495909,0.10395015233196687,0.1552487462759809,2,left
6.689,0.1999457668703166,1.0337049539315493,-0.11918500671721138,0.13514067108989847,-0.07820177332769093,-0.4053504223278383,-0.13391193919700342,0.10585322724925793,0.15376880368539378,2,left
6.691,0.19771868511409937,1.0374768766506528,-0.1199158128909231,0.1463956214265494,-0.07997258663204924,-0.40888468835826663,-0.13598881221156264,0.10784196614579983,0.15228192873335997,2,left
6.692,0.19544722896876948,1.0413487788072007,-0.12062604781010365,0.15714062796686984,-0.08142551700115323,-0.4126064842539853,-0.13806127419322448,0.10991598542762226,0.1507917390019512,2,left
6.7,0.19313330900904985,1.0453206956630694,-0.12131422636515148,0.1673617910452602,-0.08254792951391923,-0.41652036844723866,-0.14012930938209425,0.11207490338346046,0.1493018786350137,2,left
6.7010000000000005,0.190778835853715,1.04939258279228,-0.12197887166401934,0.17704557918104769,-0.08332715145699617,-0.42063062549118224,-0.14219286781993073,0.11431834301767134,0.14781601787568185,2,left
6.702000000000001,0.18838571735353138,1.0535643137832102,-0.12261851700573279,0.18617884319299577,-0.0837504775823023,-0.4249412554082927,-0.14425186419799851,0.11664593485321467,0.14633785272337443,2,left
6.702999999999999,0.1859558561814378,1.0578356779152216,-0.12323170794680019,0.1947488304038993,-0.08380517559837554,-0.42945596339030784,-0.14630617679720984,0.1190573197109006,0.14487110470600179,2,left
6.706,0.1834911478216363,1.0622063778269217,-0.1238170044565765,0.20274319896305593,-0.08347849189774807,-0.4341781498615127,-0.1483556465264835,0.12155215147134744,0.14341952076312295,2,left
6.707000000000001,0.18099347895194307,1.0666760271896059,-0.12437298316318596,0.21015003231282345,-0.08275765752153408,-0.43911090091776206,-0.1504000760652355,0.12413009982633588,0.14198687323581452,2,left
6.711,0.17846472621731616,1.0712441483920614,-0.12489823970788139,0.21695785382385624,-0.08162989436136026,-0.4442569791542173,-0.15243922911590282,0.12679085302648538,0.14057695995904587,2,left
6.712000000000001,0.17590675539908632,1.075910170235762,-0.12539139123149884,0.22315564162196036,-0.08008242159767318,-0.44961881489536915,-0.15447282977238724,0.1295341206324198,0.1391936044523987,2,left
6.7170000000000005,0.17332142099026637,1.080673425635618,-0.1258510790027173,0.22873284362782084,-0.07810246237232504,-0.4551984978415234,-0.15650056201029197,0.132359636276827,0.13784065620502348,2,left
6.718,0.170710566189963,1.085533149321455,-0.1262759711770302,0.2336793928291343,-0.07567725069217068,-0.46099776914653756,-0.15852206930480842,0.13526716044505524,0.13652199105079094,2,left
6.722,0.16807602332842533,1.0904884755389144,-0.12666476566258422,0.2379857228029287,-0.07279403855920272,-0.4670180139422163,-0.16053695438209412,0.13825648328212695,0.13524151162967255,2,left
6.723,0.16541961472772332,1.0955384357546323,-0.1270161930669754,0.24164278350407048,-0.06944010332150963,-0.47326025432539814,-0.16254477910996668,0.14132742743428595,0.13400314793147192,2,left
6.727,0.1627431539906447,1.1006819563771928,-0.12732901970100302,0.24464205733414862,-0.065602755238062,-0.4797251428243963,-0.16454506453371961,0.14447985093343022,0.13281085791812733,2,left
6.728,0.16004844769359336,1.1059178565104175,-0.12760205061317756,0.24697557550308685,-0.06126934524901715,-0.4864129563620912,-0.16653729106284784,0.1477136501330176,0.13166862822091535,2,left
6.731,0.1573372974433279,1.1112448457586528,-0.12783413262128332,0.24863593469397183,-0.0564272729418796,-0.49332359073360654,-0.1685208988130535,0.1510287626937087,0.13058047490660052,2,left
6.733,0.15461150224918413,1.1166615221048004,-0.1280241573020911,0.2496163140396957,-0.05106399470246665,-0.5004565556171429,-0.17049528810090153,0.15442517056445912,0.12955044429467938,2,left
6.733,0.1518728611627003,1.1221663698807682,-0.12817106390342928,0.2499104924181012,-0.04516703203820301,-0.5078109701371811,-0.17245982007590735,0.15790290280999095,0.12858261378635716,2,left
6.736000000000001,0.14912317613694714,1.1277577578479254,-0.12827384215008775,0.2495128660703842,-0.03872398005980766,-0.5153855589999058,-0.17441381746783424,0.16146203808302156,0.12768109265402183,2,left
6.736000000000001,0.1463642550532721,1.1334339374033258,-0.12833153492098656,0.2484184665455564,-0.03172251610593858,-0.523178649221338,-0.17635656543393202,0.16510270659264703,0.1268500227521765,2,left
6.737,0.1435979148597942,1.1391930409261262,-0.12834324078296525,0.2466229789316999,-0.02415040850161622,-0.5311881674658295,-0.1782873125033822,0.16882509151552696,0.12609357913262287,2,left
6.74,0.14082598477006658,1.1450330802777575,-0.12830811637898096,0.2441227601322514,-0.015995525478616695,-0.5394116379958263,-0.1802052716231665,0.17262942984953858,0.12541597055890966,2,left
6.7410000000000005,0.13805030947859653,1.1509519454690893,-0.12822537867892336,0.24091485658263917,-0.007245844354512046,-0.5478461812031737,-0.18210962131093747,0.1765160127203588,0.12482143991766685,2,left
6.746,0.13527275235492298,1.156947403507571,-0.12809430710354522,0.2369970206000755,0.002110538895665165,-0.5564885126754832,-0.18399950692043648,0.1804851851516684,0.12431426452466214,2,left
6.747000000000001,0.13249519857802136,1.1630170974366836,-0.12791424552637073,0.2323677247577928,0.012085399581768626,-0.5653349427690613,-0.18587404202496666,0.1845373453099077,0.12389875632364203,2,left
6.751,0.1297195581737774,1.1691585455784617,-0.12768460414778096,0.22702617403389344,0.02269037373333075,-0.5743813766917838,-0.1877323099243899,0.1886729432347498,0.1235792619762588,2,left
6.752000000000001,0.12694776892488718,1.1753691409864804,-0.1274048612250668,0.22097231568345313,0.03393694704591683,-0.5836233151172564,-0.18957336528107518,0.19289247906669416,0.12336016284163584,2,left
6.755,0.12418179913368617,1.181646151111552,-0.12707456463676278,0.2142068468205781,0.04583644336772102,-0.5930558553556678,-0.19139623589018098,0.19719650078342274,0.1232458748443869,2,left
6.756,0.12142365023091578,1.1879867176774808,-0.12669333325709795,0.206731219695071,0.05840001275689417,-0.6026736931073138,-0.19319992458960847,0.20158560145679993,0.12324084823018094,2,left
6.76,0.11867535923440942,1.1943878567618902,-0.12626085811220833,0.19854764464631522,0.07163861914193631,-0.6124711248253302,-0.19498341131491193,0.2060604160426393,0.12334956720823267,2,left
6.761,0.11593900106867597,1.2008464590783086,-0.12577690328435784,0.18965909071494658,0.08556302761936191,-0.6224420507147225,-0.19674565530440102,0.21062161771560248,0.1235765494804,2,left
6.767,0.11321669075876004,1.2073592904594843,-0.12524130652915585,0.18006928389084031,0.10018379142475328,-0.632579978395307,-0.1984855974596142,0.21526991376184026,0.12392634565688383,2,left
6.768,0.110510585511042,1.2139229925469728,-0.12465397957793337,0.16978270297391154,0.11551123861525628,-0.6428780272566974,-0.20020216286628456,0.22000604104223298,0.12440353855885199,2,left
6.771,0.10782288669144878,1.2205340836982306,-0.12401490811210879,0.15880457302220238,0.13155545850354217,-0.6533289335339659,-0.20189426348085812,0.22483076103933367,0.12501274240864915,2,left
6.771,0.10515584170827869,1.2271889601295478,-0.12332415141267714,0.14714085635971647,0.1483262878852596,-0.6639250561330875,-0.20356080098756069,0.2297448545013701,0.12575860190860788,2,left
6.776,0.10251174580305634,1.233883897319289,-0.12258184169985124,0.1347982411144613,0.16583329710402972,-0.674658383235736,-0.2052006698309423,0.23474911569691195,0.12664579120984104,2,left
6.777,0.09989294375084082,1.2406150516984618,-0.1217881831815504,0.1217841272551745,0.184085776000097,-0.6855205397134376,-0.20681276042875787,0.2398443462940655,0.12767901277277605,2,left
6.78,0.09730183147299075,1.2473784626528315,-0.12094345082123492,0.10810661009324118,0.2030927197908338,-0.6965027953815048,-0.208395962569969,0.2450313488783146,0.12886299612158356,2,left
6.78,0.09474085756884038,1.2541700548529924,-0.1200479888166126,0.09377446121436143,0.22286281493341206,-0.7075960741235655,-0.2099491690025756,0.2503109201233845,0.1302024964950594,2,left
6.785,0.09221252477486067,1.2609856409178433,-0.1191022087645838,0.07879710680259946,0.24340442502209628,-0.7187909639178754,-0.21147127921590597,0.255683843629769,0.13170229339693815,2,left
6.787000000000001,0.08971939135877814,1.2678209244050862,-0.11810658749089581,0.06318460331754122,0.26472557677477737,-0.7300777277969391,-0.2129612034219111,0.26115088244582224,0.13336718904904965,2,left
6.79,0.08726407244985115,1.274671503112037,-0.11706166454437231,0.04694761048340844,0.28683394616556074,-0.7414463157722914,-0.21441786673992277,0.2667127712865846,0.1352020067511772,2,left
6.791,0.08484924129310345,1.2815328726630042,-0.11596803937811105,0.03009736154712468,0.309736844762436,-0.7528863777565753,-0.21584021358924554,0.27237020846577836,0.13721158915193588,2,left
6.795,0.08247763039652863,1.2884004303565513,-0.11482636825208759,0.012645630760505957,0.3334412063312947,-0.7643872775153204,-0.2172272122938609,0.27812384755668107,0.13940079643546444,2,left
6.796,0.08015203252099197,1.295269479246639,-0.1136373608959803,-0.005395301960044572,0.35795357376982345,-0.7759381076810578,-0.2185778599034256,0.28397428879785513,0.141774504429212,2,left
6.7989999999999995,0.07787530144593459,1.3021352324343614,-0.11240177697445229,-0.024012689244718718,0.383280086437081,-0.7875277058626124,-0.21989118723464798,0.28992207025998734,0.1443376026386031,2,left
6.8,0.07565035243212875,1.308992817550732,-0.1111204224008927,-0.04319335740246993,0.4094264679468704,-0.7991446718825896,-0.2211662641289361,0.2959676587965051,0.14709499220975455,2,left
6.801,0.07348016230063956,1.3158372814169017,-0.10979414554555637,-0.06292375052596384,0.436398014495336,-0.810777386176212,-0.22240220488166454,0.3021114408315924,0.15005158379631753,2,left
6.803999999999999,0.07136776905675932,1.3226635948769492,-0.10842383337698494,-0.08318997751564118,0.4641995837633265,-0.822414029359921,-0.2235981737255022,0.30835371309473275,0.15321229526092797,2,left
6.805,0.06931627100100857,1.329466657806983,-0.1070104075652947,-0.10397786143520849,0.49283558427527496,-0.8340426028539399,-0.2247533902096921,0.31469467344186725,0.1565820491166764,2,left
6.806,0.06732882527716255,1.336241304308316,-0.10555482056831388,-0.12527298964831654,0.5223099648086625,-0.8456509502193168,-0.22586713435750286,0.3211344118728565,0.16016576964021068,2,left
6.811,0.06540864580825331,1.3429823080904348,-0.10405805171837772,-0.14706076265209483,0.5526262032893703,-0.857226778745692,-0.22693875155675536,0.32767290179999675,0.16396837963480632,2,left
6.812,0.06355900056998114,1.3496843880433662,-0.10252110332798689,-0.16932644006033862,0.5837872947717667,-0.868757680950296,-0.22796765717865264,0.33430999159194064,0.167994796847969,2,left
6.814,0.06178320815373813,1.3563422139919805,-0.10094499683470703,-0.19205518315473605,0.6157957383948375,-0.8802311558723506,-0.22895334092811154,0.3410453964115234,0.17224993005387504,2,left
6.815,0.06008463358179381,1.3629504126190142,-0.09933076900755315,-0.21523209395956838,0.6486535233692267,-0.8916346301712404,-0.22989537092867307,0.3478786903662766,0.1767386748115843,2,left
6.821000000000001,0.05846668335179449,1.3695035735407513,-0.09767946823663273,-0.2388422509038143,0.6823621140847113,-0.9029554790615576,-0.23079339754494613,0.35480929899069574,0.18146590891060324,2,left
6.822,0.05693279970273983,1.3759962555200644,-0.09599215092174761,-0.26287074113592007,0.7169224344300674,-0.9141810471179486,-0.2316471569454153,0.3618364920796103,0.18643648751603178,2,left
6.824,0.05548645410890719,1.3824229928039256,-0.09426987796472827,-0.2873026895577847,0.7523348514197209,-0.9252986689824979,-0.23245647440831824,0.3689593768922847,0.19165523802620013,2,left
6.825,0.05413114002140721,1.38877830157337,-0.09251371136366267,-0.3121232846457533,0.7885991582240205,-0.9362956900071406,-0.2332212673731721,0.376176891747158,0.19712695465638605,2,left
6.829,0.0528703648890738,1.395056686492347,-0.09072471091176094,-0.33731780112761406,0.8257145567024174,-0.9471594868633278,-0.23394154824040056,0.38348780002740845,0.20285639276290177,2,left
6.83,0.05170764150186494,1.4012526473400966,-0.08890393101479885,-0.3628716195857541,0.8636796395412815,-0.9578774881508522,-0.2346174269213871,0.39089068461780296,0.20884826292255323,2,left
6.834,0.050646478711460725,1.40736068571095,-0.08705241765064464,-0.3887702430577445,0.9024923721005284,-0.9684371950374004,-0.23524911314115066,0.39838394279356126,0.2151072247832007,2,left
6.835,0.049690371595081176,1.4133753117635857,-0.08517120549829778,-0.4149993107067008,0.9421500740756799,-0.9788262019600145,-0.23583691849571395,0.4059657815822357,0.2216378807018896,2,left
6.8389999999999995,0.048842791139327005,1.419291050997283,-0.08326131526087202,-0.44154460863479666,0.9826494010844149,-0.9890322174192225,-0.23638125826610606,0.4136342136198692,0.22844476918777537,2,left
6.8389999999999995,0.048107173529998805,1.425102451027532,-0.08132375119718516,-0.46839207791429993,1.023986326289103,-0.9990430848961495,-0.23688265299081482,0.4213870535229531,0.23553235816783186,2,left
6.843999999999999,0.047486909139434985,1.430804088328873,-0.07935949886347037,-0.4955278199114495,1.0661561221692422,-1.0088468039224254,-0.23734172979837814,0.4292219147979617,0.2429050380941146,2,left
6.845,0.046985331305379574,1.4363905749084536,-0.07736952305596771,-0.5229380989793997,1.1091533425601332,-1.0184315513321853,-0.23775922350167977,0.43713620731048813,0.2505671149121425,2,left
6.849,0.04660570499723424,1.4418565648699355,-0.07535476593949557,-0.5506093425973293,1.1529718050765312,-1.027785702724891,-0.23813597745539059,0.44512713533624865,0.258522802910768,2,left
6.85,0.04635121546622554,1.4471967608251899,-0.07331614534458285,-0.5785281390336375,1.1976045740424066,-1.0368978541671148,-0.23847294417787612,0.4531916962164558,0.2667762174747251,2,left
6.853,0.046224956973293756,1.4524059201111938,-0.07125455321599707,-0.6066812326119421,1.243043944050321,-1.0457568441607958,-0.2387711857387716,0.4613266796402917,0.27533136776187517,2,left
6.854,0.046229921683549544,1.4574788607714622,-0.06917085420082703,-0.6350555166593401,1.2892814242762787,-1.0543517759048129,-0.23903187391330846,0.4695286675774305,0.28419214932801445,2,left
6.858,0.04636898881132413,1.4624104672630858,-0.06706588437167064,-0.6636380242171095,1.3363077236782608,-1.0626720398760285,-0.23925629010436317,0.47779403488376904,0.293362336722961,2,left
6.859,0.04664491409447054,1.4671956958491306,-0.06494045008092397,-0.6924159165946964,1.3841127372089548,-1.0707073367552309,-0.23944582503308712,0.48611895060373017,0.30284557608250706,2,left
6.8629999999999995,0.04706031966912154,1.4718295796316752,-0.0627953269305054,-0.7213764698484744,1.4326855331754893,-1.0784477007226403,-0.23960197819886955,0.49449937999269117,0.31264537774169837,2,left
6.864,0.047617684407042324,1.4763072331763178,-0.06063125882198642,-0.750507059267356,1.4820143418812448,-1.0858835231468604,-0.23972635710928125,0.5029310872832742,0.32276510889579324,2,left
6.867999999999999,0.04831933476729973,1.4806238566783685,-0.058448957035869185,-0.7797951419479017,1.5320865456870496,-1.0930055766903373,-0.23982067628051504,0.5114096392057326,0.33320798632738424,2,left
6.869,0.049167436201075124,1.48477473962715,-0.05624909928548933,-0.8092282375420936,1.582888670631271,-1.0998050398535384,-0.23988675600858678,0.519930409204464,0.3439770691752445,2,left
6.87,0.05016398513362989,1.4887552639366342,-0.05403232870082966,-0.8387939072614332,1.6344063797504855,-1.1062735219791986,-0.23992652091118669,0.5284885821697777,0.3550752516424825,2,left
6.872999999999999,0.051310801534106984,1.4925609065210463,-0.051799252710315546,-0.8684797312534182,1.6866244682029188,-1.112403088693029,-0.23994199823982693,0.5370791594358124,0.3665052554986836,2,left
6.874,0.0526095220750974,1.4961872412994057,-0.04955044179693846,-0.8982732846265981,1.7395268600908604,-1.118186287536178,-0.2399353159620089,0.5456969638639879,0.3782696222754883,2,left
6.875,0.0540615938793713,1.499629940618255,-0.04728642811161754,-0.9281621126883028,1.7930966065057297,-1.1236161731474403,-0.2399087006133398,0.5543366449545291,0.39037070513489514,2,left
6.877000000000001,0.055668268847335806,1.5028847760912396,-0.04500770393629454,-0.9581337061192099,1.8473158841133963,-1.1286863311320403,-0.2398644749196159,0.5629926839970579,0.4028106604343644,2,left
6.877999999999999,0.05743059855280783,1.5059476188669851,-0.04271472000222049,-0.9881754766494978,1.9021659938074114,-1.1333908999730202,-0.23980505518885867,0.5716593992849992,0.41559143902252305,2,left
6.882999999999999,0.059349429687926086,1.508814439352413,-0.040407883684325505,-1.018274733514097,1.9576273593342899,-1.1377245907365854,-0.23973294847323187,0.5803309514186059,0.42871477730023794,2,left
6.882999999999999,0.06142540003381998,1.5114813064357544,-0.03808755710810954,-1.0484186608050554,2.013679526004945,-1.1416827045419269,-0.2396507495007184,0.5890013487214598,0.4421821880827998,2,left
6.888,0.06365893493385731,1.5139443862679787,-0.03575405521547015,-1.078594295807295,2.070301159649798,-1.1452611478090187,-0.23956113737639054,0.5976644527953318,0.4559949512999356,2,left
6.888999999999999,0.06605024425168836,1.5161999406709603,-0.033407643836767364,-1.1087885084041962,2.1274700459768456,-1.148456445296832,-0.23946687205307302,0.6063139842382993,0.4701541045713541,2,left
6.893,0.06859931980677807,1.518244325245569,-0.031048537812033566,-1.1389879816395811,2.1851630904936683,-1.1512657509433313,-0.23937079057116814,0.6149435285510167,0.4846604336965147,2,left
6.894,0.07130593329330899,1.52007398725343,-0.02867689920090311,-1.1691791935227511,2.2433563191559815,-1.1536868565175171,-0.23927580306739135,0.6235465422560102,0.49951446309830255,2,left
6.898,0.07416963470044291,1.5216854633429004,-0.026292835620705394,-1.1993484001632906,2.3020248799069165,-1.1557181980926963,-0.23918488855215272,0.6321163592548324,0.5147164462612868,2,left
6.899,0.0771897512601742,1.5230753771843104,-0.02389639875476758,-1.2294816203223653,2.361143045272715,-1.15735886034904,-0.23910109045531464,0.6406461974478529,0.5302663562062353,2,left
6.902,0.08036538695254816,1.5242404370742568,-0.021487583077950883,-1.2595646214672123,2.420684216181959,-1.1586085787123854,-0.23902751194005933,0.6491291656413838,0.5461638760435602,2,left
6.903,0.0836954225963092,1.525177433566407,-0.019066324851265408,-1.2895829074154632,2.4806209271768145,-1.159467739335112,-0.23896731098461121,0.6575582707667458,0.5624083896493632,2,left
6.906000000000001,0.08717851654535513,1.525883237187326,-0.01663250143865194,-1.3195217076558348,2.540924853186068,-1.1599373769238048,-0.23892369523158058,0.6659264254357614,0.5789989725087515,2,left
6.907,0.09081310599883832,1.5263547962987503,-0.014185930996801946,-1.3493659684315722,2.6015668180309395,-1.1600191704172962,-0.23889991660472326,0.6742264558570328,0.595934382772093,2,left
