time,gFx,gFy,gFz,ax,ay,az,wx,wy,wz,subject_number,foot
10.068,0.24174331976263563,0.9643034201912203,-0.07361360483106927,-1.504533687327118,0.16283338754596816,-0.3457220957589986,0.021753790412218713,0.22598080122326447,0.03302318375627488,2,left
10.068999999999999,0.2445139107946989,0.964137748669399,-0.07366769777780068,-1.4967864521997567,0.16395735827240684,-0.3475848998124508,0.019327054159481293,0.22372254263103827,0.03909753983299455,2,left
10.074,0.2472115967716309,0.9640044101073348,-0.07373454220217902,-1.4880034308199566,0.16507595961230395,-0.34936415358156914,0.016917590852345336,0.22151431078721762,0.045001208627680825,2,left
10.075,0.24983353055194404,0.9639058507263979,-0.07381456473291473,-1.4781986378967646,0.16618138238948885,-0.3510636347876755,0.014526528011219404,0.2193575573370012,0.05073315558535478,2,left
10.079,0.2523769459812203,0.9638445525500504,-0.07390816704164486,-1.4673871153402513,0.16726584412702056,-0.35268710685182597,0.012154965404682319,0.21725367497158077,0.05629249003039859,2,left
10.08,0.25483915926338935,0.9638230306092657,-0.07401572370862061,-1.455584916879645,0.16832161839930615,-0.3542383159239629,0.009803974134169459,0.21520399871227036,0.06167846635926904,2,left
10.08,0.2572175703337656,0.9638438299530488,-0.07413758015597492,-1.4428090912325846,0.1693410650106061,-0.35572098848117417,0.0074745956669827526,0.2132098072373284,0.06689048529452767,2,left
10.084,0.259509664253003,0.9639095224642353,-0.0742740506695105,-1.4290776637944664,0.1703166610030253,-0.3571388294997322,0.005167840861109133,0.2112723242550591,0.0719280951142192,2,left
10.084,0.26171301263740315,0.9640227034834437,-0.07442541652655406,-1.4144096168140197,0.17124103249700598,-0.3584955212053762,0.0028846890421562552,0.20939271993014552,0.07679099273615346,2,left
10.087,0.2638252751387816,0.9641859882466715,-0.07459192424540843,-1.3988248680184456,0.17210698736723515,-0.3597947224061062,0.0006260871760112932,0.20757211236711645,0.08147902457012506,2,left
10.088,0.2658442009844982,0.9644020081448361,-0.07477378397064681,-1.3823442476792347,0.1729075487212125,-0.3610400684005574,-0.0016070508492836884,0.20581156914923496,0.08599218711176723,2,left
10.089,0.2677676305843485,0.9646734068161822,-0.07497116800687603,-1.3649894742596735,0.17363598896987145,-0.36223517139979805,-0.003813844835643593,0.204112108928053,0.09033062728521364,2,left
10.093,0.2695934972069728,0.9650028360836759,-0.0751842095125388,-1.3467831290570942,0.17428586395961,-0.3633836213011303,-0.005993448787525785,0.2024747030584047,0.09449464254803529,2,left
10.094,0.2713198287242967,0.9653929517499102,-0.07541300136555333,-1.327748630402933,0.1748510464571947,-0.364488986597266,-0.008145051331402527,0.20090027727378262,0.09848468077141814,2,left
10.097000000000001,0.272944749417379,0.9658464092636406,-0.07565759521328391,-1.307910207828565,0.17532575845649984,-0.36555481525915945,-0.01026787604845807,0.19938971339721706,0.10230133990804532,2,left
10.097999999999999,0.27446648183226774,0.9663658592743223,-0.07591800071868539,-1.2872928763277753,0.17570460209568858,-0.36658463552973997,-0.012361181726770074,0.19794385108295662,0.1059453674596469,2,left
10.103,0.2758833486721152,0.9669539430923277,-0.07619418501183865,-1.2659224106917522,0.17598258915090714,-0.3675819566207162,-0.014424262539154669,0.19656348958442907,0.10941765975568081,2,left
10.104,0.27719377471111356,0.9676132880733662,-0.07648607235224801,-1.2438253198596707,0.17615516910784287,-0.36855026931552226,-0.01645644815277186,0.19524938954414492,0.11271926105411088,2,left
10.107999999999999,0.2783962887146833,0.9683465029463919,-0.0767935440019661,-1.22102882122569,0.17621825581222506,-0.36949304648137105,-0.018457103776503263,0.1940022748013914,0.11585136247475222,2,left
10.109,0.2794895253485364,0.9691561731035719,-0.07711643830228714,-1.197560814841032,0.1761682527000562,-0.37041374349328776,-0.020425630152027436,0.19282283421375385,0.11881530077516092,2,left
10.113,0.2804722270578455,0.9700448558688572,-0.07745455093769998,-1.1734498574477217,0.17600207660806136,-0.3713157985729119,-0.02236146349442932,0.19171172348869034,0.12161255697855569,2,left
10.113999999999999,0.28134324589707066,0.9710150757606181,-0.07780763536029812,-1.1487251362785573,0.17571718016452897,-0.37220263304478524,-0.02426407538808989,0.19066956702157872,0.12424475486277163,2,left
10.117,0.2821015452899657,0.9720693197643543,-0.07817540333802596,-1.1234164425559592,0.17531157276039253,-0.37307765151277694,-0.026132972643509864,0.1896969597368491,0.12671365931876408,2,left
10.118,0.2827462016970147,0.9732100326323958,-0.07855752558561553,-1.0975541446204917,0.17478384010007095,-0.37394424195924414,-0.027967697120627376,0.18879446892901128,0.1290211745867019,2,left
10.124,0.2832764061646612,0.9744396122278884,-0.0789536324391569,-1.0711691606180977,0.17413316233124412,-0.3748057757694841,-0.02976782552409436,0.18796263610058467,0.13116934237721548,2,left
10.125,0.2836914657285652,0.9757604049298512,-0.07936331453975427,-1.0442929306734046,0.17335933075239576,-0.375665607683998,-0.03153296917587945,0.1872019787941378,0.1331603398848961,2,left
10.127,0.28399080464225424,0.9771747011145357,-0.07978612349609683,-1.0169573884748726,0.17246276309660596,-0.3765270756810638,-0.03326277377046714,0.186512992415846,0.13499647770067988,2,left
10.128,0.28417396540258105,0.9786847307265203,-0.08022157250287845,-0.9891949321960579,0.1714445173897236,-0.37739350079210005,-0.03495691911782365,0.18589615204817858,0.13668019762929215,2,left
10.131,0.2842406095439622,0.980292658951612,-0.0806691369034901,-0.961038394675849,0.1703063043806965,-0.37826818685229774,-0.03661511887919963,0.18535191424953157,0.13821407041747683,2,left
10.132,0.28419051817466,0.9820005820020321,-0.08112825469669921,-0.9325210127792198,0.16905049854148582,-0.37915442018900214,-0.038237120300738135,0.1848807188388276,0.13960079339829104,2,left
10.137,0.284023592230906,0.9838105230214075,-0.0815983269920221,-0.9036763958588158,0.16768014763364364,-0.3800554692503413,-0.039822703949754144,0.1844829906633122,0.1408431880563069,2,left
10.138,0.28373985242911737,0.9857244281124536,-0.08207871841649243,-0.874538493236557,0.16619898083828874,-0.38097458417662045,-0.04137168345844868,0.1841591413479839,0.14194419751813306,2,left
10.142000000000001,0.283339438903733,0.9877441624846303,-0.08256875747137377,-0.8451415606234105,0.16461141544587982,-0.3819149963170354,-0.0428839052797166,0.18390957102530509,0.1429068839722454,2,left
10.142999999999999,0.2828226105273655,0.9898715067142985,-0.08306773683622869,-0.8155201253945396,0.16292256210185727,-0.38287991769430046,-0.044359248459602554,0.18373467004405242,0.14373442602170308,2,left
10.147,0.28218974391824525,0.9921081531077469,-0.08357491362170974,-0.7857089506361992,0.1611382286039082,-0.3838725404198381,-0.04579762443085474,0.18363482065637707,0.1444301159729184,2,left
10.148,0.2814413321466929,0.9944557021580749,-0.08408950958049503,-0.7557429978800035,0.15926492224630504,-0.38489603606223893,-0.04719897683192024,0.18361039868235865,0.14499735706325367,2,left
10.148,0.28057798315861854,0.9969156590889899,-0.08461071129436792,-0.7256573884395446,0.1573098507064785,-0.385953554971771,-0.04856328135393686,0.1836617751510803,0.1454396606313821,2,left
10.151,0.27960041793817575,0.9994894304810013,-0.08513767035964709,-0.6954873632637972,0.15528092146871308,-0.3870482255637966,-0.04989054560975399,0.18378931791511033,0.14576064324173732,2,left
10.152000000000001,0.2785094684328246,1.0021783209777508,-0.08566950359110748,-0.6652682412213041,0.15318673977959935,-0.3881831535640436,-0.05118080900375944,0.18399339323125222,0.1459640237879842,2,left
10.157,0.27730607526660683,1.0049835300712096,-0.08620529325977082,-0.6350353757904244,0.15103660513770037,-0.38936142121403194,-0.052434142572766705,0.1842743672982843,0.1460536206078517,2,left
10.158,0.27599128527306244,1.00790614896399,-0.0867440873767695,-0.6048241104388817,0.14884050635996526,-0.3905860864113383,-0.05365064877652714,0.18463260774498802,0.14603334863355294,2,left
10.158999999999999,0.2745662488828581,1.0109471575067537,-0.08728490003494975,-0.5746697335304478,0.14660911533975046,-0.3918601817168003,-0.05483046123147404,0.18506848506622248,0.14590721658770395,2,left
10.162,0.2730322174034698,1.0141074212087777,-0.087826711823163,-0.5446074339047465,0.14435377965143598,-0.39318671313716014,-0.05597374438961635,0.18558237400738298,0.14567932422656008,2,left
10.162,0.2713905402350487,1.0173876883191453,-0.08836847033734688,-0.5146722579680395,0.1420865141162077,-0.39456865861550633,-0.05708069316607697,0.18617465489827298,0.1453538596305201,2,left
10.166,0.2696426620751194,1.0207885869760935,-0.08890909082558243,-0.4848990685782706,0.13981999137096268,-0.3960089662047116,-0.058151532518665075,0.1868457149376429,0.1449350965415447,2,left
10.167,0.26779012016751785,1.0243106224247922,-0.08944745701394534,-0.4553225056997217,0.1375675314419412,-0.3975105519229408,-0.059186516982767445,0.1875959494298719,0.14442739174684374,2,left
10.171,0.26583454164697845,1.02795417430861,-0.08998242215764342,-0.42597694874136033,0.13534309031659997,-0.3990762972952049,-0.06018593016473924,0.18842576297549618,0.14383518250790642,2,left
10.172,0.26377764102322326,1.0317194940436907,-0.09051281034520947,-0.39689648049342174,0.1331612475072438,-0.4007090465851038,-0.06115008419687086,0.18933557061751174,0.14316298403368072,2,left
10.175,0.2616212178392214,1.0356067022900657,-0.09103741805923238,-0.36811485257733545,0.1310371925999754,-0.40241160372108015,-0.06207931915690487,0.19032579894560728,0.1424153869964534,2,left
10.176,0.25936715452801,1.0396157865342164,-0.09155501597553674,-0.33966545232476597,0.12898671078260399,-0.40418672892168606,-0.06297400245497463,0.1913968871607131,0.1415970550887387,2,left
10.181000000000001,0.25701741448194915,1.04374659879761,-0.09206435097007634,-0.3115812710023021,0.1270261673452782,-0.40603713502456035,-0.06383452819073523,0.19254928810247984,0.14071272261925474,2,left
10.182,0.25457404033849423,1.0479988534833409,-0.09256414829973837,-0.28389487329918295,0.1251724911477748,-0.40796548352401335,-0.06466131648335682,0.19378346924253237,0.13976719214585012,2,left
10.186,0.2520391524773797,1.0523721253702851,-0.09305311392671814,-0.256638367996405,0.1234431570475886,-0.4099743803223235,-0.06545481277695145,0.19509991364657728,0.13876533214304002,2,left
10.187000000000001,0.24941494771513753,1.0568658477626518,-0.09352993696191285,-0.22984337973660182,0.12185616728322733,-0.4120663712000681,-0.06621548712390636,0.1964991209086754,0.1377120747016214,2,left
10.19,0.24670369817472507,1.0614793108016571,-0.09399329220859573,-0.20354102181523015,0.12043003180742438,-0.4142439370110337,-0.06694383344849988,0.19798160806122622,0.13661241325766205,2,left
10.191,0.24390775030163567,1.066211659943835,-0.0944418427933455,-0.17776186991482926,0.1191837475653403,-0.4165094886074816,-0.0676403687930804,0.19954791046444612,0.1354714003479956,2,left
10.195,0.24102952399409666,1.0710618946073458,-0.09487424287534181,-0.1525359367054466,0.11813677671323346,-0.41886536150178455,-0.06830563254899467,0.2011985826793621,0.13429414538920775,2,left
10.196,0.23807151181446992,1.0760288669845195,-0.09528914042453274,-0.12789264723573512,0.11730902377354457,-0.4213138102706952,-0.06894018567435904,0.20293419932858026,0.13308581247696555,2,left
10.203,0.23503627825155593,1.0811112810167585,-0.09568518005354036,-0.10386081504073079,0.11672081172285619,-0.42385700270875903,-0.06954460990067547,0.20475535594933017,0.13185161820242275,2,left
10.204,0.23192645900844555,1.0863076915272798,-0.09606100588074504,-0.08046861889390605,0.11639285700976255,-0.4264970137376446,-0.07011950693020494,0.20666266984352816,0.1305968294823305,2,left
10.205,0.22874476029748028,1.0916165035070142,-0.09641526439599554,-0.05774358013276781,0.11634624350031592,-0.42923581907843056,-0.07066549762592222,0.2086567809298466,0.12932676139939375,2,left
10.206,0.22549395813222972,1.0970359715482427,-0.09674660729764045,-0.035712540489023496,0.11660239534940366,-0.4320752886941582,-0.07118322119578978,0.21073835260302293,0.12804677504933842,2,left
10.21,0.22217689761435838,1.1025641994197746,-0.09705369427058168,-0.014401640356175012,0.11718304879715993,-0.43501718001023915,-0.07167333437300356,0.21290807260588784,0.12676227539109688,2,left
10.21,0.2187964922186586,1.1081991397777868,-0.09733519567960848,0.0061637025706845865,0.11811022289032397,-0.4380631309205896,-0.07213651059378066,0.21516665391984402,0.12547870909647435,2,left
10.215,0.21535572308259635,1.113938594007654,-0.09758979515968617,0.025958814346104735,0.11940618912932748,-0.4412146525876513,-0.0725734391741774,0.21751483567977523,0.12420156239563088,2,left
10.216000000000001,0.21185763830924562,1.119780212193551,-0.0978161920923012,0.044959785577707065,0.12109344004282686,-0.4444731220447553,-0.07298482448787262,0.21995338411135779,0.12293635891470049,2,left
10.216000000000001,0.208305352293747,1.1257214932151929,-0.09801310396092511,0.0631434920408368,0.12319465669239187,-0.44783977460958135,-0.07337138514939899,0.2224830934476823,0.12168865750187226,2,left
10.22,0.2047020450822648,1.1317597849753223,-0.09817926857995231,0.08048761516125039,0.12573267511112177,-0.45131569611776867,-0.0737338532119569,0.22510478670797918,0.12046405003827594,2,left
10.221,0.20105096177270584,1.1378922847650066,-0.09831344619546545,0.09697066242037435,0.12873045168108502,-0.45490181498604276,-0.07407297339149746,0.22781931618018295,0.11926815923004995,2,left
10.225,0.19735541197205325,1.144116039773631,-0.0984144214668301,0.1125719877066282,0.132211027473865,-0.4585988941222698,-0.07438950232606457,0.23062756349065017,0.1181066363780191,2,left
10.226,0.19361876933175987,1.1504279477484527,-0.0984810053508516,0.12727181149041486,0.13619749167073386,-0.4624075227388567,-0.07468420787458958,0.23353043921898325,0.11698515912147635,2,left
10.226,0.18984447118489559,1.1568247578083986,-0.09851203691527456,0.14105124043964654,0.14071294434407067,-0.4663281081958763,-0.07495786845663983,0.23652888205749564,0.11590942915264527,2,left
10.229,0.18603601831059655,1.163303071417589,-0.09850638510333266,0.15389228594666382,0.14578045897401198,-0.470360868039309,-0.07521127243403189,0.23962385752338858,0.11488516989849869,2,left
10.23,0.1821969748578471,1.169859343523038,-0.09846295046133775,0.1657778811782971,0.1514230449847907,-0.4745058223614193,-0.07544521753515782,0.2428163562319799,0.11391812416672414,2,left
10.234,0.17833096846727015,1.1764898838591584,-0.09838066683192245,0.17669189651644074,0.15766361042296673,-0.47876278654096016,-0.07566051032281235,0.24610739173960142,0.11301405175275807,2,left
10.235,0.17444169062883308,1.1831908584219006,-0.09825850301102308,0.18661915339729643,0.16452492481035375,-0.48313136438252974,-0.07585796570625064,0.24949799796505728,0.11217872700495886,2,left
10.24,0.17053289730191148,1.189958291117224,-0.09809546436961177,0.19554543658339457,0.17202958218790085,-0.48761094166698643,-0.07603840649815027,0.2529892261988174,0.111417936345153,2,left
10.24,0.16660840980242997,1.1967880655899663,-0.0978905944472555,0.2034575048997146,0.18019996436850555,-0.4922006801251517,-0.076202663017098,0.25658214170940213,0.11073747574196956,2,left
10.244000000000002,0.1626721159342185,1.203675927239741,-0.09764297652787242,0.21034310046239188,0.18905820441851776,-0.496899511847348,-0.07635157273616992,0.2602778199567004,0.11014314813457587,2,left
10.245,0.1587279713142355,1.210617485431464,-0.09735173520831991,0.21619095642562552,0.1986261503895414,-0.5017061341416387,-0.07648597997812563,0.2640773424222539,0.10964076080464141,2,left
10.25,0.15478000081673446,1.2176082159097028,-0.09701603797030174,0.22099080326948947,0.20892532932405322,-0.5066190048539544,-0.07660673565768956,0.2679817920668299,0.10923612269458742,2,left
10.251,0.15083230004054882,1.2246434634274972,-0.09663509676539819,0.22473337364840373,0.2199769115603329,-0.511636338163599,-0.07671469707134952,0.27199224842590336,0.10893504167042756,2,left
10.254000000000001,0.1468890366881125,1.2317184446011886,-0.09620816962018643,0.22741040581704267,0.23180167536423682,-0.5167561008679415,-0.07681072773506005,0.27610978235396333,0.10874332172776899,2,left
10.255,0.142954451736882,1.2388282510024784,-0.09573456226548069,0.22901464564744903,0.24441997191744835,-0.5219760091704038,-0.07689569727019958,0.28033545042886504,0.10866676013982372,2,left
10.259,0.1390328602857302,1.2459678524967492,-0.0952136297947236,0.22953984724808746,0.25785169069399705,-0.5272935259861514,-0.0769704813380933,0.28467028902774905,0.1087111445465779,2,left
10.259,0.1351286519719122,1.2531321008330785,-0.09464477836044054,0.22898077219251212,0.2721162252590606,-0.5327058587801934,-0.07703596162337942,0.28911530808635905,0.10888224998458101,2,left
10.263,0.13124629087618697,1.260315733487765,-0.09402746691967567,0.22733318736224373,0.2872324395263409,-0.5382099579528765,-0.07709302586646502,0.29367148455389963,0.10918583585714708,2,left
10.264000000000001,0.12739031485902239,1.2675133777607985,-0.09336120903907669,0.2245938614053532,0.30321863451264214,-0.5438025157880483,-0.07714256794528788,0.29833975555588915,0.10962764284510816,2,left
10.269,0.12356533429365579,1.27471955512326,-0.0926455747711351,0.22076055980913678,0.32009251563066915,-0.5494799659794275,-0.07718548800657467,0.3031210112777792,0.11021338975862388,2,left
10.27,0.1197760301780395,1.281928685812361,-0.09188019261381729,0.21583203858214295,0.33787116056351135,-0.5552384837509882,-0.0772226926467611,0.30801608758243093,0.11094877033093166,2,left
10.274000000000001,0.11602715161580684,1.2891350936695287,-0.09106475155897394,0.2098080365376764,0.3565709877667732,-0.5610739865874146,-0.07725509514271844,0.3130257583748615,0.11183944995531904,2,left
10.275,0.11232351265774071,1.2963330112159739,-0.09019900321590436,0.20268926616776484,0.3762077256468633,-0.5669821355909296,-0.07728361573241156,0.3181507277279971,0.1128910623670131,2,left
10.279000000000002,0.10866998849272516,1.3035165849601709,-0.08928276397270743,0.19447740309342937,0.39679638246654925,-0.5729583374810293,-0.07730918194559738,0.32339162178349684,0.11410920627211171,2,left
10.28,0.10507151097348476,1.3106798809335056,-0.08831591714482348,0.18517507407395495,0.41835121703153405,-0.5789977472538789,-0.07733272898465882,0.32874898044204043,0.11549944192612749,2,left
10.283,0.10153306345991094,1.3178168904542495,-0.0872984150652152,0.17478584355471358,0.44088571021449513,-0.5850952715183335,-0.07735520015565818,0.3342232488578034,0.11706728766517736,2,left
10.284,0.09805967496319291,1.3249215361248228,-0.08623028108656089,0.1633141987299564,0.464412537375764,-0.5912455725257396,-0.07737754734822662,0.33981476875665695,0.11881821639212636,2,left
10.284,0.09465641357749996,1.331987678071805,-0.08511161147942714,0.15076553309385823,0.4889435417425964,-0.5974430729108566,-0.07740073155560637,0.3455237696203608,0.12075765201447344,2,left
10.288,0.09132837919217568,1.3390091204420362,-0.08394257721480819,0.13714612844997937,0.5144897088117955,-0.6036819611614038,-0.07742572341303035,0.35135035981967183,0.12289096582045096,2,left
10.292,0.08808069548781763,1.3459796181707722,-0.08272342561512606,0.12246313534620087,0.5410611418433,-0.6099561978338887,-0.07745350372532918,0.3572945178020248,0.12522347277431997,2,left
10.293,0.08491850123524419,1.3528928840375678,-0.08145448184904498,0.10672455195705573,0.5686670384891043,-0.6162595225220575,-0.07748506396195222,0.363356083417381,0.1277604277184003,2,left
10.294,0.08184694093154553,1.359742596022487,-0.08013615023925826,0.08993920172209033,0.5973156684741481,-0.6225854615271749,-0.07752140671072348,0.36953474942586073,0.13050702148075743,2,left
10.295,0.07887115481654282,1.3665224049716183,-0.07876891535242815,0.0721167105674544,0.6270143520136032,-0.6289273360763834,-0.07756354608895571,0.3758300532087152,0.1334683768940554,2,left
10.298,0.07599626832330714,1.373225942577213,-0.07735334284214328,0.053267484824673604,0.6577694385233099,-0.6352782708782285,-0.07761250811201541,0.38224136870005077,0.1366495447328745,2,left
10.299000000000001,0.0732273810364803,1.3798468296721993,-0.07589008001677881,0.033402690667766625,0.6895862853137532,-0.641631202861748,-0.07766933101944534,0.3887678985570538,0.14005549957739538,2,left
10.302999999999999,0.07056955525317529,1.3863786848314332,-0.07437985611146032,0.01253423536527441,0.7224692361961389,-0.6479788900486263,-0.07773506555876793,0.3954086665867992,0.1436911356119678,2,left
10.304,0.06802780424914992,1.3928151332643195,-0.07282348225825706,-0.009325249648965944,0.7564216000628039,-0.6543139205651923,-0.07781077522711227,0.40216251044805973,0.1475612623677127,2,left
10.307,0.06560708034728623,1.39914981597598,-0.07122185115837004,-0.03216242394334315,0.7914456295333694,-0.6606287218124969,-0.07789753647083045,0.40902807464686175,0.15167060041895325,2,left
10.308,0.06331226287420944,1.4053763991669934,-0.06957593645368843,-0.055963251554211904,0.8275424997611109,-0.6669155698126868,-0.07799643884329399,0.41600380384486346,0.15602377704392917,2,left
10.314,0.061148146079874906,1.4114885838346138,-0.06788679177795678,-0.08071301281261903,0.8647122874970843,-0.673166598749861,-0.07810858512109066,0.423087936499954,0.16062532186092213,2,left
10.315,0.05911942708709422,1.41748011553104,-0.0661555494568975,-0.10639631459759036,0.9029539505126252,-0.6793738107235289,-0.0782350913788728,0.4302784988587931,0.16547966245160753,2,left
10.318,0.05723069393490345,1.4233447942277595,-0.06438341883706772,-0.13299709908432025,0.9422653074839201,-0.6855290857327192,-0.07837708702314401,0.4375732993213264,0.17059111998414794,2,left
10.318,0.05548641377964811,1.4290764842311217,-0.06257168425154148,-0.16049865105833,0.9826430184454232,-0.6916241919086749,-0.07853571478530859,0.44496992319762385,0.17596390484925653,2,left
10.324000000000002,0.05389092131636007,1.4346691240942293,-0.06072170265287066,-0.18888360386934167,1.024082565921974,-0.6976507960139517,-0.0787121306743496,0.45246572787769235,0.1816021123231851,2,left
10.325,0.05244840747927436,1.4401167364734557,-0.058834900941160825,-0.21813394410124853,1.0665782368525407,-0.7036004742255844,-0.07890750388954595,0.4600578384352139,0.1875097182723299,2,left
10.327,0.051162908477273845,1.445413437881843,-0.05691277299355124,-0.24823101503714914,1.1101231054215717,-0.7094647232198101,-0.07912301669368677,0.467743143686452,0.193690574914898,2,left
10.328,0.05003829521956161,1.4505534482934423,-0.05495687638015949,-0.2791555190009489,1.1547090169169867,-0.7152349715756476,-0.07935986424729218,0.4755182927258529,0.20014840665584063,2,left
10.332,0.049078263186990025,1.4555311005512432,-0.05296882874139086,-0.3108875186595171,1.2003265727368768,-0.7209025915144015,-0.07961925440440454,0.4833796919601464,0.20688680601203224,2,left
10.333,0.04828632280170349,1.4603408495281236,-0.05095030380156402,-0.3434064373718188,1.2469651166699836,-0.7264589109919228,-0.07990240747057151,0.49132350266301583,0.21390922964545947,2,left
10.337,0.04766579033971649,1.4649772809878445,-0.048903027002083425,-0.3766910586738166,1.2946127225780208,-0.7318952261601815,-0.08021055592370428,0.4993456390726652,0.2212189945229791,2,left
10.338,0.04721977941854458,1.469435120094023,-0.04682877075362186,-0.4107195249902548,1.3432561836108665,-0.7372028142144164,-0.08054494409855857,0.5074417670548602,0.2288192742220108,2,left
10.342,0.04695119307836216,1.4737092395203526,-0.04472934932463016,-0.4454693356667002,1.3928810030885737,-0.742372946641802,-0.08090682783565444,0.5156073033542534,0.23671309540234417,2,left
10.343,0.04686271646312564,1.4777946671241573,-0.04260661339072518,-0.48091734441740774,1.4434713871870575,-0.7473969028872331,-0.08129747409552303,0.5238374154570303,0.24490333446506712,2,left
10.347000000000001,0.04695681009942167,1.4816865931551488,-0.040462444261960585,-0.5170397562867199,1.4950102395671618,-0.752265984451456,-0.08171816053924326,0.5321270220881248,0.2533927144204551,2,left
10.347999999999999,0.04723570376673131,1.4853803769802674,-0.03829874779432845,-0.5538121242237751,1.54747915808963,-0.7569715294363769,-0.082170175076311,0.5404707943664495,0.2621838019875041,2,left
10.352,0.047701390952168715,1.4888715533131613,-0.03611744799318249,-0.591209345372307,1.600858433761282,-0.7615049275519656,-0.08265481538096564,0.5488631576417757,0.27127900494864204,2,left
10.353,0.04835562388290866,1.4921558379429023,-0.033920480330449886,-0.6292056571792517,1.6551270520604071,-0.7658576355987196,-0.08317338837651117,0.5572982940299925,0.2806805697721707,2,left
10.353,0.04919990912952269,1.4952291329605516,-0.03170978481100743,-0.6677746334277479,1.7102626967920664,-0.7700211934391894,-0.08372720967888729,0.565770145628287,0.2903905794566509,2,left
10.356,0.0502355037727138,1.498087531484176,-0.02948729882839503,-0.7068891803019034,1.7662417566265964,-0.7739872404715705,-0.08431760297577184,0.5742724183282963,0.3004109514457489,2,left
10.357000000000001,0.051463412122243535,1.5007273218820945,-0.027254949856534226,-0.746521532592428,1.8230393344771745,-0.7777475326178472,-0.08494589930922178,0.5827985861100609,0.3107434354037356,2,left
10.362,0.052884382970195244,1.5031449914889372,-0.025014648044310722,-0.7866432501538696,1.880629259874777,-0.7812939598384306,-0.08561343623833231,0.5913418957350537,0.32138961070192124,2,left
10.363,0.05449890735634704,1.5053372297995795,-0.02276827880658451,-0.8272252147257614,1.9389841045012934,-0.7846185641846677,-0.08632155687356792,0.5998953718202834,0.33235088357376835,2,left
10.363,0.05630721682642153,1.5073009311154975,-0.020517695520069826,-0.8682376272485869,1.998075200979469,-0.7877135583841154,-0.08707160878289844,0.6084518223108766,0.3436284839565284,2,left
10.366,0.05830928217340316,1.509033196611903,-0.018264712424666957,-0.909650005892449,2.05787266469845,-0.7905713448734126,-0.08786494277166096,0.6170038443756697,0.3552234620499885,2,left
10.367,0.06050481266350046,1.5105313357936034,-0.016011097804888613,-0.9514311851716905,2.1183454178759917,-0.7931845350499357,-0.08870291153818465,0.6255438307503657,0.36713668462381965,2,left
10.370999999999999,0.06289325575944843,1.5117928673059176,-0.013758567498953734,-0.9935493166055198,2.1794612147383225,-0.7955459684333166,-0.08958686820733602,0.6340639765528195,0.37936883110592695,2,left
10.372,0.06547379736484742,1.5128155190586972,-0.011508778766313624,-1.0359718713002724,2.2411866670228706,-0.7976487315066713,-0.09051816474426683,0.6425562865950046,0.39192038948511154,2,left
10.376,0.06824536262264637,1.5135972276127119,-0.009263324534296425,-1.0786656446759526,2.303487269590888,-0.7994861761496896,-0.09149815025077443,0.6510125832161763,0.4047916520622708,2,left
10.377,0.0712066173049282,1.5141361367770068,-0.007023728037839339,-1.1215967634751003,2.366327426261045,-0.8010519376544667,-0.0925281691468172,0.6594245146616907,0.417982711085276,2,left
10.380999999999998,0.07435596982697111,1.5144305953739419,-0.004791437866029976,-1.1647306951757754,2.429670476041235,-0.8023399523301025,-0.09360955923986308,0.6677835640318592,0.431493454303587,2,left
10.382,0.07769157390661136,1.514479154142454,-0.0025678234339753313,-1.208032259931237,2.4934787199374835,-0.803344474701333,-0.09474364968488937,0.6760810588251105,0.4453235604795789,2,left
10.386,0.08121133187351487,1.5142805617678592,-0.00035417090266767304,-1.251465645159572,2.557713448520417,-0.8040600943056784,-0.0959317588379959,0.6843081810996089,0.45947249489447445,2,left
10.386,0.08491289861577912,1.5138337600474583,0.0018483204284247714,-1.2949944229071104,2.622334970431165,-0.8044817520927974,-0.0971751920067407,0.6924559782773241,0.47393950488769543,2,left
10.390999999999998,0.08879368613635788,1.5131378782249414,0.0040385412295301185,-1.338581570109942,2.6873026420099255,-0.8046047564289197,-0.09847523910045897,0.7005153746143682,0.4887236154693609,2,left
10.392000000000001,0.09285086868179505,1.5121922265520793,0.006215474721822876,-1.3821894918782314,2.752574898231629,-0.8044247987084036,-0.09983317218398148,0.708477183361216,0.5038236250465774,2,left
10.395,0.09708138840175103,1.5109962891611262,0.008378198705713382,-1.4257800479282947,2.8181092851342644,-0.8039379685736185,-0.10125024293832702,0.7163321196361953,0.5192381013050794,2,left
10.395999999999999,0.10148196149768643,1.5095497163529985,0.010525887013941013,-1.4693145822875753,2.8838624939264035,-0.8031407687434963,-0.1027276800321064,0.7240708140353797,0.5349653772886866,2,left
10.401,0.10604908481876651,1.507852316422999,0.01265781036895265,-1.5127539563977075,2.9497903969613457,-0.8020301294502266,-0.10426668640754182,0.7316838270017371,0.5510035477199552,2,left
10.402000000000001,0.11077904286005,1.5059040471577303,0.014773336622189354,-1.5560585857408082,3.015848085766055,-0.8006034224826912,-0.10586843648517474,0.7391616639760777,0.5673504656062993,2,left
10.405,0.1156679151129216,1.503705007145443,0.016871930353440267,-1.599188480113979,3.0819899113136784,-0.7988584748343381,-0.10753407329150967,0.7464947913520134,0.5840037391767613,2,left
10.405999999999999,0.1207115837123748,1.5012554270477936,0.018953151819711505,-1.64210328767672,3.1481695267289496,-0.7967935819523015,-0.109264705514017,0.7536736532567754,0.6009607291954967,2,left
10.411,0.1259057413220439,1.498555660982147,0.021016655266324933,-1.6847623428955745,3.214339932616143,-0.7944075205836629,-0.1110614044880992,0.7606886891793568,0.6182185466989308,2,left
10.412,0.13124589919754662,1.4956061781592176,0.023062186640819233,-1.7271247185098129,3.2804535251994826,-0.7916995612138382,-0.1129252011208074,0.7675303524670194,0.6357740512044223,2,left
10.415,0.13672739537157913,1.4924075549123668,0.025089580772749257,-1.7691492816413592,3.3464621474660303,-0.7886694800911552,-0.11485708275628238,0.7741891297107721,0.6536238494391381,2,left
10.415999999999999,0.14234540290863373,1.4889604672439938,0.02709875809102041,-1.8107947541714122,3.412317143501028,-0.7853175708307658,-0.11685798998808379,0.780655561039951,0.6717642946387117,2,left
10.42,0.1480949381833903,1.4852656840004816,0.02908972094103371,-1.8520197775053757,3.4779694162055286,-0.7816446555901128,-0.11892881342415867,0.7869202613100224,0.690191486441396,2,left
10.421,0.15397086914705158,1.4813240607670788,0.031062549542167292,-1.8927829818467277,3.54336948858583,-0.7776520958072476,-0.12107039041237126,0.7929739419896644,0.7089012712806914,2,left
10.422,0.1599679235593632,1.4771365345493088,0.03301739760261475,-1.9330430600993802,3.6084675688037895,-0.7733418024923729,-0.12328350173826892,0.7988074332330363,0.7278892429578375,2,left
10.425,0.1660806971746318,1.4727041192886683,0.03495448758858298,-1.9727588465168677,3.6732136191765203,-0.7687162460620591,-0.12556886830893524,0.8044117054450145,0.7471507429528078,2,left
10.425999999999998,0.1723036618738589,1.4680279022536782,0.03687410562829118,-2.011889400215376,3.737557429313231,-0.7637784657046712,-0.1279271478350087,0.8097778898241266,0.7666808601568237,2,left
10.429,0.1786311737368168,1.4631090413431302,0.03877659602120509,-2.0503940935137646,3.8014486934238922,-0.7585320782372339,-0.13035893151959665,0.8148972976868611,0.786474429932644,2,left
10.43,0.18505748105332356,1.457948763326136,0.04066235532473479,-2.088232704300089,3.8648370910722742,-0.7529812862760887,-0.13286474076104599,0.8197614385539257,0.8065260325332361,2,left
10.431,0.1915767322809348,1.4525483630250493,0.04253182600432283,-2.125365510250699,3.927672369274748,-0.7471308852962538,-0.13544502387634652,0.8243620370138472,0.8268299909349194,2,left
10.436,0.19818298396231113,1.4469092034268674,0.04438548965643309,-2.1617533819641066,3.9899044230838014,-0.7409862690165369,-0.1381001528521541,0.8286910483786061,0.8473803681418364,2,left
10.437000000000001,0.20487020861880664,1.441032716684889,0.04622385985035533,-2.1973578728320002,4.051483372554919,-0.7345534326835568,-0.14083042013063282,0.8327406731452573,0.8681709640193366,2,left
10.439,0.21163230263961288,1.4349204059429432,0.04804747468456673,-2.232141304839487,4.112359635363878,-0.7278389740735091,-0.1436360354375298,0.8365033702767394,0.8891953117145929,2,left
10.44,0.21846309418824664,1.4285738478821128,0.049856889201698354,-2.2660668502465993,4.172483995100915,-0.7208500921666454,-0.14651712266011063,0.8399718693142885,0.91044667372347,2,left
10.446,0.22535635114724484,1.4219946958602236,0.05165266782815398,-2.2990986092532655,4.23180766541855,-0.7135945834760008,-0.14947371678279897,0.843139181333077,0.9319180376633587,2,left
10.447000000000001,0.23230578911563038,1.415184683491688,0.05343537698769357,-2.331201683747594,4.290282350207838,-0.7060808360110947,-0.15250576088858064,0.8459986087518692,0.953602111812357,2,left
10.45,0.23930507946450363,1.4081456285025746,0.05520557799461384,-2.362342247234845,4.34786029997568,-0.6983178208565448,-0.15561310323444885,0.8485437540066422,0.9754913204758335,2,left
10.45,0.24634785744974716,1.4008794366953097,0.05696382028762803,-2.392487611041908,4.404494364593493,-0.6903150813447705,-0.1587954944093839,0.8507685270972585,0.9975777992420394,2,left
10.454,0.2534277303812274,1.393388105869098,0.0587106350405749,-2.4216062868894457,4.460138042585133,-0.6820827198012184,-0.16205258458357708,0.8526671520153891,1.0198533901890432,2,left
10.455,0.2605382858528453,1.3856737295635055,0.060446529180458015,-2.449668045921073,4.514745527119364,-0.6736313818398307,-0.1653839208578252,0.8542341720609862,1.0423096371058551,2,left
10.459000000000001,0.2676731000415384,1.3777385005202993,0.06217197983853338,-2.4766439742761244,4.568271748869469,-0.6649722381857879,-0.16878894472223674,0.8554644540536839,1.0649377807911728,2,left
10.460999999999999,0.27482574608303695,1.369584713789292,0.06388742924094576,-2.5025065252895775,4.6206724158997705,-0.6561169640018985,-0.17226698963360587,0.8563531914445698,1.087728754493718,2,left
10.464,0.28198980253063805,1.3612147694348835,0.06559328001754414,-2.5272295683996964,4.671904050735808,-0.6470777156943831,-0.17581727872102257,0.8568959063328183,1.1106731795586617,2,left
10.465,0.28915886190549106,1.3526311748288005,0.06728989088933365,-2.550788434840822,4.721924024771861,-0.6378671051732021,-0.17943892262949965,0.8570884503907086,1.1337613613451185,2,left
10.469000000000001,0.29632653935516773,1.3438365465389517,0.0689775726967026,-2.5731599601955533,4.770690590166263,-0.6284981715415129,-0.18313091751160637,0.856927004699572,1.1569832854801638,2,left
10.47,0.3034864814505709,1.334833611843214,0.07065658474700427,-2.5943225238772896,4.818162909371576,-0.6189843501883183,-0.1868921431773057,0.8564080784982177,1.1803286145152665,2,left
10.472999999999999,0.31063237516796877,1.325625209910166,0.07232713147813156,-2.614256085610759,4.864301082443235,-0.6093394392578735,-0.19072136141239696,0.8555285068443816,1.2037866850514414,2,left
10.474,0.3177579571208331,1.3162142926958653,0.07398935944285255,-2.632942218974759,4.909066172266661,-0.599577563468966,-0.19461721447616773,0.8542854471887288,1.2273465053998098,2,left
10.479000000000001,0.32485702311909476,1.306603925606912,0.07564335461241489,-2.6503641420678545,4.9524202278391485,-0.5897131352567686,-0.1985782237890574,0.8526763748599103,1.250996753844611,2,left
10.48,0.33192343813363,1.29679728797668,0.07728913997974225,-2.6665067453542615,4.994326305738973,-0.5797608132095876,-0.20260278882132973,0.850699077458142,1.2747257775760252,2,left
10.482999999999999,0.33895114672782345,1.2867976733965543,0.0789266734196381,-2.681356616743562,5.034748489910232,-0.5697354577724933,-0.20668918619394266,0.8483516481537288,1.2985215923604725,2,left
10.484000000000002,0.3459341839878279,1.2766084899400567,0.08055584574534898,-2.694902063954261,5.073651909887898,-0.5596520841895295,-0.2108355690029912,0.8456324778859073,1.3223718830162965,2,left
10.489,0.3528666869458858,1.266233260314312,0.08217647889536618,-2.70713313420753,5.111002757583378,-0.5495258126559394,-0.21503996637487327,0.8425402464869444,1.346264004745705,2,left
10.49,0.3597429064604664,1.2556756219662353,0.08378832419381,-2.718041631293779,5.146768302746638,-0.5393718156516437,-0.21930028323746664,0.8390739129084721,1.370184985287668,2,left
10.49,0.366557219499553,1.2449393271584528,0.08539106064804558,-2.7276211300509403,5.180916907216568,-0.5292052624270348,-0.22361430025310616,0.835232705001572,1.3941215277011703,2,left
10.493,0.3733041417540377,1.2340282430176488,0.08698429327045118,-2.7358669882895894,5.213418038066829,-0.5190412606120293,-0.227979673837278,0.8310161094541484,1.4180600135019876,2,left
10.494000000000002,0.37997834047203727,1.222946351551,0.08856755143334892,-2.742776356196219,5.244242279749837,-0.508894794919243,-0.23239393620914703,0.8264238623349598,1.4419865059625876,2,left
10.498,0.3865746473644584,1.2116977496217105,0.09014028728872353,-2.7483481832421814,5.2733613453369514,-0.49878066291211537,-0.23685449545985854,0.8214559404169979,1.4658867535402555,2,left
10.499,0.39308807141076146,1.2002866488677542,0.09170187430577315,-2.7525832226234055,5.3007480869364265,-0.48871340793348644,-0.24135863564674112,0.8161125532987251,1.489746193484912,2,left
10.499,0.39951381140263575,1.1887173755399387,0.09325160599024654,-2.755484033259302,5.3263765053074446,-0.47870724991354696,-0.2459035169260867,0.8103941363099754,1.5135499556953298,2,left
10.503,0.40584726809375987,1.176994370228732,0.09478869484641149,-2.757054979388275,5.350221758578272,-0.46877601589821677,-0.25048617573731535,0.8043013441882491,1.5372828668923717,2,left
10.504000000000001,0.4120840558475488,1.1651221874435036,0.09631227163741284,-2.757302227800556,5.372260169913124,-0.4589330727625064,-0.25510352505145856,0.7978350455100518,1.5609294551777608,2,left
10.508,0.41822001367289957,1.1531054950028845,0.09782138500345598,-2.756233742738116,5.392469234025786,-0.44919126395022846,-0.2597523546970103,0.7909963178608524,1.5844739550467362,2,left
10.508,0.42425121552686346,1.1409490731922303,0.09931500150335192,-2.75385927847475,5.410827622538213,-0.4395628509595901,-0.264429331776304,0.7837864437261581,1.6079003129227336,2,left
10.512,0.430173979764684,1.128657813644114,0.10079200614335368,-2.750190369578483,5.427315188235696,-0.43005945967108994,-0.2691310011856733,0.7762069070851323,1.6311921932819926,2,left
10.513,0.43598487763127,1.1162367178998913,0.10225120344725273,-2.745240318853251,5.441912968276564,-0.42069203148976203,-0.2738537862527439,0.7682593906871132,1.6543329854356879,2,left
10.517999999999999,0.4416807407064793,1.1036908956144957,0.10369131910706664,-2.739024182953064,5.454603186409164,-0.4114707792741301,-0.27859398950428527,0.7599457739903246,1.6773058110368508,2,left
10.519,0.4472586672370562,1.091025562372414,0.10511100223738815,-2.731558755658131,5.465369254243401,-0.40240514802459565,-0.28334779357811996,0.7512681317410069,1.700093532378956,2,left
10.524000000000001,0.4527160273091024,1.0782460370898737,0.10650882824026034,-2.7228625487987714,5.474195771618763,-0.3935037803043715,-0.28811126229265177,0.7422287331701437,1.722678761552612,2,left
10.525,0.4580504668358691,1.0653577389870297,0.10788330227180698,-2.7129557708092813,5.481068526105236,-0.38477448636649186,-0.29288034188762035,0.7328300417839025,1.745043870526316,2,left
10.527000000000001,0.4632599103564427,1.0523661841243983,0.10923286328830453,-2.701860302890356,5.485974491668018,-0.3762242189608732,-0.29765086244973,0.7230747157228696,1.7671710022166978,2,left
10.527999999999999,0.46834256265962715,1.0392769815091694,0.11055588863877136,-2.6895996727551217,5.48890182652133,-0.36785905279587183,-0.3024185395368299,0.7129656086641131,1.7890420826130955,2,left
10.532,0.47329690926153994,1.0260958287881226,0.11185069916086583,-2.6761990259303747,5.489839870191074,-0.3596841686292766,-0.307178976014335,0.702505771239082,1.8106388340206754,2,left
10.533,0.4781217157748335,1.0128285075533057,0.11311556472503541,-2.6616850945811947,5.488779139800385,-0.35170384196418725,-0.31192766411758416,0.6916984529393231,1.8319427894856202,2,left
10.537,0.4828160262131584,0.999480878294438,0.1143487101613553,-2.646086163823771,5.485711325586474,-0.34392143632575756,-0.31665998775382165,0.6805471044809801,1.8529353084651776,2,left
10.538,0.4873791602774583,0.9860588750389223,0.11554832149827882,-2.6294320354880005,5.480629285651419,-0.3363394010953294,-0.3213712250574683,0.6690553805980352,1.87359759380457,2,left
10.543,0.4918107096713804,0.9725684997256345,0.11671255244314076,-2.6117539892882236,5.4735270399438605,-0.32895927387903917,-0.3260565512123132,0.6572271432332513,1.8939107100819252,2,left
10.543,0.4961105334916626,0.9590158163612288,0.11783953103946868,-2.5930847413573503,5.4643997634627555,-0.3217816873885453,-0.3307110415542116,0.6450664650947926,1.9138556033814977,2,left
10.547,0.5002787527360916,0.9454069450078179,0.11892736644528087,-2.573458400096604,5.453243778668593,-0.3148063808120983,-0.33532967496781196,0.632577633545515,1.9334131225544917,2,left
10.548,0.5043157439675934,0.9317480556490281,0.1199741557883116,-2.552910419290164,5.4400565470816495,-0.30803221565475475,-0.3399073375907613,0.6197651547909567,1.952564042025802,2,left
10.552,0.5082221321705727,0.918045361977792,0.1209779910659768,-2.531477548431154,5.424836660041051,-0.3014571960271142,-0.3444388268387499,0.6066337583311058,1.9712890862039252,2,left
10.552,0.511998782836755,0.9043051151442918,0.12193696606785862,-2.5091977802026633,5.407583828592601,-0.29507849336253916,-0.3489188557646508,0.5931884016400745,1.9895689555501894,2,left
10.557,0.5156467933216266,0.8905335974969723,0.12284918330603979,-2.4861102950548646,5.388298872467471,-0.2888924755433931,-0.35334205776489536,0.5794342750368859,2.007384354362268,2,left
10.558,0.5191674835160719,0.8767371163440341,0.12371276094391354,-2.4622554028167265,5.366983708108056,-0.28289474041740226,-0.357702991640407,0.5653768067086136,2.0247160202763017,2,left
10.558,0.5225623858781528,0.8629219977555914,0.12452583971738632,-2.4376744812784072,5.3436413356914,-0.27708015368580924,-0.3619961469908566,0.5510216678409849,2.041544755243495,2,left
10.562000000000001,0.5258332348674434,0.8490945804160295,0.1252865898435263,-2.4124099116780893,5.31827582509483,-0.27144289114553766,-0.3662159498696949,0.536374777801263,2.0578514572908255,2,left
10.562999999999999,0.5289819558246839,0.8352612095274224,0.1259932179098656,-2.3865050110248185,5.290892300742541,-0.2659764852681276,-0.3703567685988255,0.5214423093121145,2.073617152126944,2,left
10.568,0.5320106533472096,0.8214282307650795,0.12664397373477948,-2.3600039611868238,5.261496925266111,-0.26067387609872533,-0.3744129196699992,0.5062306935595537,2.0888230239000634,2,left
10.568,0.5349215992202623,0.8076019842912265,0.12723715719089462,-2.332951734736234,5.230096881961201,-0.25552746636629964,-0.3783786737109454,0.4907466251866214,2.103450444858047,2,left
10.569,0.5377172199661825,0.793788798832572,0.12777112498877663,-2.305394017856279,5.1967003562925616,-0.25052918023365517,-0.38224826152244046,0.4749970671288715,2.117481003906507,2,left
10.571,0.5404000840669868,0.7799949858211681,0.12824429741945895,-2.2773771311859785,5.161316517189882,-0.24567052428271102,-0.3860158801979531,0.4589892552479809,2.130896534108556,2,left
10.572000000000001,0.5429728889119865,0.7662268335944525,0.128655165048348,-2.248947949792742,5.123955499146868,-0.24094264886786945,-0.3896756993372478,0.4427307027190146,2.1436791391681935,2,left
10.575999999999999,0.5454384475283393,0.7524906016550756,0.1290022953444979,-2.2201538231448485,5.084628385854572,-0.23633640843381626,-0.39322186736504794,0.4262292041261186,2.1558112189375955,2,left
10.577,0.5477996751617041,0.7387925149999384,0.12928433922317972,-2.19104249538383,5.043347195598132,-0.23184242022806412,-0.3966485179655712,0.4094928392206701,2.1672754939868044,2,left
10.581,0.550059575777097,0.725138758535369,0.12950003747635044,-2.1616620258785963,5.000124868364754,-0.22745112130201825,-0.3999497766434384,0.3925299762951956,2.17805502927251,2,left
10.582,0.5522212285470061,0.7115354715999036,0.12964822706289295,-2.132060709978692,4.9549752545499635,-0.2231528237873123,-0.4031197674211291,0.37534927512566957,2.1881332569407244,2,left
10.585999999999999,0.5542877743898661,0.6979887426173116,0.12972784722647476,-2.1022869998831486,4.907913105143588,-0.218937768434483,-0.40615261968281563,0.3579596894341326,2.1974939982962614,2,left
10.585999999999999,0.5562624026198149,0.6845046039006815,0.12973794540255992,-2.0723894255406403,4.858954063271314,-0.21479617640134832,-0.4090424751740475,0.3403704688229182,2.2061214849699384,2,left
10.591,0.5581483377675249,0.6710890266243948,0.1296776828684771,-2.042416515496011,4.80811465696217,-0.21071829927872018,-0.4117834951663789,0.3225911601311518,2.214000379312432,2,left
10.592,0.5599488266292932,0.6577479159754167,0.12954634008425367,-2.012416717597743,4.755412293006745,-0.2066944673413219,-0.4143698677956395,0.30463160816358603,2.2211157940416313,2,left
10.597000000000001,0.561667125596672,0.6444871064898717,0.1293433216687942,-1.9824383194805848,4.700865251765558,-0.20271513601199156,-0.41679581558213824,0.28650195574126436,2.2274533111682464,2,left
10.597000000000001,0.5633064883134786,0.6313123575763337,0.12906816095573628,-1.9525293687373395,4.64449268278155,-0.19877093052743602,-0.41905560314066154,0.26821264302295833,2.2329990002222773,2,left
10.603,0.5648701537018211,0.6182293492232402,0.12872052407654963,-1.9227375926937378,4.586314601045345,-0.1948526887939556,-0.4211435450876828,0.2497744060458076,2.2377394358007465,2,left
10.604000000000001,0.5663613343927573,0.6052436778839589,0.12830021352622042,-1.8931103177003714,4.526351883756622,-0.19095150242168749,-0.42305401415274113,0.2311982744331036,2.2416617144548736,2,left
10.605,0.5677832055901875,0.5923608525299446,0.12780717117763962,-1.863694387855879,4.464626267419701,-0.18705875592601812,-0.4247814495004679,0.21249556821669943,2.244753470932595,2,left
10.606,0.5691388943899653,0.5795862908606555,0.12724148072172842,-1.8345360830758952,4.401160345106247,-0.18316616408488842,-0.42632036526924794,0.1936778937211022,2.2470028937900204,2,left
10.612,0.5704314695716707,0.5669253156576907,0.12660336952084483,-1.8056810364227587,4.335977563712894,-0.17926580744076676,-0.4276653593319903,0.174757138455907,2.2483987403830614,2,left
10.613,0.5716639318790413,0.5543831512693677,0.12589320987374122,-1.7771741506115675,4.2691022210365075,-0.17535016593608904,-0.428811122283961,0.1557454649628704,2.248930351248096,2,left
10.615,0.5728392048062065,0.5419649202112133,0.12511151970031392,-1.749059513608924,4.200559462484822,-0.17141215067096655,-0.42975244666208573,0.13665530356359032,2.2485876638781,2,left
10.616,0.5739601259094566,0.5296756398679756,0.1242589626618768,-1.7213803132415662,4.130375277235248,-0.16744513377194023,-0.43048423639957506,0.11749934395346498,2.2473612258982394,2,left
10.620999999999999,0.5750294386678585,0.5175202192838357,0.12333634773641598,-1.6941787507330932,4.058576493649793,-0.16344297636051816,-0.43100151651915325,0.0982905255873413,2.2452422076424208,2,left
10.622,0.5760497849196228,0.5055034560300111,0.12234462826769169,-1.6674959530881073,3.9851907737492422,-0.1594000546101687,-0.43129944306758233,0.07904202680203982,2.2422224141298037,2,left
10.625,0.5770236979026032,0.4936300331428238,0.12128490050368511,-1.6413718842443519,3.9102466065450403,-0.15531128388035984,-0.43137331329357476,0.0597672526207537,2.238294296437725,2,left
10.626,0.5779535959256651,0.4819045161289034,0.12015840163672098,-1.61584525491479,3.833773300022666,-0.1511721409161357,-0.43121857606014147,0.04047982120680477,2.233450962466501,2,left
10.626,0.5788417766937458,0.47033135003492804,0.11896650735570975,-1.5909534310430569,3.7558009715657623,-0.14697868410160517,-0.43083084242965997,0.0211935490473071,2.227686187096818,2,left
10.63,0.5796904123051263,0.4589148565770689,0.11771072891918792,-1.5667323407973217,3.676360536605768,-0.14272757175558656,-0.4302058962654562,0.0019224351509397406,2.2209944217518975,2,left
10.630999999999998,0.5805015449375228,0.447659231325098,0.11639270975568572,-1.5432163800293077,3.5954836952774443,-0.13841607845750964,-0.42933970464090454,-0.017319355342824357,2.213370803381861,2,left
10.635,0.5812770832408469,0.43656854094215247,0.11501422159606352,-1.5204383161270414,3.513202916856362,-0.1340421093915206,-0.42822842789851717,-0.036517507858863735,2.204811162877197,2,left
10.636,0.5820187994546342,0.4256467204892901,0.11357716014108028,-1.4984291903618376,3.429551421834586,-0.12960421268905384,-0.4268684292946542,-0.055657575305441,2.195312032901511,2,left
10.637,0.5827283272634828,0.4148975708061777,0.11208354026689327,-1.477218219682104,3.344563161908515,-0.12510158971236904,-0.4252562842169319,-0.07472499524973206,2.1848706551232095,2,left
10.638,0.5834071603961263,0.4043247559744238,0.11053549077287285,-1.4568327004387769,3.2582727989081874,-0.12053410315370809,-0.4233887889711289,-0.09370510740497193,2.1734849868215225,2,left
10.642000000000001,0.5840566519660647,0.3939318008662619,0.10893524868174333,-1.4372979173794693,3.1707156841152746,-0.11590228278695161,-0.4212629691336758,-0.1125831714841703,2.1611537068395674,2,left
10.642999999999999,0.5846780145450448,0.3837220887847844,0.1072851531107949,-1.4186370604006289,3.0819278389912803,-0.11120732874606258,-0.4188760874650893,-0.13134438547514066,2.1478762208544593,2,left
10.647,0.585272320955152,0.37369885920871815,0.10558763874074076,-1.4008711500192728,2.9919459375743758,-0.10645111227208622,-0.41622565137898127,-0.14997390439133626,2.1336526659317525,2,left
10.648,0.585840505759992,0.363865205658179,0.10384522891305195,-1.384018971678244,2.900807290377791,-0.1016361739078843,-0.4133094199605284,-0.16845685955269252,2.1184839143287904,2,left
10.652000000000001,0.5863833674298702,0.3542240736976738,0.10206052838943949,-1.3680970188314254,2.8085498295347824,-0.09676571912712045,-0.4101254105275409,-0.1867783784503398,2.102371576508817,2,left
10.652000000000001,0.5869015711513813,0.3447782590918798,0.10023621581231901,-1.353119444757916,2.7152120949317546,-0.09184361138383856,-0.4066719047265116,-0.20492360524867242,2.085318003324998,2,left
10.657,0.5873956522496692,0.33553040612947876,0.09837503591291304,-1.3390980230567926,2.6208332210678087,-0.08687436256880943,-0.402947454155263,-0.2228777219778385,2.0673262873307743,2,left
10.658,0.5878660201909855,0.32648300613003445,0.09647979152109762,-1.3260421167767498,2.5254529243757626,-0.08186312085866211,-0.3989508855030426,-0.24062597046925108,2.048400263170268,2,left
10.662,0.5883129631315964,0.317638396148856,0.09455333543573055,-1.3139586561376129,2.429111490736597,-0.07681565594367001,-0.39468130519814126,-0.25815367508621523,2.028544506999755,2,left
10.663,0.5887366529762239,0.3089987578956539,0.09259856221564129,-1.3028521248034666,2.331849762916288,-0.0717383416199273,-0.39013810355233397,-0.275446266301217,2.0077643348885346,2,left
10.665999999999999,0.589137150908412,0.300566116883847,0.09061839994987023,-1.2927245546699115,2.2337091276511103,-0.0666381357315323,-0.3853209583906591,-0.29248930517082833,1.9860658001448246,2,left
10.667,0.5895144133578479,0.2923423418278981,0.08861580206130153,-1.2835755291307376,2.1347315021047324,-0.061522557448291354,-0.3802298381542701,-0.30926850875854894,1.9634556895096655,2,left
10.672,0.5898682983721896,0.2843291443069995,0.08659373919137395,-1.2754021947921204,2.0349593194177897,-0.05639966186437257,-0.3748650044633067,-0.3257697765552313,1.9399415181591415,2,left
10.672,0.5901985723599664,0.27652807871492135,0.08455519120635316,-1.2681992816052414,1.9344355130680926,-0.051278011903273836,-0.36922701412594827,-0.3419792179460178,1.915531523452603,2,left
10.677,0.5905049171666736,0.26894054251620164,0.08250313935924683,-1.2619591313910459,1.8332034997572235,-0.0461666475144271,-0.3633167205790233,-0.3578831807719623,1.8902346573619517,2,left
10.677,0.5907869374401198,0.26156777682769317,0.08044055863724035,-1.2566717347336442,1.7313071605370012,-0.04107505214674037,-0.3571352747447656,-0.3734682810337093,1.864060577514462,2,left
10.681,0.5910441682356155,0.2544108673423945,0.07837041032226166,-1.2523247762216512,1.628790819887121,-0.03601311648438379,-0.3506841252875216,-0.3887214337837671,1.8370196367790252,2,left
10.682,0.5912760828075718,0.24747074560880425,0.0762956347898213,-1.2489036880195126,1.525699222453257,-0.030991099430156717,-0.34396501825343334,-0.4036298852530342,1.8091228713231742,2,left
10.686,0.5914821005311265,0.24074819067320455,0.07421914456695196,-1.2463917117536059,1.4220775071530003,-0.026019586321830226,-0.33697999607534224,-0.41818124625632264,1.7803819870657172,2,left
10.687000000000001,0.5916615948952052,0.23424383108536762,0.07214381766452921,-1.2447699687005958,1.317971178355226,-0.021109444366945524,-0.32973139592438505,-0.4323635269206679,1.7508093444473198,2,left
10.690999999999999,0.5918139015063042,0.22795814726151267,0.07007249119462312,-1.2440175382681777,1.2134260738368345,-0.016271775281664166,-0.3222218473889839,-0.44616517277922846,1.720417941438926,2,left
10.692,0.591938326039782,0.22189147419205132,0.06800795528166222,-1.2441115447609565,1.108488329219284,-0.011517865119411642,-0.3144542694611699,-0.45957510227255055,1.6892213947054748,2,left
10.696,0.5920341520754622,0.21604400447538855,0.065952947277492,-1.2450272524267527,1.0032043385859444,-0.006859131275232636,-0.3064318668246567,-0.47258274562260355,1.6572339188981058,2,left
10.697000000000001,0.5921006487614572,0.21041579165354152,0.06391014629252703,-1.2467381687811285,0.897620710980044,-0.0023070666519849777,-0.2981581255145044,-0.4851780846673499,1.6244703043362576,2,left
10.697000000000001,0.5921370782622901,0.20500675382135813,0.06188216805452314,-1.2492161562103488,0.791784222481847,0.002126819025259909,-0.2896368081545834,-0.49735169256469053,1.5909458938617924,2,left
10.700999999999999,0.5921427029541294,0.1998166774772223,0.05987156010346276,-1.2524315518553508,0.6857417635627115,0.0064310607599686095,-0.2808719490544888,-0.509094771896922,1.5566765599355776,2,left
10.702,0.5921167923264213,0.19484522157838408,0.05788079732941156,-1.256353295579544,0.5795402815887124,0.010594302610069092,-0.27186784937066194,-0.5203991900822108,1.5216786827541493,2,left
10.702,0.5920586295451727,0.19009192176133502,0.05591227786032292,-1.2609490648152888,0.47322671922526793,0.01460536418356426,-0.26262907239865574,-0.5312575116761744,1.485969129638876,2,left
10.706,0.5919675176373789,0.18555619468906198,0.05396831930670924,-1.2661854132677184,0.36684795107668905,0.018453307770690364,-0.25316043898660767,-0.5416630275219751,1.449565235657325,2,left
10.707,0.5918427852631706,0.18123734248859302,0.05205115537113403,-1.2720279094464166,0.2604507217735952,0.02212750406390844,-0.24346702304406456,-0.5516097807813862,1.412484785376329,2,left
10.710999999999999,0.5916837920456577,0.1771345572396345,0.0501629328333528,-1.2784412720075764,0.1540815878413358,0.02561769493174216,-0.23355414711962835,-0.561092589878009,1.3747459956442025,2,left
10.712,0.5914899334316607,0.1732469254707984,0.048305708922844595,-1.2853895007094014,0.04778686409929958,0.02891405263929898,-0.22342737802023324,-0.5701070683825193,1.3363674992975714,2,left
10.716,0.5912606450634346,0.1695734326184507,0.046481449087779146,-1.2928360027954258,-0.05838742553854198,0.032007235422975205,-0.2130925224442194,-0.5786496418685069,1.2973683296863316,2,left
10.717,0.5909954066501596,0.1661129674043893,0.04469202516683606,-1.3007437148240986,-0.16439559316732752,0.03488843942935011,-0.2025556225997374,-0.5867175617661409,1.2577679059083637,2,left
10.720999999999998,0.5906937453353335,0.16286432609060805,0.04293921396920575,-1.309075219964513,-0.2701923282044925,0.03754944702771868,-0.19182295177940512,-0.5943089162395485,1.217586018643793,2,left
10.720999999999998,0.5903552385609296,0.15982621657290613,0.04122469626578988,-1.3177928607795948,-0.3757327352173618,0.0399826715051298,-0.1809010098615405,-0.6014226381124425,1.176842816476802,2,left
10.725,0.5899795164326456,0.15699726228094232,0.03955005619032072,-1.3268588475193834,-0.4809723685695835,0.042181198152189306,-0.16979651870771384,-0.6080585098651694,1.1355587925912771,2,left
10.725999999999999,0.5895662635955712,0.15437600585991776,0.0379167810449857,-1.3362353619482619,-0.5858672641902334,0.04413882174725577,-0.1585164174258019,-0.6142171657249859,1.0937547717249023,2,left
10.73,0.5891152206368233,0.15196091261746708,0.036326261501829264,-1.3458846567310954,-0.6903739687686835,0.04585008044600429,-0.1470678574671822,-0.6199000908699958,1.0514518972646956,2,left
10.731,0.5886261850399754,0.14975037372814004,0.03477979218678423,-1.3557691504042408,-0.7944495666774657,0.04731028608266053,-0.13545819752618224,-0.6251096177658158,1.008671618365441,2,left
10.737,0.5880990117239924,0.14774270919715077,0.03327857262579894,-1.3658515179582855,-0.8980517049243715,0.048515550888517264,-0.1236949982093942,-0.6298489196526614,0.9654356769709652,2,left
10.738,0.5875336132040482,0.14593617059474892,0.03182370852242367,-1.3760947770601495,-1.001138616433917,0.049462810632639055,-0.1117860164419828,-0.6341220011991876,0.9217660946167824,2,left
10.74,0.586929959411222,0.1443289435816604,0.03041621332564097,-1.386462369942871,-1.1036691419570601,0.05014984418894165,-0.09973919957765055,-0.6379336863380526,0.8776851588912553,2,left
10.741,0.5862880772044935,0.14291915025356344,0.029057010038635315,-1.3969182409919563,-1.2056027509067042,0.05057528953310185,-0.08756267917848494,-0.6412896032968314,0.8332154094311179,2,left
10.745999999999999,0.5856080496040027,0.14170485133820146,0.027746933215739917,-1.4074269100576415,-1.3068995614150398,0.05073865617201428,-0.07526476443049308,-0.6441961668365631,0.7883796233259547,2,left
10.747,0.5848900147696858,0.14068404828282619,0.026486731096132556,-1.417953541522776,-1.4075203599071802,0.05064033400776587,-0.06285393516023446,-0.6466605577088956,0.7432007998050527,2,left
10.75,0.5841341647450172,0.1398546852724756,0.025277067827286625,-1.4284640091562804,-1.5074266204838322,0.05028159863734916,-0.05033883441758926,-0.6486906993414794,0.6977021440789256,2,left
10.751,0.5833407439832746,0.13921465122042198,0.024118525736499936,-1.4389249567823013,-1.6065805244039184,0.049664613088584456,-0.03772826058935221,-0.6502952317599787,0.6519070502067575,2,left
10.755,0.5825100476745161,0.13876178177054502,0.023011607614671963,-1.4493038547952233,-1.7049449799561205,0.048792425991971346,-0.025031159008017657,-0.6514834827537948,0.6058390828600313,2,left
10.755999999999998,0.5816424198955414,0.13849386134799316,0.02195673898400655,-1.4595690525506624,-1.8024836430062725,0.04766896618744359,-0.012256613019821923,-0.6522654362913531,0.5595219578516852,2,left
10.759,0.5807382516111727,0.13840862528976183,0.020954270328439228,-1.469689826662423,-1.899160938505361,0.046299033764261366,0.0005861655241642998,-0.6526516981895829,0.5129795212992914,2,left
10.76,0.5797979785606195,0.13850376208103893,0.02000447926854182,-1.4796364252351626,-1.9949420832406322,0.04468828753154403,0.013487846390349516,-0.6526534590410247,0.46623572728996626,2,left
10.765,0.5788220790661577,0.13877691571646367,0.01910757266316537,-1.4893801080621951,-2.0897931101099307,0.042843228916226155,0.026438991713769615,-0.6522824544652781,0.419314613981693,2,left
10.765999999999998,0.5778110718018419,0.13922568819797107,0.018263688622966526,-1.4988931828174326,-2.1836808941969226,0.04077118228451368,0.03943006728744902,-0.6515509230725851,0.37224027841350793,2,left
10.765999999999998,0.576765513556758,0.13984764217396956,0.017472898425692,-1.5081490372699855,-2.2765731809222847,0.038480271682226785,0.05245145410827882,-0.6504715631062311,0.32503685090558493,2,left
10.77,0.5756859970244367,0.1406403037194375,0.01673520832531235,-1.5171221675493485,-2.3684386165432696,0.035979393988745036,0.06549345979161142,-0.6490574890515939,0.2777284702681643,2,left
10.770999999999999,0.5745731486515149,0.14160116525311484,0.016050561246049973,-1.5257882025033795,-2.4592467811350933,0.03327818853737167,0.07854632957313228,-0.6473221891764201,0.23033926069941033,2,left
10.770999999999999,0.5734276265798405,0.1427276885863616,0.015418838351277706,-1.5341239242652072,-2.5489682235037385,0.030387003548066407,0.09160025680789909,-0.6452794843859163,0.18289331064275247,2,left
10.774000000000001,0.5722501187120773,0.14401730809731506,0.014839860478117086,-1.5421072852787958,-2.637574496251027,0.027316860246661412,0.10464539298274451,-0.6429434884530654,0.13541465353554144,2,left
10.774000000000001,0.5710413409266439,0.14546743402029869,0.01431338943018082,-1.5497174221066954,-2.7250381885287847,0.024079415837860774,0.11767185727951879,-0.6403285696192129,0.0879272503129368,2,left
10.780999999999999,0.569802035469215,0.14707545583303394,0.013839129122034489,-1.5569346662678696,-2.811332954696803,0.020686926205019964,0.13066974572665135,-0.6374493135590861,0.04045497353077683,2,left
10.783,0.5685329695517235,0.14883874571673045,0.013416726569992597,-1.5637405522181027,-2.896433538321883,0.01715220868042196,0.1436291399764854,-0.6343204877035645,-0.006978407028910197,2,left
10.784,0.5672349341901088,0.15075466205978758,0.013045772725397366,-1.5701178225097352,-2.9803157916329663,0.013488604935528035,0.15654011574578575,-0.6309570069127238,-0.0543492374061212,2,left
10.785,0.565908743307663,0.15282055297444053,0.01272580314846499,-1.5760504301514213,-3.0629566906802004,0.00970994398148506,0.16939275095673795,-0.6273739004909112,-0.10163399130114358,2,left
10.789000000000001,0.5645552331235283,0.15503375979616568,0.012456298522674481,-1.5815235381874224,-3.1443343464423603,0.005830505269763793,0.18217713361564616,-0.623586280534898,-0.1488092808390833,2,left
10.789000000000001,0.5631752618381889,0.15739162053786726,0.012236685011015963,-1.5865235165147236,-3.224428012123543,0.001864981882433303,0.19488336946639837,-0.6196093116054773,-0.1958518663966887,2,left
10.794,0.5617697096209303,0.15989147327465983,0.012066334456396441,-1.5910379359549842,-3.303218086876494,-0.0021715561987527376,0.20750158945559957,-0.615458181712248,-0.2427386656272563,2,left
10.794,0.5603394788980313,0.16253065943947514,0.011944564429736699,-1.5950555595970126,-3.380686116186304,-0.006263698755570909,0.22002195704607802,-0.6111480746007354,-0.28944676181909057,2,left
10.799000000000001,0.5588854949351868,0.16530652701349455,0.011870638130383283,-1.5985663314241065,-3.4568147891445156,-0.010395731940203455,0.2324346754152446,-0.606694143330458,-0.33595341172260856,2,left
10.799000000000001,0.5574087067034099,0.1682164335981684,0.011843764143574027,-1.6015613622392002,-3.531587932839943,-0.014551674837336987,0.2447299945745329,-0.6021114851320467,-0.3822360529807335,2,left
10.802999999999999,0.5559100880134039,0.17125774935794097,0.011863096060086318,-1.6040329128993391,-3.604990504088714,-0.018715315993206263,0.2568982184458672,-0.5974151175310677,-0.42827231129670823,2,left
10.804,0.5543906388985411,0.17442785982530648,0.011927731966719127,-1.60597437486955,-3.6770085787221958,-0.02287024992341888,0.2689297119307947,-0.5926199557257863,-0.4740400074728815,2,left
10.808,0.5528513872218213,0.17772416856290435,0.012036713823127813,-1.6073802481046904,-3.7476293386475787,-0.02699991361146485,0.28081490800758346,-0.5877407912057403,-0.5195171644533753,2,left
10.808,0.5512933904787926,0.18114409968135736,0.012189026747050708,-1.6082461162663668,-3.8168410568919486,-0.031087623009836824,0.29254431489122057,-0.582792271597662,-0.5646820145028367,2,left
10.814,0.5497177377670452,0.184685100215248,0.012383598232708848,-1.608568619280485,-3.8846330808367107,-0.03511660955566123,0.3041085232908534,-0.577788881725008,-0.6095130066527052,2,left
10.815,0.5481255518926968,0.18834464236100082,0.012619297326138432,-1.6083454232394607,-3.950995813845217,-0.039070056712667944,0.31549821379879667,-0.5727449258671082,-0.6539888145455915,2,left
10.818,0.5465179915841576,0.19212022558003036,0.012894933778714097,-1.607575187651576,-4.015920695482402,-0.042931136551205146,0.3267041644447801,-0.5676745112037532,-0.6980883448074685,2,left
10.819,0.5448962537829597,0.19600937857055345,0.01320925719885087,-1.606257530038395,-4.079400180521149,-0.04668304637783752,0.33771725844863854,-0.5625915324308745,-0.7417907460764157,2,left
10.824000000000002,0.5432615759808859,0.2000096611119965,0.013560956223256468,-1.6043929878796004,-4.141427716926013,-0.05030904542584851,0.34852849220414245,-0.5575096575328596,-0.7850754188156402,2,left
10.824000000000002,0.5416152385730275,0.2041186657859046,0.013948657730934922,-1.601982977903036,-4.201997723000797,-0.05379249161770262,0.35912898352614236,-0.5524423146969664,-0.8279220260374124,2,left
10.828,0.5399585671977692,0.20833401957726091,0.014370926121493884,-1.5990297527161708,-4.261105563882331,-0.057116878410209675,0.3695099801926451,-0.5474026803552615,-0.8703105050634209,2,left
10.828,0.5382929350351846,0.21265338536053952,0.014826262674621418,-1.5955363547736316,-4.318747527558621,-0.060265871732771856,0.3796628688128601,-0.542403668339517,-0.9122210804458462,2,left
10.833,0.5366197650337704,0.2170744632746282,0.01531310500516074,-1.5915065676738855,-4.3749208005853655,-0.06322334702868503,0.3895791840516502,-0.537457920134532,-0.9536342781721966,2,left
10.834000000000001,0.5349405320339652,0.22159499199000884,0.01582982663055938,-1.586944864776594,-4.429623443670633,-0.06597342640900913,0.39925061822482905,-0.5325777962025949,-0.9945309412194072,2,left
10.835,0.53325676475874,0.22621274987160847,0.016374736670549023,-1.5818563551306122,-4.482854367293284,-0.0685005159280193,0.4086690312022932,-0.5277753682877281,-1.0348922462401797,2,left
10.838,0.5315700476462553,0.23092555604192322,0.016946079699123866,-1.57624672678812,-4.534613307486753,-0.07078934295755708,0.4178264604170556,-0.5230624124929675,-1.0746997206570539,2,left
10.839,0.5298820225035458,0.2357312713505157,0.017542035768234904,-1.5701221880141063,-4.584900801766821,-0.07282499348129542,0.42671513070074324,-0.518450402859937,-1.1139352591570684,2,left
10.839,0.5281943899620667,0.240627799256903,0.018160720623807004,-1.5634894076823953,-4.633718164910058,-0.07459294884901038,0.43532746374219594,-0.5139505052443825,-1.1525811388594809,2,left
10.843,0.5265089107166775,0.24561308663352857,0.018800186137818354,-1.556355456583166,-4.681067464136585,-0.07607912137455836,0.4436560871032965,-0.5095735713971246,-1.1906200329334873,2,left
10.844000000000001,0.5248274065293157,0.2506851244937451,0.019458420983421234,-1.5487277509301807,-4.726951493395374,-0.07726988831624197,0.4516938428021901,-0.50533013322437,-1.2280350227223888,2,left
10.847000000000001,0.5231517609773365,0.25584194864762616,0.020133351579304497,-1.5406139985709966,-4.771373746713825,-0.07815212405775977,0.45943379548861696,-0.5012303972144762,-1.2648096084851845,2,left
10.847999999999999,0.5214839199247076,0.2610816402875445,0.02082284332243417,-1.5320221479667397,-4.814338390717893,-0.07871323046283747,0.46686924023527043,-0.4972842390186188,-1.3009277188648332,2,left
10.853,0.5198258916913979,0.26640232650629064,0.021524702118783594,-1.5229603399195413,-4.855850236454588,-0.07894116540693344,0.47399370996825474,-0.49350119817319404,-1.3363737191906284,2,left
10.853,0.5181797468922054,0.2718021807528161,0.02223667621508709,-1.5134368620243477,-4.895914710644466,-0.07882446948852545,0.4808009825588627,-0.4898904729521987,-1.3711324187202982,2,left
10.857999999999999,0.5165476179121251,0.2772794232337404,0.022956458332529385,-1.5034601058204367,-4.9345378264875555,-0.07835229092156498,0.48728508759802114,-0.4864609153382733,-1.4051890769255526,2,left
10.859000000000002,0.514931697982887,0.2828323212707555,0.023681688104000644,-1.4930385266166295,-4.971726154141972,-0.07751440860972897,0.4934403128738547,-0.48322102610156004,-1.4385294089228728,2,left
10.863,0.5133342398259594,0.2884591896235463,0.024409954818128986,-1.4821806059628553,-5.007486790990342,-0.07630125340211046,0.49926121057191347,-0.4801789499760214,-1.4711395901493647,2,left
10.864,0.5117575538313613,0.29415839078555905,0.025138800474195477,-1.470894816739426,-5.041827331804992,-0.07470392752896973,0.5047426032166764,-0.4773424709233868,-1.5030062603814773,2,left
10.867,0.5102040057473968,0.29992833525705503,0.025865723151132003,-1.4591895908341022,-5.074755838918756,-0.07271422221511824,0.5098795893720037,-0.47471900747543583,-1.534116527192341,2,left
10.869000000000002,0.5086760138619056,0.3057674817962793,0.02658818069120301,-1.4470732893757776,-5.10628081250415,-0.07032463346743117,0.5146675491172474,-0.47231560814589735,-1.5644579689413673,2,left
10.872,0.5071760456601966,0.3116743376454679,0.027303594695912592,-1.4345541754923758,-5.1364111610595735,-0.06752837603188233,0.5191021493147564,-0.4701389469038312,-1.594018637387638,2,left
10.873,0.5057066139496518,0.3176474587249024,0.028009354829064772,-1.421640389559355,-5.165156172197165,-0.064319395514369,0.5231793486835234,-0.4681953187009708,-1.6227870600164205,2,left
10.877,0.5042702724474585,0.32368544978564856,0.028702823419934877,-1.4083399269040282,-5.192525483822881,-0.060692378658447926,0.5268954026927194,-0.4664906350461379,-1.6507522421659515,2,left
10.878,0.5028696108357779,0.32978696450908496,0.02938134035820593,-1.3946606179297556,-5.218529055795383,-0.056642761771936244,0.5302468682878445,-0.4650304196204887,-1.6779036690393792,2,left
10.880999999999998,0.5015072492967926,0.33595070553807116,0.030042228271151453,-1.3806101106229247,-5.243177142146327,-0.05216673729314726,0.5332306084612031,-0.4638198039280218,-1.7042313076844877,2,left
10.882,0.5001858325481324,0.3421754244210597,0.03068279797140122,-1.3661958554045286,-5.266480263940699,-0.04726125848633206,0.5358437966773676,-0.462863522976462,-1.7297256090215167,2,left
10.887,0.49890802340656104,0.3484599214477017,0.031300354159830845,-1.3514250922870643,-5.288449182851925,-0.041924042254685115,0.5380839211632544,-0.4621659109843361,-1.7543775099970542,2,left
10.888,0.4976764959130286,0.3548030453534819,0.031892201363222246,-1.3363048402963995,-5.309094875522577,-0.03615357005804898,0.5399487890713757,-0.46173089711077364,-1.778178435939613,2,left
10.890999999999998,0.49649392805476933,0.3612036928720937,0.032455650081786025,-1.3208418891172178,-5.328428508777658,-0.02994908692122088,0.5414365305237704,-0.46156200120529406,-1.8011203031901102,2,left
10.892000000000001,0.49536299412092977,0.3676608081172529,0.03298802311780024,-1.3050427929196224,-5.346461415753581,-0.023310598517525722,0.5425456025430442,-0.4616623295755864,-1.8231955220780527,2,left
10.897,0.49428635672800497,0.3741733817792132,0.0334866620529597,-1.2889138663234787,-5.363205073002189,-0.01623886631107671,0.5432747928758708,-0.4620345707720367,-1.844397000311777,2,left
10.897,0.4932666585511831,0.3807404501242733,0.03394893383998243,-1.2724611824560894,-5.37867107862538,-0.008735400739899825,0.5436232237132262,-0.4626809913885269,-1.8647181468486407,2,left
10.902000000000001,0.4923065137986175,0.38736109378844064,0.03437223747637698,-1.255690573057827,-5.392871131492155,-0.0008024524208531769,0.5435903553048884,-0.463603431885082,-1.8841528762826063,2,left
10.902999999999999,0.49140849946547516,0.39403443636094276,0.03475401073541754,-1.2386076305894047,-5.4058170115862305,0.00755699864397071,0.5431759894363868,-0.464803302465137,-1.902695613654359,2,left
10.904000000000002,0.490575146401187,0.40075964275940473,0.035091736937730676,-1.2212177122935322,-5.417520561528651,0.016339255880910338,0.5423802726846343,-0.46628157908853357,-1.9203412993529607,2,left
10.907,0.48980893022100447,0.4075359174026983,0.03538295175165555,-1.2035259461334504,-5.427993669301941,0.02553992095629739,0.5412036993391226,-0.46803879972856127,-1.937085393645698,2,left
10.907,0.48911226209497816,0.41436250218769527,0.03562525001126455,-1.1855372383832277,-5.4372482521272225,0.03515391034019938,0.5396471139027234,-0.4700750609557394,-1.952923880500016,2,left
10.908,0.4884874794500372,0.42123867427510414,0.035816292541428194,-1.1672562823797359,-5.445296241313509,0.04517547297325557,0.5377117131359014,-0.4723900148842857,-1.9678532705924716,2,left
10.911,0.4879368366241668,0.4281637436889159,0.035953812980373805,-1.1486875677986508,-5.452149567823347,0.05559820816395035,0.5353990476353124,-0.4749828664916044,-1.9818706035268399,2,left
10.911,0.4874624955196939,0.43513705073204867,0.03603562458866848,-1.1298353899626725,-5.457820148366995,0.06641508306962339,0.5327110229423152,-0.4778523713166415,-1.9949734493068694,2,left
10.915999999999999,0.48706651631180337,0.44215796321734746,0.03605962702848164,-1.1107038589534106,-5.462319871962477,0.07761844952026913,0.5296499001758419,-0.48099683354375605,-2.0071599091065644,2,left
10.917,0.4867508482728713,0.4492258735100477,0.036023813090818355,-1.091296908444252,-5.465660586966955,0.0892000601700985,0.5262182961829869,-0.4844141044795539,-2.01842861537826,2,left
10.92,0.4865173207737391,0.45634019537569426,0.035926275343775245,-1.0716183042000678,-5.467854088595721,0.10115108400792054,0.5224191831995968,-0.48810158143092264,-2.0287787313361245,2,left
10.921,0.4863676345224549,0.46350036062542305,0.03576521267242006,-1.0516716521888034,-5.46891210694177,0.11346212125851018,0.5182558880120746,-0.49205620699329733,-2.0382099498500947,2,left
10.925,0.48630335309962947,0.470705815548207,0.035538936679382405,-1.031460406249215,-5.4688462955055615,0.1261232177082141,0.513732090610545,-0.4962744687589669,-2.046722491782617,2,left
10.925999999999998,0.4863258948469556,0.4779560171179275,0.03524587791343657,-1.010987875258223,-5.467668220241314,0.13912387848910682,0.5088518223224748,-0.5007523994560097,-2.054317103797923,2,left
10.931,0.48643652516216224,0.4852504289623366,0.03488459189134385,-0.9902572297405923,-5.465389349122882,0.15245308135704155,0.5036194634147956,-0.5054855775292093,-2.0609950556709373,2,left
10.932,0.4866363492500408,0.4925885170812977,0.034453764876773214,-0.9692715078628807,-5.462021042229063,0.16609928949994537,0.49803974015154284,-0.5104691281750614,-2.0667581371202703,2,left
10.936,0.4869263053745476,0.4999697453040433,0.03395221938028687,-0.9480336207528574,-5.457574542344969,0.1800504639136824,0.49211772129300074,-0.5156977248437256,-2.0716086541871164,2,left
10.937000000000001,0.48730715865144764,0.5073935704795883,0.033378919346717585,-0.9265463570848357,-5.45206096607294,0.1942940753837512,0.4858588140213314,-0.5211655912215081,-2.075549425179248,2,left
10.940999999999999,0.48777949541609955,0.5148594373994598,0.03273297499955273,-0.9048123868706472,-5.445491295443347,0.20881711611199258,0.4792687592766705,-0.5268665037081818,-2.078583776196663,2,left
10.940999999999999,0.4883437181979109,0.5223667734568003,0.03201364731448427,-0.8828342643952489,-5.4378763700125345,0.22360611102835862,0.4723536264866886,-0.5327937944041501,-2.0807155362528276,2,left
10.946,0.4890000413308176,0.5299149830511084,0.031220352095994868,-0.8606144302352416,-5.429226879432104,0.23864712882863343,0.46511980767165056,-0.5389403546231495,-2.081949032002843,2,left
10.947000000000001,0.48974848722632475,0.537503441753717,0.030352663632221718,-0.8381552122978716,-5.419553356470656,0.253925792779797,0.45757401090605454,-0.545298638946854,-2.082289082087258,2,left
10.95,0.49058888333212014,0.5451314902552405,0.029410317904879957,-0.8154588258173814,-5.408866170466163,0.26942729133548715,0.4497232531169983,-0.5518606698383933,-2.0817409910976656,2,left
10.95,0.49152085979589644,0.5527984281219724,0.02839321533437031,-0.7925273722448841,-5.397175521184139,0.28513638860473733,0.4415748521985083,-0.5586180428324254,-2.0803105431676325,2,left
10.955,0.49254384785087174,0.5605035073928063,0.027301423046001538,-0.7693628369672462,-5.384491433053852,0.30103743471785005,0.4331364184201673,-0.5655619323200134,-2.0780039951899565,2,left
10.955,0.49365707893683186,0.5682459260512233,0.026135176648888418,-0.7459670857897823,-5.370823749751872,0.31711437613390475,0.42441584510750474,-0.5726830979471387,-2.0748280696586794,2,left
10.959000000000001,0.49485958456948465,0.5760248214084461,0.024894881521142682,-0.7223418601168916,-5.356182129099418,0.3333507659349943,0.4154212985707572,-0.5799718916462422,-2.07078994713177,2,left
10.96,0.49615019697114815,0.5838392634344274,0.02358111359233649,-0.6984887707640927,-5.3405760382370815,0.34972977415283546,0.4061612072577755,-0.5874182653207244,-2.0658972583078596,2,left
10.965,0.49752755047431835,0.5916882480729331,0.022194619608653845,-0.6744092903342519,-5.324014749037674,0.36623419817390196,0.3966442501060432,-0.5950117792028391,-2.0601580757079243,2,left
10.966,0.49899008370435527,0.5995706905760223,0.020736316861547702,-0.6501047440901402,-5.306507333715162,0.38284647326968724,0.3868793440679866,-0.6027416109058977,-2.0535809049503277,2,left
10.97,0.5005360425395158,0.6074854188931649,0.01920729235984546,-0.6255762992547969,-5.28806266058489,0.39954868329911253,0.3768756307829917,-0.6105965651921533,-2.04617467560519,2,left
10.970999999999998,0.5021634838386689,0.6154311671520787,0.017608801427599963,-0.6008249526705285,-5.26868938992751,0.4163225716304541,0.36664246239114495,-0.6185650844785869,-2.0379487316288345,2,left
10.970999999999998,0.503870279922038,0.6234065692704143,0.015942265714117807,-0.5758515167467277,-5.248395969906366,0.4331495523304758,0.3561893865946776,-0.6266352601053626,-2.028912821462772,2,left
10.975,0.5056541237881719,0.6314101527375121,0.014209270607928398,-0.5506566036260483,-5.227190632485355,0.4500107216687062,0.34552613127342785,-0.6347948443959548,-2.019077088034318,2,left
10.975999999999999,0.5075125350472568,0.6394403326051871,0.012411562052654274,-0.5252406075986041,-5.205081389322427,0.4668868699946012,0.33466258907165586,-0.6430312635404328,-2.0084520589796826,2,left
10.977,0.5094428665464975,0.6474954057276952,0.010551042768652801,-0.49960368629707375,-5.182076027765293,0.48375849409344335,0.3236088022612341,-0.6513316313315225,-1.9970486373219507,2,left
10.979000000000001,0.5114423116614712,0.6555735452915292,0.008629767888678065,-0.4737457421118827,-5.15818210735052,0.5006058102132577,0.3123749479846165,-0.6596827637794442,-1.984878092679048,2,left
10.98,0.5135079122259226,0.6636727956748052,0.006649940020447071,-0.4476664057688535,-5.133406957358612,0.5174087680030283,0.30097132386873454,-0.6680711946295911,-1.971952052988423,2,left
10.984000000000002,0.5156365670665218,0.6717910676760597,0.004613903756467423,-0.4213650235072279,-5.107757675821114,0.5341470655545235,0.2894083339780881,-0.6764831918068636,-1.9582824967157089,2,left
10.985,0.5178250411018638,0.6799261341521664,0.002524139659173507,-0.3948406483883953,-5.081241130095928,0.5508001656536378,0.2776964750747806,-0.6849047748106231,-1.9438817455124247,2,left
10.989,0.5200699749613392,0.68807562610201,0.0003832577530522053,-0.36809203576118105,-5.053863958970503,0.5673473132990693,0.2658463231527626,-0.6933217330843313,-1.9287624572856121,2,left
10.99,0.5223678950781414,0.6962370292272816,-0.0018060094442327464,-0.3411176428081322,-5.025632576219212,0.5837675545363742,0.253868520213087,-0.7017196453840117,-1.9129376196401637,2,left
10.994000000000002,0.5247152242091618,0.7044076809956776,-0.004040814319705631,-0.3139156320966023,-4.996553175538776,0.6000397566551922,0.24177376124655614,-0.7100839001696941,-1.8964205436524995,2,left
10.995,0.5271082923328669,0.7125847682248323,-0.006318201959043875,-0.28648387905778927,-4.96663173678309,0.6161426297971337,0.22957278138973924,-0.7183997170439936,-1.879224857932189,2,left
10.999,0.5295433478741682,0.7207653251983117,-0.008635118301128206,-0.258819983316234,-4.935874033416365,0.6320547500214551,0.21727634321997544,-0.7266521692619143,-1.8613645029260835,2,left
10.999,0.5320165692018877,0.728946232318249,-0.010988418612442742,-0.2309212837916284,-4.904285641101059,0.6477545838752196,0.20489522415463987,-0.734826207335876,-1.842853725417543,2,left
11.004000000000001,0.5345240763402203,0.7371242152911203,-0.013374876233947623,-0.20278487749412585,-4.8718719473346574,0.6632205145141599,0.19244020391964609,-0.7429066837598209,-1.8237070731713831,2,left
11.005,0.5370619428325734,0.745295844834174,-0.015791191547235187,-0.17440764193367617,-4.8386381620469585,0.6784308694199056,0.17992205205188375,-0.7508783788760746,-1.8039393896732705,2,left
11.009,0.5396262076953768,0.7534575368829416,-0.01823400110282273,-0.14578626106323359,-4.8045893290671255,0.6933639497586301,0.1673515154000468,-0.7587260279084096,-1.7835658089104178,2,left
11.01,0.5422128874002248,0.7616055532761127,-0.02069988685149672,-0.11691725467500251,-4.769730338367398,0.7079980614255013,0.15473930558809584,-0.7664343491844943,-1.7626017501386095,2,left
11.013,0.5448179878238765,0.769736002891768,-0.02318538541978522,-0.087797011168194,-4.734065938988011,0.722311547818583,0.142096086405416,-0.7739880735705922,-1.7410629125788029,2,left
11.014000000000001,0.5474375161067667,0.7778448432080437,-0.025686997372228435,-0.05842182360606363,-4.697600752545506,0.7362828243850408,0.12943246108758194,-0.7813719751410234,-1.718965269984807,2,left
11.017999999999999,0.5500674923620993,0.7859278822623321,-0.02820119640523036,-0.02878792897929005,-4.66033928722432,0.7498904149816433,0.11675895945152136,-0.7885709031045018,-1.6963250650218553,2,left
11.019,0.5527039611797699,0.7939807809866264,-0.030724438420450313,0.0011084494079684215,-4.622285952149193,0.7631129900906333,0.1040860248487791,-0.7955698150090111,-1.6731588033942235,2,left
11.024000000000001,0.5553430028726284,0.8019990559020066,-0.03325317043113475,0.03127105651373426,-4.5834450720336575,0.7759294069310575,0.09142400090052553,-0.802353811246402,-1.6494832476584544,2,left
11.024000000000001,0.5579807444173611,0.8099780821617028,-0.03578383926139285,0.06170355718072674,-4.543820901997578,0.7883187515046001,0.07878311797792399,-0.8089081708773587,-1.6253154106571799,2,left
11.027999999999999,0.5606133700483424,0.8179130969396226,-0.03831290000363843,0.0924094848916258,-4.503417642444423,0.8002603826138588,0.06617347939147361,-0.8152183887968061,-1.6006725485070292,2,left
11.029000000000002,0.5632371314686127,0.8257992031696143,-0.04083682420353061,0.12339218774374086,-4.462239453886711,0.8117339778898371,0.05360504725297488,-0.8212702142592173,-1.5755721530726463,2,left
11.033,0.5658483576463169,0.8336313736491143,-0.04335210774717745,0.1546547717305166,-4.420290471605804,0.8227195818641999,0.041087627973826,-0.8270496907826183,-1.550031943857424,2,left
11.033,0.5684434641679952,0.8414044555287763,-0.04585527843183978,0.18620004141809263,-4.377574820029992,0.8331976561205541,0.02863085736344718,-0.8325431974493857,-1.5240698592402009,2,left
11.038,0.5710189621241497,0.8491131752172038,-0.04834290320640721,0.2180304381059292,-4.334096626712581,0.8431491315576699,0.01624418532192987,-0.8377374915562388,-1.4977040470110448,2,left
11.039000000000001,0.5735714665089308,0.8567521437354988,-0.05081159507175843,0.25014797556131363,-4.289860035789479,0.8525554627961616,0.003936860272062582,-0.8426197522402686,-1.4709528542839294,2,left
11.04,0.5760977041226492,0.8643158625596083,-0.05325801963582291,0.282554173418374,-4.244869220793598,0.8613986847586858,-0.008282086252306566,-0.8471776241224269,-1.443834817089619,2,left
11.042,0.5785945209692341,0.8717987299934842,-0.05567890132344067,0.3152499883330447,-4.199128396701158,0.8696614714522073,-0.02040385429350115,-0.851399259684267,-1.416368650076859,2,left
11.043,0.5810588891405875,0.8791950481250643,-0.0580710292456088,0.3482357430893247,-4.152641831147748,0.8773271968773719,-0.032419889015452896,-0.8552733594176082,-1.3885732366229269,2,left
11.044,0.5834879131805203,0.8864990304239657,-0.060431262736123294,0.3815110543683624,-4.105413855074398,0.8843799974787044,-0.04432189296133621,-0.858789209370457,-1.3604676194268104,2,left
11.048,0.5858788359248247,0.8937048100397041,-0.06275653656629834,0.4150747608203851,-4.05744887364598,0.8908048346302072,-0.05610183702802324,-0.8619367160363368,-1.3320709915313513,2,left
11.049000000000001,0.5882290438181206,0.9008064488591536,-0.06504386585159459,0.44892485359568685,-4.008751378606707,0.8965875551395156,-0.06775197019186058,-0.8647064385981308,-1.303402687694542,2,left
11.052999999999999,0.5905360717103156,0.9077979473901019,-0.06729035066806201,0.4830584109763564,-3.959325962910794,0.9017149482617126,-0.07926482801994147,-0.8670896185365164,-1.2744821760292768,2,left
11.052999999999999,0.5927976071378449,0.914673255550022,-0.06949318039959854,0.5174715378235951,-3.9091773378799806,0.9061747986295788,-0.09063324000069761,-0.8690782066120135,-1.2453290498300256,2,left
11.058,0.5950114940989312,0.9214262844466118,-0.07164963783839817,0.5521593100409365,-3.8583103528129468,0.9099559350149224,-0.101850335727262,-0.870664887228584,-1.215963019504111,2,left
11.058,0.5971757363362585,0.9280509192382117,-0.07375710306257766,0.5871157241514124,-3.806730016904647,0.913048274935689,-0.11290954996666107,-0.8718431001856111,-1.1864039045245567,2,left
11.062999999999999,0.5992885001437129,0.9345410331624564,-0.07581305711766456,0.6223336520875167,-3.7544415233315074,0.9154428651216414,-0.12380462664747932,-0.8726070598239549,-1.156671625320794,2,left
11.064,0.6013481167172986,0.9408905028226539,-0.0778150855317148,0.6578048012936025,-3.7014502753563705,0.9171319178494506,-0.13452962179820638,-0.8729517715706304,-1.1267861950229132,2,left
11.068,0.603353084072823,0.9470932248223579,-0.0797608817000209,0.6935196802411174,-3.6477619143050295,0.9181088431560585,-0.14507890546802296,-0.8728730458854786,-1.0967677109745841,2,left
11.069,0.60530206855152,0.9531431338384874,-0.08164825019015326,0.7294675694578299,-3.593382349264137,0.9183682769371789,-0.15544716266131178,-0.8723675096120145,-1.0666363459292785,2,left
11.072000000000001,0.6071939059312089,0.9590342222202591,-0.08347511003782535,0.7656364981729268,-3.538317788348286,0.917906104935773,-0.16562939331669105,-0.8714326147334326,-1.0364123388439817,2,left
11.073,0.6090276021632003,0.9647605611889895,-0.08523949810730523,0.802013226680558,-3.482574771382038,0.9167194826232928,-0.17562091136086486,-0.8700666445335384,-1.0061159851842056,2,left
11.077,0.6108023337721434,0.9703163236875151,-0.08693957255019066,0.8385832345250706,-3.4261602038406873,0.9148068509744317,-0.1854173428670644,-0.8682687171611473,-0.9757676266537844,2,left
11.078,0.6125174479872254,0.9756958088923836,-0.0885736163102426,0.8753307146118077,-3.369081391891601,0.9121679481340464,-0.19501462334732111,-0.866038786595261,-0.9453876402626713,2,left
11.082,0.6141724627060398,0.9808934683679079,-0.0901400405274999,0.9122385733479417,-3.3113460783760056,0.9088038169728392,-0.20440899420726513,-0.8633776410070955,-0.9149964266457487,2,left
11.083,0.6157670663996266,0.9859039338138708,-0.09163738765452203,0.9492884369183638,-3.252962479569178,0.904716808526304,-0.21359699839158264,-0.8602868985137962,-0.8846143975455107,2,left
11.087,0.6173011180106868,0.9907220463347403,-0.093064334158876,0.9864606638021586,-3.193939322555079,0.8999105813093599,-0.22257547524769514,-0.856769000317436,-0.8542619623713911,2,left
11.087,0.6187746467559824,0.9953428871292871,-0.09441969284737158,1.0237343636356488,-3.1342858830495994,0.8943900964970103,-0.23134155463463996,-0.8528272012216527,-0.8239595137484709,2,left
11.092,0.6201878515512657,0.9997618094492225,-0.09570241503773276,1.0610874225284073,-3.0740120235047064,0.8881616089592965,-0.23989265030354012,-0.8484655575170571,-0.7937274119683331,2,left
11.093,0.6215410996127226,1.003974471583086,-0.0969115929045355,1.0984965349389708,-3.013128231323954,0.8812326541367488,-0.2482264525754504,-0.8436889122253063,-0.7635859682549138,2,left
11.095999999999998,0.6228349237236238,1.0079768704853656,-0.09804646227221374,1.1359372422172906,-2.9516456570180165,0.8736120307404898,-0.25634092034175604,-0.8385028776905332,-0.7335554267583416,2,left
11.097000000000001,0.6240700177069672,1.0117653755278462,-0.09910640597241928,1.173383977921171,-2.8895761521271144,0.865309779259114,-0.26423427241168496,-0.8329138155056092,-0.7036559451899618,2,left
11.102,0.6252472297844579,1.015336761758831,-0.10009095772361695,1.2108101200141137,-2.8269323067354453,0.8563371562524557,-0.2719049782308693,-0.8269288137595312,-0.6739075740119976,2,left
11.102,0.6263675536729053,1.0186882420509529,-0.10099980635987738,1.248188050052065,-2.7637274864010366,0.8467066044103759,-0.27935174799426304,-0.8205556615910485,-0.644330234095626,2,left
11.106,0.6274321174128408,1.0218174975877614,-0.10183280011912621,1.2854892194665883,-2.6999758683227295,0.8364317183527442,-0.2865735221886523,-0.8138028210798217,-0.6149436928154295,2,left
11.107000000000001,0.6284421700089764,1.0247227062482023,-0.10258995061911756,1.322684223051914,-2.6356924765643646,0.8255272061448632,-0.2935694606621727,-0.8066793967419333,-0.5857675388176956,2,left
11.107000000000001,0.6293990660032335,1.0274025685544275,-0.10327143612589594,1.359742879763184,-2.5708932161546305,0.8140088465007002,-0.300338931430681,-0.7991951033214528,-0.5568211561848532,2,left
11.110999999999999,0.6303042481451823,1.0298563309011632,-0.10387760370834484,1.3966343207716303,-2.5055949058849496,0.801893441726027,-0.3068814994929991,-0.7913602328053309,-0.5281236989879573,2,left
11.110999999999999,0.6311592283856161,1.032083805780361,-0.10440896984745732,1.4333270839153522,-2.4398153096536808,0.7891987668596898,-0.3131969158635828,-0.7831856213511711,-0.4996940669506632,2,left
11.113,0.6319655674714794,1.0340853887063939,-0.1048662190913064,1.4697892122317877,-2.373573166252795,0.7759435162037392,-0.319285106917443,-0.7746826163903997,-0.4715508824644625,2,left
11.116,0.6327248534825729,1.035862071540739,-0.10525020043119172,1.5059883534507212,-2.3068882175191896,0.762147248839368,-0.32514616407867836,-0.7658630439316798,-0.4437124689265961,2,left
11.117,0.6334386797573169,1.0374154518788763,-0.10556192117292942,1.5418918581328662,-2.239781234743982,0.7478303343160135,-0.33078033387076083,-0.7567391760411125,-0.41619683031901406,2,left
11.12,0.6341086227593687,1.038747738130822,-0.10580253820967021,1.5774668755905805,-2.172274043182439,0.7330138989651013,-0.3361880083460648,-0.7473236984748228,-0.3890216319475725,2,left
11.120999999999999,0.6347362204612921,1.0398617499582714,-0.10597334681446414,1.6126804475332823,-2.104389544478519,0.7177197728804263,-0.3413697159114775,-0.7376296784386208,-0.36220418226153556,2,left
11.126,0.6353229517504967,1.0407609138226261,-0.10607576732722174,1.6474995995406323,-2.036151736811272,0.701970437524088,-0.34632611256627627,-0.7276705324485546,-0.3357614156743743,2,left
11.127,0.6358702172265335,1.0414492535124589,-0.10611133033111604,1.6818914304656158,-1.967585732569233,0.685788973915464,-0.3510579735678095,-0.7174599942653351,-0.3097098763078335,2,left
11.13,0.6363793215980739,1.0419313756272879,-0.10608166104006538,1.7158231998686075,-1.898717773357841,0.669199011359333,-0.35556618553986796,-0.7070120828748131,-0.2840657025822625,2,left
11.130999999999998,0.6368514577469079,1.0422124500823746,-0.10598846363633996,1.7492624135823724,-1.829575242143905,0.6522246766679552,-0.3598517390379868,-0.6963410704859287,-0.25884461257728375,2,left
11.135,0.6372876924368548,1.0422981857718645,-0.10583350622303662,1.782176907506741,-1.7601866723402062,0.6348905438306747,-0.363915721585273,-0.6854614505168315,-0.2340618900879937,2,left
11.136,0.6376889536146298,1.0421948016043376,-0.1056186069184282,1.8145349297303557,-1.6905817536324563,0.6172215840834362,-0.3677593111917119,-0.6743879055391863,-0.20973237130306188,2,left
11.14,0.6380560192707663,1.041908993216427,-0.10534562144382906,1.8463052210754825,-1.6207913343500442,0.5992431163295093,-0.37138377036926584,-0.6631352751500429,-0.18587043203230688,2,left
11.140999999999998,0.6383895078925574,1.0414478957659106,-0.10501643236943053,1.8774570941603799,-1.5508474201812972,0.5809807578616751,-0.37479044065444267,-0.6517185237400457,-0.16248997541258767,2,left
11.145,0.6386898706302376,1.0408190432862447,-0.10463294001145985,1.907960511072107,-1.4807831690333724,0.5624603753351719,-0.377980737649378,-0.6401527081262044,-0.13960442002214854,2,left
11.145999999999999,0.6389573853804418,1.0400303251399865,-0.10419705484339202,1.9377861597409776,-1.4106328818363536,0.5437080359398085,-0.3809561465918467,-0.6284529450169323,-0.11722668833489878,2,left
11.15,0.639192153032161,1.0390899401392097,-0.10371069120661777,1.9669055291060837,-1.340431989090698,0.5247499587188387,-0.3837182184639929,-0.6166343782765865,-0.09536919544749024,2,left
11.151,0.639394096101035,1.0380063489072726,-0.10317576207754105,1.9952909831594539,-1.2702170329568259,0.5056124659814462,-0.3862685666489465,-0.604712145956319,-0.07404383801347646,2,left
11.155,0.6395629599053706,1.0367882250366123,-0.10259417465141661,2.0229158339544653,-1.2000256446854132,0.4863219347550288,-0.3886088641438767,-0.5927013470576581,-0.05326198332029474,2,left
11.155,0.6396983163361104,1.0354444055553538,-0.1019678265244144,2.049754413662107,-1.129896517186791,0.46690474822287537,-0.3907408413374219,-0.5806170079949041,-0.03303445844630629,2,left
11.16,0.6397995701655272,1.0339838411633133,-0.10129860229349633,2.075782145756573,-1.059869372537829,0.4473872470923167,-0.39266628435882434,-0.5684740487221198,-0.013371539436656503,2,left
11.161,0.6398659677371814,1.0324155466494684,-0.10058837045116038,2.100975615409496,-0.9899849242247424,0.42779568083798897,-0.39438703400549846,-0.5562872484902466,0.005717059561721748,2,left
11.165,0.6398966077875027,1.0307485518674369,-0.09983898051963068,2.1253126391698633,-0.9202848339204452,0.40815615876448763,-0.39590498525515905,-0.5440712111996618,0.024222197264048055,2,left
11.165999999999999,0.6398904540732946,1.0289918536255835,-0.09905226042755318,2.1487723340043403,-0.8508116625953704,0.3884946008323987,-0.3972220873680466,-0.5318403303133259,0.0421353163670431,2,left
11.17,0.6398463494279116,1.027154368841887,-0.09823001416752677,2.171335185770323,-0.7816088157610857,0.36883668819148274,-0.3983403445841947,-0.5196087532955413,0.059448454878502685,2,left
11.171,0.6397630308471639,1.0252448893163073,-0.09737401978297107,2.1929831171915946,-0.7127204826465666,0.34920781336464846,-0.3992618174201077,-0.5073903455412616,0.07615425771023908,2,left
11.175,0.6396391452140177,1.023272038480444,-0.0964860277247839,2.213699555403928,-0.6441915691076443,0.32963303002628813,-0.39998862456863293,-0.49519865376084377,0.09224598858583216,2,left
11.175999999999998,0.63947326530787,1.0212442304853209,-0.09556775960088136,2.2334694991354227,-0.5760676240709193,0.31013700231855795,-0.4005229453897664,-0.4830468688455581,0.10771754227489173,2,left
11.175999999999998,0.6392639058098383,1.0191696319618655,-0.09462090732239926,2.252279585583723,-0.5083947593143422,0.2907439536492691,-0.4008670229021533,-0.4709477885413147,0.12256345697369474,2,left
11.18,0.6390095390989988,1.017056126728281,-0.09364713263433633,2.270118156913886,-0.4412195625464391,0.27147761498686546,-0.4010231670451565,-0.4589137808019358,0.13677892630812902,2,left
11.181,0.6387086107074477,1.0149112836553427,-0.09264806700753603,2.286975325619377,-0.37458900454105126,0.25236117302647465,-0.40099375790340636,-0.4469567489955269,0.15035981024300102,2,left
11.181,0.6383595543458851,1.012742327869711,-0.09162531186116955,2.3028430367644943,-0.3085503425144648,0.2334172192462228,-0.4007812486626054,-0.43508809983553964,0.1633026443700626,2,left
11.185,0.63796080643442,1.0105561154822762,-0.09058043907544136,2.3177151244451575,-0.2431510227269662,0.2146677012316513,-0.40038816820415224,-0.42331871436451285,0.17560464738747253,2,left
11.185,0.6375108200902271,1.008359112054938,-0.08951499173954194,2.331587360480763,-0.1784385844986938,0.1961338772882191,-0.39981712332302555,-0.41165892201658805,0.1872637267716806,2,left
11.189,0.6370080785415023,1.0061573750295836,-0.08843048506441262,2.3444574945683807,-0.11446056640264914,0.1778362747174572,-0.3990708005683225,-0.4001184777247273,0.1982784826789097,2,left
11.19,0.6364511079554054,1.0039565403119892,-0.08732840738290262,2.3563252858063057,-0.051264414605841906,0.15979465177461546,-0.3981519677053277,-0.38870654203884525,0.20864821011157164,2,left
11.194,0.6358384896801772,1.001761813140594,-0.08621022116515822,2.3671925256267956,0.011102606827231779,0.14202796325460335,-0.3970634747974784,-0.37743166422138136,0.21837289938310703,2,left
11.195,0.6351688719046106,0.9995779632961684,-0.08507736399084478,2.3770630521749814,0.07259350385246674,0.12455432965370278,-0.39580825490608823,-0.366301768287179,0.22745323491289055,2,left
11.199000000000002,0.6344409807329631,0.9974093246319974,-0.0839312494363693,2.385942756168037,0.1331616387668258,0.10739100985526541,-0.39438932440519553,-0.3553241419549066,0.2358905923809907,2,left
11.199000000000002,0.6336536306606108,0.9952597988290729,-0.0827732678520436,2.39383957826584,0.19276081511087928,0.09055437728839409,-0.39280978290841595,-0.3445054284776483,0.243687034270722,2,left
11.204,0.6328057344140298,0.9931328632098759,-0.08160478702130006,2.4007634979814894,0.2513453613297534,0.07405989950944893,-0.39107281280419964,-0.33385162132070595,0.25084530382507825,2,left
11.205,0.6318963120899677,0.9910315823774054,-0.08042715271096014,2.4067265141572074,0.3088702133663841,0.057922121157107355,-0.38918167839542334,-0.32336806165509185,0.257368817441289,2,left
11.209000000000001,0.630924499497788,0.9889586233830063,-0.07924168913563465,2.4117426170283354,0.36529099635819084,0.042154650232644454,-0.38713972463878715,-0.31305943863564517,0.26326165552590275,2,left
11.21,0.629889555580659,0.9869162740706117,-0.07804969936771983,2.4158277518953337,0.4205641056053705,0.026770147658080484,-0.3849503754790333,-0.30292979243317814,0.2685285518309682,2,left
11.213,0.6287908687698496,0.9849064642008301,-0.07685246572529447,2.41899977442095,0.47464678697596985,0.011780320065865596,-0.3826171317725608,-0.29298251999054636,0.27317488129006173,2,left
11.214,0.6276279621149586,0.982930788928116,-0.07565125016409492,2.4212783975669994,0.5274972169097247,-0.002804084225166885,-0.38014356879457706,-0.2832203834730367,0.27720664637110115,2,left
11.218,0.6264004970317167,0.9809905341872264,-0.07444729468914274,2.4226851301825336,0.5790745821793583,-0.016973276091748923,-0.37753333332350586,-0.27364552138398135,0.28063046196108626,2,left
11.219000000000001,0.6251082755180698,0.9790867035377713,-0.07324182178850888,2.4232432072525456,0.6293391595646134,-0.0307184233890666,-0.3747901402959554,-0.2642594623170283,0.2834535387961281,2,left
11.224,0.6237512407097695,0.9772200460125868,-0.07203603487711659,2.4229775118138113,0.6782523955907577,-0.044031645676465316,-0.37191776902514906,-0.25506314131702734,0.28568366544836277,2,left
11.225999999999999,0.6223294756787716,0.9753910845126003,-0.07083111872289292,2.421914488541955,0.7257769864796414,-0.05690600592665667,-0.3689200589753276,-0.24605691882203085,0.2873291888796007,2,left
11.229000000000001,0.620843200420592,0.9736001442877907,-0.06962823981083607,2.420082049011393,0.7718769584576242,-0.0693354992578962,-0.365800905084252,-0.23724060215944626,0.2883989935698387,2,left
11.23,0.6192927670285002,0.9718473810442724,-0.06842854658369638,2.4175094686274536,0.8165177485608031,-0.08131503872736229,-0.3625642526255619,-0.22861346956992307,0.28890247922705903,2,left
11.232999999999999,0.6176786531097471,0.9701328082255567,-0.06723316948433054,2.414227275227678,0.8596662860739923,-0.09284043822270793,-0.35921409160238776,-0.22017429673310135,0.2888495370830613,2,left
11.234000000000002,0.6160014535604602,0.9684563230359878,-0.06604322071726236,2.4102671293471,0.9012910747358102,-0.10390839248748117,-0.35575445066326367,-0.2119213857698935,0.28825052477842233,2,left
11.238,0.6142618708807993,0.966817730810383,-0.0648597936459553,2.405661696140183,0.9413622758380457,-0.1145164543148188,-0.3521893905310521,-0.20385259669651265,0.28711623983804946,2,left
11.239,0.6124607042752697,0.9652167673884625,-0.06368396174817723,2.400444508950051,0.9798517923431903,-0.12466300894251617,-0.3485229969352647,-0.19596538130600108,0.2854578917371991,2,left
11.243,0.6105988378360491,0.9636531192269527,-0.06251677706800729,2.394649824513702,1.016733354139647,-0.13434724568126258,-0.3447593730378499,-0.1882568194535456,0.28328707255626234,2,left
11.243,0.6086772281380243,0.9621264410734854,-0.06135926813216298,2.388312469790061,1.0519826045496707,-0.1435691268065132,-0.3409026313596255,-0.1807236576590913,0.28061572626354625,2,left
11.244000000000002,0.60669689156444,0.9606363711200633,-0.06021243733315614,2.381467680395943,1.0855771882005538,-0.1523293537431439,-0.33695688530130075,-0.17336234962476926,0.27745611687608634,2,left
11.248,0.6046588916316799,0.9591825436335855,-0.05907725781005468,2.374150930633362,1.1174968403649541,-0.1606293305707094,-0.3329262405094584,-0.1661690976954364,0.27382079612922,2,left
11.249,0.6025643265340285,0.9577645991296808,-0.05795466988173973,2.3663977550900577,1.1477234778715808,-0.16847112487579802,-0.32881478642465434,-0.1591398939746108,0.2697225714965247,2,left
11.25,0.6004143171143798,0.9563821922203394,-0.056845577117981064,2.3582435621303874,1.1762412914842133,-0.1758574260477295,-0.32462658826147994,-0.1522705601250975,0.26517447518800935,2,left
11.253,0.5982099954505662,0.9550349973054685,-0.05575084216098172,2.349723441276109,1.2030368386497827,-0.1827915014679105,-0.3203656795134867,-0.14555678545381043,0.26018973437091975,2,left
11.254000000000001,0.5959524941976411,0.9537227122794039,-0.054671282420820796,2.3408719695059883,1.2280991337249993,-0.18927715168154627,-0.3160360549885816,-0.13899416319728625,0.2547817426438747,2,left
11.257,0.5936429367699554,0.9524450604196387,-0.053607665779976936,2.331723023185742,1.2514197317936584,-0.1953186659944887,-0.3116416643628712,-0.1325782249881463,0.24896403275129703,2,left
11.258,0.5912824284125656,0.9512017906507405,-0.052560706472822995,2.3223096006550574,1.2729928031742601,-0.20092077958131496,-0.3071864062407214,-0.12630447348321056,0.24275025052384716,2,left
11.262,0.5888720481928071,0.9499926764128142,-0.05153106133167369,2.3126636574667803,1.2928151974989965,-0.206088632549743,-0.3026741227086043,-0.12016841313440137,0.2361541300293537,2,left
11.263,0.5864128419288283,0.9488175133793804,-0.05051932657995388,2.3028159545888136,1.3108864972325955,-0.2108277310498277,-0.29810859437011655,-0.11416557908399588,0.2291894699175571,2,left
11.269,0.5839058160660086,0.9476761162627267,-0.04952603530916784,2.2927959195417467,1.3272090606929912,-0.21514391044404246,-0.29349353584937876,-0.10829156416619477,0.2218701109408456,2,left
11.27,0.5813519325165677,0.9465683149268794,-0.048551655723043194,2.2826315204445744,1.3417880546307637,-0.21904330055310334,-0.2888325917498607,-0.1025420439973704,0.21420991463206432,2,left
11.273,0.5787521044861605,0.9454939500049903,-0.04759659018481581,2.2723491529402793,1.354631476419268,-0.22253229299116292,-0.284129333055526,-0.09691280013774028,0.2062227431194196,2,left
11.273,0.5761071933171164,0.9444528681920987,-0.046661175064830154,2.261973539972548,1.3657501659023519,-0.2256175106027862,-0.2793872539610458,-0.09139974130758219,0.1979224400574822,2,left
11.277000000000001,0.5734180063780906,0.9434449173585141,-0.045745681352763974,2.2515276443844843,1.3751578069415633,-0.22830577901292412,-0.27460976911769885,-0.08599892264146496,0.189322812652313,2,left
11.277000000000001,0.5706852960236233,0.9424699416057518,-0.04485031597236766,2.2410325943098326,1.3828709186997654,-0.23060410029992184,-0.2698002112814556,-0.08070656296431487,0.1804376147577964,2,left
11.282,0.5679097596341841,0.9415277763680732,-0.043975223720905114,2.2305076213269497,1.3889088366931304,-0.2325196288004401,-0.26496182934962953,-0.07551906007347142,0.17128053101936638,2,left
11.283,0.565092040727575,0.9406182436488717,-0.04312048975131182,2.2199700113455707,1.3932936836385728,-0.23405964905402615,-0.2600977867723795,-0.07043300401120942,0.16186516204045057,2,left
11.287,0.562232731107156,0.9397411474709633,-0.04228614251853252,2.2094350681962545,1.3960503301188207,-0.23523155589395342,-0.25521116032525304,-0.0654451883125161,0.15220501054613683,2,left
11.287,0.5593323739838557,0.9388962696110635,-0.041472157119791006,2.198916089892312,1.3972063450825214,-0.23604283668984755,-0.2503049392288784,-0.06055261921321348,0.14231346851778598,2,left
11.290999999999999,0.5563914679815568,0.938083365679995,-0.040678458971014214,2.1884243575339797,1.396791936192026,-0.23650105574653937,-0.24538202460183836,-0.055752522803808276,0.1322038052715717,2,left
11.292,0.5534104719146686,0.9373021616007898,-0.03990492777480682,2.177969136824603,1.3948398800268367,-0.23661384086252701,-0.2404452292326946,-0.051042350114734236,0.12188915645322544,2,left
11.297,0.5503898102160333,0.9365523505271733,-0.03915140174309783,2.1675576921686313,1.3913854421461007,-0.23638887205039438,-0.2354972776570745,-0.04641978011892584,0.11138251392059945,2,left
11.298,0.5473298788916705,0.9358335902368857,-0.03841768203782258,2.1571953133213118,1.3864662870090294,-0.23583387242051862,-0.23054080652568448,-0.04188272063792853,0.10069671648503334,2,left
11.302999999999999,0.5442310518826908,0.9351455010298442,-0.037703537389717705,2.146885354560059,1.3801223777477127,-0.23495660122840717,-0.2255783652490731,-0.03742930713800931,0.08984444148192137,2,left
11.304,0.5410936877210109,0.9344876641598947,-0.03700870885239666,2.136629286347599,1.3723958657824866,-0.23376484908503473,-0.220612416904936,-0.033057899402983974,0.07883819714032528,2,left
11.307,0.537918136371484,0.9338596208282063,-0.03633291464698688,2.126426759457135,1.3633309702658054,-0.2322664353286025,-0.2156453393937293,-0.028767076070722996,0.06769031572096221,2,left
11.307,0.5347047461560994,0.9332608717631595,-0.035675855051310164,2.1162756815299106,1.3529738473364894,-0.23046920755521633,-0.21067942682834115,-0.024555627020539074,0.05641294739141932,2,left
11.311,0.5314538706575985,0.9326908774046462,-0.03503721728705081,2.1061723060357163,1.3413724491622439,-0.22838104330507672,-0.20571689114247416,-0.02042254364138958,0.045018054806478275,2,left
11.312000000000001,0.528165875507358,0.9321490587015552,-0.034416680360143365,2.0961113336070145,1.328576372744507,-0.2260098538998939,-0.2007598638969572,-0.0163670072235288,0.033517408358399954,2,left
11.314,0.5248411449778152,0.9316347985216786,-0.03381391981386694,2.0860860257175267,1.3146366984559819,-0.22336359042638101,-0.1958103982534322,-0.012388376098919691,0.021922582056920627,2,left
11.315999999999999,0.5214800883117899,0.9311474436626475,-0.03322861235503873,2.076088330676236,1.299605818277625,-0.22045025185984451,-0.19087047107943853,-0.008486172368410446,0.010244949995747179,2,left
11.317,0.5180831457203718,0.930686307439664,-0.03266044030659222,2.0661090219078972,1.2835372536984457,-0.21727789532107633,-0.1859419851543665,-0.004660068841434134,-0.0015043166353397417,2,left
11.318,0.5146507939757335,0.9302506728130403,-0.032109095831141354,2.0561378481607653,1.2664854635544218,-0.21385464839678694,-0.18102677145554713,-0.0009098764317649973,-0.013314252029209887,2,left
11.321,0.5111835515285289,0.9298397960111089,-0.03157428487004331,2.0461636936300276,1.248505643660898,-0.21018872314216683,-0.17612659150920595,0.0027644679593853403,-0.025174097764982768,2,left
11.322000000000001,0.5076819830919966,0.9294529106032466,-0.031055730751714306,2.036174743011306,1.2296535229360033,-0.20628843082382967,-0.1712431397921257,0.006362913083923522,-0.03707330437023109,2,left
11.325999999999999,0.5041467036465241,0.9290892319748227,-0.030553177432584514,2.0261586448462925,1.2099851622909936,-0.20216219614978642,-0.16637804616990218,0.009885304521855405,-0.04900153247569188,2,left
11.327,0.5005783818232841,0.9287479621420631,-0.03006639233738005,2.0161026681748933,1.1895567609795639,-0.19781857004328585,-0.16153287835772015,0.013331395401247635,-0.06094865359653274,2,left
11.331,0.49697774262848105,0.9284282948249989,-0.02959516876668307,2.0059938504823913,1.1684244722495287,-0.19326624057627478,-0.15670914438962302,0.01670085667350687,-0.07290475057433426,2,left
11.331,0.49334556947714553,0.9281294206812639,-0.02913932784627564,1.9958191365823459,1.1466442285567267,-0.1885140419884665,-0.15190829508230455,0.019993286954095028,-0.08486011771403335,2,left
11.335,0.48968270551699766,0.9278505325952027,-0.028698720003914237,1.9855655084063284,1.1242715762825854,-0.18357096177955765,-0.14713172647950643,0.023208221938579583,-0.09680526065012685,2,left
11.335999999999999,0.48599005423507785,0.9275908309133835,-0.028273225968962524,1.9752201056714165,1.1013615198947593,-0.1784461458615353,-0.14238078226316764,0.026345143403697563,-0.10873089597646157,2,left
11.341,0.48226857935090844,0.9273495285182034,-0.027862757295547484,1.9647703373961967,1.0779683754883895,-0.1731489017574416,-0.13765675611753733,0.02940348780289057,-0.12062795067393466,2,left
11.342,0.47851930401083054,0.9271258556359976,-0.027467256412430235,1.9542039842357855,1.054145633643839,-0.16768869983241555,-0.1329608940325318,0.03238265446554534,-0.13248756137039927,2,left
11.347000000000001,0.47474330930961717,0.9269190642856159,-0.02708669620573478,1.943509291606125,1.0299458315351984,-0.16207517254230952,-0.1282943965326907,0.0352820134089502,-0.1443010734670158,2,left
11.347999999999999,0.4709417321766275,0.9267284322880112,-0.02672107914483739,1.9326750535675095,1.0054204342224793,-0.15631811168468382,-0.12365842081816368,0.03810091277175187,-0.15606004016520586,2,left
11.35,0.467115762674156,0.9265532667757466,-0.026370435967444983,1.92169068743696,0.9806197250591726,-0.15042746363651407,-0.11905408280424078,0.04083868587746976,-0.1677562214282606,2,left
11.350999999999999,0.46326664076573826,0.9263929071617053,-0.026034823948803392,1.9105462990987014,0.95559270514576,-0.14441332256250633,-0.11448245904602292,0.04349465793639527,-0.17938158291152173,2,left
11.355,0.45939565262127763,0.9262467275470406,-0.025714324791577727,1.899232738981595,0.9303870017588344,-0.13828592157750277,-0.10994458853491727,0.0460681523939727,-0.19092829489489818,2,left
11.356,0.4555041265323329,0.9261141385679034,-0.025409042184211566,1.8877416486719514,0.905048785684689,-0.13205562184607783,-0.10544147435373263,0.04855849693352521,-0.20238873125130075,2,left
11.36,0.45159342851446294,0.925994588697819,-0.025119099084991978,1.8760654981296874,0.8796226973855802,-0.1257328996020694,-0.10097408517724406,0.05096502914095425,-0.21375546848437482,2,left
11.360999999999999,0.4476649576748342,0.9258875650374441,-0.02484463479640706,1.8641976134753082,0.8541517819263545,-0.11932833107046514,-0.09654335660519281,0.05328710183880402,-0.22502128486868522,2,left
11.365,0.44372014142221206,0.925792593634934,-0.02458580189813878,1.8521321953146883,0.828677432588748,-0.11285257527376845,-0.09215019231478741,0.055524088096843525,-0.2361791597252596,2,left
11.365,0.4397604305923688,0.9257092393879044,-0.024342763106108303,1.8398643275680946,0.8032393431004058,-0.10631635470470346,-0.08779546501987442,0.05767538592607833,-0.24722227286512913,2,left
11.37,0.4357872945550921,0.9256371055832325,-0.02411568812050197,1.827389976769347,0.7778754684055403,-0.09973043384688346,-0.0834800172240523,0.05974042266286125,-0.25814400423321476,2,left
11.370999999999999,0.43180221636098765,0.9255758331345545,-0.023904750518241622,1.8147059818004407,0.7526219939041346,-0.09310559552486232,-0.07920466175510979,0.061718659049526975,-0.26893793378459757,2,left
11.374,0.4278066879793493,0.9255250995785288,-0.023710124734438006,1.801810034026386,0.7275133130866929,-0.0864526150648158,-0.07497018206828113,0.06360959301772938,-0.27959784162488316,2,left
11.375,0.4238022056728926,0.9254846178893869,-0.02353198316540916,1.7887006477944163,0.7025820134917551,-0.07978223224695598,-0.07077733230592224,0.06541276318041296,-0.29011770844602186,2,left
11.380999999999998,0.41979026554994525,0.9254541351671435,-0.02337049341766906,1.7753771212611262,0.6778588709137022,-0.0731051210306709,-0.06662683710132787,0.06712775203809997,-0.30049171628857874,2,left
11.382,0.4157723593294651,0.9254334312477545,-0.023225815724057217,1.7618394875104904,0.6533728517887913,-0.06643185703330001,-0.06251939112233236,0.06875418890613194,-0.3107142496458744,2,left
11.382,0.4117499703482392,0.925422317273209,-0.023098100545879845,1.7480884559250969,0.629151123687865,-0.05977288274340639,-0.058455658389485465,0.07029175257528952,-0.32077989684906727,2,left
11.385,0.40772456983113886,0.925420634247564,-0.02298748637497617,1.734125344006754,0.6052190737448276,-0.053138470531686154,-0.054436271473967505,0.07174017372882803,-0.33068345153512313,2,left
11.386,0.4036976134362199,0.9254282515948292,-0.022894097743284384,1.71995200101415,0.5816003343509144,-0.046538683934163126,-0.050461830719560896,0.07309923714474943,-0.3404199139232355,2,left
11.386,0.39967053808151015,0.9254450657289602,-0.02281804344288013,1.705570726894495,0.55831681454599,-0.0399833384230512,-0.0465329035940919,0.07436878370583878,-0.34998449170075785,2,left
11.390999999999998,0.395644759061885,0.925470998644122,-0.022759414957314733,1.690984191157606,0.5353887350392087,-0.033481963292233755,-0.0426500242056315,0.07554871222887027,-0.3593726004559495,2,left
11.392000000000001,0.3916216674696505,0.9255059965324155,-0.022718285105008458,1.676195355168151,0.5128346652920001,-0.02704376587291187,-0.03881369297984511,0.07663898111809417,-0.3685798636703064,2,left
11.394,0.38760262793485173,0.9255500284352264,-0.022694706896935795,1.66120739922132,0.4906715619968448,-0.02067759855440597,-0.03502437648720538,0.07763960984665168,-0.3776021122979417,2,left
11.395,0.3835889766976604,0.9256030849331869,-0.022688712611374656,1.6460236545944489,0.4689148087860659,-0.014391928673753355,-0.031282507408914764,0.07855068026930698,-0.386435383958978,2,left
11.4,0.3795820200187113,0.9256651768784132,-0.022700313086005314,1.6306475405321204,0.44757825710587984,-0.00819481125562539,-0.02758848463051805,0.07937233776962885,-0.39507592177339107,2,left
11.4,0.3755830329277045,0.9257363341707838,-0.022729497224557898,1.615082506121697,0.42667426819207255,-0.002093864584294386,-0.02394267345232018,0.08010479224449638,-0.403520172861216,2,left
11.404000000000002,0.3715932583066598,0.9258166045771691,-0.02277623171513194,1.5993319770156658,0.4062137560848279,0.0039037514103896207,-0.020345405905860654,0.08074831892854634,-0.41176478653448195,2,left
11.405,0.3676139063018166,0.9259060525885691,-0.022840460959960982,1.58339930695664,0.38620623162144174,0.009791353970798434,-0.016796981165833565,0.08130325906092321,-0.4198066122056917,2,left
11.41,0.3636461540572878,0.9260047583053217,-0.02292210721896825,1.5672877340603046,0.36665984734689383,0.015562753550612584,-0.013297666046980357,0.0817700203964365,-0.42764269703709534,2,left
11.41,0.35969114576322236,0.9261128163359958,-0.023021070968621066,1.5510003418110687,0.3475814432835194,0.021212267092410687,-0.009847695575622073,0.08214907756297472,-0.4352702833544363,2,left
11.415,0.3557499930101861,0.9262303346927679,-0.02313723147096278,1.5345400247246603,0.3289765935023228,0.026734728560661496,-0.006447273625637947,0.08244097226677131,-0.4426868058482654,2,left
11.415999999999999,0.35182377543957066,0.9263574336651518,-0.023270447538302326,1.5179094586313862,0.3108496534397952,0.03212549674668606,-0.0030965736088382646,0.08264631334686415,-0.4498898885853283,2,left
11.419,0.3479135416773174,0.9264942446540747,-0.023420558473624155,1.5011110755332742,0.29320380790544326,0.03738046036180843,0.00020426079017893346,0.08276577667983892,-0.45687734185193246,2,left
11.42,0.34402031053497656,0.9266409089503886,-0.023587385167364697,1.4841470429878176,0.2760411197265887,0.042496040434549485,0.0034551148444554205,0.08280010493569614,-0.46364715885059465,2,left
11.425,0.3401450724586195,0.926797576447512,-0.023770731333499308,1.46701924797055,0.2593625789783741,0.04746919002734124,0.006655901990009997,0.0827501071854332,-0.4701975122706556,2,left
11.425999999999998,0.3362887912032207,0.9269644042857327,-0.023970384867321712,1.449729285168199,0.24316815274828635,0.05229739128785007,0.00980656301556751,0.08261665836068613,-0.47652675075293194,2,left
11.429,0.3324524057080608,0.9271415554331749,-0.024186119303265714,1.432278449653691,0.22745683538589626,0.0569786498495979,0.01290706524601833,0.08240069856553159,-0.48263339526784904,2,left
11.43,0.3286368321474161,0.9273291972142566,-0.024417695347283802,1.414667733893805,0.21222669918990178,0.06151148659616261,0.015957401728803167,0.08210323224030715,-0.4885161354258683,2,left
11.434000000000001,0.3248429661300753,0.9275274998000652,-0.024664862459322423,1.3968978290398104,0.19747494548594996,0.06589492680282333,0.018957590432274178,0.08172532717706879,-0.4941738257383877,2,left
11.434000000000001,0.321071685020541,0.9277366346770473,-0.02492736046754869,1.378969130450959,0.18319795605009898,0.07012848666909556,0.021907673464939242,0.08126811338606711,-0.4996054818466565,2,left
11.437999999999999,0.3173238503533127,0.9279567731126799,-0.025204921202658426,1.3608817474002393,0.16939134483416274,0.07421215725517559,0.024807716324352254,0.08073278181239013,-0.5048102767355999,2,left
11.439,0.31360031030882224,0.9281880846399545,-0.025497270144118966,1.3426355169113482,0.1560500099505515,0.07814638583488559,0.027657807184268305,0.08012058290168961,-0.5097875369488057,2,left
11.443,0.3099019022158716,0.9284307355852589,-0.02580412806959319,1.3242300216753768,0.14316818587558608,0.08193205467728132,0.03045805622853863,0.07943282501367972,-0.5145367388202745,2,left
11.444,0.30622945504189175,0.9286848876661247,-0.02612521269375805,1.3056646119952477,0.13073949583161126,0.08557045726865466,0.03320859504007659,0.07867087268187317,-0.5190575047378831,2,left
11.448,0.30258379183007117,0.9289506966859913,-0.02646024027537582,1.2869384317054862,0.11875700430957013,0.08906327198623486,0.03590957605055989,0.07783614472236369,-0.5233495994506385,2,left
11.449000000000002,0.29896573204310983,0.9292283113507429,-0.0268089271675951,1.2680504480144519,0.10721326969501976,0.09241253323446642,0.03856117204377793,0.076930112217072,-0.5274129264200307,2,left
11.45,0.2953760937777307,0.929517872225933,-0.027170991288869347,1.2489994852156943,0.09610039696186887,0.09562060005431954,0.04116357568268691,0.07595429643774333,-0.5312475241951456,2,left
11.453,0.291815695819197,0.9298195108477687,-0.027546153496059284,1.229784262129517,0.08541009037002499,0.09869012228149703,0.04371699901747989,0.07491026679960137,-0.5348535627794285,2,left
11.454,0.2882853595087368,0.9301333489976323,-0.02793413884366348,1.2104034327097766,0.0751337059575304,0.10162400465812091,0.04622167294445023,0.07379963891053276,-0.5382313399674425,2,left
11.454,0.28478591040086676,0.9304594981476804,-0.028334677716853888,1.1908556284844156,0.06526230335463876,0.10442536989450973,0.04867784660798917,0.07262407274039256,-0.541381277649308,2,left
11.459000000000001,0.2813181796925687,0.9307980590819679,-0.028747506833791608,1.1711395010721601,0.055786696301629524,0.10709752200639085,0.05108578675053074,0.07138527091199959,-0.5443039180909603,2,left
11.459000000000001,0.2778830054093859,0.9311491216932606,-0.029172370122349807,1.1512537634429305,0.04669750140021409,0.10964391092337265,0.05344577701763984,0.07008497711063458,-0.5469999201999309,2,left
11.463,0.274481233334765,0.9315127649497412,-0.029609019484091254,1.1311972293550991,0.03798518489391381,0.11206809877168744,0.05575811722529989,0.06872497460866805,-0.5494700557857003,2,left
11.463,0.2711137176716516,0.9318890570178572,-0.030057215461166187,1.1109688508278328,0.029640107420795033,0.11437372790471445,0.05802312259631817,0.0673070849017627,-0.551715205823022,2,left
