time,gFx,gFy,gFz,ax,ay,az,wx,wy,wz,subject_number,foot
8.925,-0.01045369477891214,0.9430090051740216,-0.06549155309881768,0.24476558774962875,-0.16517305702112733,-0.31636022384245577,0.003395884188056055,-0.3491400627460469,0.46702208345487317,3,right
8.926,-0.012199548385263118,0.943411124732938,-0.06498561546445183,0.2883678413310532,-0.17105796712823665,-0.3202700014434308,0.002295107627095197,-0.34474272855671945,0.45555071138824516,3,right
8.926,-0.014052580894796135,0.9438286226919282,-0.06447173326528338,0.33151753787121413,-0.17674081778791295,-0.32419156232829893,0.0011763417092286019,-0.3402282404665374,0.4440325686902536,3,right
8.93,-0.016009854244890084,0.9442617719045513,-0.06395043683775671,0.3741866820427942,-0.18221873450195486,-0.32811678888138324,4.019704854730207e-05,-0.3356012826923435,0.4324741890996419,3,right
8.931000000000001,-0.018068352745657334,0.9447108768873975,-0.0634222595321899,0.4163474234887845,-0.18748904238263966,-0.3320374960869478,-0.0011126948977914245,-0.33086659582487316,0.42088210041068375,3,right
8.935,-0.020224986326412675,0.9451762743937608,-0.06288773789576604,0.4579720974055467,-0.19254927819058446,-0.3359454708994375,-0.002281683194401344,-0.32602896778404766,0.4092628213548373,3,right
8.935,-0.02247659365193064,0.9456583338835596,-0.06234741195045042,0.4990332639327319,-0.19739720122592605,-0.3398325100084409,-0.0034660987487596003,-0.32109322521270595,0.397622858747119,3,right
8.94,-0.02481994511540346,0.946157457865062,-0.06180182553462041,0.5395037460634464,-0.20203080291023082,-0.34369045563389605,-0.0046652555918646485,-0.31606422529518285,0.3859687048639088,3,right
8.941,-0.027251745715064855,0.9466740820860297,-0.0612515266727645,0.5793566661262357,-0.20644831504404598,-0.3475112293001262,-0.005878452121816529,-0.31094684798684735,0.3743068350188239,3,right
8.943999999999999,-0.029768637822669114,0.9472086755579975,-0.0606970679405797,0.6185654809567873,-0.2106482167540146,-0.35128686359985434,-0.00710497231372053,-0.30574598864043245,0.3626437053032344,3,right
8.945,-0.03236720385516446,0.9477617404061939,-0.060139006801592496,0.6571040158755558,-0.2146292401428618,-0.35500953195926277,-0.008344086899357565,-0.30046655101471975,0.3509857504579566,3,right
8.951,-0.035043968865786056,0.9483338115471949,-0.05957790590248423,0.6949464975857372,-0.21839037465493907,-0.35867157641505576,-0.009595054520104947,-0.29511344065088885,0.33933938184263585,3,right
8.952,-0.03779540307619123,0.94892545620525,-0.05901433332448333,0.7320675861041759,-0.2219308701693891,-0.36226553341435547,-0.01085712285662941,-0.28969155860160106,0.32771098546932825,3,right
8.955,-0.04061792437549777,0.9495372732852615,-0.05844886279357206,0.7684424058358573,-0.22525023883236545,-0.36578415764810834,-0.012129529738910462,-0.28420579549766195,0.3161069200668048,3,right
8.956,-0.043507900814079445,0.9501698926256922,-0.05788207385036571,0.8040465759006443,-0.22834825563911068,-0.36922044392850617,-0.01341150424018614,-0.27866102593689485,0.30453351514213434,3,right
8.959,-0.04646165311933419,0.9508239741586798,-0.057314551974356975,0.8388562398188423,-0.23122495777606192,-0.3725676471207308,-0.014702267758445096,-0.27306210317966073,0.29299706900615424,3,right
8.96,-0.04947545725731211,0.9515002070068012,-0.056746888652167364,0.8728480946600357,-0.23388064273251943,-0.37581930013911596,-0.01600103508911866,-0.267413854135275,0.2815038467295068,3,right
8.964,-0.052545547058363506,0.9521993085454422,-0.056179681377342985,0.9059994197574265,-0.23631586519077835,-0.3789692300175821,-0.017307015492653947,-0.26172107462340405,0.2700600779960076,3,right
8.965,-0.05566811691674755,0.9529220234566468,-0.05561353356913146,0.9382881050876211,-0.23853143270298766,-0.3820115720639467,-0.018619413760674365,-0.25598852489436674,0.2586719548202184,3,right
8.97,-0.058839324563335516,0.9536691227951622,-0.05504905439989783,0.9696926794134695,-0.2405284001623672,-0.3849407821074379,-0.01993743128445682,-0.25022092539212615,0.24734562909622043,3,right
8.971,-0.06205529389866984,0.9544414030805718,-0.05448685852563745,1.0001923382851416,-0.24230806307577965,-0.38775164684844715,-0.021260267129475652,-0.24442295274362721,0.23608720994472776,3,right
8.974,-0.06531211786273551,0.9552396854212608,-0.0539275657190694,1.0297669719921527,-0.24387194964402512,-0.39043929231925006,-0.02258711911978171,-0.2385992359580228,0.22490276082583727,3,right
8.975,-0.06860586130885046,0.9560648146670391,-0.053371800407563716,1.0583971935565089,-0.24522181165559742,-0.3929991904640972,-0.023917184936001236,-0.2327543528192294,0.21379829638489245,3,right
8.981,-0.07193256384304275,0.9569176585789864,-0.05282019111858007,1.086064366854547,-0.2463596141990177,-0.395427163846741,-0.025249663230752877,-0.2268928264551665,0.2027797789991307,3,right
8.982000000000001,-0.07528824258868942,0.9577991069993032,-0.05227336983513755,1.1127506349523886,-0.2472875241982425,-0.39771938849310845,-0.026583754765292893,-0.2210191220669592,0.19185311499299734,3,right
8.985,-0.07866889484057561,0.9587100710011773,-0.051731971264814845,1.138438948737213,-0.24800789777502738,-0.39987239487646575,-0.02791866357120771,-0.21513764380132339,0.18102415049023943,3,right
8.987,-0.0820705005836917,0.9596514819979037,-0.051196632027399276,1.1631130959237934,-0.24852326644152045,-0.4018830670520406,-0.02925359814097992,-0.20925273174930425,0.1702986668711379,3,right
8.988,-0.08548902486861573,0.9606242907905695,-0.050667989766945004,1.1867577305129189,-0.2488363221257552,-0.40374863994767984,-0.030587772651258577,-0.20336865905450394,0.15968237580350234,3,right
8.988999999999999,-0.08892042005224617,0.9616294665345406,-0.05014668219375615,1.209358402775466,-0.2489499010321187,-0.4054666948167216,-0.03192040822045845,-0.19748962911858925,0.1491809138317049,3,right
8.99,-0.09236062792324923,0.9626679956077449,-0.04963334606134315,1.2309015898329674,-0.24886696633828065,-0.4070351528588509,-0.03325073419127096,-0.1916197729152458,0.13879983658519635,3,right
8.994,-0.09580558173323644,0.963740880368433,-0.049128616082261954,1.2513747268457684,-0.24859058975686577,-0.408452267048358,-0.03457798940879176,-0.18576314646584144,0.12854461280662266,3,right
8.995,-0.09925120815164107,0.964849137794738,-0.04863312378482733,1.270766238532845,-0.24812393212645878,-0.4097166123791157,-0.03590142345392313,-0.1799237285534628,0.11842061847685827,3,right
8.996,-0.1026934291611202,0.9659937980011573,-0.04814749631072183,1.289065570233086,-0.24747022344235484,-0.4108270750417433,-0.03722029780274518,-0.17410541872862867,0.10843313123775035,3,right
8.998,-0.1061281639151531,0.9671759026281668,-0.047672355152594964,1.3062632174307518,-0.24663274287379294,-0.411782841218312,-0.038533886902416555,-0.16831203561792676,0.09858732517536656,3,right
8.998,-0.10955133059073853,0.9683965031017824,-0.04720831483257341,1.3223507529487388,-0.24561479917698267,-0.4125833860091861,-0.03984147916519647,-0.1625473155234852,0.08888826595004758,3,right
9.005,-0.11295884828341639,0.9696566587614771,-0.04675598152749755,1.337320851521372,-0.24441971166631096,-0.41322846269957386,-0.04114237788437533,-0.1568149112965716,0.07934090624458452,3,right
9.006,-0.11634663900393698,0.9709574348583501,-0.04631595165158598,1.3511673117393082,-0.24305079176870636,-0.4137180924025982,-0.042435902075885996,-0.1511183914686855,0.06995008150224762,3,right
9.008,-0.11971062984161758,0.9722999004301038,-0.04588881040793506,1.363885075412754,-0.2415113251582432,-0.4140525540811853,-0.043721387249350534,-0.14546123962359148,0.060720505926813856,3,right
9.008,-0.12304675535775653,0.9736851260635168,-0.045475130315527273,1.3754702443959843,-0.23980455446756058,-0.4142323749506245,-0.044998186112298194,-0.13984685399383284,0.05165676871717724,3,right
9.013,-0.1263509602656492,0.9751141815569432,-0.0450754697115268,1.3859200949129309,-0.23793366257216952,-0.41425832126320705,-0.04626566921126897,-0.13427854726536878,0.042763330509574315,3,right
9.013,-0.1296192024452705,0.9765881334945743,-0.04469037122467858,1.3952330894203675,-0.235901756443234,-0.4141313894759056,-0.04752322551349439,-0.12875954657409083,0.03404452000092079,3,right
9.017999999999999,-0.1328474563328517,0.9781080427429257,-0.04432036021743856,1.4034088860419647,-0.2337118515639288,-0.41385279780161205,-0.04877026293282196,-0.12329299367809722,0.02550453072723117,3,right
9.019,-0.13603171671868336,0.9796749618804468,-0.043965943201204845,1.4104483456032315,-0.23136685690400632,-0.4134239781440114,-0.05000620880352317,-0.11788194528973579,0.017147417971582188,3,right
9.023,-0.1391680029789529,0.9812899325727699,-0.04362760623585683,1.4163535362940998,-0.22886956044674225,-0.41284656841572887,-0.05123051030559633,-0.11252937355156763,0.008977095776582334,3,right
9.023,-0.14225236375651498,0.9829539829074448,-0.04330581332622647,1.421127735982637,-0.22622261526197465,-0.412122405238953,-0.0524426348451455,-0.10723816664055406,0.00099733403682304,3,right
9.027999999999999,-0.14528088208922194,0.9846681247022667,-0.04300100482493848,1.4247754322001134,-0.22342852611850633,-0.4112535170273069,-0.0536420703933847,-0.10201112948492876,-0.0067882443526877745,3,right
9.029,-0.14824968096303068,0.9864333508005055,-0.04271359584863851,1.4273023198143975,-0.22048963662870227,-0.4102421174473125,-0.05482832578778363,-0.0968509845783848,-0.014376166315572857,3,right
9.033,-0.15115492924259463,0.988250632365376,-0.04244397471488635,1.428715296405404,-0.21740811691768325,-0.40909059925737173,-0.05600093099883557,-0.09176037287638276,-0.021763111403529378,3,right
9.033999999999999,-0.15399284790850232,0.9901209161862277,-0.042192501409419374,1.4290224553530828,-0.21418595180909403,-0.40780152852177415,-0.05715943736589236,-0.08674185475956929,-0.02894591461852773,3,right
9.039,-0.15675971651334805,0.9920451220111157,-0.041959506098523405,1.4282330766452267,-0.21082492951900825,-0.40637763919682895,-0.058303417805473046,-0.0817979110494883,-0.03592156926955625,3,right
9.04,-0.15945187976145941,0.9940241399245677,-0.041745287706829406,1.4263576154091702,-0.207326630849122,-0.4048218280858208,-0.05943246699541384,-0.07693094406196671,-0.04268722988512587,3,right
9.042,-0.16206575411740745,0.9960588277937049,-0.04155011258243265,1.423407688168288,-0.20369241886998327,-0.40313715015909124,-0.06054620153818667,-0.0721432786837627,-0.04924021520216228,3,right
9.043,-0.16459783435201425,0.9981500088078401,-0.04137421326844703,1.4193960568210395,-0.1999234290846055,-0.4013268142351616,-0.061644260106671706,-0.06743716345827942,-0.05557801125131896,3,right
9.049,-0.16704469993696103,1.000298469135059,-0.041217787398469014,1.4143366103372048,-0.19602056006241841,-0.3993941790184341,-0.0627263035756264,-0.06281477166636736,-0.06169827455814115,3,right
9.05,-0.16940302119726472,1.0025049557140042,-0.04108099673629018,1.4082443441628598,-0.19198446453311827,-0.3973427494886396,-0.06379201514204999,-0.05827820238846671,-0.0675988354789001,3,right
9.052,-0.17166956512610834,1.0047701741897013,-0.04096396638321055,1.401135337322599,-0.1878155409295927,-0.39517617363683755,-0.06484110043759683,-0.05382948153457498,-0.07327770168929965,3,right
9.052999999999999,-0.17384120076414283,1.0070947869898603,-0.04086678417377997,1.3930267272045018,-0.18351392536870925,-0.3928982395424237,-0.06587328763614662,-0.049470562828765344,-0.07873306184363225,3,right
9.056000000000001,-0.17591490405135005,1.009479411526831,-0.04078950027329213,1.3839366820103773,-0.17907948405837365,-0.39051287278526137,-0.06688832755879313,-0.04520332874106772,-0.08396328941322885,3,right
9.057,-0.17788776207721638,1.011924618505037,-0.04073212698240016,1.3738843708509012,-0.1745118061188824,-0.3880241341867193,-0.06788599377447094,-0.041029591388974905,-0.08896694667190046,3,right
9.058,-0.17975697668154442,1.0144309303152592,-0.0406946387483146,1.3628899314623903,-0.16981019680621168,-0.3854362178730809,-0.06886608268720001,-0.036951093483651914,-0.09374278872250988,3,right
9.062000000000001,-0.18151986738471973,1.0169988195014916,-0.040676972377841486,1.350974435575879,-0.16497367113403683,-0.3827534496451091,-0.0698284135968841,-0.03296950942538828,-0.09828976741765516,3,right
9.062999999999999,-0.18317387364570628,1.01962870728957,-0.040679027444774814,1.3381598522500824,-0.1600009479385618,-0.37998028559039265,-0.0707728287245437,-0.029086446623903053,-0.10260703506730631,3,right
9.064,-0.18471655646117768,1.0223209621696252,-0.04070066688279615,1.324469009987754,-0.1548904445156593,-0.3771213107904641,-0.07169919320000506,-0.025303447066827942,-0.1066939478985007,3,right
9.067,-0.18614559933842179,1.0250758985264978,-0.0407417177536995,1.3099255587359881,-0.14964027200710178,-0.3741812379275463,-0.07260739501401031,-0.021621989130773886,-0.1105500692720554,3,right
9.068,-0.187458808700709,1.0278937753123698,-0.040801972179200306,1.2945539325847453,-0.14424823166460296,-0.3711649056423863,-0.07349734493746138,-0.01804348962382923,-0.11417517266869769,3,right
9.071,-0.18865411380967828,1.0307747947548809,-0.04088118842440561,1.2783793134647448,-0.13871181203418828,-0.36807727657874073,-0.07436897641045893,-0.014569306048625252,-0.11756924445635321,3,right
9.072000000000001,-0.18972956630766288,1.0337191010931543,-0.04097909212188175,1.2614275958597334,-0.13302818705534056,-0.36492343509670316,-0.0752222454037449,-0.011200739075396187,-0.12073248644966912,3,right
9.076,-0.1906833394931801,1.0367267793341541,-0.04109537762483509,1.2437253524890233,-0.12719421505942605,-0.36170858464622097,-0.07605713025510519,-0.007939035214756637,-0.12366531827218587,3,right
9.077,-0.19151372744676523,1.0397978540238015,-0.04122970947550692,1.2252998009138925,-0.12120643865148983,-0.35843804479194097,-0.07687363148323635,-0.004785389680218735,-0.1263683795309084,3,right
9.082,-0.19221914412311192,1.0429322880312897,-0.041381723972046834,1.2061787710192062,-0.11506108545908646,-0.35511724788033616,-0.07767177158152747,-0.001740949430774784,-0.1288425318123651,3,right
9.083,-0.19279812252043127,1.0461299813491756,-0.04155103081562821,1.186390673319464,-0.10875406973137883,-0.35175173533988907,-0.07845159479415562,0.0011931836158220808,-0.13108886050858068,3,right
9.087,-0.1932493140285883,1.0493907699144025,-0.04173721481852626,1.1659644680364,-0.10228099477129579,-0.3483471536049478,-0.07921316687684048,0.004015949208136311,-0.13310867648073035,3,right
9.087,-0.19357148804225066,1.0527144244561146,-0.041939837649539874,1.1449296348932696,-0.09563715618308599,-0.3449092496537275,-0.07995657484455111,0.0067263252332309285,-0.13490351756758512,3,right
9.091000000000001,-0.19376353190470907,1.0561006493752987,-0.04215843958426452,1.123316143569037,-0.08881754591713986,-0.34144386615080097,-0.08068192670840535,0.009323324044377784,-0.1364751499452041,3,right
9.092,-0.1938244512254838,1.059549081659164,-0.04239254122005169,1.1011544247538507,-0.08181685709347424,-0.3379569361843099,-0.0813893512039496,0.011805988652403917,-0.1378255693436795,3,right
9.096,-0.1937533705940735,1.063059289830909,-0.04264164511722962,1.0784753417454398,-0.07462948958478292,-0.33445447758803365,-0.08207899751295505,0.0141733887884581,-0.13895700212609446,3,right
9.097000000000001,-0.1935495346951581,1.0666307729355529,-0.04290523734098049,1.0553101625244126,-0.06724955633945086,-0.3309425868383734,-0.08275103498081413,0.01642461684565597,-0.13987190623421247,3,right
9.101,-0.193212309815806,1.0702629595661846,-0.04318278889464827,1.0316905322448535,-0.05967089042440854,-0.3274274325162468,-0.08340565283157003,0.018558783706733795,-0.14057297200478291,3,right
9.101,-0.1927411857202402,1.0739552069415106,-0.043473757046327145,1.00764844607514,-0.05188705276716685,-0.3239152483238455,-0.08404305988256068,0.02057501446450981,-0.14106312285971823,3,right
9.106,-0.19213577785251224,1.0777068000537644,-0.04377758655547459,0.9832162223224953,-0.04389134057581825,-0.32041232564617994,-0.08466348426060805,0.022472444041618377,-0.1413455158727768,3,right
9.107000000000001,-0.19139582981406789,1.0815169509143074,-0.04409371081020676,0.958426475773496,-0.0356767964152191,-0.3169250056473259,-0.08526717312163404,0.024250212715646004,-0.14142354221477188,3,right
9.11,-0.1905212160534014,1.0853847979300653,-0.04442155289086051,0.9333120911815379,-0.02723621791697773,-0.3134596708912981,-0.08585439237553433,0.02590746155545943,-0.1413008274787211,3,right
9.111,-0.1895119446999625,1.0893094054451022,-0.044760526577777675,0.9079061968311406,-0.018562168100263694,-0.3100227364775003,-0.08642542641809316,0.027443327774174707,-0.14098123188575573,3,right
9.115,-0.18836816047381744,1.0932897634772711,-0.04511003731833948,0.88224213810795,-0.009646986279824544,-0.30662064068074835,-0.08698057787167374,0.028856940003872532,-0.14046885037202092,3,right
9.116,-0.18709014760309714,1.0973247876697947,-0.045469483161840435,0.8563534510023622,-0.0004827995369465701,-0.303259835085925,-0.08752016733637201,0.03014741349681877,-0.1397680125562234,3,right
9.121,-0.18567833268057096,1.1014133194628568,-0.04583825566327744,0.8302738354738534,0.008938465271575245,-0.2999467742074062,-0.08804453315327465,0.031313845257600455,-0.13888328258691693,3,right
9.122,-0.18413328739050416,1.1055541264746656,-0.04621574075052583,0.8040371286023688,0.018625068992085946,-0.2966879045834998,-0.08855403118141679,0.032355309110236215,-0.13781945886806274,3,right
9.126,-0.1824557310411186,1.109745903070958,-0.04660131954826714,0.7776772774524648,0.028585447166681655,-0.2934896533362572,-0.08904903458957768,0.03327085071160164,-0.13658157366048967,3,right
9.127,-0.1806465328492946,1.1139872711008598,-0.04699436915826326,0.7512283115753617,0.038828196566865536,-0.29035841618715175,-0.08952993366194316,0.034059482560329535,-0.13517489255448664,3,right
9.127,-0.1787067139428009,1.118276780783517,-0.04739426340223091,0.724724315073606,0.04936206129609384,-0.28730054491927787,-0.08999713561290536,0.03472017911870257,-0.13360491380489392,3,right
9.13,-0.17663744906730863,1.1226129117365753,-0.047800373533091224,0.6981993981856321,0.06019591848755489,-0.2843223342988053,-0.09045106440416344,0.03525187220287025,-0.13187736751769782,3,right
9.131,-0.17444006800374454,1.1269940741395243,-0.048212068914034144,0.67168766851194,0.07133876361288927,-0.28143000857816164,-0.09089216055931329,0.035653446758181086,-0.12999821467851075,3,right
9.131,-0.17211605671286542,1.1314186100227808,-0.04862871766017141,0.6452232023008885,0.08279969539779312,-0.2786297079008079,-0.0913208809747916,0.035923737067336974,-0.12797364601620362,3,right
9.135,-0.1696670582339109,1.135884794666899,-0.04904968724055897,0.618840016376732,0.09458790032986265,-0.2759274750372475,-0.09173769872806613,0.0360615234005299,-0.12581008069636826,3,right
9.135,-0.16709487338034168,1.1403908380861476,-0.04947434504820222,0.5925720411278804,0.10671263675637152,-0.2733292427726089,-0.09214310288434048,0.036065529108712066,-0.12351416483922475,3,right
9.14,-0.16440146129670968,1.1449348865627065,-0.04990205895406141,0.5664530946770537,0.11918321859118994,-0.2708408220692243,-0.09253759830300598,0.03593441816077338,-0.12109276985617155,3,right
9.141,-0.16158893995846324,1.1495150241962049,-0.0503321978592371,0.5405168581905526,0.13200899866244073,-0.26846789101836416,-0.09292170544503901,0.035666793125019226,-0.1185529905987771,3,right
9.145,-0.15865958670373595,1.154129274437869,-0.050764132246478105,0.5147968522512544,0.14519935173574333,-0.2662159845736759,-0.09329596018250964,0.035261193594957205,-0.11590214331363255,3,right
9.145,-0.15561583887941116,1.1587756015886148,-0.05119723471431154,0.4893264142203763,0.15876365724889063,-0.2640904850591899,-0.09366091361133597,0.034716095059013276,-0.11314776339612469,3,right
9.149,-0.15246029466376945,1.1634519122539146,-0.05163088046354149,0.4641386765135687,0.17271128179482384,-0.2620966134450889,-0.09401713186838864,0.0340299082134052,-0.11029760293584862,3,right
9.151,-0.14919571409980248,1.1681560567604767,-0.052064447706033884,0.4392665457175251,0.18705156139081805,-0.2602394213847821,-0.09436519595402187,0.03320097871700495,-0.10735962804606153,3,right
9.156,-0.1458250203445722,1.1728858305484409,-0.0524973179826131,0.4147426824740091,0.20179378357286518,-0.25852378400719067,-0.09470570156108075,0.032227587386620564,-0.10434201596928126,3,right
9.156,-0.14235130111748587,1.177638975560382,-0.05292887640290418,0.3905994820590118,0.21694716935534225,-0.2569543934585259,-0.09503925891140923,0.031107950830722902,-0.1012531519508595,3,right
9.16,-0.13877781031439626,1.1824131816576902,-0.05335851184567912,0.3668690555856598,0.23252085509718073,-0.25553575318823685,-0.09536649260086005,0.029840222519232042,-0.09810162587210686,3,right
9.16,-0.13510796973963501,1.1872060881048154,-0.05378561717590377,0.343583211760492,0.24852387431690776,-0.2542721729742083,-0.09568804145378623,0.028422494286563356,-0.09489622863431932,3,right
9.164,-0.13134537088982218,1.192015285168098,-0.05420958953133446,0.3207734391238181,0.26496513950010986,-0.25316776468270985,-0.0960045583879734,0.026852798264712794,-0.09164594828485101,3,right
9.165,-0.1274937767005124,1.196838315874438,-0.05462983069976374,0.2984708887060559,0.2818534239440779,-0.2522264387590313,-0.09631671029095457,0.025129109242735446,-0.08835996587619863,3,right
9.169,-0.1235571231402971,1.201672677965502,-0.05504574756162223,0.27670635703322133,0.2991973436856251,-0.25145190144518215,-0.09662517790863268,0.023249347448540385,-0.08504765104890892,3,right
9.17,-0.11953952051061914,1.2065158260693924,-0.055456752535176373,0.2555102694161116,0.31700533955932836,-0.2508476527214916,-0.09693065574712117,0.02121138174848809,-0.08171855732899137,3,right
9.174,-0.11544525429263007,1.2113651740987739,-0.05586226394967906,0.2349126634591789,0.3352856594347264,-0.2504169849694122,-0.09723385198870121,0.01901303325983433,-0.07838241713041699,3,right
9.175,-0.11127878538710047,1.2162180978750243,-0.056261706293398876,0.21494317272663624,0.35404634068231833,-0.2501629823533103,-0.09753548842278295,0.01665207937061579,-0.07504913645320806,3,right
9.179,-0.10704474962418672,1.221071937971463,-0.056654510330000483,0.1956310105049695,0.37329519291953744,-0.2500885209195141,-0.09783630039274988,0.014126258161118262,-0.07172878926757634,3,right
9.179,-0.10274795646650917,1.2259240027635312,-0.05704011311878681,0.1770049536027482,0.39303978108923193,-0.2501962694113895,-0.09813703675955912,0.011433273220607299,-0.06843161157454733,3,right
9.184,-0.09839338687434777,1.2307715716708392,-0.05741795798558098,0.15909332613043048,0.41328740892456367,-0.2504886907997191,-0.09843845988296542,0.00857079885253414,-0.06516799513351637,3,right
9.185,-0.09398619033583105,1.2356118985780953,-0.0577874944740577,0.1419239832047466,0.43404510285563885,-0.25096804452817695,-0.09874134562123488,0.00553648566095589,-0.06194848084722041,3,right
9.189,-0.08953168108879138,1.2404422154284094,-0.058148178281619944,0.12552429452421285,0.45531959641460706,-0.25163638947421413,-0.09904648335021382,0.002327966510428742,-0.058783751794675904,3,right
9.19,-0.08503533357936886,1.2452597359865956,-0.05849947115941817,0.10992112776438154,0.4771173151974093,-0.25249558762619934,-0.09935467600262032,-0.0010571371488539473,-0.05568462590272983,3,right
9.193999999999999,-0.08050277721600761,1.2500616597638414,-0.058840840734032486,0.09514083174356312,0.499444362441821,-0.2535473084781963,-0.09966674012843059,-0.004621208599400596,-0.0526620482469983,3,right
9.195,-0.07593979048094802,1.2548451760781043,-0.05917176019668288,0.0812092193119657,0.52230650528292,-0.25479303414430227,-0.0999835059760081,-0.008366628831301971,-0.04972708297650894,3,right
9.196,-0.07135229445019307,1.2596074682087048,-0.0594917078137685,0.06815154991948548,0.5457091617486122,-0.256234065195019,-0.10030581758748372,-0.012295769206436729,-0.04689090487347434,3,right
9.199,-0.06674634575205342,1.2643457175994601,-0.059800166234655255,0.05599251181974377,0.5696573885593653,-0.2578715272186811,-0.10063453289083654,-0.01641098387987988,-0.044164790590303794,3,right
9.2,-0.0621281289764022,1.269057108067016,-0.06009662159431732,0.04475620387531814,0.5941558697735624,-0.2597063780940803,-0.10097052376498923,-0.020714602066124507,-0.0415601096231351,3,right
9.2,-0.05750394853915012,1.2737388299730452,-0.06038056242087602,0.034466116956200256,0.6192089062000391,-0.26173941587376987,-0.1013146760603977,-0.02520892021904339,-0.039088315064529394,3,right
9.203,-0.05288022000740422,1.278388084325743,-0.06065147835985075,0.02514511497032846,0.6448204052824267,-0.263971287021113,-0.10166788956870186,-0.029896194160471186,-0.03676093414782902,3,right
9.204,-0.04826346089814956,1.2830020867868102,-0.06090885872192906,0.016815415592268377,0.6709938710401049,-0.26640249465748966,-0.10203107794117464,-0.03477863117361748,-0.034589558579104784,3,right
9.208,-0.04366028097392313,1.2875780715632879,-0.06115219085987344,0.009498570734255876,0.6977323937735581,-0.2690334065638608,-0.10240516855695962,-0.03985838207422657,-0.03258583464961674,3,right
9.209,-0.03907737206383001,1.2921132951571133,-0.06138095839228635,0.003215446762364047,0.7250386394620432,-0.27186426283844506,-0.1027911023421145,-0.04513753327295404,-0.030761453122127528,3,right
9.214,-0.03452149743199688,1.2966050399387046,-0.06159463931154096,-0.0020137955611733566,0.7529148389044849,-0.2748951832000502,-0.10318983354050518,-0.050618098842990726,-0.029128138884855444,3,right
9.215,-0.029999480703038043,1.301050617511635,-0.06179270402130038,-0.0061697214304564174,0.7813627766804181,-0.2781261739446181,-0.10360232943762748,-0.05630201260753121,-0.027697640367336424,3,right
9.218,-0.025518194341320778,1.3054473718427968,-0.061974613335562694,-0.0092336426612378,0.8103837800094249,-0.281557134563115,-0.10402957003846718,-0.062191120262256906,-0.026481718712979156,3,right
9.219,-0.021084547668676755,1.3097926821406412,-0.06213981644800947,-0.011187638684046111,0.8399787075891504,-0.28518786402947505,-0.10447254770054569,-0.06828717154858205,-0.02549213670364651,3,right
9.224,-0.016705474395406053,1.314083965468888,-0.06228774886964461,-0.012014577877012463,0.8701479384936259,-0.289018066767878,-0.10493226672333887,-0.07459181249399492,-0.024740647432179266,3,right
9.224,-0.012387919638962875,1.3183186790849988,-0.062417830346901855,-0.011698139247163517,0.9008913612152686,-0.29304735830921697,-0.10540974289529809,-0.08110657773641594,-0.024238982719394384,3,right
9.228,-0.0081388264194595,1.3224943224939854,-0.06252946280303125,-0.010222834465757379,0.9322083629355773,-0.29727527064718584,-0.10590600299974849,-0.08783288295008848,-0.023998841272740407,3,right
9.229,-0.003965121646692054,1.3266084392097468,-0.06262202836391073,-0.00757403026000278,0.9640978191111934,-0.3017012573049892,-0.10642208428098723,-0.09477201739111728,-0.02403187658447634,3,right
9.232999999999999,0.00012629836239942864,1.3306586182175142,-0.06269488750981611,-0.003737971160219149,0.9965580834636415,-0.3063246981242474,-0.10695903387195553,-0.10192513658137262,-0.02434968456795812,3,right
9.234,0.004128582781623174,1.3346424951315106,-0.06274737734612089,0.0012981974018321147,1.029586978462715,-0.31114490378824267,-0.10751790818491232,-0.10929325515008598,-0.024963790931367934,3,right
9.238,0.008034941524932965,1.3385577530419341,-0.06277880995012182,0.007546405651084073,1.0631817863951103,-0.31616112009221964,-0.10809977226659455,-0.11687723985307397,-0.0258856382890062,3,right
9.238999999999999,0.01183866077230385,1.3424021230457976,-0.06278847076213583,0.015017635694816076,1.0973392411115575,-0.3213725319740192,-0.10870569911940878,-0.12467780279014175,-0.027126573011084072,3,right
9.242,0.015533118682471338,1.346173384458116,-0.06277561703932219,0.023721897430314224,1.132055520547322,-0.3267782673188929,-0.10933676899026168,-0.1326954948418342,-0.028697831813805214,3,right
9.244,0.01911180119056037,1.34986936470335,-0.06273947643875975,0.033668204152513564,1.1673262401125815,-0.33237740055290543,-0.10999406862870378,-0.14093069934732355,-0.030610528092409592,3,right
9.248,0.02256831778658953,1.35348793888917,-0.06267924580402492,0.044864547883106426,1.203146447050793,-0.3381689560398946,-0.11067869051612891,-0.1493836260458431,-0.03287563800076825,3,right
9.249,0.025896417181708143,1.3570270290625153,-0.062594090194602,0.0573178744461413,1.2395106158647742,-0.3441519112975165,-0.11139173206784482,-0.15805430530470121,-0.035503986282066954,3,right
9.252,0.029090002786789672,1.3604846031424054,-0.06248314215200988,0.07103405831870259,1.2764126449118076,-0.3503252000484575,-0.11213429480990578,-0.16694258265753273,-0.0385062318560969,3,right
9.254,0.032143147943575465,1.3638586735192038,-0.06234550117661118,0.08601787728885031,1.3138458542706621,-0.3566877151234495,-0.11290748353267588,-0.17604811367707154,-0.041892853169682866,3,right
9.257,0.03505011085631883,1.3671472953097552,-0.06218023340445716,0.10227298695660741,1.35180298498498,-0.3632383112332728,-0.11371240542317396,-0.18537035920735237,-0.04567413331782243,3,right
9.258,0.03780534917043839,1.3703485642636504,-0.06198637150431151,0.11980189511740805,1.390276199789026,-0.36997580762747906,-0.11455016917833581,-0.19490858098087438,-0.049860144944183234,3,right
9.262,0.04040353413547555,1.3734606143276855,-0.06176291483501497,0.1386059360710591,1.429257085423319,-0.37689899065810945,-0.11542188410141707,-0.20466183764688375,-0.054460734930709596,3,right
9.263,0.042839564278427195,1.3764816148901104,-0.06150882990194016,0.15868524490291683,1.4687366566491684,-0.38400661626722365,-0.1163286591819708,-0.21462898122757518,-0.05948550889165736,3,right
9.264,0.04510857851079102,1.3794097677364023,-0.06122305113501788,0.18003873178763777,1.5087053620726214,-0.39129741241759164,-0.11727160215052441,-0.22480865396974187,-0.06494381551071216,3,right
9.267000000000001,0.047205968602336744,1.3822433037503763,-0.060904481992286964,0.2026640563695224,1.5491530918897847,-0.39877008148643467,-0.11825181848225154,-0.23519928547021582,-0.07084473080094995,3,right
9.267999999999999,0.04912739096432243,1.3849804793939007,-0.060551996379137156,0.22655760227713284,1.5900691876669115,-0.40642330264263055,-0.1192704103146308,-0.24579908990416327,-0.07719704239079038,3,right
9.267999999999999,0.05086877768437321,1.3876195730001628,-0.0601644403651896,0.2517144518593043,1.6314424542137769,-0.4142557342100655,-0.12032847525359212,-0.25660606323580176,-0.08400923391816432,3,right
9.273,0.052426346755025964,1.3901588809155343,-0.05974063417951645,0.2781283613622359,1.6732611733288378,-0.422266015929038,-0.12142710505968406,-0.26761798038151474,-0.0912894695764754,3,right
9.274,0.05379661144878535,1.3925967135208959,-0.059279374470463664,0.3057917370030323,1.7155131186895176,-0.4304527708637992,-0.12256738421530984,-0.2788323923458315,-0.09904557883505653,3,right
9.277000000000001,0.05497638880550004,1.394931391159921,-0.05877943682171644,0.33469561252760616,1.7581855708808707,-0.43881460661353244,-0.12375038837607442,-0.29024662336131324,-0.10728504135370918,3,right
9.277000000000001,0.05596280720237172,1.3971612400032236,-0.058239578513992446,0.36482962871554825,1.8012653318385563,-0.4473501155758827,-0.12497718270940059,-0.3018577680639742,-0.11601497211225587,3,right
9.282,0.05675331297695601,1.3992845878810478,-0.05765854151295936,0.3961820150661112,1.8447387384897973,-0.4560578741769921,-0.12624882012369232,-0.3136626887364486,-0.12524210677740366,3,right
9.283,0.05734567607596603,1.4012997601203374,-0.057035055657313184,0.4287395737741007,1.8885916756586079,-0.46493644107380017,-0.12756633939144602,-0.3256580126516862,-0.13497278733060367,3,right
9.287,0.05773799470714408,1.4032050754241507,-0.056367842023792504,0.46248766608221625,1.9328095883590168,-0.47398435435312575,-0.12893076316983626,-0.33784012955052645,-0.1452129479819996,3,right
9.288,0.0579286989753304,1.404998841832946,-0.05565561645659886,0.4974102010998795,1.9773774936011392,-0.4832001277525438,-0.1303430959224313,-0.35020518928705574,-0.15596810139698652,3,right
9.292,0.05791655348708713,1.4066793528088075,-0.05489709325763826,0.5334896271820476,2.0222799918360472,-0.49258224592855765,-0.13180432174582546,-0.3627490996761997,-0.16724332526334582,3,right
9.293,0.05770065891211853,1.4082448834855459,-0.054090989032320486,0.5707069259649272,2.0675012781664317,-0.5021291587980573,-0.1333154021051103,-0.37546752457853777,-0.17904324922838574,3,right
9.296,0.05728045249482397,1.4096936871299055,-0.05323602667295041,0.6090416091588732,2.1130251534510576,-0.5118392749795346,-0.1348772734822437,-0.38835588225785306,-0.19137204223699525,3,right
9.297,0.05665570751556535,1.411023991861414,-0.05233093944631572,0.6484717182020786,2.158835035431963,-0.521710954361004,-0.1364908449415166,-0.4014093440474441,-0.20423340030301143,3,right
9.301,0.05582653170896787,1.4122339976793787,-0.05137447514448722,0.6889738268819272,2.2049139700142866,-0.5317424998220516,-0.13815699561646075,-0.41462283336172384,-0.217630534747808,3,right
9.302,0.05479336465619869,1.413321873844658,-0.050365400263816765,0.7305230470340855,2.2512446428294557,-0.5419321481379029,-0.13987657212268598,-0.4279910250901211,-0.23156616094152982,3,right
9.306000000000001,0.053556974179610535,1.414285756662599,-0.04930250419385137,0.7730930374325573,2.297809391213307,-0.5522780600938649,-0.14165038590128406,-0.4415083454107736,-0.24604248758392788,3,right
9.307,0.05211845178084627,1.415123747713046,-0.04818460341601186,0.8166560159869974,2.344590216731467,-0.5627783098389565,-0.14347921049758805,-0.45516897206195717,-0.2610612065632868,3,right
9.312000000000001,0.05047920717645746,1.415833912572427,-0.04701054572397881,0.8611827753665905,2.391568798385057,-0.5734308735079953,-0.1453637787802278,-0.46896683510964593,-0.27662348343348275,3,right
9.312999999999999,0.04864096199699391,1.416414280069371,-0.04577921448515044,0.9066427021727228,2.438726506630444,-0.5842336171418577,-0.14730478010557999,-0.4828956182500198,-0.2927299485507626,3,right
9.316,0.046605742724246606,1.4168628421077316,-0.04448953297011342,0.9530037997855335,2.486044418347398,-0.5951842839360729,-0.14930285743286706,-0.49694876068615074,-0.30938068891339093,3,right
9.317,0.044375872944947,1.417177554079723,-0.04314046878346397,1.0002327150121897,2.5335033328905605,-0.6062804808483471,-0.15135860439532106,-0.5111194596184919,-0.32657524074887334,3,right
9.321,0.04195396499906332,1.4173563358788446,-0.04173103842840271,1.0482947686674131,2.581083789359663,-0.617519664596047,-0.15347256233298961,-0.5254006733891686,-0.3443125828950249,3,right
9.321,0.039342911100363524,1.4173970735089017,-0.040260312027080185,1.0971539902193674,2.628766085224382,-0.6288991270750967,-0.15564521729292505,-0.5397851253204278,-0.36259113102271673,3,right
9.326,0.03654587400759475,1.417297621272088,-0.03872741820258718,1.1467731566365091,2.676530296440127,-0.6404159802321563,-0.15787699700266347,-0.5542653082879389,-0.38140873274969306,3,right
9.326,0.03356627732501637,1.4170558045061703,-0.037131549111096784,1.1971138355733928,2.7243562991914074,-0.6520671404223674,-0.160168267823068,-0.5688334900699578,-0.4007626636964113,3,right
9.33,0.030407795508137676,1.4166694228303733,-0.035471965595261654,1.2481364330357112,2.7722237933997076,-0.663849312285345,-0.16251933168677815,-0.5834817195136592,-0.42064962453640775,3,right
9.332,0.027074343641381855,1.4161362538541309,-0.0337480024148579,1.2998002456670297,2.820112328133047,-0.6757589721724987,-0.16493042302769464,-0.5982018335298357,-0.44106573906999,3,right
9.332,0.023570067038401768,1.415454057304032,-0.03195907350423346,1.3520635178017448,2.8680013290545685,-0.6877923511591423,-0.16740170570218424,-0.6129854647754933,-0.4620065532253281,3,right
9.335,0.01989933069672575,1.4146205795310776,-0.03010467721099463,1.4048835034307534,2.915870128047627,-0.6999454176752351,-0.16993326989401442,-0.6278240496106549,-0.48346703466526864,3,right
9.336,0.0160667086224105,1.4136335583670292,-0.028184401478106736,1.45821653322816,2.963697995154896,-0.712213859788957,-0.1725251289902837,-0.6427088357639633,-0.5054415725534508,3,right
9.337,0.012076973029222672,1.4124907283008707,-0.026197928933121954,1.51201808666893,3.0114641728540428,-0.7245930671930302,-0.1751772164207022,-0.6576308892937849,-0.5279239771610732,3,right
9.34,0.007935083407640276,1.4111898259481306,-0.02414504184637632,1.5662428686682968,3.059147912117525,-0.7370781130207972,-0.17788938246159727,-0.6725811007051163,-0.5509074792244312,3,right
9.341000000000001,0.0036461754497384767,1.4097285957917638,-0.022025626920387828,1.6208448890939664,3.106728508669074,-0.7496637357575573,-0.1806613910111061,-0.6875501902346538,-0.5743847290910854,3,right
9.345,-0.0007844501947594527,1.408104796180961,-0.019839679871213906,1.6757775429028003,3.1541853372743285,-0.7623443215897355,-0.1834929163431739,-0.7025287123468715,-0.5983477957192327,3,right
9.346,-0.005351339370848409,1.4063162055793836,-0.017587309753672824,1.7309936892555766,3.201497882477775,-0.7751138874580082,-0.18638353984814945,-0.7175070594840379,-0.6227881655962892,3,right
9.351,-0.01004889613671469,1.404360629056808,-0.015268742970750633,1.7864457290457534,3.2486457652327156,-0.787966064942632,-0.18933274676793857,-0.7324754651131513,-0.6476967416441122,3,right
9.352,-0.014871394823343799,1.402235905018884,-0.012884326901686482,1.842085680879797,3.29560876544557,-0.8008940850327455,-0.1923399229338508,-0.7474240061128028,-0.6730638421796815,3,right
9.356,-0.019812992523371056,1.3999399121673444,-0.010434533087096428,1.8978652556676,3.3423668405703855,-0.8138907638163138,-0.19540435151544117,-0.7623426045429745,-0.698879200001433,3,right
9.357000000000001,-0.024867742103058102,1.397470576676609,-0.007919959924257544,1.9537359299821808,3.3889001403889485,-0.8269484891276181,-0.19852520978881807,-0.7772210288407536,-0.7251319616727775,3,right
9.36,-0.030029605826955477,1.3948258795636714,-0.005341334850181877,2.0096490183483997,3.43518901811137,-0.8400592081894193,-0.20170156593305458,-0.7920488944848806,-0.7518106870756565,3,right
9.361,-0.035292469669541825,1.3920038642188066,-0.0026995160184923954,2.0655557446208275,3.481214037931427,-0.8532144162871101,-0.20493237586350505,-0.80681566417197,-0.7789033493082713,3,right
9.363999999999999,-0.040650158362802474,1.3890026440574577,4.506498963211108e-06,2.121407312611165,3.526955979170292,-0.8664051465123532,-0.2082164801109898,-0.821510647547121,-0.8063973350023792,3,right
9.365,-0.046096451194764944,1.3858204102507274,0.0027696099375299718,2.177154976125727,3.57239583714159,-0.8796219606138479,-0.211552600755971,-0.8361230005314915,-0.8342794451367714,3,right
9.37,-0.051625098533730394,1.3824554394929145,0.005594538435921437,2.232750108573499,3.6175148208699537,-0.8928549409929997,-0.2149393384269982,-0.8506417242892357,-0.8625358964247359,3,right
9.371,-0.05722983900826331,1.378906101766996,0.00847790294859901,2.2881442723050966,3.6622943477944387,-0.906093683882365,-0.21837516937285545,-0.8650556638759941,-0.8911523233544569,3,right
9.374,-0.06290441722387619,1.3751708680694017,0.011418181430577322,2.3432892878426848,3.7067160355873026,-0.9193272937448177,-0.2218584426179898,-0.879353506610892,-0.9201137809624232,3,right
9.375,-0.06864260184452264,1.3712483180501112,0.014413719271715454,2.398137303160451,3.7507616912177175,-0.9325443789314312,-0.22538737721094868,-0.8935237802137284,-0.9494047484209859,3,right
9.379,-0.07443820381583587,1.3671371475115843,0.01746272999156135,2.452640863174668,3.7944132973890157,-0.9457330486360815,-0.22896005957569138,-0.9075548507487405,-0.9790091335222395,3,right
9.38,-0.0802850944676554,1.3628361756947898,0.020563296248882378,2.506752979601655,3.837652996477041,-0.9588809111847665,-0.232574440975778,-0.9214349204159921,-1.0089102781413928,3,right
9.384,-0.08617722321738697,1.3583443522714165,0.023713371254444365,2.5604272013411027,3.880463072096105,-0.971975073697582,-0.23622833510156957,-0.9351520252310672,-1.0390909647637396,3,right
9.385,-0.09210863460966237,1.3536607639648246,0.026910780680831338,2.6136176855412363,3.9228259284178972,-0.9850021431612173,-0.23991941579069767,-0.9486940326333537,-1.0695334241602412,3,right
9.39,-0.098073484467935,1.3487846407378576,0.03015322513386787,2.6662792695011635,3.964724067367538,-0.9979482289497116,-0.24364521489218263,-0.9620486390627617,-1.100219344297576,3,right
9.391,-0.10406605498913972,1.343715361508271,0.033438283202682995,2.718367543564497,4.006140063819713,-1.0107989468310603,-0.24740312028469172,-0.9752033675442585,-1.1311298805693253,3,right
9.394,-0.11008076867220952,1.3384524593777867,0.036763415065107184,2.7698389251569653,4.047056538916546,-1.0235394244970624,-0.2511903740595352,-0.988145565319095,-1.1622456674357033,3,right
9.396,-0.11611220102674136,1.3329956263847118,0.04012596660805399,2.82065073411919,4.087456131627541,-1.0361543086535692,-0.2550040708790982,-1.000862401561062,-1.19354683155995,3,right
9.4,-0.12215509205485621,1.327344717807992,0.04352317402656067,2.8707612694841793,4.1273214686705355,-1.0486277737080207,-0.2588411565214981,-1.013340865215538,-1.2250130065301361,3,right
9.4,-0.12820435653581486,1.321499756059627,0.04695216887580749,2.920129887847301,4.166635132911153,-1.060943532090834,-0.2626984266243243,-1.025567763019967,-1.2566233492163166,3,right
9.401,-0.1342550931667619,1.3154609342023396,0.050409983555655034,2.9687170834746235,4.205379630356797,-1.0730848462468512,-0.26657252565031414,-1.037529717871196,-1.2883565576164497,3,right
9.404,-0.1403025926243874,1.309228619123505,0.053893557202706055,3.0164845702934793,4.243537355859659,-1.0850345423326424,-0.2704599461157401,-1.049213167897795,-1.3201908896902732,3,right
9.404,-0.14634234462125534,1.3028033543933033,0.05739974194802235,3.0633953659070037,4.281090557641635,-1.0967750256550095,-0.2743570281322618,-1.0606043667022,-1.3521041824836928,3,right
9.405,-0.15237004404268542,1.2961858628395582,0.060925309474349945,3.109413877603674,4.3180213008021555,-1.1082882978767974,-0.2782599593031246,-1.0716893851293223,-1.3840738710436453,3,right
9.408,-0.1583815962537648,1.2893770488746048,0.06446695779372207,3.1545059894882814,4.354311430216845,-1.1195559759718912,-0.2821647749967674,-1.0824541147240747,-1.4160770069783746,3,right
9.408999999999999,-0.16437312165299606,1.2823780006018308,0.06802131817330023,3.1986391483421936,4.389942533680744,-1.1305593128320688,-0.2860673590110122,-1.092884272932004,-1.448090276715345,3,right
9.414,-0.1703409595308876,1.2751899917180158,0.07158496214647225,3.241782444975956,4.424895906396631,-1.1412792193840406,-0.2899634446390371,-1.102965410074837,-1.4800900195485764,3,right
9.415,-0.1762816712804314,1.2678144832214748,0.07515440854293258,3.2839066886768697,4.459152517658568,-1.151696288117986,-0.29384861614834284,-1.112682918131836,-1.512052245567294,3,right
9.418,-0.18219204299865308,1.2602531249316888,0.07872613046567577,3.3249844738675494,4.492692980131301,-1.1617908180067424,-0.2977183106839141,-1.1220220413568982,-1.543952653557805,3,right
9.419,-0.18806908750877274,1.252507756816751,0.08229656214536976,3.364990238930869,4.525497521875643,-1.1715428408376687,-0.3015678206067587,-1.1309678887603218,-1.575766648970474,3,right
9.423,-0.19391004582294938,1.2445804101118907,0.08586210561112977,3.4039003173222664,4.55754596121818,-1.180932148987062,-0.30539229627897563,-1.1395054484831288,-1.607469362043567,3,right
9.424,-0.19971238805815522,1.2364733081999124,0.08941913712963796,3.4416929810873413,4.588817684561642,-1.1899383246660862,-0.30918674930645884,-1.1476196040907378,-1.6390356661755534,3,right
9.427999999999999,-0.20547381380964616,1.2281888672140033,0.09296401338214186,3.4783484768996282,4.6192916272301,-1.1985407706661855,-0.31294605625028454,-1.1552951528116548,-1.670440196637202,3,right
9.429,-0.21119225197389493,1.2197296963147182,0.09649307736687156,3.5138490547302745,4.648946257441044,-1.206718742630908,-0.3166649628177581,-1.1625168257456755,-1.701657369714494,3,right
9.433,-0.2168658599950129,1.2110985975859496,0.10000266403063639,3.5481789892581492,4.677759563494104,-1.2144513828799706,-0.32033808854400975,-1.169269310064875,-1.7326614023729778,3,right
9.434,-0.22249302248929967,1.2022985654895662,0.10348910565156834,3.581324594125649,4.705709044263932,-1.2217177558102301,-0.3239599319749284,-1.1755372732294045,-1.7634263325337254,3,right
9.44,-0.22807234918804173,1.1933327858155727,0.10694873701805924,3.6132742291421436,4.732771703082373,-1.2284968848970121,-0.32752487636210337,-1.1813053892388061,-1.7939260400505201,3,right
9.441,-0.23360267213408212,1.1842046340644679,0.11037790047391224,3.6440183005336606,4.758924045092658,-1.234767791317963,-0.3310271958803157,-1.1865583669382096,-1.824134268477278,3,right
9.442,-0.23908304207404532,1.1749176732015065,0.1137729509197701,3.673549254334001,4.7841420781558535,-1.2405095342202568,-0.3344610623779713,-1.1912809803973865,-1.8540246477140323,3,right
9.443,-0.24451272400364787,1.1654756507295414,0.11713026086990436,3.7018615630090395,4.808401317387271,-1.2457012526505844,-0.3378205526707044,-1.1954581013791978,-1.8835707176190366,3,right
9.447000000000001,-0.24989119184524036,1.1558824950382172,0.12044622565873461,3.728951705402524,4.831676793397907,-1.2503222091658976,-0.3410996563881995,-1.1990747339124936,-1.9127459526737176,3,right
9.449,-0.25521812225999174,1.1461423110029185,0.12371726887380699,3.7548181400881924,4.853943064313303,-1.254351835141354,-0.3442922843840853,-1.202116050982998,-1.9415237877862783,3,right
9.452,-0.26049338761673574,1.136259374827701,0.12693984806542816,3.7794612722095304,4.875174231639465,-1.2577697777903356,-0.3473922777185365,-1.2045674333541472,-1.9698776453187798,3,right
9.453,-0.2657170481529853,1.126238128150938,0.13011046075333574,3.8028834138849916,4.895343960042656,-1.260555948909768,-0.35039341722299183,-1.2064145105282393,-1.9977809634214536,3,right
9.458,-0.2708893433721986,1.1160831714569008,0.1332256507216555,3.8250887382529917,4.91442550110696,-1.2626905753622766,-0.35328943365614623,-1.2076432038565998,-2.0252072257568585,3,right
9.458,-0.27601068272735896,1.1057992568587753,0.1362820145660107,3.8460832272274668,4.932391721130571,-1.2641542513049526,-0.35607401846010894,-1.2082397718057734,-2.0521299926952805,3,right
9.462,-0.28108163564584315,1.0953912803384294,0.13927620843095523,3.8658746130312984,4.9492151330186696,-1.2649279921726906,-0.3587408351253357,-1.2081908573850209,-2.078522934061473,3,right
9.463,-0.2861029209557229,1.0848642735445826,0.1422049548533439,3.8844723135714054,4.964867932327657,-1.2649932904221886,-0.3612835311726412,-1.2074835377386202,-2.1043598635114726,3,right
9.467,-0.29107539577908714,1.074223395260279,0.14506504961303554,3.901887361715824,4.9793220375123,-1.264332173040775,-0.3636957507460567,-1.2061053758282023,-2.1296147745574796,3,right
9.468,-0.2960000439595624,1.0634739226452998,0.14785336849437283,3.918132328529666,4.9925491344240545,-1.2629272608222444,-0.3659711477388607,-1.2040444737462555,-2.154261877960796,3,right
9.468,-0.300877964086637,1.052621242338689,0.1505668738798727,3.933221240523395,5.0045207251054675,-1.2607618294098497,-0.3681033992467734,-1.2012895265119774,-2.1782756396775613,3,right
9.472000000000001,-0.30571035717692874,1.0416708414894473,0.15320262111558927,3.947169490963475,5.0152081809221265,-1.2578198721045195,-0.37008621907082895,-1.1978298748164762,-2.2016308182438835,3,right
9.472999999999999,-0.3104985140796331,1.0306282987840796,0.15575776459390878,3.9599937454101464,5.024582799984679,-1.254086164348272,-0.37191337106314915,-1.1936555555646196,-2.224302500781689,3,right
9.474,-0.31524380268125196,1.0194992755417869,0.1582295635039935,3.971711842234015,5.0326158683827185,-1.2495463293608857,-0.3735786822364099,-1.1887573497468888,-2.2462661373384485,3,right
9.478,-0.31994765498332745,1.0082895069343207,0.1606153872138161,3.9823426899223286,5.039278723979917,-1.2441869036321103,-0.3750760556284632,-1.1831268275548283,-2.26749757356853,3,right
9.479,-0.3246115541248824,0.9970047933708984,0.16291272026423972,3.991906163572852,5.0445428210888785,-1.2379954005396887,-0.37639948292735037,-1.1767563907280774,-2.2879730818212463,3,right
9.482000000000001,-0.3292370214296025,0.9856509920847084,0.16511916696601772,4.000423002379811,5.048379794767449,-1.2309603707908936,-0.3775430568614763,-1.1696393121188975,-2.3076693906986523,3,right
9.482000000000001,-0.33382560356920854,0.974234008957382,0.16723245559708555,4.007914708850797,5.050761524243048,-1.2230714591564602,-0.3785009833592351,-1.1617697724580012,-2.326563713144027,3,right
9.486,-0.3383788599363545,0.9627597906085968,0.16925044220501123,4.014403449900208,5.051660195394664,-1.214319457393157,-0.3792675934818754,-1.1531428943033686,-2.344633773119805,3,right
9.487,-0.34289835031201144,0.9512343167621,0.17117111402772503,4.0199119598437285,5.051048362303481,-1.204696353334763,-0.3798373551328775,-1.1437547731515931,-2.361857830931503,3,right
9.492,-0.3473856228997691,0.9396635928845075,0.17299259255217714,4.024463445315421,5.048899007878909,-1.194195376128767,-0.38020488454658263,-1.133602505689141,-2.378214707251863,3,right
9.493,-0.3518422027864708,0.9280536430821156,0.17471313623378637,4.028081492126122,5.045185603562544,-1.1828110375936325,-0.3803649575582653,-1.1226842151587308,-2.3936838058970786,3,right
9.496,-0.35626958087577776,0.9164105032335103,0.17633114289831703,4.03078997407902,5.039882168108257,-1.170539169668966,-0.3803125206572723,-1.1109990738138573,-2.4082451354045373,3,right
9.498,-0.3606692033294358,0.9047402143313233,0.17784515184251268,4.0326129637555255,5.032963325432142,-1.157376957928413,-0.38004270182427413,-1.0985473224322917,-2.421879329459027,3,right
9.501,-0.36504246154258857,0.8930488160045745,0.17925384564329228,4.0335746452819015,5.0244043615216505,-1.143322971122566,-0.37955082115307825,-1.085330286857193,-2.4345676662117968,3,right
9.502,-0.3693906826761448,0.8813423401937689,0.18055605168052571,4.033699229084463,5.014181280388576,-1.1283771867166272,-0.378832401256841,-1.0713503915322584,-2.4462920865342683,3,right
9.507,-0.37371512076915386,0.869626804954373,0.1817507433762858,4.033010868638653,5.0022708590459946,-1.1125410123850084,-0.377883177457895,-1.0566111699951486,-2.4570352112455165,3,right
9.508,-0.3780169484539491,0.8579082083699565,0.18283704115289265,4.031533579214805,4.988650701484497,-1.0958173034224983,-0.3766991077597693,-1.0411172722912234,-2.466780357349939,3,right
9.511000000000001,-0.38229724929484743,0.8461925225636898,0.18381421311124918,4.029291158620986,4.973299291618307,-1.0782103760290613,-0.37527638259932705,-1.0248744692674336,-2.4755115533187504,3,right
9.512,-0.3865570107673463,0.8344856878054601,0.18468167542999417,4.026307109941028,4.956196045167019,-1.0597260164227844,-0.373611434376288,-1.007889653704038,-2.4832135534461335,3,right
9.517000000000001,-0.3907971178900844,0.8227936067200885,0.1854389924861271,4.022604566263517,4.937321360433787,-1.0403714857329354,-0.3717009467567244,-0.990170838239649,-2.489871851308007,3,right
9.517999999999999,-0.3950183475188753,0.811122138607856,0.1860858766986097,4.01820621739538,4.916656667935808,-1.020155520622566,-0.3695418637464355,-0.971727150042959,-2.495472692348456,3,right
9.521,-0.3992213633123318,0.799477093891415,0.1866221880969764,4.013134238551529,4.894184478837939,-0.9990883295875775,-0.3671313985294114,-0.9525688221823727,-2.50000308561592,3,right
9.522,-0.4034067113804481,0.787864228705309,0.18704793361736272,4.007410221009973,4.8698884321351725,-0.9771815848766628,-0.3644670420658906,-0.9327071816426634,-2.503450814668247,3,right
9.526,-0.40757481662848954,0.7762892396470066,0.18736326612911622,4.00105510471983,4.843753340524572,-0.9544484099740754,-0.36154657144380337,-0.912154633935692,-2.505804447662657,3,right
9.527000000000001,-0.41172597980709275,0.764757758709805,0.18756848319677918,3.9940891128476927,4.815765234902085,-0.9309033625847283,-0.3583680579766703,-0.8909246442501749,-2.507053346643622,3,right
9.531,-0.4158603752754937,0.7532753484163022,0.18766402558491144,3.9865316882459574,4.785911407414403,-0.9065624130587187,-0.3549298750402981,-0.8690317150834732,-2.5071876760385234,3,right
9.532,-0.41997804947965706,0.741847497167183,0.18765047551550637,3.978401431824909,4.754180452990739,-0.8814429181900054,-0.35123070563987746,-0.8464913602963858,-2.506198410367847,3,right
9.535,-0.42407892014255893,0.7304796148154611,0.18752855468760368,3.9697160428085887,4.720562309274115,-0.8555635903216324,-0.34726954969619583,-0.8233200755913812,-2.5040773411804085,3,right
9.536,-0.4281627761619548,0.719177028470328,0.18729912206599114,3.9604922608527646,4.68504829486637,-0.8289444616876114,-0.3430457310281556,-0.7995353057197248,-2.5008170832556806,3,right
9.538,-0.43222927821207413,0.7079449785268465,0.18696317144201915,3.950745810001708,4.647631145795702,-0.8016068439193437,-0.33855890398865246,-0.7751554092735892,-2.496411080174589,3,right
9.541,-0.4362779600459313,0.6967886149122839,0.1865218287656948,3.940491344458839,4.608305050110164,-0.7735732826422774,-0.33380905969934144,-0.7501996222243523,-2.490853609391624,3,right
9.542,-0.44030823049078577,0.6857129935410755,0.18597634924552175,3.9297423962200733,4.567065680505004,-0.7448675071838058,-0.3287965318398378,-0.7246880210595973,-2.484139786903129,3,right
9.542,-0.4443193761243203,0.6747230729736289,0.185328114212492,3.9185113249936014,4.523910224936086,-0.7155143758984738,-0.3235220019655357,-0.698641485817139,-2.4762655715407793,3,right
9.545,-0.44831056461755797,0.6638237112729614,0.1845786277484375,3.906809271505927,4.4788374152556525,-0.6855398184914051,-0.3179865043382462,-0.6720816630058165,-2.4672277688812208,3,right
9.546,-0.45228084872824253,0.6530196630502783,0.1837295130869534,3.894646115668978,4.4318475539509965,-0.6549707772060597,-0.3121914302552564,-0.645030928339806,-2.4570240347525814,3,right
9.55,-0.4562291709203395,0.6423155766927326,0.18278250880500427,3.88203044070531,4.382942539011322,-0.6238351482534447,-0.30613853186165924,-0.6175123492116795,-2.4456528783152214,3,right
9.551,-0.4601543685745741,0.6317159917733443,0.18173946482995038,3.868969503649508,4.3321258868530315,-0.5921617239812837,-0.29982992543005543,-0.5895496468279556,-2.4331136646907576,3,right
9.555,-0.4640551797466337,0.6212253366498732,0.18060233828694833,3.855469212266139,4.279402753178403,-0.5599801357928152,-0.29326809409098326,-0.5611671579294832,-2.419406617110042,3,right
9.556000000000001,-0.4679302494249055,0.610847926264877,0.1793731892078399,3.8415341083480388,4.224779951627171,-0.5273207977258364,-0.28645588999669236,-0.532389796017656,-2.404532818547433,3,right
9.559,-0.47177813623709786,0.6005879601632215,0.17805417611897809,3.8271673573574194,4.168265970075037,-0.4942148506010673,-0.2793965359001445,-0.5032430120061803,-2.388494212805331,3,right
9.561,-0.4755973195525789,0.5904495207445475,0.17664755152302808,3.812370744371028,4.109870984427676,-0.4606941066474529,-0.27209362613039617,-0.4737527542169151,-2.3712936050096087,3,right
9.564,-0.47938620692384876,0.5804365717659044,0.17515565728671678,3.797144676289328,4.049606869753326,-0.4267909945106464,-0.2645511269448012,-0.44394542763716927,-2.352934661473213,3,right
9.565,-0.48314314180861523,0.5705529571054498,0.17358091994170707,3.7814881902684396,3.987487208591644,-0.392538504549639,-0.2567733762377608,-0.41384785235478,-2.3334219088818626,3,right
9.568999999999999,-0.48686641151592763,0.5608023997932692,0.1719258459006348,3.76539896833233,3.923527296271096,-0.35797013432531033,-0.2487650825850508,-0.38348722108631345,-2.312760732752447,3,right
9.57,-0.49055425532474667,0.5511885013105271,0.17019301658667554,3.748873358121512,3.8577441430617863,-0.3231198341835745,-0.2405313236020674,-0.3528910557128151,-2.2909573751113856,3,right
9.575,-0.4942048727281888,0.5417147411540779,0.1683850834725991,3.7319063997332678,3.7901564729853106,-0.288021952834797,-0.23207754359365826,-0.32208716273670684,-2.2680189313369112,3,right
9.576,-0.4978164317587256,0.5323844766607301,0.16650476302200837,3.714491858607171,3.7207847190979275,-0.25271118283024885,-0.2234095504725448,-0.2911035875726724,-2.243953346105933,3,right
9.58,-0.5013870773468546,0.523200943082678,0.16455483152100805,3.6966222644084263,3.649651015058107,-0.2172225058355571,-0.2145335119226929,-0.2599685675846954,-2.2187694083828657,3,right
9.581,-0.5049149396587467,0.5141672539020662,0.1625381197872693,3.6782889558602667,3.5767791827843456,-0.18159113760039886,-0.20545595078335996,-0.2287104837808204,-2.1924767453845324,3,right
9.585,-0.5083981423513239,0.5052864013689127,0.1604575077503625,3.659482131475364,3.5021947160040034,-0.14585247252307623,-0.19618373962893057,-0.1973578110766888,-2.1650858154520427,3,right
9.585,-0.5118348106806142,0.49656125724415956,0.15831591891128788,3.6401909061349054,3.4259247594888733,-0.1100420277080985,-0.1867240945190562,-0.1659390670384689,-2.136607899757307,3,right
9.589,-0.5152230794021296,0.4879945737282198,0.15611631470364934,3.6204033734626413,3.347998083768182,-0.07419538641448817,-0.1770845678930362,-0.1344827590154452,-2.1070550927686864,3,right
9.59,-0.518561100408193,0.47958898455351623,0.15386168878724066,3.6001066739398624,3.2684450551048414,-0.038348140792219654,-0.1672730405818194,-0.10301732957226042,-2.0764402913971085,3,right
9.594,-0.5218470500530671,0.47134700621671755,0.15155506130484003,3.5792870687058502,3.187297600515889,-0.0025358338039935813,-0.15729771291046718,-0.07157110013061382,-2.044777182740872,3,right
9.595,-0.5250791361202243,0.4632710393232971,0.14919947312951096,3.557930018986943,3.104589167613331,0.033206099770554685,-0.14716709486340354,-0.04017221273011179,-2.0120802303442646,3,right
9.6,-0.5282556043883546,0.45536337001427707,0.14679798013088377,3.5360202710958695,3.0203546790369193,0.06884239335111524,-0.13688999528428375,-0.00884856981793946,-1.978364658882081,3,right
9.6,-0.5313747447572856,0.4476261714425841,0.14435364749711752,3.513541946941514,2.9346304812458204,0.10433800969623541,-0.1264755100818435,0.022372228022922287,-1.9436464371791098,3,right
9.604,-0.5344348969042414,0.4400615052643621,0.14186954415698835,3.4904786399877263,2.847454287431648,0.13965820326872436,-0.11593300943613831,0.05346294638596775,-1.9079422595264732,3,right
9.604,-0.5374344554537032,0.43267132311007905,0.1393487373439815,3.466813516598201,2.758865114310961,0.17476858392922842,-0.10527212411663113,0.0843967828172055,-1.8712695255326797,3,right
9.604,-0.5403718746571616,0.42545746800212253,0.13679428733099339,3.44252942270282,2.6689032125510357,0.20963518205987194,-0.09450273123463387,0.11514743247798409,-1.833646319246397,3,right
9.609,-0.5432456725889362,0.41842167568803157,0.13420924235006382,3.417608995573568,2.577609990783279,0.24422451512201448,-0.08363493986970925,0.14568915156171286,-1.7950913885640203,3,right
9.611,-0.5460544348693134,0.4115655758600864,0.1315966337036843,3.392034779768405,2.4850279341780577,0.2785036551648688,-0.07267907689183171,0.17599681688667387,-1.755624125653434,3,right
9.611,-0.5487968179280323,0.4048906932337174,0.1289594710712214,3.365789344989331,2.391200520393118,0.3124402959249586,-0.06164567308935355,0.20604598108656336,-1.715264548620602,3,right
9.613,-0.551471551823336,0.39839844846057587,0.12630073801327923,3.3388554028710478,2.296172136727412,0.3460028176688954,-0.050545449595071366,0.2358129233753394,-1.6740332843640573,3,right
9.613999999999999,-0.5540774426362124,0.39209015885851256,0.1236233876777682,3.311215920442741,2.1999880012849817,0.3791603484177681,-0.03938930457894248,0.2652746959733887,-1.6319515525039503,3,right
9.618,-0.5566133744648027,0.3859670389507371,0.12093033871229339,3.282854229313957,2.102694089107643,0.4118828210665229,-0.02818830017577819,0.2944091662812848,-1.589041150269759,3,right
9.619,-0.5590783110489491,0.3800302008177629,0.11822447138720173,3.253754130361568,2.0043370632082858,0.44414102639734365,-0.01695364961604956,0.3231950548866009,-1.545324438228263,3,right
9.624,-0.5614712970590758,0.37428065427545976,0.11550862393342197,3.223899993838386,1.9049642102285722,0.47590666208221866,-0.005696704527780772,0.3516119694883654,-1.5008243267309351,3,right
9.625,-0.5637914590859592,0.36871930690011173,0.11278558909941896,3.1932768548219204,1.804623380441635,0.5071523777686361,0.005571057622623214,0.3796404348228097,-1.4555642629575312,3,right
9.628,-0.5660380063669354,0.3633469639269371,0.11005811093055529,3.161870503919642,1.7033629318173251,0.537851816341015,0.01683804598286445,0.4072619186730589,-1.4095682184303384,3,right
9.629,-0.5682102312795992,0.3581643280515591,0.1073288817701161,3.1296675731449666,1.6012316778646396,0.5679796514490683,0.02809256869286868,0.4344588540443577,-1.362860676871298,3,right
9.634,-0.5703075096272002,0.3531719991644703,0.10460053947386155,3.096655616875946,1.4982788389631807,0.5975116213927996,0.039322845220875265,0.4612146575853092,-1.3154666222720337,3,right
9.635,-0.5723293007319978,0.3483704740470607,0.10187566482108933,3.0628231878064223,1.3945539968928584,0.6264245594522727,0.05051701868984221,0.48751374433443884,-1.2674115270447022,3,right
9.641,-0.5742751473450801,0.34376014605446126,0.09915677909790814,3.0281599077971055,1.290107052268546,0.6546964207486503,0.06166316822647213,0.5133415388701763,-1.2187213401195438,3,right
9.642000000000001,-0.5761446753743942,0.33934130480640234,0.09644634182461022,2.9926565335317163,1.1849881845840375,0.6823063057212885,0.07274932136509521,0.5386844829410851,-1.1694224748530362,3,right
9.642999999999999,-0.577937593427038,0.33511413590441036,0.09374674859872653,2.9563050168809806,1.0792478145674456,0.7092344803038995,0.08376346653854147,0.563530039651858,-1.1195417966086574,3,right
9.642999999999999,-0.5796536921573792,0.331078720692385,0.09106032902867804,2.9190985598748753,0.9729365685480933,0.7354623928809549,0.09469356568799626,0.5878666942792464,-1.0691066098704425,3,right
9.648,-0.58129284340941,0.3272350360769673,0.08838934473981472,2.8810316641811204,0.8661052445330361,0.7609726881036044,0.105527567023661,0.6116839517906988,-1.0181446447477671,3,right
9.649,-0.5828549991398819,0.3235829544234114,0.08573598744298243,2.8421001749854673,0.758804779689554,0.7857492176424231,0.11625341796783352,0.634972331137059,-0.9666840427281254,3,right
9.652999999999999,-0.584340190109774,0.32012224354143237,0.08310237706378998,2.8023013191668933,0.6510862189283224,0.8097770479523017,0.12685907831178156,0.6577233563892146,-0.9147533415330728,3,right
9.654,-0.585748524338,0.3168525667735865,0.08049055993888536,2.7616337376583404,0.543000684280473,0.8330424651227234,0.13733253361750677,0.6799295447870952,-0.8623814589309949,3,right
9.658,-0.5870801853227662,0.3137734831967553,0.07790250709268877,2.7200975118811415,0.43459934476040796,0.855532976884577,0.14766180889518551,0.7015843917679031,-0.8095976753589336,3,right
9.658999999999999,-0.5883354300488292,0.3108844479457076,0.07534011260962599,2.67769418413881,0.32593338640503244,0.877237311842498,0.157834982586728,0.7226823530389195,-0.7564316152043447,3,right
9.662,-0.5895145868088709,0.30818481266618575,0.07280519211032938,2.634426771853362,0.21705398217901298,0.8981454159995478,0.1678402008855175,0.7432188237586629,-0.7029132265964054,3,right
9.664,-0.590618052872891,0.3056738261034924,0.07029948133025131,2.5902997755248514,0.1080122614347649,0.9182484466388164,0.17766569242197666,0.7631901148885968,-0.6490727595552982,3,right
9.668,-0.5916462920421118,0.3033506348317508,0.067824634794406,2.545319180292311,-0.0011407213848890565,0.9375387636242773,0.18729978334416128,0.7825934267759871,-0.5949407423468034,3,right
9.669,-0.5925998321252427,0.30121428412902723,0.0653822245864056,2.4994924509718146,-0.11035401911406134,0.9560099181809381,0.19673091282209731,0.8014268200268952,-0.5405479558885231,3,right
9.673,-0.5934792623758846,0.29926371900343135,0.06297373921966465,2.452828520444906,-0.2195768256142804,0.9736566392120217,0.2059476490040628,0.8196891837266732,-0.48592540605313284,3,right
9.674,-0.5942852309299999,0.2974977853740833,0.06060058262636108,2.405337771268196,-0.3287585112215679,0.9904748172085819,0.21493870543292207,0.8373802011094329,-0.4311042937908149,3,right
9.675,-0.5950184422804339,0.2959152314084987,0.058264073280378297,2.357032010372499,-0.4378486602037432,1.0064614858046008,0.22369295783231963,0.8545003130049991,-0.3761159833802559,3,right
9.677999999999999,-0.595679654820357,0.29451470901575366,0.05596544346454902,2.3079244367174767,-0.5467971105416143,1.0216148010282569,0.23219946099603261,0.8710506798018297,-0.32099196981528794,3,right
9.677999999999999,-0.5962696784810291,0.29329477549422345,0.05370583868589396,2.2580296017653825,-0.6555539963475964,1.0359340182976706,0.24044746541541623,0.8870331428914239,-0.2657638467216587,3,right
9.679,-0.596789372483855,0.29225389533397345,0.05148631724076869,2.2073633627974893,-0.7640697930943365,1.0494194672325303,0.24842643337691284,0.9024501863294211,-0.21046327580996113,3,right
9.682,-0.5972396432212285,0.2913904421752254,0.04930784993397829,2.1559428299060355,-0.8722953651220093,1.06207252447802,0.25612605443677794,0.9173048990353532,-0.1551219581720043,3,right
9.683,-0.5976214422743045,0.29070270092378075,0.04717131995668207,2.103786308953095,-0.9801820136260888,1.073895584964418,0.2635362602771505,0.9316009376226995,-0.09977160733963392,3,right
9.687999999999999,-0.5979357645701803,0.2901888700224134,0.04507752292556175,2.0509132435971447,-1.0876815226232093,1.0848920321507485,0.270647238966367,0.9453424899035414,-0.044443923947206455,3,right
9.689,-0.5981836466756278,0.28984706387583437,0.043027167082481714,1.9973441586743548,-1.1947462010953933,1.0950662076710715,0.27744944864561694,0.9585342391104995,0.010829428161195104,3,right
9.691,-0.5983661652175508,0.28967531542641245,0.04102087365046719,1.9431006057586966,-1.3013289207782675,1.1044233805702741,0.2839336306632056,0.9711813288770281,0.0660168445387429,3,right
9.692,-0.598484435411879,0.2896715788782912,0.039059177338101415,1.8882051109113338,-1.407383149761279,1.1129697161864456,0.2900908221768314,0.9832893290155561,0.12108680161591645,3,right
9.697000000000001,-0.598539609674062,0.28983373256865214,0.0371425269821216,1.8326811244654608,-1.5128629822073816,1.120712244709076,0.29591236824339956,0.9948642021313799,0.17600787721234307,3,right
9.698,-0.5985328762767678,0.2901595819856615,0.03527128631821863,1.7765529726908007,-1.6177231644982704,1.127658829439969,0.3013899334149794,1.0059122711086521,0.23074877023889737,3,right
9.702,-0.5984654580151347,0.29064686293281605,0.033445734871811385,1.7198458111801187,-1.721919118109737,1.1338181347814398,0.30651551285857515,1.016440187503262,0.2852783197481934,3,right
9.703,-0.5983386108379981,0.29129324484032865,0.031666068963479066,1.6625855797982945,-1.8254069595200604,1.139199593974053,0.3112814430164155,1.0264549008758743,0.3395655234911759,3,right
9.707,-0.5981536224047218,0.2920963342257864,0.029932402828044043,1.6047989590327711,-1.9281435174525718,1.1438133766038783,0.3156804118224808,1.0359636290968754,0.39357955613699885,3,right
9.708,-0.597911810530735,0.29305367830600193,0.02824476985080511,1.5465133275825285,-2.0300863477516295,1.1476703558969765,0.31970546848997516,1.044973829653491,0.4472897873127741,3,right
9.712,-0.5976145214901185,0.29416276875897746,0.026603123928345778,1.4877567210211426,-2.1311937461892,1.1507820758165968,0.32335003288341985,1.0534931719878535,0.5006657996190758,3,right
9.713,-0.5972631281512671,0.2954210456316093,0.02500734096573374,1.4285577913679914,-2.231424759497091,1.1531607179763639,0.326607904487989,1.0615295108933596,0.5536774067763036,3,right
9.718,-0.5968590279331767,0.2968259013870085,0.023457220526243282,1.3689457674002203,-2.3307391949176046,1.1548190683805606,0.3294732709876376,1.06909086099521,0.6062946720561329,3,right
9.719,-0.5964036405852796,0.29837468508528553,0.021952487650227878,1.3089504155367437,-2.429097628562965,1.1557704840004703,0.33194071646247725,1.0761853723396277,0.6584879271513226,3,right
9.719,-0.5958984058099401,0.3000647066938678,0.02049279485386002,1.2486020011242793,-2.526461412871385,1.1560288591936385,0.3340052292147461,1.0828213071148574,0.7102277916361055,3,right
9.724,-0.5953447807589046,0.30189324152814323,0.019077724308644125,1.187931249954231,-2.6227926834449833,1.1556085919708494,0.33566220923159423,1.0890070175256814,0.7614851931682501,3,right
9.725,-0.5947442374401111,0.3038575348286061,0.017706790194708267,1.126969309838133,-2.7180543655520255,1.1545245501135784,0.33690747529175996,1.0947509248418583,0.8122313885826707,3,right
9.728,-0.594098260070566,0.30595480648387036,0.01637944121916047,1.0657477120683607,-2.8122101805731137,1.152792037142694,0.3377372717220595,1.1000614996395572,0.8624379860251551,3,right
9.729,-0.5934083424091806,0.308182255908392,0.015095063294572634,1.0042983325898784,-2.9052246526679735,1.1504267581372356,0.3381482748084402,1.1049472432535798,0.9120769682733996,3,right
9.735,-0.5926759851039235,0.3105370670800621,0.013852982377140251,0.9426533527079709,-2.9970631159364247,1.1474447854001828,0.3381375988651669,1.1094166704568909,0.9611207173910695,3,right
9.735,-0.5919026930894113,0.31301641373794387,0.01265246746487787,0.8808452191561478,-3.087691722343938,1.1438625239662759,0.3377028019645184,1.113478293382726,1.0095420408590543,3,right
9.738999999999999,-0.5910899730712467,0.3156174647362493,0.011492733753088357,0.8189066033477679,-3.1770774506789192,1.1396966769451244,0.3368418913265739,1.1171406066939111,1.0573141992535169,3,right
9.74,-0.5902393311301174,0.3183373895482664,0.010372945940466005,0.7568703596343607,-3.265188116805466,1.1349642106910773,0.33555332835949386,1.1204120739556875,1.1044109351739266,3,right
9.74,-0.5893522704727688,0.3211733639127367,0.009292221676740767,0.694769482393157,-3.351992385471879,1.1296823197895949,0.3338360333251398,1.1233011150823413,1.1508065024660104,3,right
9.743,-0.5884302893535454,0.3241225756116264,0.008249635140930968,0.6326370617659686,-3.4374597839316485,1.1238683918481942,0.33168938959568606,1.1258160946796518,1.1964756944179937,3,right
9.744,-0.5874748791919859,0.32718223035912847,0.007244220737873765,0.5705062378712717,-3.521560717629956,1.1175399720784092,0.32911324747361886,1.127965311151182,1.2413938699712648,3,right
9.748,-0.5864875229131631,0.33034955776870184,0.006274976901474637,0.508410153311168,-3.6042664882049973,1.1107147276536289,0.326107927560626,1.129756986520173,1.2855369776410448,3,right
9.748,-0.5854696935325548,0.3336218173530944,0.0053408699961846285,0.4463819038911613,-3.685549313940894,1.1034104118557824,0.3226742236676178,1.1311992569648566,1.3288815772052682,3,right
9.75,-0.5844228529989778,0.3369963045073022,0.004440838312001492,0.38445448795248416,-3.765382352261574,1.0956448281705016,0.3188134052584783,1.1323001640733805,1.3714048592906602,3,right
9.753,-0.5833484513035271,0.3404703564267311,0.003573796152214558,0.3226607555840252,-3.843739722872768,1.0874357947556381,0.314527219418916,1.1330676468235104,1.413084662982767,3,right
9.753,-0.5822479258633725,0.34404135791266593,0.0027386380168992106,0.2610333594628935,-3.920596529611716,1.0788011098547825,0.30981789234055174,1.133509534291266,1.4538994915844137,3,right
9.759,-0.5811227011961513,0.3477067470075505,0.0019342428859738853,0.19960470859115637,-3.995928879603474,1.069758518577955,0.30468813030915715,1.1336335390916772,1.493828526644696,3,right
9.761000000000001,-0.5799741889082685,0.35146402039188723,0.0011594785987788135,0.13840692532945018,-4.069713899296718,1.0603256812037032,0.29914112018473504,1.133447251553875,1.5328516403781953,3,right
9.764,-0.5788037880226717,0.3553107384724739,0.0004132063118222671,0.07747180564685377,-4.141929747491084,1.0505201430074704,0.293180529359919,1.132958134631808,1.5709494065916227,3,right
9.765,-0.5776128856665952,0.3592445300968592,-0.00030571500167879547,0.016830782410624415,-4.2125556255724135,1.040359305590294,0.28681050518196255,1.132173519550956,1.608103110232556,3,right
9.767000000000001,-0.576402858128431,0.3632630968372204,-0.0009984240604375535,-0.04348510845993982,-4.281571785167809,1.0298603996807738,0.28003567382239103,1.1311006021905186,1.6442947556723269,3,right
9.767999999999999,-0.5751750722764158,0.3673642167974061,-0.0016660528478538523,-0.10344525915049384,-4.348959533427923,1.01904045938218,0.2728611385772015,1.1297464401996957,1.6795070738324658,3,right
9.772,-0.573930887311484,0.37154574790883005,-0.002309722303383545,-0.1630195185936342,-4.414701236139331,1.0079162978355476,0.26529247757932123,1.1281179508458157,1.7137235282613963,3,right
9.773,-0.5726716568065017,0.3758056306928545,-0.002930538179682299,-0.22217821876908805,-4.478780318865191,0.9965044842686335,0.25733574090387384,1.1262219095912456,1.746928320265312,3,right
9.777999999999999,-0.5713987309701138,0.38014189047845204,-0.003529587102177345,-0.2808921988342871,-4.5411812663077615,0.9848213223996912,0.24899744704565482,1.1240649493952113,1.7791063931943578,3,right
9.779,-0.5701134590686031,0.3845526390734957,-0.0041079328582031855,-0.339132827256404,-4.601889620081592,0.9728828301641393,0.2402845787470857,1.121653560735859,1.810243435982371,3,right
9.782,-0.5688171919416344,0.3890360758952269,-0.004666612937784696,-0.39687202211573447,-4.66089197508144,0.9607047207313782,0.2312045781538043,1.1189940923471295,1.8403258860355443,3,right
9.783,-0.5675112845535419,0.39359048857067463,-0.005206635347406202,-0.45408226974903443,-4.71817597462413,0.9483023847782249,0.22176534127395198,1.116092752664261,1.8693409315624154,3,right
9.787,-0.5661970985275023,0.3982142530220284,-0.0057289757186739934,-0.5107366419000604,-4.773730304538742,0.9356908739847059,0.21197521171614422,1.1129556119710071,1.8972765134346015,3,right
9.788,-0.5648760046136767,0.40290583305549044,-0.0062345747328793125,-0.5668088115431238,-4.827544686374587,0.9228848857172551,0.20184297368005713,1.1095886052409454,1.9241213266646724,3,right
9.791,-0.5635493850438366,0.4076637794747954,-0.006724335878222797,-0.6222730675439512,-4.879609869891519,0.9098987488637218,0.19137784417253137,1.1059975356645502,1.9498648215844905,3,right
9.792,-0.5622186357244779,0.41248672874242537,-0.00719912354851495,-0.6771043283205455,-4.929917624992147,0.8967464107839894,0.18058946442108834,1.1021880788530354,1.9744972048042384,3,right
9.797,-0.5608851682187941,0.41737340121246735,-0.007659761482598612,-0.7312781546650742,-4.978460733250517,0.8834414253394491,0.16948789045577078,1.0981657877093038,1.9980094400292363,3,right
9.798,-0.5595504114672333,0.4223225989581906,-0.008107031534447234,-0.784770761886065,-5.025232979186832,0.8699969419640513,0.1580835828292653,1.0939360979557005,2.020393248808476,3,right
9.802,-0.5582158131991319,0.42733320321365525,-0.008541672755047395,-0.83755903142837,-5.070229141432693,0.8564256957391824,0.14638739544433615,1.089504334307639,2.0416411112856196,3,right
9.802,-0.5568828409939449,0.43240417144180227,-0.0089643807602118,-0.8896205221264767,-5.113444983926318,0.8427399984341724,0.1344105634567012,1.0848757172815555,2.0617462670199886,3,right
9.808,-0.5555529829573979,0.43753453403343723,-0.009375807356213078,-0.9409334812447834,-5.154877247272079,0.8289517304738393,0.1221646902206116,1.0800553706250537,2.0807027159418263,3,right
9.809,-0.5542277479839375,0.4427233906360417,-0.009776560397772072,-0.991476855456439,-5.194523640393629,0.8150723337941095,0.10966173326458922,1.0750483293416782,2.0985052194846014,3,right
9.81,-0.5529086655827894,0.44796990611082604,-0.010167203858066373,-1.0412303019102598,-5.232382832604722,0.801112805546424,0.09691398938911559,1.0698595482079964,2.115149301842538,3,right
9.811,-0.5515972852507529,0.4532733061192948,-0.010548258095661973,-1.0901741995330825,-5.268454446216794,0.7870836926113465,0.08393407916655926,1.0644939105465605,2.1306312511339183,3,right
9.812000000000001,-0.5502951753783818,0.45863287234296296,-0.010920200305722454,-1.138289660712713,-5.302739049797156,0.7729950868815242,0.07073493122803633,1.0589562369435848,2.1449481201560987,3,right
9.818,-0.5490039216765905,0.4640479373402096,-0.011283465140958134,-1.1855585434627025,-5.335238152131773,0.7588566212870294,0.057329766616050014,1.0532512936738512,2.15809772650614,3,right
9.818999999999999,-0.5477251251109037,0.46951787904515296,-0.011638445485088203,-1.2319634639596126,-5.365954196667487,0.7446774666014415,0.04373208329182521,1.047383800728405,2.1700786520019713,3,right
9.82,-0.5464603993329238,0.4750421149174419,-0.011985493361796077,-1.2774878089662045,-5.39489055571018,0.7304663291848223,0.02995564078047809,1.0413584394143,2.1808902414269435,3,right
9.822000000000001,-0.5452113676023942,0.48062009575824954,-0.012324920962972465,-1.3221157474432983,-5.422051523376335,0.7162314498851234,0.016014444915540528,1.0351798595100177,2.1905326006355477,3,right
9.823,-0.5439796591984841,0.48625129921433463,-0.01265700177866574,-1.3658322408588262,-5.447442306564253,0.7019806042539152,0.0019227326438062643,1.0288526859597125,2.199006594054719,3,right
9.827,-0.5427669053276782,0.4919352229971811,-0.012981971809165806,-1.4086230520749234,-5.471069013699289,0.6877211041142711,-0.01230504314904693,1.022381525088985,2.2063138416117813,3,right
9.827,-0.5415747345478995,0.49767137784737736,-0.013300030838481053,-1.4504747528995774,-5.492938641276349,0.6734598004530374,-0.026654228832077825,1.0157709703244422,2.212456715116732,3,right
9.831,-0.5404047677410396,0.5034592802762823,-0.013611343747939613,-1.491374730428389,-5.513059058272591,0.659203087596566,-0.041109985282395636,1.0090256073988815,2.217438334123217,3,right
9.832,-0.5392586126763423,0.5092984451184939,-0.013916041849343782,-1.53131119229935,-5.531438988498233,0.6449569086289607,-0.05565730323900829,1.0021500190235149,2.2212625612891954,3,right
9.836,-0.5381378582153046,0.5151883779299149,-0.01421422421891794,-1.5702731709808322,-5.5480879909483,0.6307267620118834,-0.07028101879839452,0.9951487890082552,2.2239339972549397,3,right
9.836,-0.5370440682157859,0.5211285672675051,-0.014505959014729635,-1.6082505272102567,-5.563016438213126,0.6165177093649739,-0.08496582909329489,0.9880265058106957,2.2254579750527013,3,right
9.842,-0.5359787751986445,0.5271184768882702,-0.014791284761182567,-1.6452339526981532,-5.576235493000449,0.6023343843659732,-0.09969630819647989,0.9807877654940416,2.225840554059027,3,right
9.842,-0.5349434738444344,0.5331575379065057,-0.015070211586342898,-1.6812149722095073,-5.587757082816933,0.58818100272968,-0.11445692329147175,0.9734371740738901,2.2250885134974165,3,right
9.846,-0.5339396143915848,0.5392451409497978,-0.015342722402379758,-1.7161859451314818,-5.597593872852035,0.5740613732249322,-0.12923205115237288,0.9659793492334087,2.2232093454957162,3,right
9.846,-0.5329685960109505,0.5453806283559133,-0.015608774025096384,-1.7501400666337288,-5.605759237102214,0.5599789096888769,-0.14400599497508368,0.9584189213861269,2.220211247699356,3,right
9.85,-0.5320317602323632,0.5515632864536449,-0.01586829823340251,-1.7830713685246502,-5.612267227768608,0.5459366439978783,-0.15876300160227969,0.9507605340652362,2.2161031154382864,3,right
9.851,-0.5311303844958055,0.557792337969923,-0.01612120277279644,-1.814974719904044,-5.6171325429564645,0.5319372399545108,-0.1734872791845591,0.9430088436179807,2.21089453344224,3,right
9.855,-0.5302656758955758,0.5640669346036089,-0.01636737230853158,-1.8458458277096728,-5.620370492699825,0.517983008050185,-0.18816301532016858,0.9351685181834319,2.2045957670957157,3,right
9.856,-0.5294387651828847,0.5703861498046477,-0.016606669334558694,-1.8756812372523404,-5.621996963330167,0.5040759210630765,-0.20277439571566586,0.9272442359316582,2.1972177532209147,3,right
9.861,-0.5286507010899002,0.5767489717960512,-0.016838935044598952,-1.9044783328311221,-5.622028380203026,0.49021763045114297,-0.21730562340978476,0.9192406825420266,2.1887720903736776,3,right
9.862,-0.5279024450338172,0.5831542968745644,-0.017063990172105373,-1.932235338517421,-5.620481668791946,0.476409483500149,-0.23174093860262704,0.9111625478981278,2.17927102863436,3,right
9.865,-0.5271948662524308,0.5896009230223922,-0.017281635805459897,-1.9589513191935573,-5.617374214154453,0.4626525411867497,-0.24606463913212226,0.903014521976567,2.1687274588724668,3,right
9.866,-0.5265287374148082,0.5960875438570524,-0.017491654183525687,-1.9846261819286137,-5.6127238187701645,0.44894759671682555,-0.2602611016394663,0.8948012899066408,2.1571549014608227,3,right
9.87,-0.5259047307441338,0.6026127429407107,-0.01769380947588149,-2.009260677771268,-5.6065486587466555,0.4352951946994033,-0.27431480346497294,0.8865275261777033,2.1445674944119997,3,right
9.87,-0.5253234146855326,0.6091749884654869,-0.017887848552555145,-2.0328564040363655,-5.598867238384184,0.4216956509166446,-0.2882103453154532,0.878197887970824,2.130979980906747,3,right
9.875,-0.5247852511488017,0.615772628328456,-0.018073501750147717,-2.0554158071589925,-5.58969834308594,0.4081490726505327,-0.30193247474387186,0.8698170075911529,2.1164076961812133,3,right
9.876,-0.5242905933528433,0.6224038856101536,-0.018250483644996436,-2.0769421861868125,-5.579060990596148,0.39465537952703883,-0.3154661104816203,0.8613894839772356,2.100866553736825,3,right
9.876,-0.5238396842944075,0.6290668544724396,-0.01841849384849002,-2.0974396969784643,-5.566974380543963,0.3812143248386998,-0.3287963676292813,0.8529198733007224,2.0843730308592323,3,right
9.881,-0.5234326558581847,0.6357594964936607,-0.018577217841973265,-2.1169133571728342,-5.553457842266881,0.36782551730669205,-0.34190858354120895,0.8444126788565856,2.066944153556925,3,right
9.881,-0.5230695285782899,0.6424796374598983,-0.01872632786640419,-2.135369051991047,-5.538530780883156,0.3544884432436362,-0.3547883439326143,0.8358723407800989,2.0485974812559973,3,right
9.885,-0.5227502120545529,0.6492249646305011,-0.01886548387643388,-2.152813540880941,-5.5222126216864496,0.3412024890622764,-0.36742150856721006,0.8273032263135249,2.0293510917118307,3,right
9.887,-0.5224745060228574,0.6559930244949991,-0.01899433456337722,-2.169254464765187,-5.504522753471516,0.3279669639941026,-0.3797942360528934,0.8187096211585367,2.0092235664687466,3,right
9.887,-0.5222421020768309,0.6627812210380124,-0.01911251844816643,-2.184700353209087,-5.485480472367023,0.314781122735935,-0.391893007578374,0.8100957221140265,1.9882339769674047,3,right
9.89,-0.5220525860366212,0.6695868145290963,-0.019219665043739263,-2.19916063057554,-5.465104928287266,0.301644187661415,-0.4037046495929982,0.8014656310120603,1.966401871270094,3,right
9.891,-0.5219054409580084,0.6764069208555439,-0.019315396086710648,-2.212645620477415,-5.443415075570934,0.28855537031571094,-0.4152163554652857,0.7928233499272995,1.9437472613461446,3,right
9.894,-0.5218000507718772,0.683238511418649,-0.019399326840811953,-2.2251665482769485,-5.420429628399852,0.2755138920580923,-0.42641570615490426,0.7841727776351519,1.9202906108571995,3,right
9.895,-0.5217357045411968,0.6900784136179268,-0.019471067478446673,-2.2367355416245767,-5.396167021047119,0.2625190037983873,-0.4372906899319885,0.7755177072938695,1.896052823379675,3,right
9.899,-0.5217116013207791,0.6969233119516869,-0.0195302245498698,-2.247365629075982,-5.370645372892401,0.24957000478972094,-0.4478297211768451,0.7668618253257748,1.8710552309993698,3,right
9.9,-0.521726855603926,0.7037697497645538,-0.01957640255022742,-2.257070736823336,-5.34388245813836,0.236666260440068,-0.458021658292192,0.7582087114727725,1.8453195832108868,3,right
9.904,-0.5217805033389555,0.7106141316729593,-0.019609205592027588,-2.2658656835740074,-5.315895680158568,0.22380721910528792,-0.46785582075914695,0.7495618400012901,1.818868036052282,3,right
9.905,-0.5218715084978339,0.7174527266994052,-0.019628239184405632,-2.2737661736073065,-5.286702050403639,0.21099242782644156,-0.4773220053672176,0.7409245820317919,1.7917231414031776,3,right
9.908999999999999,-0.5219987701802147,0.7242816721467481,-0.01963311211218313,-2.2807887880371696,-5.25631817178871,0.1982215469743196,-0.4864105016475486,0.7323002089680113,1.7639078363724552,3,right
9.91,-0.5221611302397392,0.7310969782457315,-0.01962343840013614,-2.2869509743060883,-5.224760226481935,0.18549436376424058,-0.49511210653765503,0.7236918970010735,1.7354454326995883,3,right
9.915,-0.5223573814239558,0.7378945336125842,-0.019598839343597924,-2.292271033933015,-5.192043968010144,0.17281080460430528,-0.5034181383048142,0.7151027326636993,1.7063596060916826,3,right
9.917,-0.5225862760222911,0.7446701115584229,-0.019558945586399836,-2.2967681085354523,-5.158184717594419,0.16017094624041883,-0.5113204497542065,0.7065357194097223,1.6766743854163735,3,right
9.919,-0.5228465350165309,0.7514193772973349,-0.019503399231152182,-2.3004621641434744,-5.123197364624976,0.147575025661519,-0.5188114407467826,0.697993785194198,1.6464141416688607,3,right
9.92,-0.5231368577242638,0.7581378961038611,-0.01943185597383524,-2.3033739738209995,-5.087096371181383,0.135023448728574,-0.5258840700507005,0.6894797910294362,1.6156035766295802,3,right
9.923,-0.5234559319166872,0.7648211424728548,-0.01934398726175013,-2.305525098607279,-5.049895780500893,0.12251679749103983,-0.5325318665490179,0.6809965404923519,1.5842677111272851,3,right
9.924,-0.5238024443785899,0.7714645103358087,-0.019239482478394847,-2.3069378667892586,-5.011609229294401,0.11005583615459306,-0.5387489398251436,0.6725467901586016,1.5524318728206612,3,right
9.929,-0.5241750918641638,0.7780633243872822,-0.019118051160521867,-2.3076353515132215,-4.972249963806367,0.09764151566408306,-0.5445299901463532,0.6641332609390542,1.5201216834100189,3,right
9.93,-0.5245725923927037,0.784612852572075,-0.018979425252950512,-2.307641346741941,-4.931830859511833,0.08527497686577684,-0.5498703178644518,0.655758650294231,1.4873630451891002,3,right
9.934,-0.5249936968258997,0.791108319779003,-0.01882336140762906,-2.3069803415614536,-4.8903644443406105,0.07295755221310167,-0.5547658322514347,0.6474256453024481,1.4541821268455948,3,right
9.935,-0.5254372006724696,0.7975449227834501,-0.018649643342127875,-2.305677492839505,-4.847862925315577,0.06069076598022504,-0.5592130597867403,0.6391369365574955,1.420605348417606,3,right
9.939,-0.5259019560726956,0.8039178464795925,-0.01845808430712348,-2.303758596235744,-4.804338218489005,0.04847633294794892,-0.5632091519114305,0.6308952328718015,1.3866593653120154,3,right
9.94,-0.5263868839209277,0.8102222814394936,-0.018248529780471586,-2.30125005556181,-4.759801982057817,0.036316155526536865,-0.5667518922633534,0.622703276761151,1.352371051289483,3,right
9.943,-0.526890986086428,0.816453442817197,-0.0180208605679031,-2.2981788504876346,-4.714265652535708,0.024212319280238592,-0.569839703406058,0.6145638606871497,1.3177674803196833,3,right
9.943999999999999,-0.5274133576909928,0.8226065905695074,-0.01777499648467007,-2.2945725025885015,-4.667740483857122,0.012167086818427172,-0.5724716530456677,0.6064798439941895,1.2828759072454436,3,right
9.945,-0.5279531993923493,0.8286770509004571,-0.01751090070993361,-2.2904590397257114,-4.620237589285155,0.00018289001842052355,-0.5746474596422804,0.5984541702799285,1.2477237473741236,3,right
9.949,-0.5285098295918529,0.8346602387683661,-0.017228584792371954,-2.285866958752094,-4.571767985992625,-0.011737679454779154,-0.5763674971657454,0.5904898845822638,1.2123385554388175,3,right
9.95,-0.5290826964055102,0.8405516812047146,-0.016928114177500442,-2.2808251865320637,-4.522342642182641,-0.02359188136642543,-0.5776327986580225,0.5825901495680527,1.1767480045517882,3,right
9.953,-0.5296713891104825,0.8463470410831079,-0.01660961405082723,-2.275363039299768,-4.471972526590605,-0.03537683985406295,-0.5784450583493547,0.5747582601068871,1.1409798655911483,3,right
9.954,-0.5302756486800844,0.8520421409248673,-0.01627327527644922,-2.2695101805540197,-4.420668660098462,-0.04708955783986034,-0.5788066322295933,0.5669976559695896,1.1050619871359688,3,right
9.955,-0.5308953770106412,0.857632986384288,-0.015919360235660467,-2.2632965780051357,-4.368442168994382,-0.058726932227197326,-0.5787205370610461,0.5593119325891688,1.0690222758837624,3,right
9.958,-0.5315306444630085,0.8631157891313281,-0.015548208346945683,-2.256752460264126,-4.315304339300038,-0.07028576895523334,-0.578190447835185,0.5517048498617427,1.0328886774476493,3,right
9.959,-0.5321816952964376,0.8684869888329997,-0.015160240909568301,-2.249908273787027,-4.261266671693266,-0.08176279722500723,-0.5772206936742601,0.5441803389651432,0.9966891574300815,3,right
9.962,-0.5328489504629944,0.8737432738387582,-0.014755964673187023,-2.2427946402684107,-4.206340936746141,-0.09315468264245608,-0.5758162521775806,0.5367425071731305,0.9604516826696555,3,right
9.963,-0.5335330071073173,0.878881600090725,-0.014335973296263613,-2.235442314500651,-4.150539230304184,-0.10445803926354512,-0.5739827422109491,0.5293956406433741,0.924204202557272,3,right
9.968,-0.5342346340336273,0.8838992077797238,-0.013900945787080328,-2.227882142679334,-4.093874028851502,-0.11566944057447257,-0.5717264151364734,0.5221442051575906,0.8879746303177073,3,right
9.968,-0.5349547624395069,0.8887936353672259,-0.013451641286511938,-2.22014502113446,-4.03635824470409,-0.12678542943966728,-0.5690541444787334,0.5149928447924847,0.8517908241525601,3,right
9.972999999999999,-0.5356944714246926,0.8935627307521604,-0.012988890160986059,-2.2122618554663704,-3.9780052808710167,-0.1378025270500439,-0.5659734140220509,0.5079463785003933,0.8156805681405029,3,right
9.974,-0.5364549681212779,0.8982046595358376,-0.012513582116543373,-2.204263520064755,-3.91882908542075,-0.14871724090371516,-0.5624923043323938,0.5010097945788137,0.7796715527908196,3,right
9.978,-0.5372375626721972,0.9027179105219872,-0.012026652609849815,-2.1961808179885716,-3.8588442051874097,-0.15952607185108722,-0.5586194776962532,0.4941882430082827,0.7437913551463436,3,right
9.979,-0.5380436386435598,0.9071012987950473,-0.011529069012570529,-2.188044441184308,-3.798065838649352,-0.1702255202359797,-0.5543641614676637,0.4874870256383722,0.7080674183321208,3,right
9.982000000000001,-0.5388746197530605,0.9113539669300088,-0.011021817780029567,-2.1798849310196684,-3.7365098878101244,-0.18081209116411787,-0.5497361298133827,0.4809115842018882,0.6725270304464114,3,right
9.982999999999999,-0.5397319339931472,0.9154753850363951,-0.010505893425642758,-2.171732639109533,-3.674193008909489,-0.1912822989300404,-0.5447456838451237,0.4744674861376857,0.6371973026910175,3,right
9.987,-0.5406169762995368,0.919465350350428,-0.009982289574024524,-2.1636176884108846,-3.6111326617899615,-0.20163267063315193,-0.5394036301266406,0.46816040820286337,0.6021051466383682,3,right
9.988,-0.5415310708769585,0.9233239869197967,-0.00945199188881731,-2.155569934563327,-3.547347157742065,-0.21185974901332505,-0.5337212575423894,0.46199611785545686,0.5672772505333231,3,right
9.992,-0.5424754341928163,0.9270517455848443,-0.00891597234996105,-2.147618927451836,-3.482855705649313,-0.2219600945361225,-0.5277103125134549,0.45598045238913376,0.5327400545282591,3,right
9.993,-0.5434511395378524,0.930649404009323,-0.00837518425394195,-2.139793872968503,-3.417678456251807,-0.23193028675736632,-0.521382972545421,0.4501192958017825,0.49851972475068806,3,right
9.997,-0.5444590839586472,0.9341180660573377,-0.007830557416530942,-2.13212359495021,-3.351836544345254,-0.2417669249964255,-0.5147518180918838,0.4444185533803004,0.4646421261034105,3,right
9.998,-0.5454999582880837,0.9374591594833002,-0.007282993280209901,-2.1246364972694587,-3.2853521287301755,-0.25146662834723116,-0.5078298027163685,0.4388841239843112,0.43113279369804586,3,right
10.001,-0.5465742209230525,0.9406744308188113,-0.006733359853943675,-2.1173605260559394,-3.218248429724121,-0.2610260350556528,-0.5006302215344989,0.43352187001198766,0.3980169028236889,3,right
10.002,-0.5476820759153305,0.9437659365534985,-0.006182486561734482,-2.110323132026861,-3.1505497640477866,-0.27044180129148704,-0.49316667791739777,0.4283375850316152,0.36531923735342586,3,right
10.007,-0.548823455844941,0.9467360301612091,-0.005631159127431625,-2.103551232904601,-3.082281576894094,-0.2797105993429161,-0.48545304843646253,0.4233369590630102,0.3330641564925015,3,right
10.008,-0.549998009818142,0.9495873450792471,-0.005080114606709336,-2.0970711759008247,-3.0134704709875186,-0.2888291152608902,-0.47750344602886197,0.41852554149340143,0.30127555977305737,3,right
10.013,-0.5512050967517039,0.9523227742370521,-0.0045300366470659,-2.0909087002469233,-2.94414423243923,-0.2977940459804763,-0.4693321813623443,0.4139087016128927,0.2699768502015616,3,right
10.013,-0.5524437838778196,0.9549454470102581,-0.003981551049787813,-2.085088899751367,-2.8743318532019946,-0.3066020959457919,-0.4609537224379986,0.40949158684306525,0.23919089554903855,3,right
10.014,-0.5537128501965902,0.9574587044812599,-0.0034352217174290632,-2.0796361853654153,-2.8040635499272226,-0.31524997326471255,-0.4523826527727944,0.40527907917236816,0.20893998818912934,3,right
10.017000000000001,-0.5550107944678894,0.9598660736805803,-0.0028915470705334293,-2.074574247739537,-2.7333707790250643,-0.3237343854190999,-0.4436336290500331,0.4012757511036988,0.17924580463487064,3,right
10.017999999999999,-0.5563358472118511,0.9621712412358953,-0.0023509570037763164,-2.0699260197538707,-2.662286247727069,-0.3320520345558457,-0.43472133942910995,0.3974858228596957,0.15012936634013602,3,right
10.022,-0.5576859860243456,0.964378026693006,-0.0018138104388981922,-2.0657136390071162,-2.590843920949614,-0.3401996123835685,-0.4256604634015712,0.39391312215230584,0.12161100291963478,3,right
10.023,-0.5590589534069385,0.9664903556860475,-0.0012803935299238803,-2.0619584102493613,-2.5190790237550895,-0.34817379469932863,-0.41646563353299665,0.39056104703259464,0.0937103181985112,3,right
10.024,-0.5604522763658989,0.9685122330836258,-0.0007509185877199841,-2.058680767769967,-2.447028039208122,-0.35597123558615806,-0.4071513991259069,0.3874325318978299,0.06644615909066057,3,right
10.026,-0.5618632872168842,0.9704477162201162,-0.00022552380471464034,-2.0559002378750217,-2.3747287014301586,-0.36358856140625617,-0.39773219177769853,0.38453001664558406,0.03983658722387886,3,right
10.026,-0.5632891452326073,0.9723008883324998,0.0002957261459974257,-2.0536354018100242,-2.3022199836675408,-0.37102236486638196,-0.38822229280722353,0.38185541896523056,0.013898853231735146,3,right
10.031,-0.5647268589039636,0.9740758323630927,0.0008128385997058813,-2.0519038596069694,-2.2295420811944453,-0.37826919951601146,-0.3786358025232863,0.3794101097578533,-0.011350626366116813,3,right
10.032,-0.566173308633277,0.9757766053601761,0.001325890502402284,-2.050722195214295,-2.156736388864282,-0.38532557495376507,-0.36898661130803195,0.3771948916762333,-0.035896289771592906,3,right
10.037,-0.5676252696945345,0.9774072137800015,0.001835025231073455,-2.0501059430497865,-2.083845473109826,-0.39218795286490665,-0.35928837248793455,0.37520998077723483,-0.05972344807827584,3,right
10.037,-0.5690794353298084,0.9789715900213859,0.0023404488082128822,-2.050069555995928,-2.0109130381848033,-0.3988527439276321,-0.3495544769648773,0.37345499127956516,-0.0828183010764566,3,right
10.041,-0.5705324399013169,0.9804735704953864,0.002842425715279199,-2.0506263748343367,-1.9379838864378656,-0.40531630560841175,-0.3397980295796343,0.3719289234205469,-0.10516795076360169,3,right
10.042,-0.5719808820585454,0.9819168754594908,0.003341274481550179,-2.0517885991175424,-1.8651038724096587,-0.4115749408660935,-0.33003182717992147,0.37063015440619856,-0.12676041262866558,3,right
10.046,-0.5734213478886132,0.9833050907485394,0.003837363154841118,-2.0535672594780383,-1.7923198505435582,-0.4176248977839032,-0.3202683383650829,0.36955643244958025,-0.1475846247765659,3,right
10.047,-0.5748504339838225,0.9846416514368915,0.00433110467573823,-2.055972191376226,-1.7196796163006711,-0.4234623701479037,-0.3105196848794121,0.3687048738930163,-0.16763045495700007,3,right
10.05,-0.5762647702829305,0.9859298273907564,0.00482295210416499,-2.0590120102906178,-1.6472318404698367,-0.4290834989898833,-0.3007976246260794,0.36807196341046045,-0.18688870555960913,3,right
10.051,-0.5776610424354806,0.9871727106313111,0.005313393608897641,-2.0626940883554283,-1.5750259964636415,-0.4344843751120456,-0.2911135362736434,0.36765355728691085,-0.20535111663528918,3,right
10.056000000000001,-0.5790360133240727,0.9883732044317596,0.005802947139724441,-2.0670245324524834,-1.5031122803918768,-0.4396610426102617,-0.28147840542716734,0.36744488977242273,-0.2230103670012169,3,right
10.057,-0.5803865432832129,0.9895340141067803,0.0062921547558779335,-2.072008163766191,-1.4315415237044213,-0.4446095034120249,-0.27190281233603486,0.36744058250889045,-0.23986007348489533,3,right
10.061,-0.5817096084979381,0.9906576395045089,0.006781576664986104,-2.0776484988121706,-1.3603650981962292,-0.4493257228446136,-0.26239692111067,0.36763465702838755,-0.2558947883602418,3,right
10.062000000000001,-0.5830023170636203,0.9917463692594027,0.007271785104066834,-2.083947731951984,-1.2896348131679458,-0.45380563624832637,-0.25297047042050425,0.36802055032245334,-0.27110999502643435,3,right
10.065,-0.5842619222401522,0.9928022768925674,0.007763358238306755,-2.0909067194083004,-1.2194028045366567,-0.45804515664899464,-0.24363276564570532,0.36859113348230066,-0.28550210197790954,3,right
10.066,-0.5854858325312897,0.9938272188481467,0.008256874250269042,-2.098524964796697,-1.1497214156924085,-0.4620401835033137,-0.23439267245537987,0.3693387334104885,-0.2990684351115657,3,right
10.071,-0.5866716183523875,0.9948228345329696,0.008752905747770861,-2.1068006061921962,-1.080643069897429,-0.46578661252985254,-0.22525861178519083,0.37025515760515243,-0.3118072284148732,3,right
10.073,-0.5878170152020025,0.9957905483877911,0.00925201455292535,-2.1157304047505274,-1.0122201340263972,-0.4692803466379126,-0.21623855618758425,0.3713317220184159,-0.3237176130762298,3,right
10.075,-0.5889199234056108,0.9967315739686744,0.009754746871459925,-2.1253097349059993,-0.944504773447704,-0.4725173079657036,-0.2073400275280984,0.3725592819911123,-0.33479960505653145,3,right
10.077,-0.5899784046344453,0.9976469199627831,0.010261628798096546,-2.1355325761697412,-0.8775487978473689,-0.4754934510385897,-0.1985700960015334,0.37392826626643066,-0.34505409115854946,3,right
10.08,-0.5909906755062756,0.998537398009202,0.010773162097916532,-2.146391506553967,-0.8114034977991663,-0.47820477705743375,-0.1899353804420854,0.37542871408555967,-0.3544828136283314,3,right
10.081,-0.5919550986434888,0.9994036321466016,0.011289820214446999,-2.157877697649758,-0.7461194718865439,-0.48064734932633013,-0.18144204990189688,0.3770503153688354,-0.36308835332046246,3,right
10.082,-0.5928701715951362,1.0002460696735036,0.011812044485471403,-2.169980911387721,-0.6817464441840971,-0.4828173098282675,-0.17309582646294214,0.37878245390691206,-0.37087411147369276,3,right
10.085,-0.5937345140133264,1.0010649931990652,0.01234024058232655,-2.182689498512696,-0.618333071908691,-0.48471089695650055,-0.1649019891980439,0.38061425308990143,-0.37784429022628285,3,right
10.086,-0.5945468534199991,1.0018605336830548,0.012874775212836413,-2.195990398805488,-0.5559267430527938,-0.4863244644086414,-0.15686537910810575,0.38253462298825586,-0.38400387215144743,3,right
10.09,-0.5953060098619085,1.002632684279891,0.013415973140536521,-2.2098691431230155,-0.49457336427316073,-0.48765450120924314,-0.14899040481355527,0.384532307202533,-0.3893585991761396,3,right
10.091000000000001,-0.5960108797533771,1.0033813147962478,0.013964114576818587,-2.2243098575132247,-0.4343171416005816,-0.48869765262359754,-0.1412810488279411,0.38659592829642125,-0.3939149511588611,3,right
10.092,-0.5966604192079569,1.0041061865704848,0.014519432993513425,-2.2392952699926263,-0.3752003606609599,-0.48945074136059963,-0.13374087433119403,0.38871403134217325,-0.3976801242464665,3,right
10.096,-0.5972536271611791,1.0048069675881575,0.015082113381634272,-2.2548067207592024,-0.31726317539082866,-0.48991078825945933,-0.1263730324100365,0.39087512550477255,-0.40066200904240035,3,right
10.097999999999999,-0.5977895286255098,1.0054832476383306,0.015652290958578403,-2.270824176431805,-0.26054341194374064,-0.49007503185647516,-0.1191802697434012,0.39306772367073567,-0.4028691685994738,3,right
10.1,-0.5982671584695993,1.0061345533043458,0.016230050307472994,-2.2873262485789265,-0.20507639036557188,-0.48994094659131604,-0.11216493671120432,0.3952803801276105,-0.40431081624801174,3,right
10.1,-0.5986855461242492,1.006760362597108,0.01681542491813429,-2.304290216618011,-0.15089476433034393,-0.48950625961367544,-0.10532899590531405,0.3975017263003539,-0.40499679326795673,3,right
10.104,-0.5990437015855047,1.0073601190718149,0.01740839709009938,-2.3216920551312668,-0.09802837877370092,-0.4887689661907652,-0.0986740310220559,0.39972050455086283,-0.4049375464112893,3,right
10.104,-0.5993406030320637,1.0079332453008307,0.018008898153776782,-2.339506465645342,-0.04650414526476893,-0.48772734371525706,-0.09220125611610638,0.4019256000469906,-0.4041441052789278,3,right
10.11,-0.599575186308728,1.008479155597656,0.018616808959764503,-2.3577069129235424,0.0036540650391865765,-0.4863799643124212,-0.08591152519614059,0.40410607070740606,-0.40262805955410064,3,right
10.111,-0.5997463364538068,1.008997267899073,0.019231960575381887,-2.376265665820528,0.05242551100711903,-0.48472570604433846,-0.07980534214311798,0.4062511752286452,-0.40040153609204476,3,right
10.113999999999999,-0.5998528813715057,1.009487014718839,0.019854135119668343,-2.3951538427506094,0.09979265386553848,-0.4827637627081906,-0.07388287093261403,0.4083503992006667,-0.3974771758637751,3,right
10.115,-0.5998935876754943,1.0099478530930721,0.020483066672970906,-2.4143414618218646,0.1457412123908754,-0.48049365222475715,-0.06814394614313,0.41039347931715203,-0.39386811074959677,3,right
10.119,-0.5998671586614106,1.0103792734479136,0.02111844221075623,-2.433797495689334,0.19026020110294012,-0.47791522361236305,-0.06258808373283968,0.412370425686689,-0.38958794017599147,3,right
10.12,-0.5997722343075836,1.0107808073334594,0.0217599025246339,-2.4534899311814824,0.23334195159552046,-0.47502866254064097,-0.05721449206775911,0.4142715422508481,-0.384650707587504,3,right
10.124,-0.5996073931557744,1.011152033982571,0.022407043107606345,-2.4733858337549943,0.27498211713609155,-0.47183449545758643,-0.05202208318485196,0.41608744531499925,-0.37907087674329154,3,right
10.124,-0.599371155885874,1.0114925856674262,0.023059414998574067,-2.493451416833712,0.3151796606625128,-0.46833359228249916,-0.047009484274108164,0.4178090801975272,-0.3728633078260688,3,right
10.129,-0.5990619903697127,1.0118021518393074,0.02371652559904744,-2.5136521160882235,0.3539368263004652,-0.46452716765651875,-0.04217504936415678,0.41942773600288685,-0.3660432333492993,3,right
10.13,-0.5986783179703407,1.0120804820481315,0.02437783948786109,-2.5339526687131837,0.391259094521247,-0.4604167807415813,-0.03751687119649344,0.42093505852369495,-0.35862623384663245,3,right
10.135,-0.5982185208441447,1.0123273876498298,0.025042779268360488,-2.5543171977599353,0.4271551210554107,-0.4560043335577421,-0.03303279327391923,0.422323061276786,-0.3506282133257891,3,right
10.136000000000001,-0.5976809500023024,1.012542742325367,0.02571072649035406,-2.574709301582386,0.4616366596735907,-0.45129206784793285,-0.02872042206929881,0.42358413467786404,-0.3420653744673348,3,right
10.139,-0.5970639338943873,1.0127264814573929,0.026381022695613317,-2.5950921484543814,0.49471846894175825,-0.4462825604583496,-0.02457713938125133,0.42471105335906373,-0.3329541935470692,3,right
10.14,-0.5963657872900776,1.0128786004395212,0.027052970635058373,-2.615428576417,0.5264182030540484,-0.4409787172218003,-0.020600114823887572,0.42569698163339015,-0.3233113950590896,3,right
10.142999999999999,-0.5955848202522074,1.0129991520266692,0.02772583569299117,-2.6356811984142663,0.5567562868422468,-0.4353837653304814,-0.016786318438199232,0.4265354771096466,-0.31315392601496683,3,right
10.144,-0.594719347011525,1.013088242867399,0.028398847532451307,-2.6558125127757632,0.585755775057009,-0.42950124418379665,-0.013132533413191826,0.42722049246107185,-0.3024989298928931,3,right
10.148,-0.5937676945687314,1.013146029384561,0.029071201956086753,-2.6757850191044805,0.6134421960119233,-0.42333499469599056,-0.009635368905329698,0.4277463753505049,-0.2913637202091392,3,right
10.15,-0.5927282108648857,1.0131727131852517,0.02974206296477904,-2.695561339628001,0.6398433796776165,-0.41688914704752983,-0.006291272945330232,0.4281078665144741,-0.27976575368267736,3,right
10.151,-0.5915992723811595,1.013168536182175,0.030410564990140426,-2.7151043460707727,0.6649892703092686,-0.4101681068633441,-0.0030965454164890473,0.42830009603669056,-0.26772260299403877,3,right
10.154,-0.5903792910565866,1.0131337755899537,0.031075815275171583,-2.7343772921047664,0.6889117236871288,-0.4031765398002184,-4.735106259473771e-05,0.42831857798359824,-0.25525192929629725,3,right
10.155,-0.5890667204451325,1.0130687389246125,0.031736896379505226,-2.7533439514352462,0.711644289045945,-0.3959193545248316,0.0028602675638998327,0.428159203830888,-0.2423714549195069,3,right
10.158,-0.5876600610610042,1.0129737591040868,0.03239286878819918,-2.7719687615777175,0.7332219757656078,-0.38840168406314207,0.00563037732892669,0.42781823525202584,-0.2290989368668435,3,right
10.158999999999999,-0.5861578648787672,1.0128491897368208,0.033042773602925346,-2.790216973100696,0.7536810053483842,-0.3806288655529039,0.008267142007558763,0.4272922966967197,-0.21545214154127035,3,right
10.158999999999999,-0.5845587389685304,1.0126954006794084,0.03368563529441599,-2.808054802704813,0.7730585514875751,-0.3726064186896208,0.010774810078721659,0.4265783679300107,-0.2014488208556076,3,right
10.163,-0.5828613482615972,1.0125127739274629,0.034320464497051735,-2.8254495859819677,0.7913924751383046,-0.3643400236222126,0.013157702837142519,0.42567377655952743,-0.18710668971955485,3,right
10.164,-0.581064417460053,1.012301699886025,0.0349462608260768,-2.8423699242939153,0.8087210637808164,-0.35583549931322384,0.015420202830119812,0.424576190549386,-0.1724434048645019,3,right
10.169,-0.5791667321266964,1.0120625740581985,0.03556201569258315,-2.8587858216117357,0.8250827817806667,-0.3470987831183997,0.01756674262632725,0.42328361071867915,-0.15747654496593844,3,right
10.17,-0.5771671390183895,1.0117957941867637,0.036166715086108026,-2.8746688096822037,0.8405160346380209,-0.3381359118730402,0.019601793923506663,0.4217943632219506,-0.14222359202229876,3,right
10.173,-0.575064545751532,1.0115017578731964,0.03675934229412909,-2.889992061288955,0.8550589476324945,-0.32895300451256937,0.021529857001558926,0.4201070920084973,-0.12670191394815633,3,right
10.174,-0.5728579199101221,1.01118086068182,0.03733888053061683,-2.904730491655542,0.8687491589106228,-0.31955624620223577,0.023355450527209037,0.4182207512567833,-0.11092874833880968,3,right
10.177999999999999,-0.5705462877251847,1.010833494719215,0.03790431544997347,-2.9188608480359495,0.8816236270603773,-0.3099518739502087,0.02508310171610119,0.4161345977796832,-0.09492118736247965,3,right
10.179,-0.5681287324700921,1.0104600476638872,0.03845463752938127,-2.932361787536539,0.8937184532145874,-0.3001461636777042,0.02671733685787233,0.4138481833957057,-0.07869616373556527,3,right
10.185,-0.5656043927282316,1.0100609022084104,0.03898884431337697,-2.9452139432117086,0.905068717722675,-0.2901454187191588,0.02826267220945847,0.41136134726077844,-0.06227043773568305,3,right
10.186,-0.562972460694902,1.0096364358654366,0.03950594252677199,-2.9573999784738145,0.9157083314277665,-0.2799559597248745,0.029723605261606525,0.40867420815459815,-0.045660585206540566,3,right
10.187000000000001,-0.5602321806725681,1.0091870210820268,0.040004950070258324,-2.9689046298561035,0.925669901584001,-0.2695841159379798,0.031104606383296173,0.4057871567149788,-0.028882986508070592,3,right
10.187000000000001,-0.5573828479080248,1.0087130256063788,0.04048489791556154,-2.97971473816553,0.9349846124467138,-0.2590362178169893,0.032410110848520704,0.40270084761305325,-0.011953816364674392,3,right
10.193,-0.5544238079039374,1.0082148130577424,0.04094483191798527,-2.989819268060438,0.9436821205661324,-0.24831859097470554,0.03364451124963341,0.39941619166161,0.005110965436105954,3,right
10.195,-0.5513544563186915,1.0076927436621241,0.0413838145662539,-2.9992093160861297,0.9517904648132656,-0.23743755140368034,0.0348121503012363,0.3959343478482732,0.02229562254264905,3,right
10.197000000000001,-0.5481742395487521,1.0071471751303014,0.04180092668962659,-3.0078781071993506,0.959335991164812,-0.2263994019579482,0.03591731403837089,0.3922567152846607,0.03958464978464807,3,right
10.198,-0.544882656065175,1.00657846366753,0.04219526913643495,-3.0158209798106963,0.9663432922721316,-0.21521043006025647,0.0369642254125667,0.3883849250620882,0.05696278021382576,3,right
10.202,-0.5414792585486917,1.005986965112251,0.04256596442667257,-3.023035359371906,0.9728351618376293,-0.2038769066035477,0.0379570382891108,0.3843208320038185,0.07441499148930403,3,right
10.203,-0.537963656836431,1.0053730362012492,0.04291215836770426,-3.0295207205329375,0.9788325638202837,-0.19240508601499753,0.0388998318487225,0.38006650630329525,0.09192651165726204,3,right
10.208,-0.5343355216595422,1.0047370359519723,0.04323302161153146,-3.0352785378916263,0.9843546164904955,-0.18080120745047917,0.03979660539664953,0.3756242250372431,0.10948282437477323,3,right
10.209,-0.5305945891161025,1.0040793271429562,0.04352775112880878,-3.0403122253566632,0.9894185913529544,-0.1690714970869097,0.0406512735820467,0.3709964635419624,0.12706967362792485,3,right
10.212,-0.526740665790217,1.0034002778642597,0.04379557158089929,-3.04462706414252,0.9940399269547908,-0.15722217147953574,0.041467662030353826,0.3661858866406031,0.14467306799449475,3,right
10.213,-0.5227736344001812,1.0027002631037045,0.04403573658459543,-3.048230119412869,0.9982322575949155,-0.14525944195083784,0.04224950339125784,0.3611953397086607,0.16227928450158952,3,right
10.217,-0.5186934598389784,1.0019796663325018,0.0442475298782731,-3.0511301455869737,1.002007456949127,-0.1331895199773699,0.04300043380470229,0.3560278395644065,0.17987487212873557,3,right
10.218,-0.5145001954617067,1.0012388810560573,0.044430266405795324,-3.05333748032145,1.0053756966242928,-0.12101862354050742,0.043723989782903316,0.35068656518179864,0.19744665499729588,3,right
10.218,-0.5101939894813289,1.0004783123020333,0.044583293333450874,-3.054863927177786,1.0083455196536717,-0.10875298440675213,0.04442360548425964,0.3451748482797088,0.21498173523874903,3,right
10.221,-0.5057750913534727,0.9996983780255636,0.04470599101019902,-3.055722626983955,1.0109239289442464,-0.09639885630293273,0.04510261031540555,0.33949616394303855,0.23246749544732218,3,right
10.222999999999999,-0.5012438580439592,0.9988995104171399,0.04479777387780804,-3.0559279178964998,1.0131164906857597,-0.08396252395135156,0.04576422677560521,0.3336541214876035,0.24989160057405835,3,right
10.227,-0.4966007600686562,0.9980821571003888,0.044858091336397836,-3.055495184462203,1.0149274523976977,-0.07145031290980135,0.04641156847958958,0.3276524557233697,0.26724199916763575,3,right
10.228,-0.4918463871919913,0.9972467822068167,0.04488642857026712,-3.054440697450082,1.0163598736278172,-0.05886860006185557,0.04704763833442705,0.3214950186679025,0.2845069239541337,3,right
10.229,-0.48698145368379836,0.9963938673149276,0.04488230733613025,-3.052781448874926,1.0174157643239778,-0.04622382442392113,0.04767532686794089,0.3151857717046127,0.3016748917961052,3,right
10.232000000000001,-0.4820068030505206,0.9955239122414323,0.04484528671029119,-3.050534988105307,1.0180962242384126,-0.0335224978360566,0.0482974107105395,0.3087287781685689,0.31873470308077434,3,right
10.232000000000001,-0.47692341216054945,0.9946374356715812,0.04477496378487018,-3.047719263473662,1.0184015783840081,-0.02077121520262709,0.04891655123229305,0.30212819634219434,0.33567544058693055,3,right
10.237,-0.471732394683268,0.9937349756149966,0.04467097430011155,-3.0443524711519587,1.0183315065518086,-0.007976664127365047,0.0495352933370656,0.29538827284273234,0.3524864678798152,3,right
10.238,-0.4664350037721677,0.99281708967362,0.044532993203216964,-3.040452911581242,1.017885166559396,0.004854366113489893,0.050156064415495534,0.28851333638294135,0.36915742728298506,3,right
10.242,-0.46103263394518096,0.9918843551089613,0.044360735133092674,-3.0360388534470006,1.017061311231023,0.017714976296588338,0.0507811734586085,0.28150779188606545,0.385678237475796,3,right
10.243,-0.45552682214261153,0.9909373686967468,0.04415395484051022,-3.0311284051907306,1.015858399109294,0.03059814971214671,0.05141281033384539,0.27437611493572844,0.4020390907647782,3,right
10.245999999999999,-0.4499192479688629,0.9899767463601867,0.043912447559626616,-3.0257393940465325,1.0142746988971127,0.04349674539674619,0.052053045225293894,0.2671228465410111,0.4182304500767724,3,right
10.247,-0.4442117331467653,0.9890031225803597,0.043636049345805214,-3.0198892525900938,1.012308387627523,0.05640349217518496,0.052703828239923776,0.2597525881965962,0.43424304572126593,3,right
10.251,-0.4384062402329342,0.9880171495934766,0.04332463738525616,-3.0135949127859925,1.0099576425579853,0.06931098354837839,0.053366989181645244,0.25226999721750354,0.45006787196890796,3,right
10.252,-0.43250487065923116,0.9870194963979314,0.04297813026766006,-3.006872707517883,1.007220726784535,0.08221167346434563,0.054044237495033495,0.24467978232758814,0.46569618349269853,3,right
10.255999999999998,-0.426509862178472,0.9860108476065809,0.04259648819921051,-2.9997382795847853,1.0040960685701705,0.09509787300934434,0.05473716238059316,0.23698669948063908,0.4811194917178303,3,right
10.255999999999998,-0.42042358580091543,0.984991902188997,0.04217971312428548,-2.992206498145441,1.0005823343807134,0.10796174805621711,0.05544723308347125,0.22919554789259347,0.4963295611256262,3,right
10.261,-0.41424854231124897,0.9839633721514721,0.041727848720566396,-2.984291382591445,0.9966784956202753,0.12079531790699312,0.05617579935756768,0.22131116626307082,0.5113184055564499,3,right
10.262,-0.40798735845535145,0.9829259811982204,0.041240980235218314,-2.9760060338287064,0.9923838890573526,0.13359045496674696,0.05692409210703713,0.21333842916413867,0.5260782845558787,3,right
10.265,-0.40164278288423944,0.9818804634081745,0.040719234139814826,-2.9673625729456172,0.9876982709314525,0.14633888548565194,0.05769322420722486,0.20528224357393746,0.540601699807815,3,right
10.265999999999998,-0.3952176819403586,0.9808275619520683,0.040162777598382854,-2.9583720872452286,0.9826218647290345,0.15903219140607738,0.058484191507132285,0.1971475455325255,0.554881391697581,3,right
10.27,-0.38871503536921914,0.979768027866441,0.039571817759997345,-2.9490445836176535,0.9771554026164293,0.17166181335146952,0.059297874015564224,0.18893929689705152,0.5689103360473786,3,right
10.270999999999999,-0.38213793203686525,0.9787026188962152,0.03894660089783138,-2.9393889492278924,0.9713001605162753,0.1842190547936206,0.06013503727316956,0.18066248217312134,0.582681741065824,3,right
10.275,-0.37548956572853587,0.9776320984170523,0.03828741142022873,-2.9294129194932776,0.9650579868128915,0.1966950874347722,0.060996333912649386,0.17232210539900125,0.596189044552561,3,right
10.276,-0.36877323109364546,0.9765572344513743,0.03759457077976983,-2.919123053323755,0.9584313246708839,0.20908095784081557,0.06188230540947182,0.1639231870590883,0.6094259113982411,3,right
10.280999999999999,-0.36199231978719315,0.9754787987929804,0.03686843630492889,-2.908524715597285,0.9514232279501729,0.2213675953616437,0.0627933840254999,0.15547076100288115,0.6223862314194172,3,right
10.282,-0.3551503168406301,0.9743975662505212,0.03610939997627286,-2.897622066841718,0.9440373706995098,0.23354582137447588,0.06372989494800779,0.14696987134550332,0.635064117567141,3,right
10.286,-0.3482507972780039,0.9733143140097823,0.035317887167256395,-2.8864180600935962,0.9362780502094566,0.2456063598857169,0.06469205862663169,0.13842556932566089,0.6474539045472761,3,right
10.287,-0.34129742297682314,0.9722298211029677,0.034494355369652265,-2.874914444903441,0.928150183604703,0.2575398495266268,0.06567999330695458,0.12984291010315185,0.6595501478756203,3,right
10.288,-0.3342939397600177,0.9711448679659457,0.03363929292287084,-2.8631117784562194,0.91965929795451,0.26933685697776644,0.0666937177399043,0.12122694950984124,0.6713476233194904,3,right
10.29,-0.32724417469732464,0.9700602360635006,0.03275321776212334,-2.851009443774799,0.9108115138790049,0.28098789185684575,0.06773315401095026,0.11258274082537725,0.6828413265494641,3,right
10.290999999999999,-0.32015203358857347,0.9689767075631776,0.03183667619437983,-2.8386056749733553,0.9016135226279876,0.29248342310423503,0.06879813041356525,0.10391533168075082,0.6940264727534998,3,right
10.295,-0.3130214985934443,0.9678950650369018,0.030890241706458266,-2.8258975895268086,0.8920725566078681,0.3038138969000098,0.06988838431108559,0.09522976116076803,0.7048984960354313,3,right
10.297,-0.3058566259624628,0.9668160911695207,0.029914513806843044,-2.812881227425023,0.8821963534715922,0.3149697561036768,0.07100356496644349,0.08653105711893799,0.7154530485460876,3,right
10.297,-0.29866154381713633,0.9657405684575646,0.02891011690150124,-2.799551596597029,0.8719931145866855,0.3259414609957788,0.07214323633891208,0.07782423368627503,0.7256859993650356,3,right
10.3,-0.29144044992565166,0.9646692788872443,0.027877699203757305,-2.785902723121034,0.8614714599578751,0.33671951071939243,0.07330687985099431,0.06911428894907494,0.7355934331641705,3,right
10.3,-0.284197609418604,0.9636030035850717,0.026817931679307242,-2.7719277042525174,0.8506403823810709,0.3472944646075251,0.07449389712865842,0.06040620277068683,0.7451716486834602,3,right
10.305,-0.2769373523816689,0.9625425224375216,0.02573150703084077,-2.757618762784384,0.8395092029032627,0.35765696279339526,0.07570361271819279,0.05170493473227908,0.7544171570482386,3,right
10.307,-0.2696640712542276,0.9614886136780929,0.024619138732952475,-2.7429673021208636,0.8280875283996689,0.3677977458807319,0.0769352767830216,0.04301542216758863,0.7633266799564958,3,right
10.309000000000001,-0.26238221796126404,0.9604420534402127,0.023481560134277952,-2.7279639619284763,0.8163852113772968,0.37770767366215097,0.0781880677838902,0.03434257826664847,0.7718971477636761,3,right
10.31,-0.25509630070946054,0.9594036152724698,0.02231952364445066,-2.7125986743229396,0.8044123119729606,0.38737774291535787,0.07946109514589335,0.02569129022350742,0.7801256974915353,3,right
10.314,-0.2478108803848175,0.9583740696092947,0.021133800014795846,-2.696860720549908,0.7921790621129646,0.39679910430628723,0.08075340191588311,0.017066417402990083,0.7880096707866463,3,right
10.315,-0.24053056649796015,0.9573541831863519,0.019925177705926694,-2.680738788116424,0.7796958318008573,0.4059630784276304,0.08206396741385322,0.0084727895015929,0.7955466118531677,3,right
10.319,-0.23326001263401472,0.9563447183872541,0.018694462318859902,-2.664221028328912,0.7669730974988811,0.41486117100050984,0.08339170988195505,-8.479532232621814e-05,0.8027342653835069,3,right
10.32,-0.22600391137630016,0.9553464325089971,0.0174424760554585,-2.647295114192487,0.7540214125680016,0.4234850872663481,0.08473548913485535,-0.008601572373831183,0.8095705745095215,3,right
10.325,-0.2187669886877436,0.95436007693836,0.016170057173185304,-2.6299482986252345,0.7408513797306734,0.431826745595238,0.08609410921519839,-0.01707281242684081,0.8160536787959064,3,right
10.325,-0.21155399775077804,0.9533863962379849,0.014878059407184665,-2.612167472939981,0.7274736255198178,0.43987829033635745,0.08746632105798423,-0.02549382383428509,0.822181912296409,3,right
