time,gFx,gFy,gFz,ax,ay,az,wx,wy,wz,subject_number,foot
8.927,0.503204446481872,0.4760139551613521,0.23361137900270534,-1.7841797537981223,3.28390303680371,0.40572813340985714,-0.17445692762670373,0.3081752509812346,2.385337677772808,2,left
8.927999999999999,0.505150682122998,0.4661194790112477,0.2309747431049574,-1.7813800182897797,3.212684129728789,0.42996609865473234,-0.16974715105477742,0.28761835280778797,2.377313686343442,2,left
8.931000000000001,0.5070832814081058,0.45641667731148056,0.22823995499474636,-1.779133005966129,3.139933822964424,0.4540902834206109,-0.16481344417532914,0.26706619253270264,2.368456522295904,2,left
8.932,0.5090023791630218,0.44690874489009746,0.2254106673002989,-1.7774430458445833,3.0656878755172574,0.47807592545119987,-0.15965383606420938,0.24653738978413997,2.3587664208412145,2,left
8.936,0.5109079930259708,0.4375986879035414,0.22249064844764538,-1.7763129210303052,2.9899835693332677,0.5018979325894337,-0.15426658107753982,0.22605066065174875,2.34824406528186,2,left
8.937000000000001,0.5128000246104892,0.4284893243330779,0.21948377494576848,-1.77574387450191,2.9128596598951324,0.5255309390006841,-0.14865016389191046,0.20562478444371615,2.3368905858473297,2,left
8.941,0.5146782612224541,0.4195832847539133,0.21639402339978203,-1.775735617891037,2.8343563274775905,0.5489493605651888,-0.14280330434200075,0.18527857063648975,2.3247075583826877,2,left
8.942,0.5165423781218824,0.41088301338172717,0.21322546227235148,-1.7762863432487999,2.7545151289616023,0.5721274494280679,-0.1367249620401452,0.16503082595835844,2.311697002859961,2,left
8.946,0.5183919413162921,0.4023907694002555,0.20998224341172717,-1.7773927377974763,2.673378949985845,0.5950393477747665,-0.13041434076170616,0.14490032154825455,2.297861381679724,2,left
8.947000000000001,0.5202264108686241,0.3941086285717085,0.20666859336463356,-1.7790500016674138,2.59099195721011,0.6176591408991404,-0.1238708925794551,0.1249057601313683,2.2832035977278924,2,left
8.951,0.5220451446988403,0.3860384851299455,0.20328880449473494,-1.781251868620725,2.50739955046133,0.6399609096307151,-0.11709432172949936,0.10506574315344876,2.267726992150348,2,left
8.952,0.5238474028542194,0.37818205395510135,0.19984722593168988,-1.7839906297649386,2.4226483145292512,0.6619187821868819,-0.11008458819062418,0.08539873781600207,2.2514353418056614,2,left
8.956,0.5256323522194066,0.37054087302753824,0.1963482543792988,-1.787257160261356,2.3367859703751757,0.6835069855149563,-0.10284191095825201,0.06592304395498777,2.23433285635381,2,left
8.957,0.5273990716338443,0.36311630615722135,0.19279632481172812,-1.7910409490344206,2.2498613255137245,0.7046998961881075,-0.09536677099355167,0.046656760706057954,2.2164241749364364,2,left
8.96,0.5291465573813648,0.35590954598126806,0.18919590108652665,-1.795330131489949,2.1619242233242715,0.7254720909181869,-0.08765991382756061,0.027617752899880818,2.1977143624018596,2,left
8.961,0.5308737290146146,0.34892161721844983,0.18555146650545043,-1.8001115252515856,2.073025491045481,0.7457983967474147,-0.07972235179951531,0.008823617131638787,2.178208905025712,2,left
8.965,0.5325794354755665,0.34215338016552016,0.18186751435829485,-1.805370668926323,1.9832168862033523,0.7656539409797506,-0.0715553659079172,-0.009708352550606961,2.1579137056757736,2,left
8.965,0.534262461471851,0.33560553441610785,0.1781485384886688,-1.8110918639113838,1.8925510412202537,0.7850142009115709,-0.06316050725219632,-0.027961199393341844,2.136835078367261,2,left
8.97,0.5359215340662287,0.32927862277924413,0.17439902392286072,-1.8172582192561668,1.8010814059496878,0.8038550534199873,-0.05453959804217336,-0.04591833917476632,2.1149797421525505,2,left
8.972000000000001,0.5375553294335484,0.32317303537301867,0.1706234376026863,-1.8238516995943335,1.7088621878788899,0.8221528244657957,-0.04569473215186148,-0.06356359598490835,2.0923548142870496,2,left
8.975,0.5391624797368136,0.31728901386929886,0.16682621926030475,-1.8308531761624307,1.6159482897389283,0.8398843385666196,-0.036628275193496006,-0.08088123860107961,2.0689678026106777,2,left
8.976,0.5407415800722547,0.31162665586607713,0.1630117724700485,-1.838242480922728,1.5223952442596476,0.8570269682943209,-0.027342864087030655,-0.09785601751022702,2.0448265970821806,2,left
8.98,0.5422911954326111,0.3061859193640318,0.15918445591209754,-1.8459984638091693,1.4282591458046554,0.8735586838491959,-0.017841406099696516,-0.11447320262883545,2.0199394604013086,2,left
8.981,0.5438098676375406,0.3009666273243427,0.15534857488487172,-1.8540990531165078,1.333596578619555,0.8894581027618418,-0.008127077329584072,-0.13071862177009805,1.9943150176516828,2,left
8.984,0.5452961221812554,0.29596847228648615,0.15150837310429416,-1.8625213190538075,1.2384645414247895,0.9047045397718942,0.0017966793795861351,-0.14657869984344615,1.9679622449373229,2,left
8.985,0.5467484749534143,0.29119102102672506,0.14766802482497116,-1.8712415404845426,1.1429203680827955,0.919278056931082,0.011926157036788376,-0.16204049845230523,1.9408904571951624,2,left
8.986,0.5481654387990016,0.28663371923932396,0.14383162731055257,-1.8802352748765188,1.0470216440676452,0.933159513976228,0.022257387435501333,-0.17709175498211563,1.9131092957444784,2,left
8.991,0.549545529888464,0.28229589622328416,0.14000319367431735,-1.8894774314857579,0.9508261184640124,0.9463306190159528,0.032786144170822554,-0.191720919951352,1.8846287163435649,2,left
8.992,0.5508872738668118,0.27817676955765486,0.13618664611139072,-1.8989423477993477,0.8543916112211134,0.9587739795729048,0.04350794556346844,-0.20591719171533152,1.855458978310423,2,left
8.995,0.5521892117463623,0.274275449748269,0.13238580954640825,-1.9086038691627254,0.7577759155887618,0.9704731539549328,0.054418057437325446,-0.219670548184185,1.8256106348814816,2,left
8.996,0.5534499055099588,0.2705909448288895,0.12860440571791046,-1.9184354310160487,0.6610366966743494,0.9814127025944642,0.06551149576695518,-0.23297177553335252,1.795094524768857,2,left
8.996,0.5546679433991804,0.267122164900586,0.12484604771394517,-1.9284101422621716,0.5642313888814244,0.9915782383954516,0.07678302922584405,-0.2458124939473647,1.7639217648323782,2,left
9.0,0.5558419448683998,0.26386792659379565,0.1211142349679412,-1.938500867787763,0.46741709600254694,1.0009564747930069,0.08822718166672852,-0.2581851804363988,1.7321037437806508,2,left
9.001,0.5569705651868978,0.2608269574373158,0.11741234872170139,-1.9486803086611422,0.370650496726218,1.0095352705607714,0.09983823456585338,-0.27008318876380344,1.6996521168135255,2,left
9.004,0.5580524996709222,0.2579979001183709,0.11374364796022939,-1.9589210794335759,0.2739877564949411,1.0173036709966596,0.11161022946353111,-0.28150076652146283,1.6665788011164373,2,left
9.005,0.5590864875286811,0.2553793166192996,0.11011126581956322,-1.9691957824726611,0.17748444563892174,1.0242519454474677,0.12353697043386619,-0.29243306938853014,1.6328959721152425,2,left
9.01,0.5600713153026863,0.25296969221904775,0.10651820646608204,-1.9794770793569776,0.08119546350754164,1.0303716211969682,0.13561202661698687,-0.30287617260769756,1.5986160603983488,2,left
9.011000000000001,0.5610058198951134,0.2507674393497086,0.10296734244634106,-1.9897377593613688,-0.01482503167895944,1.0356555137397865,0.14782873484758902,-0.31282707971179136,1.563751749211158,2,left
9.014,0.5618888911647503,0.2487709012986128,0.09946141251053993,-1.9999508050623094,-0.11052368753470411,1.040097753461001,0.1601802024140403,-0.3222837285320903,1.5283159724260835,2,left
9.015,0.5627194740896895,0.2469783557454932,0.09600301991775251,-2.010089455092838,-0.2058480170467958,1.0436938087390324,0.172659309982719,-0.3312449945183605,1.492321912889695,2,left
9.019,0.5634965704977194,0.2453880181231733,0.09259463123338009,-2.020127264076469,-0.300746453223062,1.0464405054869887,0.1852587147226678,-0.33971069139918847,1.4557830010468589,2,left
9.02,0.5642192403759305,0.24399804478933895,0.08923857562681073,-2.03003815976937,-0.39516839912372514,1.048336043145216,0.1979708536660297,-0.34768156920977716,1.4187129137401109,2,left
9.024,0.5648866027818674,0.24280653599607954,0.08593704467072485,-2.0397964974398692,-0.489064273550733,1.0493800071353816,0.21078794734009962,-0.3551593097129469,1.3811255730808838,2,left
9.025,0.5654978363893135,0.24181153864385035,0.08269209263463978,-2.0493771115140778,-0.5823855526672559,1.049573377783973,0.22370200370716986,-0.3621465192376635,1.3430351452876557,2,left
9.027999999999999,0.5660521797104335,0.2410110488086466,0.0795056372547706,-2.0587553645160357,-0.6750848078184942,1.04891853572066,0.23670482244867105,-0.36864671895799406,1.3044560393845526,2,left
9.03,0.5665489310402562,0.24040301403552278,0.07637946095084301,-2.0679071933303685,-0.7671157398234284,1.0474192637545172,0.24978799963041218,-0.37466433263397936,1.2654029056524625,2,left
9.033,0.5669874481682549,0.23998533539683883,0.07331521245058738,-2.0768091528149193,-0.8584332100054974,1.045080745228673,0.26294293278599973,-0.38020467183450174,1.2258906337232667,2,left
9.033999999999999,0.5673671478968887,0.23975586931832396,0.07031440877686834,-2.0854384567902438,-0.9489932682284062,1.0419095588515073,0.2761608264557727,-0.3852739186608311,1.185934350206389,2,left
9.038,0.5676875054019922,0.23971242917941224,0.067378437551289,-2.0937730164322153,-1.0387531782013444,1.037913670000106,0.2894326982188181,-0.3898791059881483,1.1455494157355104,2,left
9.039,0.5679480534669393,0.23985278669664165,0.06450855957014899,-2.101791476093259,-1.1276714403158534,1.033102418489263,0.30274938525583955,-0.3940280952409742,1.10475142132197,2,left
9.045,0.5681483816211559,0.24017467310089435,0.06170591161112947,-2.1094732465769566,-1.2157078122744027,1.027486502796943,0.3161015514808305,-0.3977295517170834,1.0635561839001049,2,left
9.046,0.5682881352129379,0.24067578012098417,0.058971509429317656,-2.1167985358899193,-1.302823327768445,1.0210779607347429,0.3294796952796597,-0.40099291747314764,1.0219797409485445,2,left
9.048,0.568367014446593,0.24135376078812865,0.05630625089875218,-2.1237483774939228,-1.3889803134613017,1.0138901465495522,0.34287415789380304,-0.4038283817840473,0.9800383440702933,2,left
9.049,0.5683847734147165,0.24220623007886485,0.053710919252994725,-2.1303046560803267,-1.4741424045286977,1.0059377044403097,0.35627513248755943,-0.4062468491865046,0.9377484514132919,2,left
9.052999999999999,0.5683412191568336,0.243230765417275,0.05118618637784616,-2.136450130887778,-1.5582745590071239,0.9972365384714706,0.3696726739371612,-0.40825990511643506,0.895126718812055,2,left
9.054,0.5682362107742656,0.24442490706005882,0.04873261611140842,-2.142168456583132,-1.6413430711974577,0.9878037788625696,0.3830567093802367,-0.40987977914818635,0.8521899895299356,2,left
9.056000000000001,0.5680696586281561,0.2457861583895286,0.04635066751018929,-2.1474442017243813,-1.723315584368415,0.9776577446310672,0.3964170495414699,-0.4111193058968775,0.808955282535692,2,left
9.058,0.5678415236441053,0.2473119861387185,0.04404069804546841,-2.1522628648232174,-1.8041611030014442,0.966817902563522,0.40974340073713095,-0.41199188391509284,0.7654397795227301,2,left
9.059,0.5675518167433935,0.24899982056943062,0.04180296670283073,-2.156610888023614,-1.8838500048156328,0.9553048224880287,0.4230253772574303,-0.4125114334022238,0.7216608113746564,2,left
9.062999999999999,0.5672005984192267,0.25084705562145193,0.03963763696714514,-2.1604756684189272,-1.9623540527284522,0.9431401288884195,0.43625251371241797,-0.4126923538148645,0.6776358450555675,2,left
9.064,0.5667879784773979,0.2528510490513855,0.03754477968103827,-2.163845567065556,-2.039646406506999,0.9303464492467377,0.44941427704021353,-0.41254948219440957,0.6333824716270487,2,left
9.065,0.5663141159607841,0.25500912258035796,0.03552437576598719,-2.1667099158161687,-2.1157016331447718,0.9169473601249708,0.46250007807990806,-0.4120980525388222,0.58891839559693,2,left
9.068,0.5657792192748387,0.2573185620702271,0.033576318793136044,-2.1690590221309933,-2.1904957145976813,0.9029673323431634,0.475499282724483,-0.41135365627336534,0.5442614255284961,2,left
9.068999999999999,0.5651835465287195,0.2597766177494991,0.031700417388120045,-2.1708841719873764,-2.2640060519074634,0.8884316762612254,0.4884012226915326,-0.41033220381991853,0.49942946578306,2,left
9.073,0.5645274061028849,0.26238050451263356,0.029896397452920147,-2.172177630940043,-2.3362114654533945,0.8733664875435992,0.5011952059493594,-0.40904988726361685,0.45444050926820534,2,left
9.074,0.5638111574465151,0.2651274023181167,0.028163904189173562,-2.1729326433461575,-2.407092191467536,0.8577985934362797,0.5138705268357625,-0.40752314411470736,0.4093126310634484,2,left
9.079,0.5630352120983864,0.2680144567116882,0.026502503911719794,-2.173143429760412,-2.4766298750246425,0.8417554995144898,0.5264164759065602,-0.4057686221627247,0.3640639827945679,2,left
9.08,0.5622000349158226,0.2710387795013738,0.02491168564910209,-2.172805182503842,-2.544807559714111,0.8252653368577876,0.5388223495505766,-0.403803145419336,0.3187127876274007,2,left
9.082,0.561306145489677,0.2741974496093747,0.023390862538843635,-2.1719140594085284,-2.6116096741975627,0.8083568096079435,0.5510774594074838,-0.4016436811455067,0.27327733575150204,2,left
9.083,0.5603541197198466,0.2774875141219115,0.021939373036976653,-2.17046717573878,-2.677022015851773,0.7910591428635602,0.5631711416245144,-0.39930730795798164,0.22777598022372209,2,left
9.088,0.5593445915252694,0.28090598955256735,0.02055648196974651,-2.1684625942878135,-2.74103173169278,0.7734020308641238,0.5750927659876649,-0.39681118500947266,0.1822271330414564,2,left
9.088,0.558278254662701,0.2844498633289426,0.019241381458082615,-2.165899313647371,-2.8036272967730453,0.7554155854149797,0.5868317449625678,-0.3941725222363858,0.13664926131508598,2,left
9.092,0.5571558646287993,0.288116095507929,0.017993191743400357,-2.1627772546461115,-2.864798490239545,0.7371302845036,0.598377542679755,-0.3914085516674129,0.09106088340893308,2,left
9.093,0.5559782406204696,0.2919016207216188,0.016810961940137967,-2.1590972449510075,-2.9245363692366593,0.7185769210564886,0.6097196838985349,-0.38853649978585414,0.04548056491992327,2,left
9.097000000000001,0.5547462675283267,0.29580335035233607,0.015693670738575288,-2.1548610018243988,-2.98283324083365,0.6997865517851137,0.6208477629831861,-0.3855735609381289,-7.308563693986939e-05,2,left
9.097999999999999,0.5534608979372467,0.29981817493080026,0.014640227081067601,-2.150071113027725,-3.039682632152438,0.6807904460684102,0.6317514529246093,-0.38253687178057066,-0.04558142156721054,2,left
9.102,0.5521231541080839,0.30394296674684473,0.013649470834518805,-2.1447310158613715,-3.0950792588672784,0.6616200348186168,0.6424205144400021,-0.37944348675629397,-0.09102576329064695,2,left
9.103,0.5507341299169121,0.308174582657907,0.012720173479954446,-2.138844974328462,-3.1490189922437857,0.6423068592765376,0.6528448051824999,-0.3763103545936577,-0.13638740432069138,2,left
9.106,0.5492949927310327,0.31250986707608336,0.011851038835866563,-2.132418054408855,-3.2014988248806167,0.6228825196817243,0.6630142890920843,-0.3731542958176375,-0.1816476180604771,2,left
9.107000000000001,0.5478069852026948,0.31694565510940825,0.011040703827150417,-2.1254560974279992,-3.2525168353129352,0.6033786237625733,0.6729190459183887,-0.36999198126525856,-0.22678766554587132,2,left
9.113,0.5462714269627341,0.3214787758275338,0.010287739308204709,-2.1179656915037595,-3.3020721516326104,0.5838267349909283,0.6825492809453229,-0.36683991159612284,-0.27178880426582586,2,left
9.113999999999999,0.5446897161988246,0.3261060556169383,0.009590650947296803,-2.109954141052758,-3.3501649142759047,0.5642583205454519,0.6918953349467103,-0.36371439778900105,-0.31663229819001565,2,left
9.116,0.5430633311069505,0.33082432158671216,0.008947880178197394,-2.1014294343362505,-3.3967962381252095,0.5447046989278072,0.7009476944013728,-0.36063154261544056,-0.3612994291334001,2,left
9.117,0.5413938312089858,0.33563040498310864,0.008357805224845336,-2.0924002090240266,-3.4419681740671906,0.5251969871755477,0.7096970019953038,-0.35760722308136894,-0.40577150958694297,2,left
9.121,0.5396828585319324,0.3405211445708182,0.007818742206435865,-2.082875715753346,-3.4856836701455007,0.5057660476155708,0.718134067424577,-0.354657073819418,-0.4500298970831892,2,left
9.122,0.5379321386444735,0.3454933899443264,0.007328946331679987,-2.0728657796584313,-3.527946532442025,0.4864424341020251,0.7262498784458763,-0.35179647137316095,-0.4940560098644645,2,left
9.122,0.5361434815460121,0.3505440047429726,0.006886613189728964,-2.0623807598446064,-3.568761385816433,0.46725633768270336,0.734035612002014,-0.34904051923964413,-0.5378313430801399,2,left
9.126,0.5343187824043164,0.35566986975038467,0.006489880142787469,-2.0514315067797337,-3.6081336346296244,0.44823753163816155,0.741482645182992,-0.34640403349515403,-0.5813374844383618,2,left
9.127,0.5324600221394173,0.36086788585734775,0.00613682782382075,-2.0400293175742217,-3.646069423572494,0.42941531583812115,0.7485825658481549,-0.34390152887106873,-0.6245561285374084,2,left
9.132,0.5305692678518691,0.3661349768628453,0.005825481741847082,-2.0281858891887987,-3.6825755987171127,0.41081846042723735,0.7553271828526831,-0.341547205221924,-0.667469089641879,2,left
9.133,0.5286486730926718,0.3714680920897256,0.005553813996602738,-2.015913269954397,-3.71765966890251,0.3924751491884808,0.7617085358866187,-0.33935493436982056,-0.7100583129685707,2,left
9.133,0.526700477970974,0.37686420879914406,0.0053197451045773865,-2.003223810410856,-3.751329767561693,0.3744129235371732,0.7677189049468021,-0.3373382473180135,-0.7523058846061608,2,left
9.135,0.5247270090954036,0.3823203343943365,0.005121145940292533,-1.990130114816356,-3.7835946150916455,0.356658628435048,0.7733508194610784,-0.33551032182695095,-0.7941940401919321,2,left
9.136000000000001,0.5227306793460789,0.38783350840541747,0.004955839798860882,-1.9766449943317932,-3.814463481864757,0.33923836117875034,0.778597067083088,-0.3338839703464931,-0.8357051724678524,2,left
9.14,0.5207139874757002,0.3934008042469401,0.0048216045848770974,-1.962781422259444,-3.8439461519774816,0.32217742341376554,0.783450702174892,-0.3324716282985463,-0.8768218378373334,2,left
9.141,0.5186795175367265,0.39901933074355644,0.004716175126925606,-1.9485524913676258,-3.872052887828784,0.3055002763899664,0.787905053993596,-0.33128534270488935,-0.9175267620429651,2,left
9.145,0.5166299381253922,0.4046862334257627,0.004637245609725259,-1.9339713732626427,-3.898794395617062,0.2892304994087893,0.7919537345970277,-0.33033676115554583,-0.9578028450844412,2,left
9.146,0.5145680014229475,0.4103986956055344,0.004582472112617427,-1.9190512797682204,-3.924181791840271,0.27339075141308083,0.795590646482398,-0.3296371211136718,-0.9976331654947508,2,left
9.152000000000001,0.5124965420033157,0.41615393924939215,0.004549475246010116,-1.9038054262715802,-3.9482265708800153,0.2580027356717564,0.7988099899707273,-0.32919723955357605,-1.037000984091538,2,left
9.152000000000001,0.5104184753685299,0.42194922567230314,0.004535842884495983,-1.8882469969942934,-3.9709405737464474,0.243087167512581,0.801606270348656,-0.32902750292917127,-1.075889747319293,2,left
9.156,0.5083367961710492,0.4277818560791831,0.004539133003223724,-1.8723891121450835,-3.992335958056937,0.2286637450576154,0.8039743047780726,-0.32913785747087093,-1.1142830902967626,2,left
9.157,0.5062545760846046,0.4336491719825464,0.004556876630314217,-1.8562447969108076,-4.012425169317607,0.21475112291716691,0.8059092289827973,-0.3295377998096895,-1.1521648396826354,2,left
9.16,0.5041749612907444,0.43954855552533506,0.004586580932176785,-1.8398269522409496,-4.031220913573015,0.2013668887994386,0.8074065037203413,-0.33023636792808037,-1.189519016471185,2,left
9.161,0.5021011695552855,0.44547742973669696,0.004625732450640351,-1.823148327380098,-4.048736131485461,0.18852754299448232,0.8084619210455369,-0.3312421324378483,-1.2263298388281307,2,left
9.165,0.500036486876436,0.4514332587457856,0.004671800510227362,-1.8062214941020573,-4.064983973901674,0.17624848069252647,0.8090716103715846,-0.33256318818630576,-1.2625817250755038,2,left
9.166,0.4979842636940348,0.4574135479751863,0.0047222408105123004,-1.7890588225984587,-4.079977778960898,0.1645439770982644,0.80923204433281,-0.33420714619269776,-1.298259296932794,2,left
9.17,0.4959479106569975,0.4634158443314189,0.004774499213645573,-1.7716724589739778,-4.093731050794709,0.15342717530425296,0.8089400444521554,-0.3361811259178017,-1.3333473831200926,2,left
9.171,0.4939308939533802,0.4694377364050458,0.004826015732134095,-1.7540743042995663,-4.10625743986528,0.14291007688817697,0.8081927866151474,-0.3384917478705143,-1.3678310234273383,2,left
9.175,0.491936730213455,0.47547685468770806,0.00487422871728727,-1.7362759951744176,-4.117570724985199,0.13300353520038455,0.806987806350798,-0.3411451265561634,-1.4016954733521272,2,left
9.175,0.48996898099936315,0.48153087180875676,0.004916579244689072,-1.7182888857467464,-4.127684797058368,0.12371725130978305,0.8053230039185905,-0.3441468637722296,-1.4349262094068533,2,left
9.18,0.4880312468949712,0.487597502790285,0.0049505156904513375,-1.7001240311428487,-4.136613644578003,0.11505977257790657,0.8031966491994008,-0.3475020422581279,-1.4675089351942083,2,left
9.181000000000001,0.48612716120759175,0.49367450531535406,0.004973498491028876,-1.681792172253343,-4.144371340914262,0.10703849383271681,0.8006073863868884,-0.3512152197066858,-1.4994295883482944,2,left
9.184,0.484260383291165,0.4997596799994456,0.0049830050785836175,-1.6633037218249394,-4.1509720334205955,0.09965966111547878,0.7975542384745673,-0.3552904231459494,-1.530674348436782,2,left
9.185,0.4824345915003438,0.5058508706509144,0.004976534981908318,-1.6446687518055778,-4.156429934384488,0.09292837797585675,0.7940366115324498,-0.3597311437009687,-1.5612296459176858,2,left
9.191,0.4806534757865839,0.511945964503946,0.004951615080716417,-1.6258969818902982,-4.160759313844915,0.08684861429220062,0.7900542987658203,-0.3645403317462353,-1.591082172242424,2,left
9.192,0.47892072994857415,0.5180428924077957,0.0049058050008460195,-1.6069977692147488,-4.163974494295503,0.08142321759583657,0.7856074843478076,-0.3697203924547469,-1.620218891153587,2,left
9.192,0.47724004354855654,0.524139628959696,0.00483670263997634,-1.587980099142822,-4.166089847289108,0.07665392688003345,0.7806967470182883,-0.3752731817220171,-1.6486270510173406,2,left
9.195,0.47561509350393055,0.53023419257485,0.00474194981523788,-1.5688525770945076,-4.1671197919562735,0.07254138887618508,0.775323063444282,-0.3812000023927347,-1.676294197656622,2,left
9.196,0.4740495353625355,0.5363246454904506,0.004619238022385839,-1.5496234213597004,-4.167078795446842,0.06908517678162689,0.7694878113378608,-0.38750160069013906,-1.7032081869427134,2,left
9.2,0.4725469942717272,0.5424090936990991,0.0044663142915789865,-1.5303004568420584,-4.165981375264447,0.06628381138386721,0.7631927723240672,-0.39417816277795137,-1.7293571966072077,2,left
9.201,0.4711110556536605,0.548485686805222,0.004280987122147202,-1.510891109670347,-4.163842103278661,0.06413478432029845,0.7564401345460451,-0.40122931143744295,-1.7547297371059944,2,left
9.202,0.4697452556000446,0.5545526178005791,0.00406113248027555,-1.4914024026029138,-4.160675610869129,0.06263458284065618,0.7492324949910647,-0.40865410287200366,-1.779314661571252,2,left
9.204,0.4684530710020728,0.5606081227585982,0.003804699845165255,-1.47184095114431,-4.156496594471139,0.06177871523377385,0.741572861519364,-0.41645102365838904,-1.8031011749265404,2,left
9.205,0.4672379094382783,0.5666504804476469,0.0035097182874378376,-1.4522129602991918,-4.151319820970943,0.061561736289652426,0.7334646545764092,-0.42461798786490024,-1.8260788422378587,2,left
9.209,0.4661030988518025,0.5726780118613999,0.00317430256050953,-1.4325242218998835,-4.145160132723536,0.061977272543405446,0.724911708567879,-0.433152334357823,-1.8482375963712694,2,left
9.21,0.46505187705523526,0.578689079663557,0.0027966591844450317,-1.4127801124501445,-4.138032452144549,0.06301804725708939,0.715918272875375,-0.4420508243185203,-1.8695677450254038,2,left
9.214,0.4640873811069269,0.5846820875456983,0.002375092501841718,-1.3929855914287657,-4.129951785861414,0.06467590513878216,0.7064890124895733,-0.45130963899463294,-1.890059977204829,2,left
9.215,0.46321263660931933,0.5906554795000761,0.0019080106843759725,-1.3731451999964503,-4.120933228406136,0.0669418368000878,0.6966290082362565,-0.4609243777099,-1.909705369197916,2,left
9.22,0.46243054698587494,0.5966077390122486,0.001393931665712342,-1.3532630600492654,-4.110991965429232,0.06980600295503976,0.6863437565694005,-0.470890056158152,-1.9284953901204636,2,left
9.221,0.46174388279681355,0.6025373881808371,0.0008314889721174549,-1.3333428735618125,-4.100143276411661,0.0732577583651458,0.6756391689042384,-0.48120110500806657,-1.9464219070839277,2,left
9.225,0.4611552711561162,0.6084429867726351,0.00021943741846205213,-1.3133879221631304,-4.088402536848856,0.07728567553706288,0.6645215704619892,-0.49185136884629643,-1.963477190044674,2,left
9.226,0.46066718531466383,0.6143231312210933,-0.00044334136353602386,-1.2934010668882192,-4.075785219878348,0.08187756818110713,0.6529976985967176,-0.5028341054875856,-1.9796539163882112,2,left
9.229,0.460281934476719,0.6201764535757236,-0.001157833596933192,-1.2733847480479696,-4.062306897319833,0.08702051444049011,0.6410747005735845,-0.5141419856814826,-1.994945175299896,2,left
9.229,0.4600016539182765,0.6260016204086188,-0.0019248882632934027,-1.2533409851601784,-4.047983240094002,0.09270087990282644,0.6287601307665693,-0.5257670932462307,-2.0093444719710782,2,left
9.234,0.45982829547547277,0.6317973316814235,-0.0027452122730314845,-1.2332713768842372,-4.032830017983916,0.09890434040707599,0.6160619472425695,-0.5377009256613693,-2.0228457316871506,2,left
9.235,0.4597636184690839,0.6375623195727881,-0.0036193659402089114,-1.2131771009019985,-4.016863098700239,0.1056159046606659,0.6029885076976457,-0.5499343951515157,-2.0354433038414124,2,left
9.24,0.4598091811278944,0.6432953472639715,-0.0045477588031056174,-1.1930589136872403,-4.000098446209215,0.1128199366830796,0.5895485647100519,-0.5624578302947035,-2.047131965916099,2,left
9.241,0.4599663325701437,0.6489952076796214,-0.005530645833808217,-1.1729171501060793,-3.982552118279893,0.12050017809370134,0.575751260273589,-0.5752609781895416,-2.0579069274693556,2,left
9.244,0.4602362053981886,0.6546607221818389,-0.006568124079185896,-1.1527517227906088,-3.9642402632047666,0.12863977026316314,0.5616061195737463,-0.5883330072163144,-2.067763834164329,2,left
9.244,0.4606197089565796,0.6602907392167018,-0.007660129773020234,-1.1325621212279653,-3.9451791156457006,0.13722127634885462,0.5471230439680391,-0.6016625104279806,-2.076698771873945,2,left
9.248,0.4611175232978648,0.6658841329119017,-0.008806435955548614,-1.1123474105069637,-3.925384991554772,0.1462267032366223,0.5323123031309287,-0.6152375096078252,-2.0847082708923206,2,left
9.25,0.46173009389372743,0.6714398016230857,-0.01000665063187302,-1.0921062296643702,-3.9048742821174613,0.15563752341200404,0.5171845263227098,-0.6290454600312936,-2.0917893102811105,2,left
9.254,0.46245762712282334,0.6769566664267802,-0.011260215495460331,-1.07183678957281,-3.883663446663466,0.16543469678561235,0.5017506927407824,-0.6430732559702734,-2.09793932237646,2,left
9.254,0.46330008656311894,0.6824336695593338,-0.012566405238919024,-1.0515368703122385,-3.8617690044883104,0.17559869249849602,0.48602212091078184,-0.6573072369787948,-2.1031561974795543,2,left
9.258,0.4642571901155515,0.6878697728031169,-0.013924327470809744,-1.0312038179668206,-3.839207525526863,0.18610951073447507,0.47001045709595873,-0.6717331950045359,-2.1074382887449667,2,left
9.259,0.4653284079839746,0.6932639558236616,-0.015332923252848641,-1.0108345407889872,-3.8159956198178695,0.19694670456755062,0.4537276628114372,-0.6863363823948975,-2.1107844172476278,2,left
9.26,0.46651296153220323,0.6986152144641685,-0.016790968267129502,-0.9904255046723461,-3.7921499256966347,0.2080894018735455,0.43718600172555033,-0.7011015209097398,-2.1131938771512866,2,left
9.264,0.4678098230358812,0.7039225590045728,-0.018297074619709672,-0.9699727278750302,-3.767687096651078,0.2195163273361264,0.420398026338756,-0.7160128118771724,-2.114666440867955,2,left
9.264,0.4692177163467899,0.7091850123914402,-0.019849693284765234,-0.9494717749349573,-3.7426237867745176,0.2312058245782945,0.40337656472074174,-0.7310539476055502,-2.1152023641258424,2,left
9.267999999999999,0.4707351184871285,0.7144016084456248,-0.02144711719065522,-0.9289177497926456,-3.7169766348009685,0.243135878457625,0.386134707389168,-0.7462081241225514,-2.114802390915854,2,left
9.269,0.4723602621884554,0.7195713900574887,-0.023087484945503164,-0.9083052885084842,-3.690762246978206,0.2552841375959279,0.3686857943036743,-0.7614580552888865,-2.113467758314748,2,left
9.27,0.4740911393852777,0.7246934073820731,-0.024768785197025703,-0.8876285526297287,-3.6639971795203854,0.2676279372715968,0.35104340192627764,-0.7767859883298136,-2.111200201186486,2,left
9.274,0.47592550566875946,0.7297667160475826,-0.026488861618961572,-0.8668812246337254,-3.636697921651566,0.28014432283517937,0.3332213302986609,-0.7921737208279547,-2.1080019567606385,2,left
9.275,0.47786088570163415,0.7347903753907125,-0.028245418511779127,-0.8460565065023103,-3.6088808799786203,0.292810073777753,0.3152335900862554,-0.8076026192211854,-2.103875769084011,2,left
9.277999999999999,0.47989457958917575,0.7397634467328178,-0.030036026997539756,-0.8251471218136376,-3.5805623644421676,0.30560172852540907,0.2970943895384633,-0.8230536388495897,-2.0988248933389815,2,left
9.277999999999999,0.482023670192336,0.7446849917114434,-0.03185813177997328,-0.8041453213661003,-3.551758575821399,0.31849561000206833,0.2788181213138542,-0.8385073455956464,-2.0928531000193664,2,left
9.282,0.48424503135983404,0.7495540706813187,-0.03370905843370366,-0.7830428922745052,-3.522485594712916,0.33146785199696155,0.2604193491186913,-0.853943939161929,-2.085964678951972,2,left
9.283,0.486555337047648,0.7543697411975261,-0.03558602118312396,-0.7618311704784146,-3.4927593719022627,0.3444944263734716,0.24191279410670935,-0.8693432780306622,-2.0781644431493276,2,left
9.287,0.4889510712865077,0.7591310565924053,-0.03748613113101572,-0.7405010566023088,-3.4625957200454485,0.3575511711563266,0.2233133209876729,-0.8846849061494892,-2.069457732476451,2,left
9.288,0.49142853894984223,0.7638370646573813,-0.03940640489620206,-0.7190430351069247,-3.432010306576393,0.3706138195343573,0.2046359237918916,-0.8999480813877504,-2.0598504171118766,2,left
9.292,0.49398387726637116,0.7684868064401558,-0.041343773615854576,-0.6974471966708196,-3.4010186477549356,0.3836580298161896,0.1858957112375605,-0.9151118058074675,-2.04934890078054,2,left
9.294,0.49661306801404204,0.7730793151654607,-0.043295092262493784,-0.6757032637408613,-3.3696361037687947,0.3966594163763284,0.16710789164752632,-0.9301548577930622,-2.0379601237335288,2,left
9.297,0.49931195032622605,0.777613615284135,-0.04525714922069054,-0.6538006191899808,-3.3378778748016424,0.40959358162910453,0.14828775736185665,-0.945055826083607,-2.025691565447104,2,left
9.298,0.5020762340369557,0.7820887216519788,-0.04722667606559806,-0.6317283380201253,-3.3057589979782986,0.4224361490679067,0.1294506685924094,-0.95979314575113,-2.0125512470108484,2,left
9.302,0.5049015134884334,0.7865036388375065,-0.049200357485264266,-0.609475222047926,-3.2732943450969207,0.43516279740699343,0.11061203666546325,-0.9743451361681376,-1.9985477331722357,2,left
9.302999999999999,0.5077832817211485,0.7908573605560247,-0.05117484129126355,-0.587029837510135,-3.2404986210569926,0.4477492958629909,0.09178730659837682,-0.988690041007117,-1.983690134002394,2,left
9.306000000000001,0.5107169449664168,0.7951488692255817,-0.05314674846708711,-0.5643805555254012,-3.2073863628908708,0.46017154061291615,0.07299193895619549,-1.0028060703143074,-1.9679881061453375,2,left
9.307,0.513697837363429,0.7993771356384181,-0.055112683209381355,-0.5415155953484309,-3.173971939305665,0.4724055924652341,0.05424139093412143,-1.0166714446994982,-1.95145185361045,2,left
9.314,0.5167212358261982,0.8035411187405395,-0.05706924292108877,-0.5184230703520307,-3.1402695506412623,0.48442771578005456,0.03555109661180103,-1.0302644416830158,-1.934092128065567,2,left
9.317,0.5197823749882271,0.8076397655120099,-0.05901302811678216,-0.4950910366719414,-3.106293229149409,0.4962144186741026,0.01693644632546938,-1.0435634442404023,-1.9159202285855663,2,left
9.318,0.5228764621536645,0.8116720109408345,-0.060940652200654366,-0.47150754444875065,-3.0720568394978884,0.5077424945455576,-0.0015872348958804242,-1.0565469915845738,-1.8969480008089856,2,left
9.318,0.5259986921842867,0.8156367780842966,-0.06284875107803374,-0.4476606916005231,-3.037574079403005,0.5189890649532455,-0.020004709883962305,-1.0691938322244572,-1.8771878354528237,2,left
9.325,0.529144262252909,0.8195329782145958,-0.0647339925610441,-0.4235386800590928,-3.0028584802928027,0.5299316238839944,-0.03830085292773834,-1.0814829793382683,-1.8566526661333482,2,left
9.326,0.5323083863950645,0.8233595110504757,-0.06659308552814604,-0.3991298744022449,-2.967923407902694,0.540548083441223,-0.05646067446621693,-1.0933937684986785,-1.8353559664384296,2,left
9.326,0.5354863097914436,0.8271152650814232,-0.06842278879736659,-0.37442286281325426,-2.9327820627044696,0.5508168209870195,-0.07446934693038386,-1.1049059177861598,-1.813311746194671,2,left
9.326,0.5386733227159565,0.8307991179944362,-0.07021991967490633,-0.3494065202984615,-2.8974474800689833,0.5607167277691001,-0.09231223173837935,-1.1159995902284252,-1.7905345468910314,2,left
9.327,0.5418647740921476,0.8344099372150052,-0.07198136214569845,-0.3240700740927402,-2.8619325300621923,0.5702272590630982,-0.10997490720557035,-1.1266554580160928,-1.7670394363217876,2,left
9.331,0.5450560846134969,0.8379465805751529,-0.0737040746810096,-0.29840317118185583,-2.8262499167736177,0.5793284858596381,-0.12744319669500245,-1.1368547670674884,-1.7428420026955271,2,left
9.332,0.5482427593930136,0.8414078971243029,-0.0753850976463926,-0.2723959478698271,-2.7904121770757566,0.5880011481245885,-0.14470319609116764,-1.146579400027602,-1.7179583485580834,2,left
9.336,0.5514204001097281,0.8447927281034668,-0.07702156029708983,-0.24603910123259365,-2.7544316787552074,0.596226709573898,-0.1617412999215792,-1.155811936271655,-1.6924050847719379,2,left
9.337,0.5545847166214178,0.8480999081063834,-0.07861068734989962,-0.21932396186889122,-2.718320618169637,0.6039874134738568,-0.17854422588581878,-1.1645357083584955,-1.6661993246066096,2,left
9.337,0.5577315380205805,0.8513282664508373,-0.0801498051242588,-0.192242566585251,-2.682091017969191,0.6112663382035037,-0.19509903779319443,-1.1727348548643795,-1.6393586778892446,2,left
9.341000000000001,0.5608568231192882,0.8544766287821968,-0.08163634724921955,-0.16478772922158166,-2.6457547256343528,0.618047450885239,-0.21139316695792784,-1.1803943696236234,-1.6119012451420358,2,left
9.342,0.5639566703535517,0.8575438189320126,-0.08306785993549823,-0.13695310825221893,-2.609323413368068,0.6243156578177453,-0.22741443210011242,-1.1875001474011582,-1.5838456116312312,2,left
9.346,0.5670273271031852,0.8605286610567979,-0.08444200681539629,-0.10873327056928715,-2.572808579494683,0.6300568512168356,-0.2431510577999732,-1.194039026020503,-1.5552108412506593,2,left
9.347000000000001,0.5700651984329509,0.8634299820847738,-0.08575657336011883,-0.08012375128359957,-2.5362215513041084,0.6352579521977956,-0.25859169155221096,-1.1999988249691336,-1.5260164701609376,2,left
9.351,0.5730668552735857,0.866246614501017,-0.08700947089201945,-0.05112110946312354,-2.4995734892365755,0.6399069500172001,-0.27372541946643003,-1.2053683805016295,-1.496282500103808,2,left
9.352,0.5760290420742603,0.8689773995029437,-0.08819874021547325,-0.02172297972793316,-2.462875392303113,0.6439929375906664,-0.288541780658832,-1.2101375772593594,-1.4660293913093798,2,left
9.355,0.5789486839694589,0.871621190557719,-0.08932255489366554,0.008071880380545689,-2.4261381046366584,0.647506143301461,-0.30303078037950987,-1.2142973764237992,-1.435278054912457,2,left
9.356,0.5818228935115053,0.8741768573919967,-0.09037922420342591,0.03826354733931961,-2.3893723230685557,0.6504379591132904,-0.3171829019187933,-1.2178398404188897,-1.4040498447925753,2,left
9.361,0.5846489770225564,0.87664329044367,-0.0913671958128111,0.06885089297709705,-2.3525886056250287,0.6527809649989951,-0.3309891173351892,-1.2207581541761117,-1.3723665487508856,2,left
9.362,0.5874244406167576,0.879019405804481,-0.09228505824680695,0.09983155028663557,-2.3157973808381285,0.6545289496952176,-0.3444408970465184,-1.223046642974214,-1.3402503789355895,2,left
9.366,0.590146995939706,0.8813041506786895,-0.09313154322423647,0.1312018838028971,-2.2790089577655497,0.6556769277914541,-0.357530218324885,-1.224700786863755,-1.3077239614262626,2,left
9.366,0.5928145656745986,0.8834965093734194,-0.09390552795168607,0.16295696463487563,-2.2422335366136723,0.6562211531602051,-0.3702495727351216,-1.2257172316848282,-1.2748103248860958,2,left
9.371,0.5954252888719866,0.8855955098200059,-0.09460603744768627,0.19509055024008845,-2.2054812198581586,0.6561591287332357,-0.3825919725553359,-1.2260937966845384,-1.2415328881898446,2,left
9.372,0.5979775261644942,0.8876002306067998,-0.09523224694830047,0.22759506903183865,-2.168762023756447,0.6554896126272368,-0.394550956217146,-1.2258294787389716,-1.207915446934093,2,left
9.375,0.6004698649176001,0.8895098084897628,-0.09578348441448147,0.2604616099104601,-2.132085890146516,0.6542126206204447,-0.4061205928021271,-1.2249244531825738,-1.17398215873533,2,left
9.376,0.6029011243334881,0.8913234463414877,-0.096259233126347,0.29367991681083877,-2.095462698426358,0.6523294249800371,-0.41729548562991287,-1.2233800712460206,-1.1397575272202998,2,left
9.38,0.6052703604625815,0.8930404214979326,-0.09665913432968387,0.3272383883595694,-2.058902277608703,0.6498425496383837,-0.428070774972294,-1.2211988541018153,-1.105266384612091,2,left
9.381,0.6075768709874265,0.8946600944571564,-0.09698298991267046,0.36112408273614044,-2.0224144183456545,0.6467557617144849,-0.43844213992653835,-1.218384483515021,-1.0705338728145497,2,left
9.385,0.6098201995365006,0.8961819178680951,-0.09723076512205686,0.3953227278335512,-1.9860088848180455,0.6430740593751941,-0.4484057994800242,-1.2149417890946939,-1.0355854228967436,2,left
9.386000000000001,0.6120001391851229,0.897605445714047,-0.09740259134155035,0.4298187368147372,-1.9496954263845105,0.6388036560290881,-0.4579585127971326,-1.2108767321397622,-1.0004467328784483,2,left
9.39,0.6141167347372929,0.8989303425431613,-0.09749876892721825,0.4645952291621171,-1.9134837888854732,0.6339519608441274,-0.4670975787581855,-1.2061963860712726,-0.9651437437169376,2,left
9.391,0.6161702833800998,0.9001563925327306,-0.09751977002827708,0.4996340573184725,-1.8773837254974886,0.6285275555785462,-0.4758208347790433,-1.2009089134411286,-0.9297026133947293,2,left
9.395,0.6181613333678816,0.9012835081111963,-0.0974662412376423,0.5349158390182213,-1.8414050070336396,0.6225401677127168,-0.484126654938801,-1.195023539505661,-0.8941496890074037,2,left
9.395,0.6200906805072802,0.9023117378267428,-0.097339005848479,0.5704199954089485,-1.8055574315859861,0.6160006398680717,-0.49201394743692034,-1.1885505223963988,-0.8585114768093957,2,left
9.396,0.6219593623359457,0.903241273170085,-0.09713906547505641,0.6061247950638113,-1.7698508334063787,0.6089208954975205,-0.49948215137539076,-1.1815011201476906,-0.822814610471587,2,left
9.402999999999999,0.6237686499827547,0.9040724541319872,-0.09686760082534276,0.6420074039861281,-1.7342950909223025,0.601313900830184,-0.5065312328161184,-1.1738875552513177,-0.7870858183375744,2,left
9.404,0.6255200377636224,0.904805773368033,-0.09652597143544871,0.6780439417080995,-1.6989001337847904,0.5931936230516878,-0.5131616800379897,-1.1657229776355762,-0.7513518907615656,2,left
9.405,0.6272152306148046,0.9054418789214395,-0.09611571416110443,0.7142095434747963,-1.66367594886826,0.5845749847687366,-0.5193744979414026,-1.1570214267356298,-0.7156396483143663,2,left
9.405,0.6288561294900465,0.9059815755129543,-0.09563854021192776,0.7504784279481299,-1.6286325852545984,0.5754738151503617,-0.5251712015910556,-1.1477977929081082,-0.6799759111104571,2,left
9.406,0.6304448148506592,0.906425824444386,-0.09509633055052184,0.786823968863488,-1.5937801584359426,0.5659067987580746,-0.530553808911132,-1.138067778212325,-0.6443874692128286,2,left
9.41,0.6319835283936287,0.9067757421821642,-0.09449112953366175,0.8232187685151606,-1.5591288540831363,0.555891423420912,-0.5355248325507315,-1.1278478565331516,-0.6089010540130422,2,left
9.41,0.6334746532212769,0.9070325977016981,-0.09382513671723629,0.8596347315039022,-1.5246889316153245,0.5454459281647918,-0.5400872709362041,-1.1171552330190835,-0.573543310484118,2,left
9.414,0.6349206927355302,0.9071978086875551,-0.09310069679721411,0.8960431381826666,-1.4904707276050297,0.5345892515829461,-0.5442445985258578,-1.1060078028075835,-0.5383407702040759,2,left
9.416,0.6363242485973181,0.9072729367006519,-0.09232028773239455,0.9324147177936233,-1.4564846589415952,0.5233409806877367,-0.5480007552813233,-1.0944241090083782,-0.5033198250482404,2,left
9.419,0.6376879981054606,0.9072596814499788,-0.09148650717619593,0.9687197214010065,-1.4227412256540783,0.5117213002138841,-0.5513601353686917,-1.0824232999140297,-0.4685067014487951,2,left
9.42,0.6390146713201023,0.9071598743441702,-0.09060205741519514,1.0049279947243228,-1.3892510132953237,0.4997509423419656,-0.5543275751013772,-1.070025085405801,-0.43392743512051585,2,left
9.425,0.6403070281944595,0.9069754715357482,-0.08966972906758171,1.041009050976342,-1.3560246947895966,0.48745113680991153,-0.556908340135503,-1.0572496925215755,-0.3996078461521324,2,left
9.426,0.6415678359050683,0.9067085466939147,-0.08869238383827804,1.0769321438101007,-1.3230730316468713,0.474843561379165,-0.559108111927473,-1.0441178201514019,-0.36557351436336705,2,left
9.429,0.6427998465086248,0.9063612837427554,-0.08767293665937267,1.1126663404788664,-1.2904068744475836,0.4619502926211624,-0.5609329734622639,-1.0306505928250884,-0.33184975482836737,2,left
9.429,0.6440057750216099,0.9059359697823065,-0.0866143375584204,1.1481805953126534,-1.2580371625024234,0.4487937569888478,-0.5623893942598652,-1.0168695135551922,-0.29846159346699846,2,left
9.436,0.6451882780225237,0.9054349883794721,-0.08551955358469948,1.1834438236144147,-1.2259749225925276,0.4353966821370505,-0.5634842146661982,-1.0027964156977243,-0.26543374260627695,2,left
9.437000000000001,0.6463499329066048,0.9048608133858712,-0.08439155108463563,1.2184249760785004,-1.1942312666962576,0.42178204845473477,-0.564224629433771,-0.9884534137919295,-0.2327905764151216,2,left
9.437999999999999,0.6474932179621409,0.9042160034181992,-0.08323327856402143,1.253093113833342,-1.1628173886095943,0.40797304077137614,-0.5646181705962685,-0.9738628533395972,-0.20055610611655794,2,left
9.439,0.6486204934691145,0.9035031971247363,-0.08204765032269387,1.2874174842095927,-1.1317445593680677,0.3939930001990266,-0.5646726896402372,-0.9590472594835237,-0.16875395488254982,2,left
9.443999999999999,0.649733984034625,0.9027251093528393,-0.0808375310118129,1.3213675973341499,-1.101024121379057,0.37986537607100834,-0.564396338976008,-0.9440292845439714,-0.13740733231773447,2,left
9.445,0.650835762373366,0.9018845283136073,-0.07960572125113918,1.3549133036495888,-1.0706674811742372,0.365613677937616,-0.5637975527090058,-0.928831654371257,-0.10653900843951014,2,left
9.449,0.651927734719253,0.9009843137977546,-0.0783549444442045,1.3880248724575435,-1.0406861006929362,0.3512614275787176,-0.562885026711618,-0.9134771134719559,-0.0761712870631683,2,left
9.45,0.6530116280198109,0.9000273964279142,-0.077087834926743,1.4206730715834994,-1.011091487008176,0.3368321109927189,-0.561667697994849,-0.8979883688656314,-0.04632597850206806,2,left
9.454,0.6540889790201219,0.8990167778495273,-0.07580692756987721,1.452829248259305,-0.9818951804082107,0.32234913032100204,-0.5601547233780554,-0.8823880326284765,-0.017024371494224748,2,left
9.455,0.6551611252922714,0.8979555316833382,-0.07451464893119719,1.4844654113184548,-0.9531087407474652,0.3078357556666571,-0.5583554574541637,-0.866698563079809,0.01171279573187878,2,left
9.458,0.6562291982174305,0.8968468049978083,-0.07321331000041133,1.5155543147978776,-0.9247437319818759,0.29331507676610696,-0.5562794298468897,-0.8509422045669732,0.03986536533794984,2,left
9.459,0.6572941178881315,0.8956938200107085,-0.07190510052456053,1.5460695430385414,-0.8968117048047883,0.27880995447206863,-0.5539363217556365,-0.8351409258038816,0.06741379078714371,2,left
9.463,0.6583565898713535,0.8944998757001796,-0.07059208483681685,1.5759855973756995,-0.8693241773007403,0.2643429720062085,-0.5513359418105477,-0.8193163568131094,0.09433916880341878,2,left
9.464,0.6594171037609767,0.8932683490132182,-0.06927619907539878,1.6052779845080345,-0.8422926135356682,0.24993638593982612,-0.5484882013975407,-0.8034897249959672,0.12062327206974052,2,left
9.465,0.6604759334470587,0.8920026954045736,-0.0679592496717407,1.6339233066333017,-0.8157284000033238,0.2356120768609464,-0.5454030898610224,-0.7876817917092888,0.1462485817690295,2,left
9.469,0.6615331390213657,0.8907064484811811,-0.06664291298634886,1.661899353436365,-0.7896428198489577,0.22139149968630775,-0.5420906501293924,-0.7719127912023123,0.17119831874489255,2,left
9.47,0.6625885702102444,0.889383218540646,-0.06532873595576635,1.689185196013721,-0.7640470247926426,0.20729563357690736,-0.5385609551695882,-0.7562023732923214,0.1954564723824035,2,left
9.472999999999999,0.6636418711894063,0.8880366898123251,-0.06401813759714875,1.7157612828167552,-0.7389520046759491,0.19334493141600007,-0.534824085427596,-0.7405695503033175,0.21900782689243034,2,left
9.474,0.6646924866130866,0.8866706162691803,-0.0627124112194042,1.7416095374903098,-0.7143685546279324,0.17955926888556656,-0.5308901072730619,-0.7250326483173999,0.24183798500613518,2,left
9.475,0.6657396686945402,0.8852888159553718,-0.06141272721513778,1.7667134574624381,-0.6903072402021836,0.1659578935617409,-0.5267690524378854,-0.7096092626937665,0.2639333891493012,2,left
9.478,0.6667824852011469,0.8838951638352864,-0.06012013634516168,1.7910582103054937,-0.6667783614760101,0.1525593751415115,-0.5224708984380808,-0.6943162178104638,0.2852813401641122,2,left
9.48,0.6678198282522014,0.8824935832151125,-0.058835573460073044,1.81463072386789,-0.6437919174586607,0.13938155829759716,-0.5180055499676273,-0.6791695309842919,0.3058700136439411,2,left
9.484,0.6688504238160038,0.8810880358352641,-0.057559861622778076,1.8374197671924513,-0.6213575718026336,0.1264415192748135,-0.5133828212524908,-0.6641843805245928,0.3256884739445933,2,left
9.484,0.6698728418109965,0.8796825107837607,-0.05629371661150853,1.8594160210688027,-0.5994846201757493,0.11375552665041663,-0.5086124193524921,-0.6493750778770234,0.34472668593330746,2,left
9.487,0.6708855067383057,0.8782810124265742,-0.05503775180502394,1.8806121380837442,-0.5781819592988507,0.10133900629742768,-0.5037039283982128,-0.6347550438138332,0.36297552453463516,2,left
9.491,0.6718867087995601,0.8768875475799666,-0.05379248347522531,1.9010027922350556,-0.5574580575847046,0.08920651051379987,-0.49866679474968123,-0.6203367886276311,0.3804267821301111,2,left
9.492,0.6728746154702046,0.8755061121548093,-0.05255833652392877,1.9205847181719087,-0.5373209273152857,0.07737169128101806,-0.4935103130631556,-0.6061318962861251,0.3970731738663863,2,left
9.493,0.6738472835029692,0.8741406774849414,-0.05133565069119067,1.9393567401227663,-0.5177780982962674,0.06584727761649249,-0.48824361325192234,-0.5921510125058628,0.41290834092423007,2,left
9.498,0.6748026713317143,0.8727951765210498,-0.05012468723557127,1.957319790569332,-0.49883659292920063,0.05464505698492297,-0.4828756483266603,-0.5784038367035784,0.4279268517985185,2,left
9.499,0.6757386518346821,0.8714734900402057,-0.04892563605503012,1.97447691872281,-0.4805029026435481,0.043775860734662386,-0.4774151831005775,-0.5648991177843614,0.4421242016370163,2,left
9.503,0.6766530254006061,0.8701794329962079,-0.04773862319180462,1.9908332888563989,-0.4627829656324489,0.03324955352599859,-0.4718707837442093,-0.5516446537265053,0.45549680968342987,2,left
9.504,0.6775435332238654,0.8689167411191809,-0.046563718647209464,2.0063961685456295,-0.4456821458378127,0.023075026719196808,-0.46625080817447584,-0.5386472949235633,0.46804201486786645,2,left
9.507,0.678407870737068,0.8676890578631846,-0.045400944418149035,2.021174906865848,-0.42920521313208876,0.013260195691099562,-0.4605633972623317,-0.5259129512448316,0.4797580695854771,2,left
9.508,0.6792437010702375,0.866499921795825,-0.04425028265258585,2.035180902593845,-0.41335632464581706,0.003812001050064108,-0.45481646684309784,-0.5134466027761986,0.4906441317016938,2,left
9.512,0.6800486684052077,0.8653527545218499,-0.04311168380700458,2.0484275624583597,-0.3981390071918451,-0.005263586279974437,-0.4490177005133484,-0.5012523142040356,0.5007002548200953,2,left
9.513,0.680820411074491,0.8642508492304075,-0.041985074678164445,2.06093024948194,-0.38355614073888594,-0.0139615561344946,-0.4431745431980307,-0.48933325280555656,0.5099273768465578,2,left
9.517000000000001,0.6815565742386931,0.8631973599495688,-0.040870366176170785,2.07270622145442,-0.36960994288889437,-0.022277846369564012,-0.4372941954713267,-0.4776917100098434,0.5183273068809618,2,left
9.517999999999999,0.6822548219679541,0.8621952915796317,-0.0397674607057517,2.0837745595761064,-0.35630195431455375,-0.030209326335259745,-0.43138360861461256,-0.4663291264945127,0.5259027104653483,2,left
9.521,0.6829128485541606,0.8612474907590911,-0.03867625902612073,2.0941560873066245,-0.3436330251149844,-0.03775377658631174,-0.4254494803947464,-0.45524612078378895,0.5326570932150323,2,left
9.522,0.6835283888949968,0.8603566375973698,-0.03759666646799679,2.1038732794532966,-0.3316033020496141,-0.04490986485385302,-0.4194982515458066,-0.44444252131454365,0.538594782856813,2,left
9.527000000000001,0.6840992278177748,0.8595252382901929,-0.036528598403721406,2.1129501615308888,-0.32021221661198085,-0.05167711830105698,-0.41353610293731563,-0.4339174019376605,0.5437209096960472,2,left
9.527999999999999,0.6846232082460076,0.8587556186186909,-0.03547198489481971,2.1214121994226045,-0.3094584739070751,-0.05805589208433202,-0.40756895341191596,-0.42366912082288755,0.5480413855320031,2,left
9.532,0.6850982381507238,0.8580499183233959,-0.03442677447567845,2.1292861793702884,-0.2993400422976611,-0.06404733424062997,-0.401602458275415,-0.41369536273613844,0.5515628810385571,2,left
9.533,0.6855222962676325,0.857410086340534,-0.033392937064235254,2.1366000783199683,-0.2898541437868516,-0.06965334692030971,-0.39564200842052666,-0.403993184581615,0.5542928016529515,2,left
9.533,0.6858934365925814,0.8568378768892828,-0.0323704660147464,2.1433829246471077,-0.28099724510603863,-0.07487654398388281,-0.38969273005783395,-0.39455906371497224,0.5562392621528742,2,left
9.536,0.686209791686635,0.8563348464016484,-0.031359379344125686,2.149664649284245,-0.272765049479107,-0.07972020497985721,-0.3837594850134819,-0.3853889478380376,0.5574110603515937,2,left
9.537,0.6864695748375181,0.8559023512882727,-0.030359720180454516,2.155475927272094,-0.26515248903567196,-0.08418822551978898,-0.3778468715453364,-0.37647830489942896,0.5578176504784731,2,left
9.541,0.6866710811453662,0.8555415465329209,-0.029371556503141227,2.160848010040913,-0.25815371787472635,-0.08828506416367153,-0.37195922563716627,-0.3678221718131301,0.5574691166700722,2,left
9.542,0.6868126876184867,0.8552533851064505,-0.0283949802550268,2.165812550163819,-0.251762105916063,-0.09201568641828903,-0.3661006227444679,-0.3594152015043382,0.5563761467430648,2,left
9.542,0.6868928523695044,0.8550386181883968,-0.02743010589735858,2.170401422907698,-0.2459702339201552,-0.09538550733313876,-0.36027487997339946,-0.3512517081795862,0.554550006278133,2,left
9.546,0.6869101130081824,0.8548977961795211,-0.026477068462634295,2.1746465503424233,-0.24076989019312728,-0.09840033466804851,-0.3544855586759191,-0.3433257107962611,0.5520025130138605,2,left
9.547,0.6868630843491834,0.8548312704810589,-0.025536021155741905,2.178579732331594,-0.2361520693610029,-0.10106631411497774,-0.3487359674443056,-0.33563097470735587,0.5487460115475099,2,left
9.551,0.6867504555782188,0.8548391960100161,-0.02460713256174122,2.1822324861416194,-0.23210697335759983,-0.10338987717239932,-0.34302916548833384,-0.32816105145798985,0.5447933483374631,2,left
9.552,0.6865709870288276,0.854921534420818,-0.023690583533955558,2.1856358949686636,-0.22862401463795037,-0.10537769177905319,-0.3373679663784804,-0.32090931671091527,0.5401578470000337,2,left
9.557,0.6863235067120385,0.8550780580135174,-0.022786563857029093,2.1888204653948202,-0.2256918216039607,-0.10703661571474452,-0.3317549421386481,-0.31386900627889114,0.5348532838913225,2,left
9.557,0.6860069067192955,0.8553083543243888,-0.0218952688012175,2.1918159937840755,-0.22329824623066621,-0.10837365277487537,-0.3261924276720234,-0.30703325024245115,0.5288938639627918,2,left
9.561,0.6856201395919059,0.8556118314113257,-0.021016895697272508,2.1946514416279066,-0.22143037388305195,-0.10939591172443566,-0.32068252550380694,-0.30039510513221834,0.5222941968772703,2,left
9.562000000000001,0.6851622147235591,0.8559877238583705,-0.020151640660113858,2.197354819849724,-0.22007453531498897,-0.11011056803623334,-0.3152271108246994,-0.29394758415552724,0.5150692733701799,2,left
9.565,0.6846321948403923,0.8564350995258732,-0.019299695575069907,2.199953082076827,-0.21921632084338286,-0.11052482841722093,-0.3098278368191665,-0.2876836854477012,0.5072344418388985,2,left
9.566,0.6840291925888041,0.856952867063793,-0.018461245438735233,2.202472026888077,-0.21884059669213882,-0.11064589812586989,-0.3044861402626585,-0.2815964183288998,0.49880538514132966,2,left
9.57,0.6833523672561278,0.857539784186704,-0.017636466125273094,2.2049362090451163,-0.21893152350201758,-0.11048095108266152,-0.2992032473721169,-0.27567882754800027,0.489798097582958,2,left
9.571,0.6826009216509604,0.858194466682329,-0.016825522634238647,2.207368859714648,-0.21947257700388362,-0.11003710277490011,-0.2939801798942597,-0.26992401549550227,0.4802288620699169,2,left
9.575,0.6817740991738779,0.8589153980948544,-0.016028567867356645,2.209791815689066,-0.22044657085423267,-0.10932138595621127,-0.28881776141630305,-0.26432516236795417,0.47011422740388736,2,left
9.575,0.6808711811125547,0.859700939993545,-0.015245741972268906,2.2122254576125684,-0.22183568163322417,-0.10834072914026718,-0.2837166238839453,-0.2588755442668871,0.4594709856929888,2,left
9.58,0.679891484197196,0.8605493427081897,-0.014477172273643799,2.2146886572197837,-0.2236214760067356,-0.10710193788747883,-0.27867721431161024,-0.2535685492157089,0.44831614985120716,2,left
9.581,0.6788343584523896,0.8614587563880681,-0.01372297378364007,2.217198733593921,-0.22578494005519842,-0.105611678882614,-0.2736998016701213,-0.24839769107846088,0.4366669311573399,2,left
9.585,0.6776991853800665,0.8624272422239673,-0.012983250247521077,2.2197714184514687,-0.22830651077316685,-0.10387646680053846,-0.2687844839371529,-0.2433566213647659,0.4245407168429187,2,left
9.585,0.676485376505999,0.8634527836652239,-0.012258095643741229,2.2224208304605617,-0.23116610974470816,-0.10190265395653608,-0.26393119529598297,-0.2384391389057103,0.41195504767710267,2,left
9.591000000000001,0.6751923723191428,0.8645332974655578,-0.01154759603095835,2.2251594586002574,-0.23434317900078772,-0.09969642273694088,-0.2591397134682483,-0.2336391973857902,0.39892759551511453,2,left
9.592,0.6738196416275368,0.8656666444013198,-0.010851831624830024,2.2279981545681435,-0.237816719065849,-0.09726378080510953,-0.25440966716658114,-0.2289509107164274,0.38547614077542225,2,left
9.595,0.6723666813446418,0.8668506395222902,-0.010170878996152483,2.230946134243914,-0.24156532920175977,-0.09461055907707794,-0.24974054365318554,-0.2243685562369157,0.37161854980954806,2,left
9.595,0.6708330167056084,0.86808306181748,-0.009504813302536589,2.23401098821681,-0.2455672498582051,-0.09174241246057634,-0.24513169639058766,-0.21988657572899534,0.35737275212711944,2,left
9.6,0.6692182018967258,0.8693616632063365,-0.008853710489310886,2.237198701385087,-0.2498004073394609,-0.08866482335042757,-0.24058235277097026,-0.2154995742315755,0.3427567174375578,2,left
9.6,0.6675218210679585,0.8706841767976166,-0.008217649416063559,2.240513681636008,-0.25424246069826906,-0.08538310787271862,-0.2360916219106777,-0.21120231664242892,0.3277884324686351,2,left
9.601,0.6657434896912438,0.8720483243896348,-0.0075967138815760775,2.2439587976151727,-0.25887085086826317,-0.08190242486951764,-0.23165850249514092,-0.20698972213944125,0.3124858775491863,2,left
9.604,0.6638828562268964,0.8734518232113758,-0.0069909945313454975,2.2475354255943487,-0.26366285204705775,-0.078227787615307,-0.22728189065210255,-0.20285685668162134,0.2968670030830821,2,left
9.605,0.6619396040650191,0.8748923919211898,-0.006400590638524962,2.2512435054473405,-0.26859562534271325,-0.07436407825571603,-0.22296058781761655,-0.19879892425956633,0.2809497062941274,2,left
9.61,0.6599134537117818,0.8763677558913063,-0.005825611752081971,2.2550816057437872,-0.2736462746968233,-0.07031606495856497,-0.21869330855192115,-0.194811257792669,0.2647518087614689,2,left
9.612,0.6578041651873432,0.8778756518163358,-0.005266179206713475,2.259046997772674,-0.2787919050196646,-0.06608842170312001,-0.21447868826998714,-0.19088931034323398,0.24829103512331097,2,left
9.613,0.6556115405976242,0.8794138316897693,-0.0047224274885442835,2.2631357373152214,-0.2840096820818655,-0.06168575031514133,-0.21031529086527492,-0.18702864690865592,0.23158499307230263,2,left
9.615,0.6533354268405013,0.8809800661920749,-0.004194505449324046,2.2673427512007214,-0.2892768930028902,-0.057112603782784724,-0.2062016162129312,-0.18322493682566343,0.21465115462427703,2,left
9.616,0.6509757184022665,0.8825721475351063,-0.003682577360432887,2.2716619246867613,-0.29457100578552176,-0.05237350957012681,-0.20213610754031464,-0.1794739467753536,0.19750683861309365,2,left
9.619,0.6485323601868498,0.8841878918170833,-0.003186823798665845,2.2760861866981186,-0.29986972673712126,-0.047472991962354674,-0.19811715865288648,-0.17577153437791587,0.1801691943636293,2,left
9.619,0.6460053503040812,0.8858251409551701,-0.002707442360632552,2.280607591745421,-0.30515105532308184,-0.04241559304816409,-0.19414312100364575,-0.1721136423661102,0.1626551864943087,2,left
9.625,0.6433947427318775,0.8874817642702668,-0.0022446482103481106,2.2852173983374606,-0.3103933363893596,-0.03720589226220701,-0.1902123105944263,-0.16849629332671417,0.14498158079996037,2,left
9.626,0.6407006497620463,0.8891556597988527,-0.0017986744709756106,2.2899061438998625,-0.3155753097692568,-0.03184852447352025,-0.18632301469750684,-0.16491558499929482,0.12716493116522795,2,left
9.63,0.637923244139878,0.8908447554011826,-0.0013697724730878406,2.29466371621307,-0.32067615728958143,-0.026348196605416777,-0.18247349838611363,-0.16136768612178828,0.10922156745826019,2,left
9.631,0.6350627608140965,0.8925470097262295,-0.0009582118674600917,2.299479421382876,-0.32567554719119834,-0.020709702771883425,-0.17866201086252034,-0.15784883281248713,0.0911675843539434,2,left
9.634,0.632119498225641,0.8942604130830809,-0.0005642806035507605,2.3043420483569443,-0.33055367597881236,-0.014937937915104895,-0.17488679157256862,-0.15435532547814054,0.0730188310355294,2,left
9.635,0.6290938190799475,0.8959829882565928,-0.00018828476993355126,2.309239930000966,-0.3352913077145942,-0.009037909928323476,-0.17114607609554636,-0.15088352623796736,0.054790901723146844,2,left
9.638,0.6259861505663492,0.8977127912929471,0.0001694517096219545,2.3141610007482583,-0.3398698107699672,-0.003014750247847088,-0.16743810179847105,-0.14742985685346513,0.03649912697736591,2,left
9.639,0.6227969840082285,0.8994479122707075,0.000508587533295275,2.319092850836757,-0.3442711920495277,0.003126277102364289,-0.1637611132439288,-0.1439907971539715,0.018158565725713473,2,left
9.644,0.619526873947308,0.9011864760667206,0.0008287646426612056,2.32402277714744,-0.3484781287006689,0.009379768030471938,-0.16011336734071946,-0.14056288394799651,-0.00021600204019236064,2,left
9.645,0.616176436683487,0.9029266431230625,0.001129609019047402,2.328937830658292,-0.35247399732202206,0.015740172478183073,-0.15649313822665178,-0.13714271041039688,-0.01861008194940319,2,left
9.649,0.6127463483059392,0.9046666102190527,0.00141073166226743,2.3338248605279586,-0.35624290068332176,0.02220179012145674,-0.1528987218729223,-0.1337269259355055,-0.037009471370952424,2,left
9.65,0.6092373422599093,0.906404611250241,0.0016717297550586584,2.3386705548232136,-0.35976969196874514,0.02875876768844361,-0.14932844039959464,-0.13031223644636084,-0.05540026502047266,2,left
9.654,0.6056502064967133,0.9081389180151854,0.0019121880118485755,2.3434614779043415,-0.36303999655516955,0.035405097912919126,-0.1457806460917759,-0.12689540515020414,-0.07376886010692896,2,left
9.655,0.6019857802542156,0.9098678410117275,0.0021316802050031034,2.3481841044824354,-0.3660402313361429,0.04213462014175989,-0.14225372510616088,-0.12347325373042464,-0.09210196107229461,2,left
9.658999999999999,0.5982449505144032,0.9115897302463568,0.0023297708568273626,2.3528248503625098,-0.3687576216016679,0.04894102261528681,-0.13874610085768377,-0.12004266396513617,-0.11038658397697197,2,left
9.66,0.594428648185304,0.9133029760613572,0.0025060170831513206,2.3573700998861593,-0.37118021548316565,0.05581784643955485,-0.1352562370760823,-0.11660057976256302,-0.12861006058369773,2,left
9.663,0.5905378440565432,0.9150060099845166,0.0026599705741782516,2.361806230087299,-0.3732968959722085,0.06275849126990794,-0.1317826405222388,-0.11314400960339685,-0.1467600421925709,2,left
9.664,0.5865735445808677,0.9166973056061164,0.002791179698167546,2.36611963157429,-0.3750973905208049,0.06975622272533809,-0.1283238633542184,-0.10967002938026352,-0.16482450327970286,2,left
9.669,0.582536787537794,0.918375379487134,0.002899191711476665,2.370296726151483,-0.3765722782301702,0.07680418155338972,-0.12487850513297605,-0.10617578562440466,-0.18279174499181428,2,left
9.67,0.5784286376384709,0.9200387921002505,0.002983555055110373,2.3743239811928873,-0.3777129946340428,0.08389539456553355,-0.12144521446492294,-0.10265849910320152,-0.2006503985329089,2,left
9.671,0.5742501821285152,0.9216861488028892,0.0030438217164371157,2.3781879207803276,-0.378511834081697,0.09102278736309763,-0.11802269031445045,-0.09911546873993465,-0.21838942839898887,2,left
9.674,0.5700025264378406,0.9233161008411265,0.0030795496365196187,2.3818751336180646,-0.3789619497248716,0.09817919887398746,-0.1146096830841041,-0.09554407574918475,-0.2359981352726413,2,left
9.674,0.5656867899236688,0.9249273463840101,0.0030903051444891748,2.3853722777354163,-0.3790573511118746,0.10535739772055126,-0.11120499559599874,-0.09194178784903002,-0.253466158309094,2,left
9.68,0.5613041017621773,0.9265186315874664,0.0030756653966925646,2.388666081988449,-0.3787928993911437,0.11255010043904994,-0.10780748407223328,-0.08830616344330576,-0.270783476624916,2,left
9.681000000000001,0.5568555970556954,0.9280887516852924,0.003035220793197916,2.3917433444414926,-0.37816430015445907,0.1197499915159072,-0.10441605914753477,-0.08463485572504047,-0.2879404099440206,2,left
9.681000000000001,0.5523424132216157,0.9296365521028781,0.0029685773436219816,2.3945909280595976,-0.3771680940935662,0.12694974492914066,-0.10102968691152135,-0.08092561668427821,-0.3049276184351472,2,left
9.683,0.547765686716507,0.9311609295882022,0.0028753589588769884,2.3971957547741387,-0.3758016459031777,0.13414204638510882,-0.09764738997082191,-0.07717630100983797,-0.3217361017905484,2,left
9.684,0.5431265501386144,0.932660833353714,0.0027552096529065177,2.399544799334062,-0.37406313200685837,0.1413196151638928,-0.0942682485213071,-0.07338486987445858,-0.33835719759514976,2,left
9.687999999999999,0.5384261297537988,0.9341352662205534,0.0026077956508696308,2.4016250840037054,-0.3719515275366636,0.14847522476346817,-0.090891401420702,-0.06954939459266878,-0.35478257903496263,2,left
9.687999999999999,0.533665543497192,0.9355832857528059,0.0024328074200273904,2.4034236745357407,-0.36946659273609717,0.15560172203110792,-0.08751604725186163,-0.06566806014060726,-0.3710042519930175,2,left
9.693,0.528845899503766,0.9370040053647695,0.0022299616574991024,2.4049276774961506,-0.36660885881030736,0.162692044747253,-0.08414144536700006,-0.06173916852689697,-0.38701455158054826,2,left
9.693999999999999,0.5239682952128595,0.938396595379099,0.0019990032695967642,2.406124238947188,-0.3633796132174549,0.169739237682391,-0.08076691690317091,-0.057761142003551015,-0.40280613815059524,2,left
9.697000000000001,0.5190338170776728,0.9397602840089133,0.0017397073575317256,2.4070005444934535,-0.3597808843941153,0.17673646714740052,-0.07739184575930073,-0.0537325261057571,-0.4183719928406118,2,left
9.698,0.5140435408945594,0.9410943582327951,0.001451881196418385,2.407543820695386,-0.35581542590650983,0.1836770340577148,-0.07401567952508006,-0.04965199250924991,-0.43370541269005153,2,left
9.703,0.5089985327523787,0.9423981645279528,0.0011353661750146376,2.407741337853575,-0.35148670001829097,0.1905543855315343,-0.07063793035201607,-0.04551834169384073,-0.44880000537828607,2,left
9.704,0.503899850592099,0.9436711094242521,0.0007900396616722234,2.407580414166388,-0.34679886066455157,0.19736212504217554,-0.0672581757569504,-0.041330505401528286,-0.46364968362755565,2,left
9.708,0.49874854636176774,0.9449126598413732,0.0004158167738325181,2.407048421262442,-0.3417567358206724,0.20409402114447978,-0.06387605934834194,-0.03708754887746591,-0.4782486593149877,2,left
9.708,0.4935456687502763,0.9461223431736152,1.265204260385209e-05,2.4061327911084605,-0.3363658092535825,0.21074401479502516,-0.06049129146561065,-0.032788672881907815,-0.4925914373370321,2,left
9.714,0.48829226648173213,0.9472997470924229,-0.0004194590268975908,2.4048210242920303,-0.3306322016419755,0.21730622528568566,-0.05710364972183226,-0.028433215461101988,-0.5066728092689615,2,left
9.714,0.4829893921470881,0.9484445190462054,-0.000880478495414845,2.4031006996776925,-0.32456265105100895,0.22377495480986248,-0.05371297944006736,-0.024020653464939087,-0.5204878468613621,2,left
9.717,0.47763810653963956,0.949556365450097,-0.00137032462703089,2.4009594854337233,-0.31816449274601344,0.23014469168047863,-0.05031919397360089,-0.019550603799006392,-0.5340318954148076,2,left
9.718,0.4722394834478445,0.9506350505730987,-0.001888870625903779,2.3983851514258028,-0.31144563832875444,0.23641011221857686,-0.04692227490035992,-0.015022824398533573,-0.5473005670731579,2,left
9.722000000000001,0.46679461484480483,0.9516803951443243,-0.002435943478921871,2.395365582972601,-0.30441455417882735,0.24256608133109084,-0.043522272081768947,-0.010437214911553399,-0.5602897340751587,2,left
9.722000000000001,0.4613046163991425,0.9526922747124915,-0.0030113229173879823,2.3918887959571076,-0.2970802391818212,0.24860765179607755,-0.04011930357629339,-0.005793817078435542,-0.5729955220032419,2,left
9.727,0.4557706332175799,0.9536706178029011,-0.003614740519878492,2.387942953286285,-0.28945220172496866,0.25453006227339814,-0.03671355539791276,-0.001092814794786209,-0.585414303067634,2,left
9.728,0.4501938457190324,0.9546154039236259,-0.004245878987828174,2.3835163826903374,-0.2815404359401036,0.2603287340585217,-0.0333052811097566,0.0036654661554595697,-0.5975426894630794,2,left
9.731,0.44457547553840643,0.9555266614773272,-0.004904371630280111,2.378597595851593,-0.27335539717287605,0.2659992665967967,-0.029894801243127746,0.008480558710091846,-0.6093775268346716,2,left
9.732000000000001,0.4389167913665803,0.9564044656366819,-0.005589802091743981,2.373175308851629,-0.2649079766563345,0.2715374317751942,-0.02648250253212958,0.013351855495329868,-0.6209158878884593,2,left
9.737,0.4332191146470594,0.9572489362391933,-0.006301704349088022,2.367238463923905,-0.25620947536616706,0.27693916700817156,-0.02306883695410698,0.018278610162844686,-0.6321550661816645,2,left
9.738,0.4274838250647166,0.9580602357513436,-0.0070395629937370936,2.3607762524977485,-0.2472715770341141,0.28220056713393726,-0.01965432057069172,0.023259939102842842,-0.643092570119828,2,left
9.738,0.42171236577598675,0.9588385673434863,-0.007802813806782607,2.353778139518088,-0.23810632029530804,0.28731787513701734,-0.01623953218717515,0.028294823498672298,-0.6537261171539759,2,left
9.742,0.4159062483418242,0.9595841731074816,-0.008590844628217938,2.346233889023858,-0.2287260699445774,0.2922874717126333,-0.012825111889213574,0.03338211161577378,-0.6640536281099695,2,left
9.742,0.4100670573317782,0.9602973324425176,-0.009402996516461329,2.338133590966492,-0.21914348727606467,0.29710586368799813,-0.00941175953880651,0.03852052117751457,-0.6740732215479633,2,left
9.747,0.4041964545681655,0.9609783606315729,-0.01023856518795098,2.3294676892040163,-0.20937149951303577,0.3017696713495473,-0.00600023328855044,0.04370864172103811,-0.6837832080823929,2,left
9.749,0.39829618297740654,0.9616276076274997,-0.011096802719926125,2.320227010382874,-0.19942326850004116,0.3062756148963224,-0.0025913481318851537,0.048944936899209784,-0.6931820846521095,2,left
9.749,0.3923680700163306,0.9622454570616712,-0.011976919496399167,2.310402793018782,-0.18931215912762983,0.3106205005482113,0.0008140255158838966,0.054227746735328514,-0.7022685287627688,2,left
9.751,0.3864140306441742,0.962832325481353,-0.012878086376268921,2.299986715864469,-0.17905170812517354,0.3148012070089304,0.004214963215585898,0.0595552898455051,-0.7110413927293605,2,left
9.752,0.3804360698124814,0.9633886618144485,-0.013799437059044045,2.288970924872322,-0.16865559369095254,0.3188146728115553,0.007610487890998579,0.06492566564374609,-0.7194996979458816,2,left
9.756,0.3744362844456654,0.963914947050033,-0.014740070619035824,2.2773480584575183,-0.15813760612956593,0.3226578847650237,0.010999571214256453,0.07033685654491549,-0.7276426292082483,2,left
9.757,0.36841686488837855,0.9644116941106703,-0.01569905417715784,2.2651112709873624,-0.1475116195004005,0.326327867547939,0.01438113499962128,0.07578673018087487,-0.7354695291156518,2,left
9.761000000000001,0.36238009580346214,0.964879447881043,-0.016675425680394342,2.252254254465144,-0.13679156424732244,0.32982167446119687,0.01775405261536699,0.08127304164522506,-0.7429798925746502,2,left
9.762,0.356328356513958,0.9653187853486338,-0.017668196759467278,2.2387712583751296,-0.1259914007794066,0.333136379350469,0.021117150423512625,0.08679343578218987,-0.7501733614293914,2,left
9.765,0.35026412079152464,0.9657303158056225,-0.018676355633121297,2.2246571076535138,-0.11512509397220756,0.33626906970908177,0.024469209257115283,0.09234544953529308,-0.7570497192404481,2,left
9.766,0.34418995609985065,0.9661146810569681,-0.01969887002336613,2.2099072187483864,-0.10420658855880678,0.3392168409713182,0.02780896594480998,0.09792651437158408,-0.7636088862338389,2,left
9.77,0.33810852230492583,0.9664725555788137,-0.020734690043275536,2.1945176137299676,-0.09324978537963984,0.3419767920056615,0.031135114892255088,0.10353395879726576,-0.769850914440903,2,left
9.771,0.33202256986481454,0.966804646573472,-0.021782751020602016,2.1784849324105586,-0.08226851845991774,0.3445460218169712,0.034446309730110175,0.10916501098066861,-0.7757759830487785,2,left
9.775,0.32593493751097363,0.9671116938709491,-0.022841976226589764,2.161806442431824,-0.07127653288330654,0.3469216274660554,0.03774116503813779,0.11481680149859771,-0.7813843939803296,2,left
9.776,0.31984854943238683,0.9673944696314877,-0.023911279487109142,2.1444800472751897,-0.06028746343041875,0.34910070321456094,0.041018258154981294,0.12048636622215593,-0.7866765677214546,2,left
9.78,0.31376641197388677,0.9676537778083363,-0.024989567659281318,2.1265042921492943,-0.04931481395060009,0.351080340902555,0.044276131083127966,0.12617064935821323,-0.791653039412796,2,left
9.781,0.3076916098619524,0.9678904533346265,-0.026075742961111856,2.1078783677065727,-0.0383719374354639,0.35285763156561817,0.047513292498519585,0.13186650666275213,-0.7963144552219645,2,left
9.785,0.3016273019753271,0.9681053610044456,-0.027168705147273896,2.0886021115391977,-0.027472016762633493,0.3544296682977012,0.050728219874221596,0.13757070884236952,-0.8006615690114813,2,left
9.786,0.2955767166828285,0.9682993940284516,-0.02826735353191421,2.068676007402738,-0.016628046078199846,0.3557935503654266,0.05391936172750658,0.14327994516025797,-0.8046952393167377,2,left
9.79,0.28954314677532855,0.9684734722592933,-0.029370588867372545,2.048101182114023,-0.005852812786487023,0.35694638857893485,0.057085139999648295,0.14899082726302162,-0.8084164266473636,2,left
9.79,0.2835299440234489,0.9686285400996576,-0.030477315095731785,2.0268794000678443,0.004841119884159291,0.35788531192378426,0.06022395257765857,0.1546998932447067,-0.8118261911244932,2,left
9.795,0.2775405133975852,0.9687655641231285,-0.03158644099870167,2.005013055315249,0.015441429770684427,0.3586074754578171,0.06333417596713092,0.1604036119644403,-0.8149256904655201,2,left
9.796,0.27157830699138624,0.9688855304524487,-0.03269688177847544,1.9825051611443258,0.025936052150665842,0.35911006947629726,0.06641416812528189,0.16609838763407594,-0.8177161783270328,2,left
9.802,0.2656468176933153,0.968989441949013,-0.033807560605306014,1.9593593371025193,0.03631319563437699,0.3593903299480098,0.06946227146320363,0.1717805646922385,-0.820199003015729,2,left
9.802999999999999,0.25974957265518034,0.9690783152704406,-0.03491741016589888,1.9355797933976728,0.04656135760399983,0.3594455502243931,0.07247681602625901,0.17744643298114665,-0.8223756065762154,2,left
9.805,0.2538901266133696,0.969153177850304,-0.036025374240182775,1.911171312613139,0.056669339230108834,0.3592730940231391,0.07545612286146365,0.18309223324256396,-0.8242475242637111,2,left
9.805,0.24807205512570182,0.9692150648472728,-0.03713040932351642,1.8861392286704788,0.0666262600952125,0.3588704096870622,0.07839850757401386,0.1887141629406075,-0.8258163844010031,2,left
9.806000000000001,0.24229894778656436,0.9692650161015989,-0.03823148630031379,1.8604894029714476,0.07642157245376845,0.35823504571838954,0.08130228404205395,0.1943083823761621,-0.8270839085791863,2,left
9.809,0.2365744014723344,0.9693040731266875,-0.03932759216630308,1.834228197649161,0.08604507515768628,0.35736466758797186,0.08416576819933072,0.19987102098030837,-0.8280519120907451,2,left
9.81,0.23090201365866644,0.9693332761559695,-0.04041773178908085,1.8073624458565387,0.09548692727589893,0.3562570758182525,0.08698728176230769,0.2053981836311717,-0.8287223044437376,2,left
9.814,0.22528537584947794,0.9693536612622737,-0.04150092968871147,1.779899419124043,0.10473766142314331,0.354910225298588,0.08976515581117006,0.21088595688145242,-0.8290970898439075,2,left
9.815,0.2197280671552394,0.9693662575653135,-0.04257623181472571,1.7518467923453598,0.11378819674771481,0.35332224559295755,0.09249773419337969,0.21633041506108827,-0.8291783676007829,2,left
9.816,0.21423364804672584,0.9693720845401748,-0.0436427072958195,1.7232126078990806,0.1226298514106488,0.3514914616432277,0.09518337675128821,0.22172762626233203,-0.8289683324519034,2,left
9.82,0.2088056542970269,0.9693721494376117,-0.04469945014080957,1.6940052409411102,0.13125435432335117,0.3494164140725729,0.09782046238178495,0.22707365822300077,-0.8284692748062575,2,left
9.821,0.20344759111736893,0.9693674448261367,-0.045745580871014074,1.6642333673724512,0.1396538559750087,0.3470958784908394,0.1004073919358258,0.2323645841235284,-0.8276835809071692,2,left
9.824,0.19816292748781278,0.969358946263381,-0.046780248068186876,1.6339059350341998,0.1478209382973013,0.3445288835591322,0.10294259096555496,0.2375964883133182,-0.826613732914032,2,left
9.825,0.19295509067784963,0.9693476100975095,-0.0478026298312943,1.6030321381515542,0.15574862357819813,0.34171472776808504,0.10542451232659156,0.24276547198174467,-0.825262308901466,2,left
9.829,0.18782746094668903,0.9693343713891559,-0.04881193514739124,1.5716213949413238,0.16343038244895147,0.3386529949231441,0.10785163864290952,0.24786765878899517,-0.8236319827736455,2,left
9.829,0.18278336641226692,0.9693201419332113,-0.04980740519171795,1.5396833282958389,0.17086014096773505,0.3353435683294911,0.11022248464159007,0.2528992004717734,-0.821725524090726,2,left
9.834,0.17782607808226597,0.9693058083506991,-0.05078831457493581,1.5072277494545878,0.1780322868226867,0.3317866436685199,0.11253559936457364,0.2578562824387049,-0.8195457978034977,2,left
9.835,0.17295880504801808,0.969292230214893,-0.05175397254825955,1.4742646445733678,0.1849416746764103,0.3279827405570702,0.11478956826438041,0.26273512937009424,-0.8170957638915871,2,left
9.84,0.1681846898507128,0.9692802381728094,-0.05270372416253955,1.4408041640992175,0.19158363067326803,0.3239327127799124,0.11698301519060739,0.2675320108364794,-0.8143784768997345,2,left
9.84,0.1635068040369319,0.9692706320239921,-0.05363695136138419,1.4068566148579251,0.19795395613005634,0.3196377571852666,0.11911460427384345,0.2722432469502155,-0.811397085365894,2,left
9.845,0.1589281439253356,0.9692641787234466,-0.05455307397626783,1.3724324547594333,0.20404893042990366,0.31509942123242995,0.12118304171347502,0.27686521406409614,-0.8081548311341235,2,left
9.846,0.15445162660721382,0.9692616102838512,-0.05545155058573365,1.3375422900250402,0.20986531313846168,0.31031960917988,0.12318707747568025,0.2813943505307835,-0.8046550485444643,2,left
9.849,0.15008008620132773,0.9692636215629072,-0.056331879202557514,1.3021968748388977,0.2154003453606825,0.30530058690151934,0.1251255069077326,0.285827162536575,-0.8009011634912564,2,left
9.85,0.14581627037928707,0.9692708679344593,-0.05719359776204023,1.2664071133249393,0.22065175035568377,0.30004498531802853,0.1269971722745532,0.2901602300227749,-0.7968966923405769,2,left
9.854,0.14166283717189143,0.9692839628560521,-0.058036284399446886,1.2301840637490298,0.22561773342640484,0.2945558024296001,0.12880096422326634,0.29439021270767585,-0.7926452406967596,2,left
9.854,0.1376223520588171,0.9693034753600469,-0.0588595575211098,1.1935389448448233,0.23029698109995006,0.28883640393564197,0.1305358231813244,0.2985138562218759,-0.7881505020072167,2,left
9.857999999999999,0.133697285333105,0.9693299275098838,-0.05966307568687707,1.1564831441605372,0.23468865961370028,0.2828905224263584,0.13220074069357635,0.3025279983693729,-0.7834162559940685,2,left
9.859,0.12989000971845582,0.9693637918763945,-0.060446537327903706,1.1190282283226085,0.23879241272145657,0.2767222551304471,0.13379476070345964,0.30642957552657957,-0.7784463669003742,2,left
9.863999999999999,0.126202798203599,0.9694054890989704,-0.06120968032401837,1.0811859551109846,0.24260835883305645,0.2703360602024892,0.1353169807832968,0.31021562919109963,-0.7732447815380604,2,left
9.865,0.1226378220480372,0.969455385601314,-0.061952281463118375,1.0429682872396224,0.24613708750007757,0.2637367515329613,0.13676655331847773,0.3138833126917894,-0.7678155271239575,2,left
9.869,0.11919714891064616,0.9695137915309392,-0.06267415580336319,1.004387407734624,0.24937965525941821,0.25692949206315885,0.13814268665010512,0.31742989807130634,-0.76216270888967,2,left
9.87,0.1158827410568503,0.9695809589850042,-0.06337515595549849,0.9654557368013205,0.2523375808457188,0.2499197855866951,0.13944464618047372,0.32085278315201626,-0.756290507450352,2,left
9.874,0.11269645360888876,0.9696570805728558,-0.06405517129646589,0.926185950070546,0.25501283978276246,0.24271346701862878,0.14067175544389426,0.32414949878230365,-0.7502031759261335,2,left
9.875,0.10964003281437598,0.9697422883501964,-0.06471412711949576,0.8865909981132921,0.2574078583631744,0.23531669111267783,0.141823397136903,0.3273177161925661,-0.7439050368559875,2,left
9.875,0.10671511431936656,0.9698366531439281,-0.06535198372348232,0.8466841271119314,0.2595255070249204,0.2277359196063931,0.14289901408681813,0.3303552542684613,-0.737400479027221,2,left
9.878,0.10392322144346702,0.9699401842723925,-0.06596873544573541,0.806478900575227,0.2613690931322956,0.21997790677360482,0.14389811012913034,0.33326008648119465,-0.7306939543898417,2,left
9.879,0.10126576346566082,0.9700528296534536,-0.0665644096434759,0.7659892219834091,0.26294235316829045,0.2120496833629061,0.14482025087225772,0.3360303472816861,-0.7237899751777628,2,left
9.884,0.0987440339373593,0.9701744762830969,-0.06713906562596131,0.7252293582217038,0.26424944434364206,0.20395853893622587,0.14566506434284257,0.33866433788643413,-0.716693111274187,2,left
9.884,0.09635920904093319,0.9703049510614835,-0.06769279353215898,0.6842139635248212,0.2652949356231902,0.19571200280010845,0.14643224151280773,0.34116053144993325,-0.7094079878112501,2,left
9.885,0.0941123460092909,0.9704440219413861,-0.06822571314493253,0.6429581034110661,0.2660837981623503,0.18731782404416397,0.14712153671082054,0.3435175776316012,-0.7019392829841006,2,left
9.888,0.09200438162077107,0.9705913993705133,-0.06873797263285308,0.6014772779489305,0.2666213951418489,0.17878395137976014,0.14773276792059084,0.3457343065647775,-0.6942917260590369,2,left
9.889,0.09003613078707634,0.9707467379913707,-0.06922974721075,0.5597874438333248,0.26691347099201845,0.1701185132925055,0.1482658169682063,0.3478097322349627,-0.686470095554787,2,left
9.892000000000001,0.08820828525676534,0.9709096385546842,-0.06970123771015438,0.5179050349909378,0.26696614000424473,0.1613297986993167,0.14872062960048482,0.3497430552740662,-0.6784792175754821,2,left
9.892999999999999,0.08652141245797736,0.9710796500005111,-0.07015266905437899,0.4758469815685946,0.26678587433034184,0.15242623812138645,0.14909721545609975,0.3515336651770288,-0.670323964273367,2,left
9.897,0.0849759545004343,0.9712562716653731,-0.07058428864020865,0.43363072718488377,0.26637949137070677,0.14341638534817625,0.14939564793100893,0.3531811419467802,-0.6620092524187869,2,left
9.898,0.08357222734935321,0.971438955582526,-0.07099636463672207,0.39127424432477215,0.2657541405514197,0.13430889956720526,0.14961606393949445,0.35468525717308497,-0.6535400420545063,2,left
9.902999999999999,0.08231042017398754,0.971627108854745,-0.07138918422028159,0.3487960477564256,0.264917289489786,0.12511252793407543,0.14975866357189477,0.3560459745504187,-0.6449213352109422,2,left
9.904,0.08119059486307702,0.9718200960926783,-0.0717630517724402,0.3062152058489957,0.2638767095471677,0.11583608855686879,0.1498237096498871,0.3572634498396074,-0.6361581746584363,2,left
9.908,0.0802126856911042,0.9720172419240981,-0.07211828707313744,0.2635513496697361,0.2626404607673255,0.10648845386877243,0.14981152717995327,0.3583380302775513,-0.6272556426722483,2,left
9.908,0.07937649911529984,0.9722178335883451,-0.0724552235233721,0.22082467973845846,0.2612168761978824,0.09707853436253151,0.14972250270544002,0.3592702534389413,-0.6182188597855208,2,left
9.912,0.07868171368462694,0.9724211236350014,-0.07277420642812348,0.17805597031704906,0.2596145455919377,0.0876152626601005,0.14955708355740033,0.3600608455534675,-0.6090529835050524,2,left
9.913,0.07812788004695444,0.972626332745768,-0.0730755913625636,0.13526657111152604,0.2578422984862977,0.07810757789065859,0.14931577700418247,0.36071071928160636,-0.5997632069643158,2,left
9.918,0.07771442104715667,0.9728326526938852,-0.07335974263617898,0.09247840626394065,0.2559091866522527,0.06856441034997654,0.1489991492995114,0.3612209709516684,-0.5903547574877723,2,left
9.919,0.0774406319164622,0.9730392494478791,-0.07362703186296832,0.04971397051130527,0.2538244659143152,0.05899466641396862,0.1486078246285888,0.36159287726037737,-0.5808328950401621,2,left
9.923,0.07730568056167593,0.9732452664184625,-0.07387783664157214,0.0069963223886726645,0.25159757733184807,0.0494072136791356,0.1481424839515194,0.36182789143885097,-0.5712029105340941,2,left
9.923,0.07730860796949134,0.9734498278411753,-0.07411253934680674,-0.03565092564650398,0.2492381277380497,0.039810866302503356,0.1476038637431559,0.3619276388854524,-0.5614701239689196,2,left
9.927,0.07744832874420349,0.9736520422839398,-0.07433152603322746,-0.07820362029153126,0.24675586963032686,0.030214370513584707,0.146992754628239,0.3618939122665829,-0.5516398823735476,2,left
9.927999999999999,0.0777236317978378,0.9738510062683106,-0.07453518545030266,-0.12063708379982176,0.2441606804056792,0.020626390270841243,0.14630999991049798,0.3617286660860954,-0.5417175575255477,2,left
9.931000000000001,0.07813318121077611,0.9740458079950794,-0.07472390816579759,-0.16292613382888826,0.2414625409343385,0.011055493035096276,0.1455564939941661,0.361434010723618,-0.5317085434185934,2,left
9.932,0.07867551727698287,0.9742355311673945,-0.07489808578980635,-0.20504510685717547,0.23867151346455215,0.0015101356323493533,0.14473318069615657,0.36101220594169636,-0.5216182534500169,2,left
9.937000000000001,0.07934905774038721,0.9744192589055894,-0.07505811028922273,-0.24696788529157493,0.2357977188510784,-0.008001349821532857,0.1438410514469405,0.3604656538612835,-0.5114521172999836,2,left
9.937999999999999,0.08015209921978801,0.9745960777465352,-0.07520437338328625,-0.28866792838705296,0.23285131309966295,-0.017470769961725797,0.1428811433779637,0.3597968914047363,-0.5012155774735447,2,left
9.942,0.08108281881171714,0.9747650817174378,-0.07533726601489671,-0.3301183070993325,0.22984246321950114,-0.02689008420835966,0.14185453729665035,0.35900858221806103,-0.4909140854903404,2,left
9.943,0.08213927585669638,0.9749253764713433,-0.07545717789665808,-0.3712917429910037,0.2267813223754519,-0.036251418820741774,0.14076235556690206,0.358103508148542,-0.4805530977752548,2,left
9.943,0.08331941385477154,0.9750760834695917,-0.07556449713190719,-0.41216065131079915,0.22367800433156146,-0.04554708099907452,0.13960575994350694,0.357084560470085,-0.4701380714268573,2,left
9.947000000000001,0.084621062518046,0.9752163441929332,-0.07565960990960571,-0.4526971883650507,0.22054255717727464,-0.054769573060711015,0.1383859494257396,0.35595473111301035,-0.4596744601090232,2,left
9.948,0.08604193994856643,0.9753453243562651,-0.07574290027087795,-0.4928733032995487,0.21738493632756165,-0.06391160671782464,0.13710415817818758,0.3547171040899493,-0.4491677102422125,2,left
9.951,0.08757965493103143,0.9754622180947299,-0.07581474994626454,-0.5326607942863577,0.21421497682226187,-0.07296611745969557,0.13576165353595251,0.3533748471926201,-0.438623257546991,2,left
9.952,0.08923170933360328,0.9755662520862453,-0.07587553826561817,-0.5720313684952307,0.21104236512082536,-0.08192627892518482,0.1343597340941355,0.3519312039691956,-0.42804652392349396,2,left
9.953,0.09099550061561648,0.9756566895784498,-0.07592564214408619,-0.6109567041231051,0.20787661089632062,-0.09078551693937434,0.13289972787792778,0.3503894859787132,-0.41744291463666305,2,left
9.956,0.09286832444597563,0.9757328342911221,-0.07596543614629937,-0.6494085121400909,0.20472701950351213,-0.09953752277067755,0.13138299058945224,0.3487530653186789,-0.4068178157769752,2,left
9.957,0.0948473774389534,0.9757940341637155,-0.07599529262824224,-0.6873585960231183,0.20160266562483237,-0.10817626528187753,0.12981090392733174,0.3470253674217239,-0.39617659196629096,2,left
9.962,0.09692976001446518,0.975839684914729,-0.07601558195491183,-0.7247789088522605,0.19851236829034075,-0.11669600185962177,0.12818487397479264,0.34520986411689386,-0.3855245842783736,2,left
9.963,0.09911247938839655,0.9758692333803949,-0.07602667279292373,-0.7616416077573376,0.195464667296836,-0.12509128812401818,0.12650632965194958,0.34331006695087585,-0.3748671083435668,2,left
9.966000000000001,0.1013924526958076,0.9758821806053884,-0.07602893247911272,-0.7979191058237662,0.19246780101716487,-0.13335698644313682,0.12477672122775811,0.3413295207642081,-0.3642094526070731,2,left
9.967,0.10376651024635566,0.9758780846659015,-0.07602272746552823,-0.8335841215650892,0.1895296855908682,-0.14148827327688043,0.12299751888696732,0.3392717975172639,-0.3535568767102437,2,left
9.971,0.1062313989081144,0.975856563213263,-0.07600842383593762,-0.8686097260680248,0.18665789548742734,-0.14948064537433034,0.12117021134725339,0.33714049036056054,-0.3429146099642759,2,left
9.972000000000001,0.1087837856129781,0.975817295733507,-0.07598638788073778,-0.9029693879141918,0.18385964543351818,-0.15732992484830216,0.11929630452156874,0.33493920794371074,-0.3322878498857123,2,left
9.976,0.11142026097286016,0.9757600255250877,-0.07595698671084014,-0.9366370159809098,0.18114177369584888,-0.165032263150461,0.11737732022059849,0.33267156895711325,-0.321681760763151,2,left
9.976,0.11413734299216863,0.9756845614027803,-0.0759205888905546,-0.9695870002216346,0.17851072671134688,-0.1725841439699468,0.11541479489007851,0.33034119690026764,-0.31110147222460577,2,left
9.98,0.11693148086186757,0.9755907791397265,-0.07587756507458848,-1.0017942505246797,0.17597254505667143,-0.17998238507805076,0.11341027837759475,0.32795171507039755,-0.30055207777499937,2,left
9.981,0.11979905882499142,0.9754786226621492,-0.0758282886416077,-1.033234233746888,0.17353285074925792,-0.18722413914106134,0.11136533272335464,0.32550674176487543,-0.2900386332733326,2,left
9.985,0.12273640011048516,0.9753481050141912,-0.07577313632310728,-1.0638830090168543,0.171196835872348,-0.19430689352296868,0.10928153096929599,0.32300988569076255,-0.279566155319146,2,left
9.986,0.12573977093765237,0.9751993091139523,-0.07571248883054764,-1.0937172614001691,0.168969252516727,-0.20122846909927317,0.10716045598077845,0.3204647415746078,-0.26913961951797877,2,left
9.99,0.1288053845944636,0.9750323883245258,-0.07564673148587214,-1.122714334016953,0.16685440403217083,-0.2079870181026976,0.10500369927498601,0.3178748859654887,-0.2587639585956342,2,left
9.991,0.1319294055908476,0.974847566864637,-0.0755762548595079,-1.1508522586996721,0.1648561375819016,-0.21458102102114424,0.10281285985005828,0.31524387322413,-0.24844406033117739,2,left
9.995,0.13510795388640093,0.9746451400830282,-0.07550145541357142,-1.1781097852768994,0.16297783799366253,-0.22100928256777655,0.10058954300885996,0.31257523169079615,-0.23818476527872276,2,left
9.996,0.13833710919132342,0.9744254746193352,-0.0754227361362883,-1.204466409566266,0.1612224229013446,-0.22727092674263893,0.09833535917119697,0.30987246002452484,-0.22799086424821657,2,left
10.001,0.14161291533848921,0.9741890084712057,-0.07534050714287713,-1.229902400157398,0.15959233917143173,-0.23336539100475331,0.09605192266818846,0.3071390237061515,-0.21786709551557712,2,left
10.002,0.1449313847237788,0.9739362509830573,-0.07525518621795545,-1.2543988240630923,0.15808956060887538,-0.2392924195731585,0.09374085051241124,0.3043783516974656,-0.20781814173273128,2,left
10.005,0.14828850281136202,0.9736677827677942,-0.07516719928638708,-1.2779375713144094,0.1567155869373605,-0.2450520558748783,0.09140376113734448,0.30159383324874195,-0.1978486265082738,2,left
10.006,0.15168023269869235,0.9733842555705762,-0.07507698081255568,-1.3005013785727084,0.15547144404928448,-0.2506446341573263,0.08904227309955864,0.2987888148468027,-0.18796311062967602,2,left
10.01,0.155102519731288,0.9730863920833369,-0.07498497413137939,-1.3220738518289599,0.1543576855211353,-0.25607077028217357,0.08665800373701285,0.2959665972956854,-0.17816608789818575,2,left
10.011000000000001,0.15855129615151528,0.9727749857182495,-0.07489163170929351,-1.3426394882579193,0.1533743953903239,-0.2613313517172263,0.08425256777675036,0.2931304329219263,-0.1684619805477889,2,left
10.012,0.16202248576185257,0.972450900346257,-0.07479741532930059,-1.362183697291946,0.15252119218989812,-0.2664275267423807,0.08182757588827742,0.29028352289874537,-0.15885513423579659,2,left
10.015,0.16551200858389595,0.972115070003796,-0.0747027961954166,-1.380692820976405,0.15179723423793837,-0.27136069288524434,0.07938463319417419,0.2874290146950653,-0.1493498126726387,2,left
10.016,0.1690157854980887,0.9717684985679059,-0.07460825495446433,-1.3981541536657023,0.15120122617881013,-0.27613248460153966,0.0769253377770171,0.28456999967630187,-0.13995019210228582,2,left
10.02,0.17252974285081943,0.9714122593968524,-0.07451428163305444,-1.4145559610976444,0.15073142676660226,-0.28074476023159334,0.07445127923696471,0.2817095108955254,-0.13066035592476394,2,left
10.021,0.17604981701414896,0.9710474949303003,-0.07442137548597788,-1.429887498788741,0.15038565784536215,-0.28519958834705866,0.07196403733897883,0.2788505211018799,-0.121484289672754,2,left
10.022,0.17957195888331604,0.9706754162406962,-0.0743300447522692,-1.4441390295242642,0.15016131441614586,-0.28949923375151054,0.06946518076101371,0.2759959409720833,-0.11242587641099887,2,left
10.024,0.18309213829860002,0.9702973025255258,-0.07424080631715507,-1.4573018396217337,0.15005537564517393,-0.29364614348140444,0.06695626593913538,0.2731486175591363,-0.10348889254779126,2,left
10.025,0.18660634837754042,0.9699145005284033,-0.07415418527928522,-1.469368253735527,0.1500644167038279,-0.2976429330701295,0.0644388360024291,0.27031133295003457,-0.09467700403219105,2,left
10.03,0.19011060974191574,0.9695284238774282,-0.0740707144208391,-1.4803316481330109,0.15018462139652997,-0.30149237318748423,0.06191441979051986,0.26748680312428863,-0.08599376291095719,2,left
10.03,0.19360097462439607,0.9691405523325342,-0.0739909335743326,-1.4901864624615644,0.15041179556897655,-0.30519737668315483,0.059384530946501875,0.26467767700507755,-0.07744260421952905,2,left
10.033999999999999,0.19707353084232412,0.9687524309374791,-0.07391538887723634,-1.4989282100411487,0.15074138129674317,-0.30876098604568414,0.05685066707804818,0.261886535694893,-0.0690268431817503,2,left
10.035,0.200524405629341,0.9683656690752789,-0.0738446319054141,-1.5065534867139039,0.1511684718545972,-0.3121863612879956,0.05431430897945202,0.2591158918875636,-0.06074967269339824,2,left
10.039,0.20394976931924658,0.9679819394286147,-0.07377921867830373,-1.513059978279073,0.1516878274671614,-0.31547676827012255,0.05177691990733519,0.2563681894485968,-0.05261416106496038,2,left
10.04,0.20734583888027353,0.9676029768492787,-0.07371970853168816,-1.5184464665383584,0.1522938918418642,-0.31863556746938665,0.04923994490274765,0.2536458031558241,-0.04462324999948906,2,left
10.046,0.21070888130038123,0.9672305771428361,-0.07366666285722598,-1.5227128339736105,0.15298080948539236,-0.3216662032078732,0.046704810152375084,0.25095103859239687,-0.036779752781762584,2,left
10.046,0.21403521682379456,0.966866595776105,-0.07362064371132891,-1.5258600670755433,0.1537424438051263,-0.3245721933466624,0.044172922381568475,0.24828613218424317,-0.02908635265538801,2,left
10.049,0.21732122203641202,0.9665129465155806,-0.0735822122994512,-1.527890258338942,0.15457239599728637,-0.3273571194558987,0.04164566827191063,0.2456532513741705,-0.021545601364895833,2,left
10.05,0.2205633327947449,0.9661716000044729,-0.07355192734516006,-1.528806606936626,0.15546402472375012,-0.33002461746941225,0.03912441389603982,0.2430544949248784,-0.014159917840300207,2,left
10.052999999999999,0.22375804699125482,0.9658445822841772,-0.0735303433555357,-1.5286134180812108,0.15641046657971505,-0.3325783688322474,0.03661050416246026,0.24049189334322932,-0.006931587002029014,2,left
10.054,0.22690192714899934,0.965533973262434,-0.07351800879485265,-1.5273161010805112,0.15740465735457623,-0.33502209214910766,0.03410526226308211,0.23796740941821862,0.0001372413354335247,2,left
10.059,0.2299916028402142,0.9652419051257465,-0.07351546417786695,-1.5249211660892232,0.15843935408856608,-0.337359535341387,0.03160998911625105,0.23548293886518326,0.007044553482403904,2,left
10.059,0.23302377292678925,0.964970560688651,-0.07352324009298085,-1.521436219556344,0.1595071579278594,-0.3395944683201326,0.029125962798048518,0.23304031106889117,0.013788472836116504,2,left
10.062999999999999,0.2359952076258992,0.9647221716669101,-0.07354185516368984,-1.5168699583646164,0.16060053778098468,-0.34173067618196673,0.026654437954668462,0.23064128991826321,0.020367260806403362,2,left
10.064,0.23890275041075767,0.9644990168558619,-0.07357181395487233,-1.5112321626551346,0.16171185477949754,-0.3437719529346904,0.024196645188705134,0.22828757472559497,0.02677931772477541,2,left
10.068,0.24174331976263563,0.9643034201912203,-0.07361360483106927,-1.504533687327118,0.16283338754596816,-0.3457220957589986,0.021753790412218713,0.22598080122326447,0.03302318375627488,2,left
10.068999999999999,0.2445139107946989,0.964137748669399,-0.07366769777780068,-1.4967864521997567,0.16395735827240684,-0.3475848998124508,0.019327054159481293,0.22372254263103827,0.03909753983299455,2,left
10.074,0.2472115967716309,0.9640044101073348,-0.07373454220217902,-1.4880034308199566,0.16507595961230395,-0.34936415358156914,0.016917590852345336,0.22151431078721762,0.045001208627680825,2,left
10.075,0.24983353055194404,0.9639058507263979,-0.07381456473291473,-1.4781986378967646,0.16618138238948885,-0.3510636347876755,0.014526528011219404,0.2193575573370012,0.05073315558535478,2,left
10.079,0.2523769459812203,0.9638445525500504,-0.07390816704164486,-1.4673871153402513,0.16726584412702056,-0.35268710685182597,0.012154965404682319,0.21725367497158077,0.05629249003039859,2,left
10.08,0.25483915926338935,0.9638230306092657,-0.07401572370862061,-1.455584916879645,0.16832161839930615,-0.3542383159239629,0.009803974134169459,0.21520399871227036,0.06167846635926904,2,left
10.08,0.2572175703337656,0.9638438299530488,-0.07413758015597492,-1.4428090912325846,0.1693410650106061,-0.35572098848117417,0.0074745956669827526,0.2132098072373284,0.06689048529452767,2,left
10.084,0.259509664253003,0.9639095224642353,-0.0742740506695105,-1.4290776637944664,0.1703166610030253,-0.3571388294997322,0.005167840861109133,0.2112723242550591,0.0719280951142192,2,left
10.084,0.26171301263740315,0.9640227034834437,-0.07442541652655406,-1.4144096168140197,0.17124103249700598,-0.3584955212053762,0.0028846890421562552,0.20939271993014552,0.07679099273615346,2,left
10.087,0.2638252751387816,0.9641859882466715,-0.07459192424540843,-1.3988248680184456,0.17210698736723515,-0.3597947224061062,0.0006260871760112932,0.20757211236711645,0.08147902457012506,2,left
10.088,0.2658442009844982,0.9644020081448361,-0.07477378397064681,-1.3823442476792347,0.1729075487212125,-0.3610400684005574,-0.0016070508492836884,0.20581156914923496,0.08599218711176723,2,left
10.089,0.2677676305843485,0.9646734068161822,-0.07497116800687603,-1.3649894742596735,0.17363598896987145,-0.36223517139979805,-0.003813844835643593,0.204112108928053,0.09033062728521364,2,left
10.093,0.2695934972069728,0.9650028360836759,-0.0751842095125388,-1.3467831290570942,0.17428586395961,-0.3633836213011303,-0.005993448787525785,0.2024747030584047,0.09449464254803529,2,left
10.094,0.2713198287242967,0.9653929517499102,-0.07541300136555333,-1.327748630402933,0.1748510464571947,-0.364488986597266,-0.008145051331402527,0.20090027727378262,0.09848468077141814,2,left
10.097000000000001,0.272944749417379,0.9658464092636406,-0.07565759521328391,-1.307910207828565,0.17532575845649984,-0.36555481525915945,-0.01026787604845807,0.19938971339721706,0.10230133990804532,2,left
10.097999999999999,0.27446648183226774,0.9663658592743223,-0.07591800071868539,-1.2872928763277753,0.17570460209568858,-0.36658463552973997,-0.012361181726770074,0.19794385108295662,0.1059453674596469,2,left
10.103,0.2758833486721152,0.9669539430923277,-0.07619418501183865,-1.2659224106917522,0.17598258915090714,-0.3675819566207162,-0.014424262539154669,0.19656348958442907,0.10941765975568081,2,left
10.104,0.27719377471111356,0.9676132880733662,-0.07648607235224801,-1.2438253198596707,0.17615516910784287,-0.36855026931552226,-0.01645644815277186,0.19524938954414492,0.11271926105411088,2,left
10.107999999999999,0.2783962887146833,0.9683465029463919,-0.0767935440019661,-1.22102882122569,0.17621825581222506,-0.36949304648137105,-0.018457103776503263,0.1940022748013914,0.11585136247475222,2,left
10.109,0.2794895253485364,0.9691561731035719,-0.07711643830228714,-1.197560814841032,0.1761682527000562,-0.37041374349328776,-0.020425630152027436,0.19282283421375385,0.11881530077516092,2,left
10.113,0.2804722270578455,0.9700448558688572,-0.07745455093769998,-1.1734498574477217,0.17600207660806136,-0.3713157985729119,-0.02236146349442932,0.19171172348869034,0.12161255697855569,2,left
10.113999999999999,0.28134324589707066,0.9710150757606181,-0.07780763536029812,-1.1487251362785573,0.17571718016452897,-0.37220263304478524,-0.02426407538808989,0.19066956702157872,0.12424475486277163,2,left
10.117,0.2821015452899657,0.9720693197643543,-0.07817540333802596,-1.1234164425559592,0.17531157276039253,-0.37307765151277694,-0.026132972643509864,0.1896969597368491,0.12671365931876408,2,left
10.118,0.2827462016970147,0.9732100326323958,-0.07855752558561553,-1.0975541446204917,0.17478384010007095,-0.37394424195924414,-0.027967697120627376,0.18879446892901128,0.1290211745867019,2,left
10.124,0.2832764061646612,0.9744396122278884,-0.0789536324391569,-1.0711691606180977,0.17413316233124412,-0.3748057757694841,-0.02976782552409436,0.18796263610058467,0.13116934237721548,2,left
10.125,0.2836914657285652,0.9757604049298512,-0.07936331453975427,-1.0442929306734046,0.17335933075239576,-0.375665607683998,-0.03153296917587945,0.1872019787941378,0.1331603398848961,2,left
10.127,0.28399080464225424,0.9771747011145357,-0.07978612349609683,-1.0169573884748726,0.17246276309660596,-0.3765270756810638,-0.03326277377046714,0.186512992415846,0.13499647770067988,2,left
10.128,0.28417396540258105,0.9786847307265203,-0.08022157250287845,-0.9891949321960579,0.1714445173897236,-0.37739350079210005,-0.03495691911782365,0.18589615204817858,0.13668019762929215,2,left
10.131,0.2842406095439622,0.980292658951612,-0.0806691369034901,-0.961038394675849,0.1703063043806965,-0.37826818685229774,-0.03661511887919963,0.18535191424953157,0.13821407041747683,2,left
10.132,0.28419051817466,0.9820005820020321,-0.08112825469669921,-0.9325210127792198,0.16905049854148582,-0.37915442018900214,-0.038237120300738135,0.1848807188388276,0.13960079339829104,2,left
10.137,0.284023592230906,0.9838105230214075,-0.0815983269920221,-0.9036763958588158,0.16768014763364364,-0.3800554692503413,-0.039822703949754144,0.1844829906633122,0.1408431880563069,2,left
10.138,0.28373985242911737,0.9857244281124536,-0.08207871841649243,-0.874538493236557,0.16619898083828874,-0.38097458417662045,-0.04137168345844868,0.1841591413479839,0.14194419751813306,2,left
10.142000000000001,0.283339438903733,0.9877441624846303,-0.08256875747137377,-0.8451415606234105,0.16461141544587982,-0.3819149963170354,-0.0428839052797166,0.18390957102530509,0.1429068839722454,2,left
10.142999999999999,0.2828226105273655,0.9898715067142985,-0.08306773683622869,-0.8155201253945396,0.16292256210185727,-0.38287991769430046,-0.044359248459602554,0.18373467004405242,0.14373442602170308,2,left
10.147,0.28218974391824525,0.9921081531077469,-0.08357491362170974,-0.7857089506361992,0.1611382286039082,-0.3838725404198381,-0.04579762443085474,0.18363482065637707,0.1444301159729184,2,left
10.148,0.2814413321466929,0.9944557021580749,-0.08408950958049503,-0.7557429978800035,0.15926492224630504,-0.38489603606223893,-0.04719897683192024,0.18361039868235865,0.14499735706325367,2,left
10.148,0.28057798315861854,0.9969156590889899,-0.08461071129436792,-0.7256573884395446,0.1573098507064785,-0.385953554971771,-0.04856328135393686,0.1836617751510803,0.1454396606313821,2,left
10.151,0.27960041793817575,0.9994894304810013,-0.08513767035964709,-0.6954873632637972,0.15528092146871308,-0.3870482255637966,-0.04989054560975399,0.18378931791511033,0.14576064324173732,2,left
10.152000000000001,0.2785094684328246,1.0021783209777508,-0.08566950359110748,-0.6652682412213041,0.15318673977959935,-0.3881831535640436,-0.05118080900375944,0.18399339323125222,0.1459640237879842,2,left
10.157,0.27730607526660683,1.0049835300712096,-0.08620529325977082,-0.6350353757904244,0.15103660513770037,-0.38936142121403194,-0.052434142572766705,0.1842743672982843,0.1460536206078517,2,left
10.158,0.27599128527306244,1.00790614896399,-0.0867440873767695,-0.6048241104388817,0.14884050635996526,-0.3905860864113383,-0.05365064877652714,0.18463260774498802,0.14603334863355294,2,left
10.158999999999999,0.2745662488828581,1.0109471575067537,-0.08728490003494975,-0.5746697335304478,0.14660911533975046,-0.3918601817168003,-0.05483046123147404,0.18506848506622248,0.14590721658770395,2,left
10.162,0.2730322174034698,1.0141074212087777,-0.087826711823163,-0.5446074339047465,0.14435377965143598,-0.39318671313716014,-0.05597374438961635,0.18558237400738298,0.14567932422656008,2,left
10.162,0.2713905402350487,1.0173876883191453,-0.08836847033734688,-0.5146722579680395,0.1420865141162077,-0.39456865861550633,-0.05708069316607697,0.18617465489827298,0.1453538596305201,2,left
10.166,0.2696426620751194,1.0207885869760935,-0.08890909082558243,-0.4848990685782706,0.13981999137096268,-0.3960089662047116,-0.058151532518665075,0.1868457149376429,0.1449350965415447,2,left
10.167,0.26779012016751785,1.0243106224247922,-0.08944745701394534,-0.4553225056997217,0.1375675314419412,-0.3975105519229408,-0.059186516982767445,0.1875959494298719,0.14442739174684374,2,left
10.171,0.26583454164697845,1.02795417430861,-0.08998242215764342,-0.42597694874136033,0.13534309031659997,-0.3990762972952049,-0.06018593016473924,0.18842576297549618,0.14383518250790642,2,left
10.172,0.26377764102322326,1.0317194940436907,-0.09051281034520947,-0.39689648049342174,0.1331612475072438,-0.4007090465851038,-0.06115008419687086,0.18933557061751174,0.14316298403368072,2,left
10.175,0.2616212178392214,1.0356067022900657,-0.09103741805923238,-0.36811485257733545,0.1310371925999754,-0.40241160372108015,-0.06207931915690487,0.19032579894560728,0.1424153869964534,2,left
10.176,0.25936715452801,1.0396157865342164,-0.09155501597553674,-0.33966545232476597,0.12898671078260399,-0.40418672892168606,-0.06297400245497463,0.1913968871607131,0.1415970550887387,2,left
10.181000000000001,0.25701741448194915,1.04374659879761,-0.09206435097007634,-0.3115812710023021,0.1270261673452782,-0.40603713502456035,-0.06383452819073523,0.19254928810247984,0.14071272261925474,2,left
10.182,0.25457404033849423,1.0479988534833409,-0.09256414829973837,-0.28389487329918295,0.1251724911477748,-0.40796548352401335,-0.06466131648335682,0.19378346924253237,0.13976719214585012,2,left
10.186,0.2520391524773797,1.0523721253702851,-0.09305311392671814,-0.256638367996405,0.1234431570475886,-0.4099743803223235,-0.06545481277695145,0.19509991364657728,0.13876533214304002,2,left
10.187000000000001,0.24941494771513753,1.0568658477626518,-0.09352993696191285,-0.22984337973660182,0.12185616728322733,-0.4120663712000681,-0.06621548712390636,0.1964991209086754,0.1377120747016214,2,left
10.19,0.24670369817472507,1.0614793108016571,-0.09399329220859573,-0.20354102181523015,0.12043003180742438,-0.4142439370110337,-0.06694383344849988,0.19798160806122622,0.13661241325766205,2,left
10.191,0.24390775030163567,1.066211659943835,-0.0944418427933455,-0.17776186991482926,0.1191837475653403,-0.4165094886074816,-0.0676403687930804,0.19954791046444612,0.1354714003479956,2,left
10.195,0.24102952399409666,1.0710618946073458,-0.09487424287534181,-0.1525359367054466,0.11813677671323346,-0.41886536150178455,-0.06830563254899467,0.2011985826793621,0.13429414538920775,2,left
10.196,0.23807151181446992,1.0760288669845195,-0.09528914042453274,-0.12789264723573512,0.11730902377354457,-0.4213138102706952,-0.06894018567435904,0.20293419932858026,0.13308581247696555,2,left
10.203,0.23503627825155593,1.0811112810167585,-0.09568518005354036,-0.10386081504073079,0.11672081172285619,-0.42385700270875903,-0.06954460990067547,0.20475535594933017,0.13185161820242275,2,left
10.204,0.23192645900844555,1.0863076915272798,-0.09606100588074504,-0.08046861889390605,0.11639285700976255,-0.4264970137376446,-0.07011950693020494,0.20666266984352816,0.1305968294823305,2,left
10.205,0.22874476029748028,1.0916165035070142,-0.09641526439599554,-0.05774358013276781,0.11634624350031592,-0.42923581907843056,-0.07066549762592222,0.2086567809298466,0.12932676139939375,2,left
10.206,0.22549395813222972,1.0970359715482427,-0.09674660729764045,-0.035712540489023496,0.11660239534940366,-0.4320752886941582,-0.07118322119578978,0.21073835260302293,0.12804677504933842,2,left
10.21,0.22217689761435838,1.1025641994197746,-0.09705369427058168,-0.014401640356175012,0.11718304879715993,-0.43501718001023915,-0.07167333437300356,0.21290807260588784,0.12676227539109688,2,left
10.21,0.2187964922186586,1.1081991397777868,-0.09733519567960848,0.0061637025706845865,0.11811022289032397,-0.4380631309205896,-0.07213651059378066,0.21516665391984402,0.12547870909647435,2,left
10.215,0.21535572308259635,1.113938594007654,-0.09758979515968617,0.025958814346104735,0.11940618912932748,-0.4412146525876513,-0.0725734391741774,0.21751483567977523,0.12420156239563088,2,left
10.216000000000001,0.21185763830924562,1.119780212193551,-0.0978161920923012,0.044959785577707065,0.12109344004282686,-0.4444731220447553,-0.07298482448787262,0.21995338411135779,0.12293635891470049,2,left
10.216000000000001,0.208305352293747,1.1257214932151929,-0.09801310396092511,0.0631434920408368,0.12319465669239187,-0.44783977460958135,-0.07337138514939899,0.2224830934476823,0.12168865750187226,2,left
10.22,0.2047020450822648,1.1317597849753223,-0.09817926857995231,0.08048761516125039,0.12573267511112177,-0.45131569611776867,-0.0737338532119569,0.22510478670797918,0.12046405003827594,2,left
10.221,0.20105096177270584,1.1378922847650066,-0.09831344619546545,0.09697066242037435,0.12873045168108502,-0.45490181498604276,-0.07407297339149746,0.22781931618018295,0.11926815923004995,2,left
10.225,0.19735541197205325,1.144116039773631,-0.0984144214668301,0.1125719877066282,0.132211027473865,-0.4585988941222698,-0.07438950232606457,0.23062756349065017,0.1181066363780191,2,left
10.226,0.19361876933175987,1.1504279477484527,-0.0984810053508516,0.12727181149041486,0.13619749167073386,-0.4624075227388567,-0.07468420787458958,0.23353043921898325,0.11698515912147635,2,left
10.226,0.18984447118489559,1.1568247578083986,-0.09851203691527456,0.14105124043964654,0.14071294434407067,-0.4663281081958763,-0.07495786845663983,0.23652888205749564,0.11590942915264527,2,left
10.229,0.18603601831059655,1.163303071417589,-0.09850638510333266,0.15389228594666382,0.14578045897401198,-0.470360868039309,-0.07521127243403189,0.23962385752338858,0.11488516989849869,2,left
10.23,0.1821969748578471,1.169859343523038,-0.09846295046133775,0.1657778811782971,0.1514230449847907,-0.4745058223614193,-0.07544521753515782,0.2428163562319799,0.11391812416672414,2,left
10.234,0.17833096846727015,1.1764898838591584,-0.09838066683192245,0.17669189651644074,0.15766361042296673,-0.47876278654096016,-0.07566051032281235,0.24610739173960142,0.11301405175275807,2,left
10.235,0.17444169062883308,1.1831908584219006,-0.09825850301102308,0.18661915339729643,0.16452492481035375,-0.48313136438252974,-0.07585796570625064,0.24949799796505728,0.11217872700495886,2,left
10.24,0.17053289730191148,1.189958291117224,-0.09809546436961177,0.19554543658339457,0.17202958218790085,-0.48761094166698643,-0.07603840649815027,0.2529892261988174,0.111417936345153,2,left
10.24,0.16660840980242997,1.1967880655899663,-0.0978905944472555,0.2034575048997146,0.18019996436850555,-0.4922006801251517,-0.076202663017098,0.25658214170940213,0.11073747574196956,2,left
10.244000000000002,0.1626721159342185,1.203675927239741,-0.09764297652787242,0.21034310046239188,0.18905820441851776,-0.496899511847348,-0.07635157273616992,0.2602778199567004,0.11014314813457587,2,left
10.245,0.1587279713142355,1.210617485431464,-0.09735173520831991,0.21619095642562552,0.1986261503895414,-0.5017061341416387,-0.07648597997812563,0.2640773424222539,0.10964076080464141,2,left
10.25,0.15478000081673446,1.2176082159097028,-0.09701603797030174,0.22099080326948947,0.20892532932405322,-0.5066190048539544,-0.07660673565768956,0.2679817920668299,0.10923612269458742,2,left
10.251,0.15083230004054882,1.2246434634274972,-0.09663509676539819,0.22473337364840373,0.2199769115603329,-0.511636338163599,-0.07671469707134952,0.27199224842590336,0.10893504167042756,2,left
10.254000000000001,0.1468890366881125,1.2317184446011886,-0.09620816962018643,0.22741040581704267,0.23180167536423682,-0.5167561008679415,-0.07681072773506005,0.27610978235396333,0.10874332172776899,2,left
10.255,0.142954451736882,1.2388282510024784,-0.09573456226548069,0.22901464564744903,0.24441997191744835,-0.5219760091704038,-0.07689569727019958,0.28033545042886504,0.10866676013982372,2,left
10.259,0.1390328602857302,1.2459678524967492,-0.0952136297947236,0.22953984724808746,0.25785169069399705,-0.5272935259861514,-0.0769704813380933,0.28467028902774905,0.1087111445465779,2,left
10.259,0.1351286519719122,1.2531321008330785,-0.09464477836044054,0.22898077219251212,0.2721162252590606,-0.5327058587801934,-0.07703596162337942,0.28911530808635905,0.10888224998458101,2,left
10.263,0.13124629087618697,1.260315733487765,-0.09402746691967567,0.22733318736224373,0.2872324395263409,-0.5382099579528765,-0.07709302586646502,0.29367148455389963,0.10918583585714708,2,left
10.264000000000001,0.12739031485902239,1.2675133777607985,-0.09336120903907669,0.2245938614053532,0.30321863451264214,-0.5438025157880483,-0.07714256794528788,0.29833975555588915,0.10962764284510816,2,left
10.269,0.12356533429365579,1.27471955512326,-0.0926455747711351,0.22076055980913678,0.32009251563066915,-0.5494799659794275,-0.07718548800657467,0.3031210112777792,0.11021338975862388,2,left
10.27,0.1197760301780395,1.281928685812361,-0.09188019261381729,0.21583203858214295,0.33787116056351135,-0.5552384837509882,-0.0772226926467611,0.30801608758243093,0.11094877033093166,2,left
10.274000000000001,0.11602715161580684,1.2891350936695287,-0.09106475155897394,0.2098080365376764,0.3565709877667732,-0.5610739865874146,-0.07725509514271844,0.3130257583748615,0.11183944995531904,2,left
10.275,0.11232351265774071,1.2963330112159739,-0.09019900321590436,0.20268926616776484,0.3762077256468633,-0.5669821355909296,-0.07728361573241156,0.3181507277279971,0.1128910623670131,2,left
10.279000000000002,0.10866998849272516,1.3035165849601709,-0.08928276397270743,0.19447740309342937,0.39679638246654925,-0.5729583374810293,-0.07730918194559738,0.32339162178349684,0.11410920627211171,2,left
10.28,0.10507151097348476,1.3106798809335056,-0.08831591714482348,0.18517507407395495,0.41835121703153405,-0.5789977472538789,-0.07733272898465882,0.32874898044204043,0.11549944192612749,2,left
10.283,0.10153306345991094,1.3178168904542495,-0.0872984150652152,0.17478584355471358,0.44088571021449513,-0.5850952715183335,-0.07735520015565818,0.3342232488578034,0.11706728766517736,2,left
10.284,0.09805967496319291,1.3249215361248228,-0.08623028108656089,0.1633141987299564,0.464412537375764,-0.5912455725257396,-0.07737754734822662,0.33981476875665695,0.11881821639212636,2,left
10.284,0.09465641357749996,1.331987678071805,-0.08511161147942714,0.15076553309385823,0.4889435417425964,-0.5974430729108566,-0.07740073155560637,0.3455237696203608,0.12075765201447344,2,left
10.288,0.09132837919217568,1.3390091204420362,-0.08394257721480819,0.13714612844997937,0.5144897088117955,-0.6036819611614038,-0.07742572341303035,0.35135035981967183,0.12289096582045096,2,left
10.292,0.08808069548781763,1.3459796181707722,-0.08272342561512606,0.12246313534620087,0.5410611418433,-0.6099561978338887,-0.07745350372532918,0.3572945178020248,0.12522347277431997,2,left
10.293,0.08491850123524419,1.3528928840375678,-0.08145448184904498,0.10672455195705573,0.5686670384891043,-0.6162595225220575,-0.07748506396195222,0.363356083417381,0.1277604277184003,2,left
10.294,0.08184694093154553,1.359742596022487,-0.08013615023925826,0.08993920172209033,0.5973156684741481,-0.6225854615271749,-0.07752140671072348,0.36953474942586073,0.13050702148075743,2,left
10.295,0.07887115481654282,1.3665224049716183,-0.07876891535242815,0.0721167105674544,0.6270143520136032,-0.6289273360763834,-0.07756354608895571,0.3758300532087152,0.1334683768940554,2,left
10.298,0.07599626832330714,1.373225942577213,-0.07735334284214328,0.053267484824673604,0.6577694385233099,-0.6352782708782285,-0.07761250811201541,0.38224136870005077,0.1366495447328745,2,left
10.299000000000001,0.0732273810364803,1.3798468296721993,-0.07589008001677881,0.033402690667766625,0.6895862853137532,-0.641631202861748,-0.07766933101944534,0.3887678985570538,0.14005549957739538,2,left
10.302999999999999,0.07056955525317529,1.3863786848314332,-0.07437985611146032,0.01253423536527441,0.7224692361961389,-0.6479788900486263,-0.07773506555876793,0.3954086665867992,0.1436911356119678,2,left
10.304,0.06802780424914992,1.3928151332643195,-0.07282348225825706,-0.009325249648965944,0.7564216000628039,-0.6543139205651923,-0.07781077522711227,0.40216251044805973,0.1475612623677127,2,left
10.307,0.06560708034728623,1.39914981597598,-0.07122185115837004,-0.03216242394334315,0.7914456295333694,-0.6606287218124969,-0.07789753647083045,0.40902807464686175,0.15167060041895325,2,left
10.308,0.06331226287420944,1.4053763991669934,-0.06957593645368843,-0.055963251554211904,0.8275424997611109,-0.6669155698126868,-0.07799643884329399,0.41600380384486346,0.15602377704392917,2,left
10.314,0.061148146079874906,1.4114885838346138,-0.06788679177795678,-0.08071301281261903,0.8647122874970843,-0.673166598749861,-0.07810858512109066,0.423087936499954,0.16062532186092213,2,left
10.315,0.05911942708709422,1.41748011553104,-0.0661555494568975,-0.10639631459759036,0.9029539505126252,-0.6793738107235289,-0.0782350913788728,0.4302784988587931,0.16547966245160753,2,left
10.318,0.05723069393490345,1.4233447942277595,-0.06438341883706772,-0.13299709908432025,0.9422653074839201,-0.6855290857327192,-0.07837708702314401,0.4375732993213264,0.17059111998414794,2,left
10.318,0.05548641377964811,1.4290764842311217,-0.06257168425154148,-0.16049865105833,0.9826430184454232,-0.6916241919086749,-0.07853571478530859,0.44496992319762385,0.17596390484925653,2,left
10.324000000000002,0.05389092131636007,1.4346691240942293,-0.06072170265287066,-0.18888360386934167,1.024082565921974,-0.6976507960139517,-0.0787121306743496,0.45246572787769235,0.1816021123231851,2,left
10.325,0.05244840747927436,1.4401167364734557,-0.058834900941160825,-0.21813394410124853,1.0665782368525407,-0.7036004742255844,-0.07890750388954595,0.4600578384352139,0.1875097182723299,2,left
10.327,0.051162908477273845,1.445413437881843,-0.05691277299355124,-0.24823101503714914,1.1101231054215717,-0.7094647232198101,-0.07912301669368677,0.467743143686452,0.193690574914898,2,left
10.328,0.05003829521956161,1.4505534482934423,-0.05495687638015949,-0.2791555190009489,1.1547090169169867,-0.7152349715756476,-0.07935986424729218,0.4755182927258529,0.20014840665584063,2,left
10.332,0.049078263186990025,1.4555311005512432,-0.05296882874139086,-0.3108875186595171,1.2003265727368768,-0.7209025915144015,-0.07961925440440454,0.4833796919601464,0.20688680601203224,2,left
10.333,0.04828632280170349,1.4603408495281236,-0.05095030380156402,-0.3434064373718188,1.2469651166699836,-0.7264589109919228,-0.07990240747057151,0.49132350266301583,0.21390922964545947,2,left
10.337,0.04766579033971649,1.4649772809878445,-0.048903027002083425,-0.3766910586738166,1.2946127225780208,-0.7318952261601815,-0.08021055592370428,0.4993456390726652,0.2212189945229791,2,left
10.338,0.04721977941854458,1.469435120094023,-0.04682877075362186,-0.4107195249902548,1.3432561836108665,-0.7372028142144164,-0.08054494409855857,0.5074417670548602,0.2288192742220108,2,left
10.342,0.04695119307836216,1.4737092395203526,-0.04472934932463016,-0.4454693356667002,1.3928810030885737,-0.742372946641802,-0.08090682783565444,0.5156073033542534,0.23671309540234417,2,left
