time,gFx,gFy,gFz,ax,ay,az,wx,wy,wz,subject_number,foot
11.208,-0.1662237631594813,0.9773770264719387,-0.029979847535475276,1.7664690976703543,-0.13069697092977775,-0.25921876259110094,-0.1571340329093243,-0.0801410740819596,-0.25114594336583423,1,right
11.209000000000001,-0.17119505636700277,0.9784186135711153,-0.029846296376832025,1.774603068553084,-0.1276181759652127,-0.25616639498029464,-0.15865001680462074,-0.07988445841185583,-0.2614006793178488,1,right
11.214,-0.1761665624141706,0.9795082708918078,-0.029718973300286215,1.7819237654929894,-0.12437168232453182,-0.25314945687671914,-0.16016646913001903,-0.07974285200869762,-0.27148181212397887,1,right
11.215,-0.1811325347723093,0.9806482275024201,-0.029597592577874286,1.7884183678854952,-0.12096390847650199,-0.2501742683154117,-0.16168367042718182,-0.07971849023975397,-0.2813834798424853,1,right
11.218,-0.18608718054661652,0.9818407266908327,-0.02948187493916358,1.7940745488621601,-0.11740118731437812,-0.24724703025616313,-0.1632018956762886,-0.07981353489708747,-0.2910998936118224,1,right
11.219000000000001,-0.19102466969905252,0.9830880214290507,-0.029371548310265425,1.798880504783573,-0.11368974451000423,-0.24437382188689832,-0.16472141389508427,-0.08003007087042664,-0.3006253421045804,1,right
11.225,-0.19593914411724372,0.9843923698739384,-0.029266348525827362,1.8028249847710036,-0.10983567692665505,-0.2415605977262819,-0.1662424877881561,-0.08037010269682136,-0.3099541961654106,1,right
11.225999999999999,-0.200824726418563,0.9857560309065692,-0.029166020033165686,1.8058973202930273,-0.1058449310803972,-0.2388131845171529,-0.16776537345080061,-0.08083555098735845,-0.31908091366083396,1,right
11.229000000000001,-0.20567552839812026,0.9871812597083193,-0.02907031658805925,1.8080874548209085,-0.10172328163932082,-0.23613727790254765,-0.1692903201318465,-0.08142824873156393,-0.32800004456828513,1,right
11.229000000000001,-0.21048565905408487,0.9886703033656777,-0.02897900192816197,1.8093859735640494,-0.0974763099495828,-0.23353843887624154,-0.17081757005980344,-0.08214993748047307,-0.3367062363311784,1,right
11.235999999999999,-0.2152492321502248,0.9902253964885422,-0.0288918504096465,1.8097841332943083,-0.09310938257680976,-0.23102208999992938,-0.1723473583367126,-0.08300226340970902,-0.3451942395062041,1,right
11.237,-0.21996037330338888,0.9918487568202056,-0.028808647599029222,1.8092738922654612,-0.08862762985103224,-0.2285935113793692,-0.1738799129040799,-0.08398677326427659,-0.35345891372846483,1,right
11.238,-0.22461322661321687,0.993542580812319,-0.028729190817530333,1.8078479402315148,-0.08403592440296144,-0.22625783639203562,-0.1754154545852797,-0.0851049101871479,-0.3614952340194513,1,right
11.238,-0.2292019608801611,0.9953090391358393,-0.02865328963743095,1.8054997285650007,-0.07933885967907434,-0.22402004715906498,-0.17695419720882472,-0.08635800943409183,-0.36929829746223014,1,right
11.244000000000002,-0.23372077548226192,0.9971502721004651,-0.0285807663270726,1.8022235004737663,-0.07454072842264284,-0.22188496975452654,-0.1784963478169044,-0.08774729397757845,-0.3768633302675756,1,right
11.244000000000002,-0.23816390599952983,0.9990683849609839,-0.02851145623253262,1.7980143213121558,-0.06964550110752625,-0.21985726914532133,-0.18004210696360415,-0.08927387000297354,-0.3841856952541205,1,right
11.248,-0.24252562968723826,1.0010654430988768,-0.028445208075248488,1.7928681089798173,-0.06465680431124271,-0.21794144385529002,-0.18159166910722604,-0.09093872230062558,-0.3912608997649322,1,right
11.249,-0.2468002709044597,1.0031434670797146,-0.028381884145111565,1.7867816643987209,-0.059577899013544454,-0.2161418203474061,-0.1831452231011413,-0.09274270955783864,-0.3980846040422364,1,right
11.249,-0.2509822065989162,1.0053044275983667,-0.028321360378197283,1.7797527020562784,-0.054411658806442026,-0.2144625471182399,-0.18470295278531343,-0.09468655955783897,-0.40465263006660357,1,right
11.253,-0.25506587193236263,1.0075502403312624,-0.02826352631739256,1.7717798805742695,-0.04916054803051599,-0.21290758851522273,-0.1862650376691271,-0.09677086430684026,-0.41096097079266053,1,right
11.255,-0.2590457661058976,1.0098827607155187,-0.028208284955688882,1.7628628331329985,-0.04382659999790831,-0.21148071836769727,-0.1878316536754469,-0.09899607513519372,-0.4170057995802795,1,right
11.255,-0.26291645842134304,1.012303778671521,-0.02815555245669278,1.7530021973477867,-0.03841139572459864,-0.21018551366730584,-0.18940297390432695,-0.10136249783261046,-0.4227834795459184,1,right
11.259,-0.2666725946008035,1.0148150132846696,-0.02810525773867206,1.7421996440646252,-0.03291604374013936,-0.20902534861374675,-0.1909791693863196,-0.10387028786424667,-0.4282905726315878,1,right
11.26,-0.27030890337724944,1.0174181074641915,-0.028057341905613285,1.730457904666671,-0.027341161396970924,-0.20800338926217485,-0.19256040981606765,-0.10651944569036542,-0.43352384832054597,1,right
11.264000000000001,-0.27382020335425544,1.0201146225976376,-0.028011757520946524,1.7177807967101855,-0.021686857838739745,-0.20712258886467919,-0.19414686426839212,-0.10930981219909376,-0.4384802920016023,1,right
11.265,-0.27720141011115107,1.0229060332183284,-0.02796846774364145,1.7041732478333702,-0.015952718640996066,-0.2063856839185362,-0.19573870190140366,-0.11224106425947925,-0.4431571129978436,1,right
11.269,-0.2804475435064018,1.0257937217043198,-0.027927445369035634,1.6896413179043794,-0.010137792108256884,-0.20579519091830933,-0.19733609265118063,-0.11531271040245565,-0.4475517522748094,1,right
11.27,-0.2835537351111406,1.0287789730351342,-0.027888671832360514,1.6741922193721044,-0.004240577211189653,-0.20535340380927017,-0.19893920792257133,-0.11852408663773358,-0.4516618898423503,1,right
11.272,-0.2865152356885653,1.031862969645522,-0.027852136244279995,1.6578343357806478,0.0017409868525578537,-0.20506239214003022,-0.20054822128069422,-0.12187435241503522,-0.4554854518635974,1,right
11.273,-0.28932742262476024,1.0350467864291515,-0.02781783453083781,1.6405772384057578,0.007809529490589554,-0.20492399991269136,-0.20216330914772476,-0.1253624867384961,-0.45902061748366413,1,right
11.277999999999999,-0.29198580721079204,1.038331385953877,-0.027785768734703654,1.6224317009688625,0.013968255958000504,-0.2049398451292505,-0.20378465150957537,-0.12898728444345725,-0.4622658253898819,1,right
11.277999999999999,-0.29448604167153736,1.0417176139502522,-0.027755946503584324,1.60340971238173,0.02022095302681287,-0.2051113200334266,-0.20541243263709022,-0.13274735264527032,-0.46521978011455034,1,right
11.282,-0.29682392583309797,1.0452061951250704,-0.027728380765373758,1.5835244874722028,0.026571993100048676,-0.20543959204751563,-0.20704684182639554,-0.13664110737013307,-0.4678814580903546,1,right
11.283,-0.2989954133208063,1.0487977293350614,-0.027703089583786877,1.5627904756389057,0.03302633678813983,-0.20592560540432236,-0.20868807416306362,-0.14066677037836575,-0.4702501134677693,1,right
11.288,-0.30099661718808024,1.052492688139868,-0.027680096198382038,1.541223367380312,0.039589533965647204,-0.2065700834746636,-0.21033633131476637,-0.14482236619092617,-0.47232528370293286,1,right
11.289000000000001,-0.3028238148958809,1.0562914117434898,-0.027659429261016784,1.51884009864107,0.046267723326544316,-0.2073735317913886,-0.2119918223571151,-0.14910571933034594,-0.4741067949236373,1,right
11.290999999999999,-0.30447345259359937,1.0601941063273859,-0.0276411232727624,1.4956588529160648,0.05306763045661915,-0.2083362417713137,-0.21365476463740118,-0.15351445178764775,-0.4755947670802358,1,right
11.293,-0.30594214869087377,1.0642008417699131,-0.027625219203499116,1.4716990610502925,0.05999656444186163,-0.20945829513692454,-0.21532538468097276,-0.15804598072717713,-0.4767896188874307,1,right
11.297,-0.30722669674849173,1.0683115497332898,-0.02761176525580856,1.446981398670288,0.06706241303203604,-0.21073956904015367,-0.21700391914500458,-0.16269751644164848,-0.4776920725620583,1,right
11.297,-0.3083240677487432,1.0725260220853852,-0.02760081772617768,1.4215277811805491,0.07427363637898823,-0.21217974189099983,-0.2186906158244378,-0.16746606057006508,-0.47830315836114745,1,right
11.300999999999998,-0.3092314118291447,1.0768439096153921,-0.027592441917787657,1.3953613562561757,0.08163925936960983,-0.2137782998942119,-0.2203857347148902,-0.1723484045915245,-0.4786242189236853,1,right
11.302,-0.30994605957896626,1.0812647210003161,-0.02758671306292971,1.368506493760765,0.08916886257377578,-0.21553454429771776,-0.22208954913735876,-0.17734112860826623,-0.4786569134186849,1,right
11.306,-0.31046552300663377,1.085787821979431,-0.027583717215480585,1.340988773016487,0.0968725718279906,-0.21744759935693397,-0.22380234692956108,-0.18244060043165256,-0.47840322150131276,1,right
11.307,-0.3107874962880433,1.090412434694369,-0.027583552074402978,1.3128349673512285,0.10476104647592367,-0.21951642101954713,-0.22552443170878544,-0.18764297498510193,-0.4778654470780035,1,right
11.311,-0.31090985640168,1.0951376371547814,-0.02758632770045568,1.2840730258457094,0.11284546628748571,-0.22173980633580984,-0.2272561242111452,-0.192944194038309,-0.47704622188065804,1,right
11.312000000000001,-0.31083066374957563,1.0999623627953907,-0.02759216709564968,1.254732052201578,0.12113751707859999,-0.22411640359984542,-0.22899776371215808,-0.19833998628739266,-0.47594850884920276,1,right
11.315999999999999,-0.3105481628572274,1.104885400099244,-0.02760120662890924,1.2248422806496717,0.12964937505435417,-0.22664472322790175,-0.2307497095335985,-0.2038258677959086,-0.4745756053209699,1,right
11.317,-0.3100607832395812,1.1099053922710702,-0.027613596302878518,1.1944350488158768,0.13839368989878217,-0.22932314937993803,-0.23251234263797094,-0.20939714280475089,-0.4729311460248798,1,right
11.318,-0.3093671405084633,1.1150208369513777,-0.027629499859166233,1.1635427674603627,0.147383566635123,-0.2321499523313693,-0.23428606729384854,-0.2150489048832611,-0.4710191058792451,1,right
11.321,-0.308466037777756,1.120230085964748,-0.02764909471777697,1.1321988870043969,0.1566325462810364,-0.2351233016022279,-0.23607131276270737,-0.220776038329366,-0.4688438025941759,1,right
11.322000000000001,-0.3073564674038161,1.1255313450929831,-0.02767257175094909,1.1004378607574532,0.16615458532392316,-0.2382412798514327,-0.2378685349397843,-0.226573219690831,-0.46640989908042274,1,right
11.322000000000001,-0.30603761308605054,1.1309226738577651,-0.02770013490641048,1.0682951048260765,0.1759640340436642,-0.24150189751828008,-0.23967821789965285,-0.23243491931592516,-0.4637224056640902,1,right
11.325999999999999,-0.30450885234210673,1.136401985296502,-0.027732000713621016,1.0358069550353146,0.18607561371813067,-0.24490310806367824,-0.2415008753298853,-0.2383554029067673,-0.4607866821029471,1,right
11.327,-0.30276975936038164,1.1419670457238267,-0.027768397715882437,1.0030106218235144,0.19650439276073256,-0.24844282343003607,-0.2433370518543384,-0.24432873308479966,-0.45760843939768114,1,right
11.331,-0.3008201082217145,1.1476154744858151,-0.027809565866454427,0.9699441444208324,0.20726576184739404,-0.2521189292091149,-0.24518732425126233,-0.25034877098521563,-0.45419374139038704,1,right
11.332,-0.298659876471682,1.1533447437279984,-0.027855755913178258,0.9366463452701725,0.21837540808391726,-0.2559292991375684,-0.2470523025714702,-0.2564091778973368,-0.4505490061418695,1,right
11.335999999999999,-0.29628924901062964,1.1591521782083984,-0.02790722877938856,0.9031567850171995,0.22984928825248035,-0.2598718087743185,-0.2489326311618443,-0.2625034169680861,-0.44668100707864156,1,right
11.337,-0.29370862224893135,1.1650349551924908,-0.027964254938318993,0.8695157180446511,0.24170360116967646,-0.2639443483443202,-0.25082898959949557,-0.26862475498583693,-0.44259687389982366,1,right
11.341,-0.2909186084526597,1.1709901044687712,-0.02802711378594235,0.8357640484553793,0.25395475918804344,-0.2681448347596574,-0.25274209354193505,-0.27476626426203477,-0.43830409323348796,1,right
11.342,-0.287920040183299,1.1770145085219237,-0.028096093043320336,0.8019432864080002,0.2666193588740804,-0.2724712228292905,-0.2546726954986611,-0.28092082462808304,-0.4338105090313509,1,right
11.345999999999998,-0.2847139747169408,1.1831049028960705,-0.028171488246517534,0.7680955047085982,0.2797141508968403,-0.2769215156691507,-0.25662158552961106,-0.2870811255650639,-0.42912432269009754,1,right
11.347000000000001,-0.28130169831811025,1.1892578767743298,-0.028253602390396437,0.7342632955616164,0.29325600916232974,-0.2814937743246437,-0.2585895918759751,-0.2932396684839215,-0.42425409288702276,1,right
11.352,-0.27768473024881585,1.1954698737938605,-0.028342745780167596,0.7004897273828633,0.30726189923013275,-0.2861861266179867,-0.26057758152892,-0.2993887691737725,-0.4192087351170985,1,right
11.353,-0.273864826419411,1.2017371931087522,-0.028439236126417293,0.6668183015774936,0.32174884604991366,-0.29099677523315987,-0.2625864607418238,-0.30552056043602344,-0.4139975209180226,1,right
11.355,-0.26984398262841536,1.2080559907078596,-0.028543398907751368,0.6332929091858642,0.3367339010567373,-0.2959240050516017,-0.26461717549167507,-0.3116269949219722,-0.4086300767692785,1,right
11.355,-0.2656244373797657,1.2144222809900262,-0.028655568017210763,0.5999577873003372,0.3522341086654787,-0.30096618975212586,-0.2666707118953522,-0.31769984819153974,-0.40311638265073013,1,right
11.36,-0.2612086742965421,1.2208319385906092,-0.028776086693625337,0.5668574751563942,0.368266472205976,-0.30612179768887393,-0.2687480965865533,-0.3237307220107302,-0.3974667702458048,1,right
11.360999999999999,-0.25659942416546627,1.2272807004375201,-0.028905308715340902,0.5340367698018488,0.3848479193420112,-0.31138939706145685,-0.27085039705921443,-0.32971104790534467,-0.39169192077386344,1,right
11.364,-0.25179966664754116,1.2337641679962825,-0.029043599813838583,0.5015406812484907,0.4019952670186833,-0.3167676603917652,-0.27297872198331646,-0.33563209098837443,-0.3858028624359437,1,right
11.365,-0.24681263168309742,1.2402778096520568,-0.02919133925922838,0.4694143870111685,0.41972518598426756,-0.3222553683222567,-0.27513422149905126,-0.3414849540783823,-0.3798109674576675,1,right
11.37,-0.24164180061315865,1.2468169631782582,-0.029348921569852665,0.4377031859401228,0.4380541649342303,-0.32785141275085034,-0.2773180874953886,-0.34726058212603195,-0.373727948712748,1,right
11.370999999999999,-0.23629090704060843,1.2533768382529418,-0.029516758288350604,0.4064524512533156,0.4569984743266962,-0.33355479931787446,-0.27953155387916057,-0.3529497669657554,-0.3675658559102016,1,right
11.375,-0.23076393746670895,1.259952518998628,-0.02969527975081082,0.375707582676562,0.4765741299203354,-0.339364649260832,-0.28177589684085774,-0.358543152409354,-0.36133707132807913,1,right
11.375,-0.22506513175976853,1.2665389665361497,-0.029884936779339875,0.3455139576004652,0.4967968560873598,-0.3452802006530557,-0.28405243512341444,-0.3640312396981042,-0.35505430507626534,1,right
11.379000000000001,-0.2191989835375449,1.2731310215595313,-0.03008620226285382,0.3159168811644761,0.5176820489560874,-0.35130080904263616,-0.28636253030034337,-0.36940439332969066,-0.34873058987067207,1,right
11.38,-0.213170240562618,1.2797234069561303,-0.030299572628128324,0.2869615351798549,0.5392447394393409,-0.3574259475083114,-0.2887075870696712,-0.37465284727601694,-0.34237927530095935,1,right
11.385,-0.20698390524940202,1.286310730509791,-0.03052556920506004,0.25869292580489367,0.5614995562068101,-0.3636552061493101,-0.291089053566603,-0.3797667116015763,-0.3360140215767252,1,right
11.386,-0.20064523535951606,1.292887487730051,-0.030764739460783203,0.23115582988747196,0.584460688661408,-0.3699882910264431,-0.29350842167987573,-0.3847359794614413,-0.3296487927518028,1,right
11.386,-0.19415974492846924,1.299448064848622,-0.031017658055792416,0.20439473989186235,0.608141849981595,-0.37642502257203797,-0.29596722732434066,-0.3895505344030318,-0.32329784945288503,1,right
11.39,-0.18753320543714164,1.3059867420230415,-0.03128492768005761,0.17845380732867344,0.6325562402936357,-0.38296533348661127,-0.2984670506043501,-0.3942001578651385,-0.3169757411534724,1,right
11.39,-0.18077164722428996,1.3124976967918154,-0.031567179644808645,0.15337678467161722,0.657716510041199,-0.3896092661450586,-0.30100951582070334,-0.3986745367975594,-0.3106972980193259,1,right
11.390999999999998,-0.17388136112665245,1.3189750078305755,-0.03186507422266483,0.12920696606050283,0.6836347236289011,-0.3963569695583777,-0.3035962913065387,-0.4029632713788002,-0.3044776223249873,1,right
11.394,-0.16686890032281798,1.3254126590584596,-0.03217930074280355,0.10598712765649067,0.7103223234312938,-0.40320869597852455,-0.30622908909574137,-0.4070558828391147,-0.2983320794261995,1,right
11.395,-0.1597410823390281,1.3318045441421016,-0.03251057746133972,0.08375946883160867,0.7377900942680639,-0.41016479725723676,-0.30890966443117623,-0.4109418214017152,-0.2922762882702225,1,right
11.399000000000001,-0.15250499114657176,1.3381444714477502,-0.03285965124082784,0.0625655550636506,0.7660481284412672,-0.4172257210470192,-0.3116398151201796,-0.4146104743544524,-0.2863261114262118,1,right
11.401,-0.14516797924583896,1.3444261694960047,-0.03322729708056109,0.04244626284602732,0.7951057914198228,-0.42439200689150197,-0.3144213807448768,-0.4180511742636972,-0.2804976446180374,1,right
11.404000000000002,-0.1377376695988301,1.3506432929690888,-0.03361431753580033,0.023441726611504024,0.8249716882516225,-0.4316642822297407,-0.3172562417350312,-0.4212532073415659,-0.2748072057421813,1,right
11.405,-0.13022195724375157,1.3567894293051124,-0.034021542052962636,0.005591287609026589,0.8556536307844507,-0.439043258334745,-0.32014631831127016,-0.42420582197700535,-0.26927132335365467,1,right
11.41,-0.12262901040300817,1.36285810589166,-0.034449826234323515,-0.011066555324073465,0.8871586057792098,-0.446529726206823,-0.3230935693066837,-0.4268982374405975,-0.2639067246032265,1,right
11.41,-0.11496727087958869,1.3688427978451858,-0.03490005103353961,-0.026494193149005904,0.9194927440012628,-0.45412455244263483,-0.32609999087494335,-0.42931965277226086,-0.2587303226096523,1,right
11.414000000000001,-0.10724545352764131,1.3747369363345596,-0.03537312187893058,-0.04065495222277711,0.9526612903780531,-0.46182867510115544,-0.32916761509324777,-0.43145925586030565,-0.25375920325103496,1,right
11.415,-0.09947254458394082,1.3805339173837439,-0.03586996772694204,-0.05351313815354639,0.9866685753135155,-0.4696430995880539,-0.33229850846856673,-0.43330623271955565,-0.24901061135994454,1,right
11.419,-0.09165779866050174,1.386227111080408,-0.03639154005155997,-0.06503407795832379,1.0215179872521793,-0.47756889458031004,-0.3354947703558235,-0.4348497769754689,-0.24450193630746184,1,right
11.419,-0.08381073422580836,1.39180987112734,-0.036938811765130676,-0.07518416056361249,1.0572119465882588,-0.4856071880132019,-0.33875853129683364,-0.43607909956038005,-0.24025069696190313,1,right
11.425,-0.07594112744529381,1.3972755446952692,-0.037512776052543696,-0.08393087568585944,1.0937518810174283,-0.49375916315211565,-0.34209195128899805,-0.4369834386271475,-0.23627452600862214,1,right
11.425999999999998,-0.06805900431223058,1.402617482559728,-0.03811444510315415,-0.09124285112473825,1.1311382024314038,-0.5020260547719485,-0.34549721799293714,-0.43755206968461624,-0.2325911536179744,1,right
11.429,-0.06017463107028311,1.4078290495217969,-0.03874484873646615,-0.09708988849835298,1.1693702854578716,-0.5104091454672,-0.348976544888447,-0.4377743159584042,-0.2292183904492689,1,right
11.43,-0.052298502990183134,1.4129036351159199,-0.03940503291311557,-0.10144299744542207,1.2084464477507335,-0.518909762116171,-0.35253216938835813,-0.437639558979588,-0.226174109979324,1,right
11.433,-0.044441331598929414,1.4178346645960591,-0.04009605810038489,-0.10427442831538265,1.2483639321380713,-0.5275292725230244,-0.3561663509200833,-0.4371372494028976,-0.22347623014508333,1,right
11.433,-0.03661403047043807,1.4226156101709797,-0.040818997446510755,-0.10555770336315017,1.2891188907376525,-0.5362690822617895,-0.35988136898485584,-0.43625691805503586,-0.22114269429064187,1,right
11.439,-0.028827699686705975,1.427240002439889,-0.041574934721599885,-0.10526764646097843,1.3307063711522338,-0.5451306317467357,-0.3636795212048766,-0.434988187212713,-0.2191914514099751,1,right
11.44,-0.021093609083241448,1.4317014419647849,-0.04236496198898752,-0.10338041133549722,1.3731203048593195,-0.5541153935538796,-0.36756312136881464,-0.4333207821089307,-0.2176404356776596,1,right
11.443,-0.013423180404609771,1.4359936109033398,-0.04319017696701837,-0.0998735083335597,1.4163534979124461,-0.5632248700187343,-0.3715344974863387,-0.43124454266496415,-0.2165075452609205,1,right
11.444,-0.005827968508613793,1.440110284615198,-0.044051680038456775,-0.09472582971601488,1.4603976240734486,-0.5724605911357624,-0.37559598986259685,-0.4287494354443754,-0.21581062040743842,1,right
11.448,0.001680358236281129,1.444045343148272,-0.04495057087809481,-0.08791767347393549,1.505243220497536,-0.5818241127853462,-0.3797499492038036,-0.4258255658242463,-0.21556742080449912,1,right
11.449000000000002,0.009090038218847516,1.447792782511639,-0.04588794469490282,-0.07943076565718105,1.5508796860953582,-0.5913170153144477,-0.38399873476535035,-0.42246319037764474,-0.21579560220626973,1,right
11.453,0.016389237387568704,1.4513467256463806,-0.046864888108687726,-0.0692482812004661,1.5972952826985691,-0.6009409024974933,-0.38834471255411035,-0.41865272946013493,-0.21651269232723797,1,right
11.453,0.02356607047233819,1.4547014330151031,-0.04788247469678108,-0.05735486322733588,1.644477139157692,-0.6106974009043856,-0.3927902535898977,-0.41438477999763895,-0.21773606600891407,1,right
11.454,0.030608622531148582,1.4578513127475732,-0.048941760253989205,-0.04373664080763284,1.6924112585033646,-0.6205881597029163,-0.39733773219641155,-0.4096501285003346,-0.21948291970705436,1,right
11.459000000000001,0.03750497075446193,1.4607909303020805,-0.050043777806287396,-0.02838124518560878,1.7410825282291613,-0.6306148509111518,-0.401989524229457,-0.40443976437753637,-0.22177024541791696,1,right
11.460999999999999,0.04424320648422637,1.4635150176210696,-0.051189532407482696,-0.011277824723123357,1.7904747333808289,-0.6407791700553498,-0.40674800511562387,-0.3987448936558277,-0.224614804202318,1,right
11.460999999999999,0.05081145741639464,1.4660184817683666,-0.0523799957377668,0.007582940784626192,1.8405705714629041,-0.6510828370806376,-0.4116155476097922,-0.3925569531727382,-0.2280330994289567,1,right
11.463,0.05719790995419508,1.4682964130350897,-0.05361610052080194,0.028208825536188826,1.891351667800242,-0.6615275973016832,-0.4165945192429549,-0.3858676252653424,-0.2320413497901812,1,right
11.463,0.06339083167097077,1.4703440924964792,-0.054898734782904204,0.05060604224631757,1.942798590369612,-0.6721152222413767,-0.42168727946705287,-0.3786688529431306,-0.23665546210616378,1,right
11.467,0.0693785938374895,1.4721569989955812,-0.05622873599131653,0.07477922553936292,1.994890863794558,-0.6828475103146534,-0.4268961765108107,-0.37095285552735624,-0.24189100392733923,1,right
11.468,0.07514969397791721,1.4737308155234694,-0.05760688512478235,0.1007314142264284,2.047606982574244,-0.693726287375386,-0.43222354396088086,-0.3627121447376271,-0.24776317594665612,1,right
11.472999999999999,0.08069277843910332,1.4750614349611546,-0.059033900749859855,0.12846403253063943,2.1009244236940394,-0.7047534071567668,-0.4376716970829318,-0.3539395412050424,-0.25428678423492956,1,right
11.474,0.08599666497956805,1.4761449651479925,-0.06051043320386177,0.1579768703299751,2.154819658767442,-0.7159307516360152,-0.4432429288976496,-0.3446281913896947,-0.26147621231436796,1,right
11.478,0.09105036539866053,1.4769777332464684,-0.0620370590148309,0.18926806249221978,2.2092681658607267,-0.7272602313546652,-0.448939506026961,-0.3347715848788464,-0.2693453930871753,1,right
11.479000000000001,0.09584310823063855,1.477556289382185,-0.06361427570979905,0.22233406738170236,2.264244441153442,-0.7387437857261158,-0.4547636643261339,-0.3243635720405662,-0.2779077806380005,1,right
11.482000000000001,0.10036436152690026,1.4778774095467437,-0.06524249716678587,0.2571696446226017,2.3197220105895253,-0.7503833833625562,-0.46071760431776615,-0.3133983820060612,-0.28717632193091674,1,right
11.482999999999999,0.10460385574665686,1.4779380977565495,-0.06692204964604649,0.29376783220870195,2.3756734416753997,-0.7621810224538205,-0.4668034864440309,-0.3018706409523768,-0.29716342842356636,1,right
11.487,0.10855160677307787,1.4777355874631952,-0.06865316858778067,0.33211992305457594,2.4320703555829213,-0.7741387312311608,-0.47302342615391535,-0.28977539065555247,-0.3078809476230964,1,right
11.488,0.11219793906685181,1.477267342214477,-0.07043599620156654,0.3722154410882557,2.4888834397164996,-0.7862585685493833,-0.479379488842561,-0.2771081072827214,-0.3193401346105375,1,right
11.492,0.11553350895961055,1.476531055570706,-0.07227057982949722,0.41404211699050764,2.546082460905055,-0.7985426246212411,-0.48587368466019315,-0.26386472039002723,-0.3315516235623418,1,right
11.493,0.11854932807402058,1.4755246502884387,-0.0741568710616946,0.4575858636908647,2.603636279380771,-0.8109930219384434,-0.49250796320851337,-0.25004163209160224,-0.3445253992998935,1,right
11.497,0.12123678683858281,1.4742462767923348,-0.07609472560874272,0.5028307517355735,2.6615128637077774,-0.8236119164140966,-0.49928420814281643,-0.2356357363632079,-0.35827076889993287,1,right
11.498,0.12358767805154705,1.4726943109651358,-0.07808390396101705,0.5497589846475831,2.7196793068250233,-0.8364014987818765,-0.5062042316984944,-0.22064443844248574,-0.37279633340099666,1,right
11.502,0.12559422044416677,1.4708673512971127,-0.08012407286908621,0.5983508744036308,2.7781018433685962,-0.8493639962877001,-0.5132697691609884,-0.20506567428610156,-0.3881099596431647,1,right
11.503,0.1272490821912348,1.4687642154530696,-0.08221480766148533,0.6485848171583606,2.836745868439691,-0.862501674710152,-0.5204824732986603,-0.18889793004239294,-0.4042187522806178,1,right
11.508,0.12854540430376032,1.4663839363383884,-0.08435559538860299,0.7004372693502483,2.89557595798525,-0.8758168407464133,-0.5278439087784648,-0.17214026149645015,-0.42112902600875235,1,right
11.508,0.12947682380981548,1.4637257577721414,-0.0865458387579331,0.7538827243288757,2.9545558909590297,-0.8893118448009333,-0.5353555465847264,-0.15479231344287298,-0.43884627804985843,1,right
11.511,0.13003749659029196,1.4607891298985267,-0.08878486081176445,0.8088936896478117,3.0136486734314873,-0.9029890842145918,-0.5430187584617409,-0.13685433893975626,-0.4573751609436525,1,right
11.512,0.1302221196952045,1.4575737044827712,-0.0910719102887707,0.8654406651720052,3.072816564817412,-0.9168510069726077,-0.5508348114013552,-0.11832721839576298,-0.476719455691253,1,right
11.517000000000001,0.13002595293012387,1.4540793302423374,-0.09340616760029692,0.9234921221531639,3.1320211063906567,-0.9309001159299661,-0.5588048621971058,-0.09921247844044903,-0.4968820453035081,1,right
11.517999999999999,0.12944483947590593,1.4503060483594843,-0.09578675134185158,0.9830144834310868,3.191223152255643,-0.9451389735936604,-0.5669299520869331,-0.07951231052631123,-0.5178648888069106,1,right
11.520999999999999,0.12847522529030747,1.4462540883088488,-0.09821272525379815,1.0439721049233284,3.250382902945538,-0.9595702075015764,-0.5752110015069279,-0.05922958920933781,-0.5396689957626785,1,right
11.522,0.12711417704045422,1.4419238641146372,-0.10068310554266993,1.1063272585698882,3.3094599418170874,-0.9741965162383843,-0.5836488049768354,-0.03836789004328432,-0.5622944013605163,1,right
11.522,0.12535939833836396,1.437315971125098,-0.1031968684790048,1.17004011690384,3.368413274412097,-0.9890206761293464,-0.5922440261276246,-0.016931506971864563,-0.5857401421688859,1,right
11.526,0.12320924409344368,1.4324311833600052,-0.10575295820175855,1.2350687394229332,3.4272013709554234,-1.0040455486535045,-0.600997192862328,0.005074530987460661,-0.6100042326582849,1,right
11.527000000000001,0.12066273282767613,1.4272704514593697,-0.10835029467470818,1.3013690609742474,3.485782212070844,-1.0192740885662002,-0.6099086926309397,0.027644444025428403,-0.6350836426343469,1,right
11.527999999999999,0.11771955680916867,1.4218349012437894,-0.11098778174946651,1.3688948825330236,3.544113337354497,-1.0347093524610789,-0.6189787678114796,0.05077168699828024,-0.6609742757019773,1,right
11.530999999999999,0.11438008987104072,1.4161258328840312,-0.11366431529613923,1.4375978650578738,3.6021518956508016,-1.0503545070336582,-0.6282075112093342,0.07444893618285892,-0.6876709488517663,1,right
11.530999999999999,0.11064539280379786,1.4101447206637785,-0.11637879136168341,1.5074275272733684,3.659854695433832,-1.066212836048757,-0.6375948616983024,0.09866807740418886,-0.7151673732443088,1,right
11.536,0.10651721622860726,1.4038932133024435,-0.11913011429515752,1.5783312480693579,3.7171782541377234,-1.082287745275042,-0.6471406000294031,0.12342019560196306,-0.7434561362667967,1,right
11.537,0.10199800088482412,1.3973731347842384,-0.1219172047432557,1.65025427391248,3.7740788460731887,-1.098582765119209,-0.6568443448339547,0.14869556590393726,-0.7725286849385617,1,right
11.540999999999999,0.09709087531136194,1.39058648561913,-0.12473900739153389,1.723139731503374,3.8305125490075524,-1.115101550953286,-0.6667055488478941,0.17448364627578752,-0.8023753107445433,1,right
11.542,0.0917996509582517,1.3835354444462227,-0.12759449832426442,1.796928645883169,3.886435289572884,-1.1318478811812476,-0.6767234953847575,0.20077307181851636,-0.8329851359779298,1,right
11.546,0.08612881481431266,1.376222369883063,-0.13048269189926417,1.8715599641957381,3.9418028876655993,-1.148825653091759,-0.6868972950851974,0.2275516507859942,-0.8643461016754688,1,right
11.547,0.08008351967184205,1.3686498025255998,-0.1334026470708936,1.9469705853149775,3.9965710999995507,-1.1660388765445133,-0.6972258829713623,0.2548063623966936,-0.8964449572311644,1,right
11.550999999999998,0.07366957217178889,1.3608204670120378,-0.1363534731312069,2.0230953955489497,4.05069566297316,-1.1834916655382726,-0.7077080158349173,0.28252335651511296,-0.9292672517762707,1,right
11.552,0.06689341878889843,1.3527372740763066,-0.13933433486765964,2.0998673106351515,4.104132335009564,-1.201188227709403,-0.7183422699879289,0.3106879552797895,-0.9627973274156437,1,right
11.556,0.059762129931021826,1.3444033225294412,-0.14234445715281185,2.1772173242434056,4.156836938526998,-1.2191328518103541,-0.7291270394062834,0.33928465675616637,-0.9970183144126307,1,right
11.557,0.052283382343027124,1.3358219011182844,-0.1453831289911237,2.2550745632049116,4.208765401694819,-1.2373298932182326,-0.7400605342957475,0.36829714069390673,-1.0319121284167545,1,right
11.561,0.0444654400235786,1.3269964902217748,-0.14844970706030688,2.3333663496878563,4.259873800128583,-1.255783757524315,-0.7511407801112173,0.39770827646953016,-1.0674594698304802,1,right
11.562000000000001,0.03631713387964613,1.3179307633565391,-0.15154361880634387,2.412018270541637,4.310118398675475,-1.274498882256061,-0.7623656170601347,0.4275001332964874,-1.1036398254133317,1,right
11.565,0.027847840353647034,1.3086285884742892,-0.15466436517512253,2.4909542540332006,4.359455693439192,-1.2934797167839123,-0.773732700121473,0.457653992785981,-1.1404314722235565,1,right
11.565999999999999,0.019067459256444885,1.299094029041045,-0.15781152307108895,2.570096654200254,4.4078424541909875,-1.312730700465895,-0.7852394996121216,0.4881503639429848,-1.1778114839994145,1,right
11.571,0.00998639102418095,1.2893313448885735,-0.16098474761153586,2.6493663430471273,4.455235767311139,-1.3322562390838057,-0.796883302332907,0.5189690006830042,-1.2157557400839796,1,right
11.572000000000001,0.000615513586731614,1.279344992817922,-0.1641837741993428,2.7286828108098824,4.5015930794024674,-1.3520606796255115,-0.8086612133269019,0.5500889219561615,-1.2542389369990965,1,right
11.575999999999999,-0.009033841015575882,1.2691396269162174,-0.1674084203824735,2.807964274517853,4.546872241714818,-1.37214828346868,-0.8205701582830704,0.5814884345661685,-1.2932346027758248,1,right
11.577,-0.018949910209914735,1.2587200985301221,-0.17065858741918266,2.8871277950791647,4.591031555516573,-1.3925231980220392,-0.8326068866186958,0.6131451587726758,-1.3327151141503195,1,right
11.58,-0.029120524711160726,1.2480914558286216,-0.17393426143546029,2.966089403117909,4.634029818546257,-1.4131894268810694,-0.8447679752744148,0.6450360567663523,-1.3726517167356418,1,right
11.581,-0.03953313273799578,1.2372589428832812,-0.17723551405516616,3.0447642337905543,4.67582637267424,-1.4341507985558413,-0.8570498332560669,0.6771374641068472,-1.4130145482814669,1,right
11.585,-0.05017482484853485,1.2262279981932422,-0.18056250240517774,3.1230666708088233,4.716381152901289,-1.4554109338295436,-0.8694487069579256,0.7094251242145273,-1.4537726651350409,1,right
11.585999999999999,-0.06103235962471204,1.2150042525843552,-0.18391546843907694,3.20091049989569,4.755654737817424,-1.4769732118070737,-0.8819606863022429,0.7418742260075535,-1.4948940720180508,1,right
11.591,-0.07209219037863326,1.2035935264171895,-0.1872947375686972,3.278209071900331,4.793608401641041,-1.498840734713916,-0.8945817117118721,0.7744594447075236,-1.5363457551678825,1,right
11.592,-0.08334049297137464,1.1920018260469945,-0.19070071662832785,3.354875475796774,4.830204167954734,-1.5210162915063934,-0.907307581840541,0.8071549854927665,-1.5780937185557848,1,right
11.593,-0.09476319476195808,1.1802353394885994,-0.19413389121443778,3.4308227217896943,4.865404865250549,-1.543502320355236,-0.9201339618191094,0.8399346290583972,-1.620103022288785,1,right
11.595,-0.10634600464911682,1.1683004312487295,-0.1975948224502128,3.505963934455053,4.899174184305198,-1.5663008701318915,-0.9330563916839234,0.8727717777979543,-1.6623378219660567,1,right
11.595999999999998,-0.11807444412820238,1.1562036362961727,-0.20108414322631066,3.5802125543705916,4.931476736959676,-1.5894135613608429,-0.9460702947462177,0.9056395016664425,-1.704761408098371,1,right
11.597000000000001,-0.1299338792657336,1.1439516531477518,-0.20460255396566235,3.653482544041599,4.962278115077892,-1.6128415477014413,-0.9591709858283601,0.9385105834052655,-1.7473362453067505,1,right
11.600999999999999,-0.14190955348208747,1.1315513360589713,-0.2081508179512827,3.7256885924541674,4.991544948012602,-1.6365854793566226,-0.972353679385547,0.9713575631543905,-1.7900240113541552,1,right
11.602,-0.15398662100871463,1.119009686326027,-0.21172975624770102,3.7967463140564606,5.019244957344935,-1.660645469473808,-0.9856134975503232,1.004152782546105,-1.8327856361319954,1,right
11.605,-0.16615018086318975,1.1063338427294394,-0.2153402422391641,3.8665724406132713,5.045347008455311,-1.685021064004856,-0.9989454781375515,1.0368684283747358,-1.8755813407236925,1,right
11.606,-0.1783853111851702,1.0935310711750166,-0.21898319579824072,3.935085005846931,5.069821158921341,-1.709711215159868,-1.0123445826476913,1.0694765759366331,-1.9183706766678352,1,right
11.609000000000002,-0.19067710379333092,1.0806087536125961,-0.22265957709054157,4.00220352306853,5.092638703822221,-1.734714258523964,-1.0258057043064681,1.1019492321345692,-1.9611125655436898,1,right
11.61,-0.20301069884182332,1.0675743763358603,-0.22637038002388613,4.067849155999863,5.113772218024523,-1.7600278939070535,-1.039323676179222,1.134258378440477,-2.0037653390019132,1,right
11.614,-0.21537131946797625,1.0544355177863458,-0.23011662536772104,4.131944882982742,5.133195595519647,-1.785649169997523,-1.0528932793984165,1.1663760138101427,-2.0462867793633093,1,right
11.615,-0.227744306329183,1.0411998359996655,-0.2338993535946589,4.194415654768323,5.1508840858784115,-1.8115744728916656,-1.0665092515429664,1.1982741976430757,-2.088634160908321,1,right
11.619000000000002,-0.2401151519252437,1.0278750558399754,-0.2377196175189463,4.25518854607486,5.166814327883445,-1.837799518571561,-1.080166295208207,1.2299250928803125,-2.1307642919796974,1,right
11.62,-0.25246953459236166,1.014468956168807,-0.24157847481909364,4.314192901097858,5.180964380395117,-1.8643193494050057,-1.093859086805475,1.2613010093323593,-2.1726335580203933,1,right
11.625,-0.2647933520382487,1.0009893570869062,-0.24547698053328904,4.371360473151925,5.19331375050177,-1.8911283347419576,-1.1075822856304063,1.2923744473288492,-2.214197965668271,1,right
11.627,-0.27707275426958844,0.9874441073740097,-0.24941617960832585,4.426625558618762,5.2038434189999885,-1.9182201756828259,-1.1213305432391694,1.3231181417807767,-2.255413188028528,1,right
11.628,-0.2892941757493636,0.973841072233466,-0.2533970995674404,4.479925125370651,5.2125358632454795,-1.9455879140947716,-1.1350985131719618,1.3535051067453887,-2.296234611244042,1,right
11.629000000000001,-0.3014443666153366,0.9601881214287642,-0.2574207433445291,4.5311989358335065,5.219375077410027,-1.9732239459530285,-1.1488808610631782,1.3835086805829346,-2.3366173824829355,1,right
11.638,-0.3135104227926733,0.9464931178790095,-0.26148808231867804,4.580389664848137,5.224346590174718,-2.0011200390850505,-1.162672275177736,1.4131025717935382,-2.3765164594616714,1,right
11.639000000000001,-0.32547981484252136,0.932763906760398,-0.26560004957651195,4.627443012482697,5.227437479884372,-2.0292673553960916,-1.1764674774130968,1.442260905621428,-2.415886661620848,1,right
11.64,-0.33734041540163223,0.9190083051414504,-0.2697575334282871,4.672307811943501,5.228636387182813,-2.057656477655595,-1.190261234806567,1.4709582715126612,-2.454682723069603,1,right
11.64,-0.3490805250816178,0.9052340921627995,-0.27396137120501807,4.714936132725388,5.227933525143204,-2.086277440924503,-1.2040483715874855,1.4991697715113015,-2.492859347413154,1,right
11.642999999999999,-0.36068889670690363,0.8914489997584403,-0.2782123433670032,4.755283379136707,5.225320686902334,-2.115119768704338,-1.2178237818139135,1.5268710696777585,-2.530371264576473,1,right
11.644,-0.3721547577769787,0.8776607039046842,-0.28251116795511727,4.793308384327706,5.2207912508022565,-2.1441725138895715,-1.2315824426334476,1.5540384426116751,-2.567173289735451,1,right
11.648,-0.38346783104176424,0.8638768163761273,-0.2868584954107784,4.828973499944681,5.214340183037247,-2.1734243046054984,-1.245319428207744,1.5806488311603555,-2.603220384465129,1,right
11.649000000000001,-0.3946183530811568,0.8501048769848956,-0.2912549037766728,4.862244681525701,5.205964037798564,-2.2028633950144303,-1.2590299243403227,1.606679893392261,-2.63846772021265,1,right
11.652999999999999,-0.4055970907846614,0.836352346279668,-0.29570089426913226,4.893091569747082,5.195660954903994,-2.2324777211736606,-1.272709243847163,1.6321100589135722,-2.67287074420057,1,right
11.654000000000002,-0.4163953556370834,0.8226265986831806,-0.30019688719027554,4.921487567622962,5.183430654893629,-2.2622549620291985,-1.286352842709542,1.6569185846042047,-2.7063852478639783,1,right
11.66,-0.42700501573238403,0.8089349160494482,-0.30474321813287586,4.947409913753529,5.169274431567821,-2.2921826056298182,-1.2999563370484957,1.6810856118480217,-2.738967437922586,1,right
11.662,-0.4374185054606909,0.7952844816235791,-0.30934013442861924,4.970839751710428,5.153195141937711,-2.3222480206464744,-1.3135155209154878,1.704592225222211,-2.7705740100772016,1,right
11.663,-0.4476288328423544,0.7816823743868639,-0.31398779179940756,4.991762195640883,5.1351971935531955,-2.3524385332825934,-1.3270263846702897,1.7274205120688284,-2.8011622247708483,1,right
11.663,-0.45762958451257063,0.7681355637673865,-0.31868625118671634,5.010166392034209,5.11528652920703,-2.3827415094731825,-1.3404851333146637,1.7495536213973373,-2.830689983468217,1,right
11.665,-0.46741492838316295,0.7546509046930145,-0.3234354757492372,5.026045576933473,5.093470609204962,-2.4131444413310286,-1.3538882039268438,1.7709758200248846,-2.859115903357742,1,right
11.665,-0.47697961402370487,0.7412351329612737,-0.32823532802951083,5.039397126691041,5.069758391740411,-2.4436350351065137,-1.3672322815651434,1.7916725443993022,-2.8863993889242607,1,right
11.668,-0.48631897082071135,0.7278948609001497,-0.33308556729763983,5.050222599705821,5.0441603121034815,-2.474201296987848,-1.380514313411158,1.8116304475201594,-2.912500699821071,1,right
11.669,-0.495428903998757,0.7146365732947028,-0.3379858470888438,5.058527767226472,5.016688261251849,-2.50483161400886,-1.3937315211463668,1.8308374409113326,-2.9373810150136404,1,right
11.673,-0.5043058886175775,0.7014666235541646,-0.3429357129608716,5.064322632474418,4.987355563911517,-2.5355148290238416,-1.4068814116004553,1.849282731704523,-2.9610024932732557,1,right
11.674000000000001,-0.5129469616847974,0.6883912300911236,-0.34793460050008357,5.067621437987029,4.956176956173283,-2.5662403096492183,-1.4199617857095088,1.8669568548910347,-2.9833283300955107,1,right
11.677,-0.5213497125397509,0.6754164728800401,-0.35298183359611085,5.068442661204844,4.923168562506016,-2.596998011260019,-1.4329707458220444,1.8838517007969595,-3.004322811115033,1,right
11.677999999999999,-0.5295122716709667,0.662548290159811,-0.35807662298766646,5.0668089983195195,4.8883478721025195,-2.627778534129258,-1.4459067013906512,1.8999605378347382,-3.0239513620842167,1,right
11.683,-0.5374332981310692,0.6497924752457921,-0.36321806506500076,5.062747336392014,4.851733714468437,-2.658573174798483,-1.4587683730868093,1.9152780305818553,-3.0421805954800294,1,right
11.684000000000001,-0.5451119657102449,0.63715467342022,-0.36840514090545756,5.056288713743415,4.813346234159428,-2.6893739717678224,-1.4715547953762582,1.9298002532351888,-3.058978353799132,1,right
11.687999999999999,-0.5525479480251125,0.6246403788764541,-0.37363671552033983,5.047468268613783,4.77320686456661,-2.7201737455939394,-1.4842653175920724,1.943524698487275,-3.0743137495976165,1,right
11.689,-0.5597414026763791,0.6122549317030423,-0.3789115372995692,5.036325176077401,4.7313383006451355,-2.7509661334843365,-1.496899603542389,1.956450281868488,-3.0881572023276673,1,right
11.692,-0.5666929546277072,0.6000035149082762,-0.38422823764924835,5.022902573195957,4.687764470475667,-2.781745618476483,-1.509457629689519,1.9685773415968433,-3.1004804720193384,1,right
11.694,-0.5734036789587771,0.587891151502121,-0.38958533082622643,5.007247472384402,4.6425105055435,-2.8125075532902306,-1.5219396819369557,1.979907633974851,-3.111256689851431,1,right
11.697000000000001,-0.5798750831437615,0.5759227016668635,-0.3949812139861734,4.989410662957578,4.595602709615099,-2.84324817894196,-1.5343463510605764,1.9904443243705514,-3.1204603856511817,1,right
11.698,-0.5861090889984756,0.5641028600587323,-0.40041416747289443,4.969446600819129,4.547068526086922,-2.8739646382088693,-1.5466785268201093,2.0001919738175755,-3.1280675123580988,1,right
11.702,-0.5921080144249923,0.5524361532898072,-0.40588235537622785,4.947413286247863,4.4969365036766,-2.9046549840317772,-1.5589373907867299,2.009156521266785,-3.1340554674828653,1,right
11.703,-0.5978745550647082,0.5409269376424669,-0.4113838263705678,4.923372129730415,4.445236260321761,-2.935318182944726,-1.5711244079224258,2.0173452615197687,-3.1384031115876803,1,right
11.709000000000001,-0.6034117659528904,0.5295793970676009,-0.4169165148240475,4.897387805783011,4.391998445147153,-2.965954113619639,-1.5832413169465627,2.0247668188722177,-3.141090783809847,1,right
11.709000000000001,-0.6087230432507228,0.5183975415137319,-0.4224782421513512,4.869528094699147,4.337254698356095,-2.9965635606141836,-1.5952901195248685,2.031431116492936,-3.142100314445769,1,right
11.712,-0.6138121061148564,0.5073852056272002,-0.4280667183765978,4.83986371215427,4.28103760889781,-3.027148203410932,-1.6072730683158516,2.037349341562042,-3.141415034607799,1,right
11.713,-0.6186829787491629,0.49654604785342055,-0.4336795438742281,4.80846812659296,4.2233806697577725,-3.0577106008358315,-1.619192653909464,2.042533906189691,-3.1390197829616215,1,right
11.717,-0.6233399726681603,0.4858835499573618,-0.43931421126035086,4.775417364318724,4.164318230713879,-3.0882541709439124,-1.6310515906926295,2.0469984041344977,-3.134900909547031,1,right
11.718,-0.6277876691870208,0.47540101696997733,-0.4449681074119281,4.740789802201355,4.1038854483969995,-3.118783166460112,-1.6428528016760633,2.050757563338681,-3.1290462766801124,1,right
11.720999999999998,-0.6320309021408567,0.46510157755699816,-0.45063851559552914,4.704665947911815,4.042118233490375,-3.149302645863007,-1.654599402316633,2.053827194294852,-3.121445256929903,1,right
11.722000000000001,-0.6360747408266522,0.4549881847966514,-0.45632261769066673,4.667128207589882,3.979053194898244,-3.179818440199221,-1.6662946833693357,2.0562241342573073,-3.1120887281576852,1,right
11.727,-0.6399244731549774,0.4450636173428114,-0.4620174964954749,4.62826064084523,3.9147275807101867,-3.2103371157162073,-1.6779420928158983,2.0579661874016537,-3.100969065651742,1,right
11.728,-0.6435855889966082,0.43533048094115756,-0.46772013810636526,4.588148702988382,3.8491792157838094,-3.2408659324011033,-1.689545216982371,2.059072061499558,-3.0880801316338147,1,right
11.729000000000001,-0.64706376371032,0.4257912102603096,-0.4734274343687819,4.54687897438385,3.782446435764696,-3.271412798513327,-1.7011077610758494,2.0595613025104225,-3.0734172628555543,1,right
11.732000000000001,-0.6503648418379696,0.41644807099718595,-0.4791361854006356,4.504538877230347,3.714568017503705,-3.3019862212574944,-1.712633529435846,2.059454228954856,-3.0569772572466305,1,right
11.732999999999999,-0.6534948209508982,0.4073031622144675,-0.48484310219177684,4.461216382151061,3.6455831065522624,-3.332595254037695,-1.7241264057301833,2.0587718674680238,-3.0387583603226633,1,right
11.735,-0.6564598356327435,0.39835841886792484,-0.49054480928513616,4.416999710720717,3.5755311437161392,-3.3632494412641876,-1.7355903332072484,2.057535890092276,-3.0187602516089274,1,right
11.738,-0.6592661415888061,0.38961561448120147,-0.4962378475516061,4.371977042134788,3.5044517933689714,-3.393958761978112,-1.7470292950508286,2.055768553401788,-2.996984031082274,1,right
11.738,-0.6619200998775151,0.38107636392479677,-0.5019186770815749,4.326236230141691,3.4323848754995505,-3.424733573265452,-1.7584472948705538,2.0534926394572928,-2.9734322055789453,1,right
11.741,-0.6644281612660577,0.37274212625767145,-0.5075836802294895,4.279864532609159,3.359370302160582,-3.4555845539016548,-1.7698483373608866,2.0507313985874047,-2.9481086751108196,1,right
11.742,-0.6667968507218015,0.3646142075966228,-0.5132291648605841,4.232948354012008,3.2854480182596077,-3.4865226483740432,-1.78123640916153,2.0475084939915087,-2.921018719027545,1,right
11.747,-0.6690327520605258,0.35669376398888797,-0.5188513678560036,4.185573000710053,3.210657946485163,-3.5175590113704427,-1.7926154599520632,2.043847948157722,-2.89216898195691,1,right
11.748,-0.6711424927783526,0.34898180427485515,-0.5244464589307329,4.137822448883173,3.1350399361584853,-3.548704952822677,-1.803989383813564,2.0397740910880526,-2.861567459450708,1,right
11.752,-0.6731327290973329,0.34147919293921847,-0.5300105448096771,4.089779124988914,3.058633715798516,-3.579971883593834,-1.8153620008899451,2.0353115103215442,-2.829223483258298,1,right
11.753,-0.6750101312570308,0.3341866529605944,-0.5355396737961833,4.0415236986067224,2.9814788491854203,-3.611371261898483,-1.8267370393816942,2.030485002744946,-2.795147706144994,1,right
11.755999999999998,-0.67678136908684,0.3271047686809542,-0.5410298407575932,3.9931348875318053,2.9036146947054853,-3.6429145405453416,-1.8381181179047092,2.025319528179255,-2.759352086167396,1,right
11.758,-0.678453097894893,0.32023398872470343,-0.5464769925418809,3.9446892749807874,2.825080367757986,-3.6746131150922454,-1.849508728246902,2.0198401647293647,-2.7218498703127687,1,right
11.761,-0.6800319447078017,0.31357462900083943,-0.5518770338244534,3.8962611387706927,2.7459147060024534,-3.7064782730036385,-1.8609122185552556,2.0140720658830156,-2.6826555774046024,1,right
11.762,-0.6815244948921427,0.30712687582132614,-0.557225833366145,3.847922292332419,2.6661562372227507,-3.7385211439012296,-1.8723317769860401,2.0080404193442503,-2.641784980171557,1,right
11.767000000000001,-0.6829372791863302,0.3008907891669355,-0.5625192306472013,3.7997419374196912,2.585843149582439,-3.7707526509988947,-1.8837704158509159,2.0017704075856955,-2.5992550863720836,1,right
11.767999999999999,-0.6842767611711539,0.29486630612939524,-0.5677530428300429,3.7517865283745286,2.5050132640440803,-3.8031834638133963,-1.8952309562916867,1.9952871701031523,-2.5550841188621622,1,right
11.772,-0.6855493252075788,0.2890532445553633,-0.5729230719949542,3.704119647810505,2.423704008723444,-3.8358239522429907,-1.9067160135165202,1.9886157673552207,-2.509291494488784,1,right
11.773,-0.6867612648710775,0.283451306912584,-0.5780251125866274,3.6568018935755435,2.341952394947978,-3.868684142106539,-1.918227982630496,1.9817811463700046,-2.461897801687036,1,right
11.775,-0.6879187719135474,0.27806008439175184,-0.5830549590059366,3.609890776856606,2.2597949947874247,-3.9017736722363123,-1.929769025093416,1.97480810800032,-2.412924776653947,1,right
11.776,-0.6890279257856933,0.272879061250539,-0.5880084132814408,3.563440631289496,2.177267919823078,-3.9351017532182713,-1.9413410558378719,1.967721275808299,-2.362395277967582,1,right
11.78,-0.6900946837519951,0.2679076193990724,-0.5928812927600051,3.517502532937945,2.094406800920911,-3.968677127874248,-1.9529457310806448,1.9605450665598125,-2.3103332595152843,1,right
11.780999999999999,-0.691124871625482,0.2631450432180492,-0.5976694377650794,3.472124231007347,2.0112467687726356,-4.002508033581106,-1.9645844368605987,1.9533036623087248,-2.2567637415904267,1,right
11.785,-0.6921241751408205,0.2585905245923126,-0.6023687191805224,3.4273500891598156,1.9278224349676947,-4.0366021665226315,-1.9762582783363125,1.9460209840506772,-2.201712780012568,1,right
11.786,-0.6930981319735118,0.25424316813495806,-0.60697504592205,3.3832210372986857,1.8441678733582216,-4.070966647970648,-1.9879680698767908,1.938720666925843,-2.145207433121508,1,right
11.79,-0.6940521244025056,0.2501019965699772,-0.6114843722558128,3.3397745336922116,1.7603166014781486,-4.105607992692529,-1.9997143259786891,1.9314260369498941,-2.0872757264914066,1,right
11.790999999999999,-0.6949913726046864,0.2461659562354993,-0.6158927049178622,3.297044537307915,1.6763015617768755,-4.140532079583088,-2.0114972530435953,1.9241600892523167,-2.027946615206876,1,right
11.795,-0.6959209285626308,0.24243392266512903,-0.6201961099848193,3.2550614902308963,1.5921551024272602,-4.175744124619574,-2.023316742049005,1.916945467801147,-1.967249943538785,1,right
11.796,-0.6968456705621473,0.23890470620180798,-0.6243907194489589,3.2138523100413656,1.5079089574671156,-4.211248656239301,-2.0351723621336086,1.9098044465785224,-1.9052164019536764,1,right
11.797,-0.6977702982553133,0.2355770575989333,-0.6284727374612358,3.1734403920287177,1.4235942260329313,-4.247049493240247,-2.047063355051996,1.902758912097992,-1.8418774818880403,1,right
11.799000000000001,-0.6986993282680429,0.23244967356828608,-0.6324384462198334,3.1338456211215977,1.3392413504441572,-4.283149725305799,-2.058988630335851,1.8958303470223368,-1.777265429617144,1,right
11.8,-0.6996370903340392,0.2295212022398065,-0.6362842114927454,3.0950843933438654,1.254880093001732,-4.319551696206915,-2.0709467609332055,1.8890398145673373,-1.7114132010456324,1,right
11.8,-0.700587723936579,0.22679024850100285,-0.6400064877681196,3.0571696462498865,1.1705395118924962,-4.3562569894923495,-2.0829359791630333,1.8824079434507222,-1.644354418742025,1,right
11.805,-0.7015551754385484,0.22425537918618998,-0.6436018230291486,3.0201108971490953,1.0862479375416962,-4.393266416040041,-2.094954172940689,1.8759549132782087,-1.5761233316331684,1,right
11.806,-0.7025431956796386,0.22191512808908764,-0.6470668631534731,2.9839142875734015,1.0020329512839286,-4.430580002600113,-2.10699888229542,1.8697004403324724,-1.5067547772698116,1,right
11.81,-0.7035553380146238,0.21976800077421005,-0.6503983559389442,2.948582632802216,0.9179213676947577,-4.468196980704345,-2.119067296214388,1.863663763746032,-1.4362841464707297,1,right
11.811,-0.7045949567594112,0.21781247916338284,-0.6535931547572079,2.914115475908106,0.8339392209747157,-4.506115775756194,-2.131156249847711,1.8578636320395578,-1.3647473501494696,1,right
11.815,-0.7056652060060398,0.21604702587601,-0.6566482218344865,2.880509146147356,0.75011175524944,-4.544333996359846,-2.143262222109137,1.8523182900076762,-1.2921807881245095,1,right
11.815999999999999,-0.7067690387653586,0.2144700883054779,-0.6595606311579024,2.847756821593924,0.6664634185443781,-4.582848423996365,-2.1553813337070005,1.8470454659349702,-1.218621319710471,1,right
11.819,-0.7079092063955119,0.21308010241836398,-0.6623275710097184,2.8158485959177844,0.5830178601928545,-4.621655003155851,-2.1675093456401826,1.8420623591255512,-1.144106235884952,1,right
11.82,-0.7090882582739997,0.21187549626748786,-0.6649463461404664,2.7847715492110896,0.49979793143673806,-4.6607488320354085,-2.1796416581938494,1.8373856277303116,-1.0686732328226007,1,right
11.825999999999999,-0.7103085416701233,0.21085469321422665,-0.6674143796000338,2.754509822768046,0.4168256889794619,-4.7001241539135465,-2.191773310469771,1.8330313768567452,-0.9923603865851867,1,right
11.827,-0.711572201772925,0.21001611485970206,-0.6697292142508336,2.72504469772681,0.33412240125172854,-4.739774349312486,-2.2038989804860525,1.8290151469470606,-0.9152061287536961,1,right
11.829,-0.7128811818278571,0.2093581836874757,-0.6718885139910156,2.6963546774840976,0.25170855715087825,-4.779691929060664,-2.2160129858811164,1.825351902411182,-0.83724922278583,1,right
11.83,-0.7142372233346006,0.20887932542111864,-0.6738900647187874,2.6684155737955235,0.16960387701560967,-4.819868528368536,-2.2281092852567803,1.8220560205021672,-0.7585287408797619,1,right
11.835,-0.7156418662594722,0.2085779710987186,-0.6757317750675157,2.6412005964769905,0.08782732559851247,-4.860294902031578,-2.2401814801952495,1.8191412804225362,-0.6790840411225945,1,right
11.835,-0.7170964492188229,0.20845255886439162,-0.6774116769322199,2.614680446624652,0.006397126799701631,-4.900960920875115,-2.2522228179848143,1.8166208526510137,-0.5989547446996539,1,right
11.839,-0.7186021095946187,0.20850153547488173,-0.6789279257946211,2.588823413273129,-0.07466922007427114,-4.941855569556397,-2.2642261950889813,1.8145072884802529,-0.5181807129385577,1,right
11.84,-0.7201597835497032,0.20872335751777082,-0.6802788008430216,2.5635954734137405,-0.15535492276111137,-4.982966945840027,-2.27618416139371,1.8128125097571912,-0.4368020239599228,1,right
11.844000000000001,-0.7217702059184743,0.20911649233716992,-0.6814627048796966,2.5389603952964834,-0.23564387743697093,-5.024282261463537,-2.2880889252673313,1.811547798818826,-0.3548589487046072,1,right
11.844000000000001,-0.7234339099595501,0.20967941866224804,-0.6824781640122274,2.514879844941422,-0.31552064928697804,-5.065787844710573,-2.2999323594676087,1.8107237886173666,-0.2723919261055301,1,right
11.849,-0.7251512269692174,0.21041062693265705,-0.6833238271331283,2.4913134957869256,-0.39497045248386214,-5.10746914480975,-2.311706007930284,1.810350453029916,-0.18944153717037715,1,right
11.85,-0.7269222857652498,0.21130861931407002,-0.6839984652010908,2.4682191414039103,-0.4739791298052888,-5.149310738277856,-2.323401093473285,1.8104370973490707,-0.10604847773987883,1,right
11.854000000000001,-0.7287470120586239,0.21237190939869963,-0.6845009703449775,2.4455528112068086,-0.5525331321193379,-5.191296337326587,-2.3350085264506006,1.8109923489520952,-0.022253529684841712,1,right
11.855,-0.730625127736251,0.21359902158979738,-0.6848303548158,2.4232688890934906,-0.6306194979663323,-5.233408800452537,-2.346518914389628,1.8120241481476174,0.06190246969627261,1,right
11.86,-0.732556150081931,0.2149884901742904,-0.6849857498106652,2.4013202349476885,-0.7082258334639594,-5.275630145330589,-2.3579225726455735,1.8135397392001131,0.14637866031869987,1,right
11.860999999999999,-0.7345393909662615,0.21653885809347398,-0.6849664041875543,2.379658308938716,-0.7853402927613211,-5.317941564131303,-2.36920953610622,1.8155456615337926,0.23113419423228906,1,right
11.863,-0.7365739560401185,0.21824867542877993,-0.6847716830844042,2.3582332985543633,-0.8619515592662079,-5.360323441383222,-2.38036957198012,1.818047741118866,0.31612827306365204,1,right
11.864,-0.7386587439697856,0.22011649762731056,-0.6844010664525099,2.336994248303811,-0.938048827868514,-5.402755374501361,-2.391392193678296,1.8210510820527344,0.4013201881011621,1,right
11.865,-0.7407924457520206,0.22214088349652333,-0.6838541475122837,2.3158891920282296,-1.013621788381297,-5.445216197103382,-2.402266675685985,1.8245600583909185,0.48666936254035387,1,right
11.869000000000002,-0.7429735441432229,0.22432039299707462,-0.6831306311381133,2.2948652876717204,-1.088660610340176,-5.4876840051684805,-2.412982069116791,1.8285783063575363,0.5721353943191984,1,right
11.87,-0.7452003132318008,0.22665358486056897,-0.6822303321788361,2.273868953937405,-1.1631559289034417,-5.530136185760758,-2.4235272175279703,1.8331087171074396,0.6576780973684306,1,right
11.870999999999999,-0.7474708181812274,0.22913901405973366,-0.681153173721264,2.2528460074827223,-1.2370988308794375,-5.572549447438831,-2.4338907726883994,1.8381534301727076,0.7432575397074248,1,right
11.874,-0.7497829151749799,0.23177522916480964,-0.6798991853052497,2.2317417988798454,-1.3104808395093905,-5.614899851140072,-2.4440612101941035,1.8437138276540885,0.8288340779052102,1,right
11.875,-0.7521342516025811,0.23456076963037414,-0.6784685010984637,2.210501345995584,-1.3832938970291564,-5.657162840661158,-2.4540268449389746,1.8497905291785839,0.9143683880313118,1,right
11.878,-0.7545222665343341,0.2374941630661726,-0.676861358036857,2.189069464216199,-1.4555303447460664,-5.699313272456685,-2.463775846470427,1.8563833876376676,0.9998214933421736,1,right
11.88,-0.7569441915368929,0.24057392254961732,-0.675078093934016,2.167390893370694,-1.5271829007623017,-5.741325444810756,-2.4732962542591794,1.8634914857221196,1.0851547889489228,1,right
11.883,-0.7593970518816504,0.2437985440369595,-0.6731191455612121,2.14541042129145,-1.5982446355539477,-5.783173126502915,-2.482575992911763,1.871113133270924,1.1703300637121035,1,right
11.884,-0.7618776681941655,0.2471665039270644,-0.6709850467019135,2.123073003950523,-1.668708945613229,-5.824829585089439,-2.4916028873537455,1.879245865453176,1.2553095196087856,1,right
11.887,-0.7643826585863158,0.2506762568274169,-0.6686764261918017,2.100323882109193,-1.7385695253597493,-5.866267614920638,-2.5003646780109863,1.8878864418034094,1.340055788817103,1,right
11.888,-0.7669084413036797,0.2543262335661089,-0.6661940059668466,2.0771086944175234,-1.8078203375248674,-5.907459565014313,-2.508849036015559,1.8970308461322343,1.4245319487628256,1,right
11.892000000000001,-0.7694512379088936,0.2581148394849354,-0.6635385991518312,2.0533735868996215,-1.876455582211612,-5.948377366904984,-2.5170435784622462,1.9066742873356437,1.508701535372011,1,right
11.892999999999999,-0.7720070770086833,0.26204045303740064,-0.6607111082234441,2.0290653187591468,-1.9444696648308208,-5.988992562587878,-2.524935883740747,1.9168112011278002,1.5925285547731065,1,right
11.897,-0.774571798520187,0.26610142470299974,-0.65771252327571,2.0041313644382526,-2.0118571631124293,-6.029276332675923,-2.53251350696795,1.9274352527235634,1.6759774936910996,1,right
11.898,-0.7771410584623263,0.27029607621702223,-0.6545439204076495,1.9785200118616624,-2.0786127933890652,-6.069199524887271,-2.539763995543783,1.9385393404984486,1.759013328775442,1,right
11.902999999999999,-0.7797103342495529,0.27462270010393075,-0.6512064602484638,1.9521804567959393,-2.1447313763473246,-6.108732682979929,-2.546674904853281,1.950115600655123,1.841601535102476,1,right
11.904000000000002,-0.7822749304577329,0.2790795594922549,-0.6477013866326762,1.925062893252207,-2.2102078024403045,-6.1478460762491896,-2.5532338141366187,1.9621554129269434,1.9237080940920217,1,right
11.908,-0.7848299850268124,0.2836648881798203,-0.6440300254334822,1.8971185998586382,-2.2750369971531543,-6.186509729702453,-2.559428342547908,1.9746494073504213,2.0052995010765837,1,right
11.909,-0.7873704758636632,0.2883768909106986,-0.6401937835572848,1.8683000221269357,-2.33921388631157,-6.224693455024986,-2.565246165422588,1.9875874721398479,2.0863427727603607,1,right
11.912,-0.7898912278109181,0.29321374382117554,-0.6361941480975191,1.838560850534802,-2.4027333616213213,-6.262366882448879,-2.5706750307722266,2.00095876269865,2.1668054548038587,1,right
11.913,-0.7923869199536658,0.29817359501155477,-0.6320326856408836,1.8078560943440156,-2.4655902466250423,-6.299499493636222,-2.575702776024489,2.014751711803344,2.2466556297684215,1,right
11.917,-0.7948520932454952,0.3032545652019948,-0.62771104171355,1.77614215107123,-2.5277792632606255,-6.336060655686126,-2.580317345024975,2.0289540409972333,2.325861925653431,1,right
11.918,-0.7972811584467547,0.30845474843308746,-0.6232309403506637,1.7433768715259614,-2.5892949992036938,-6.372019656373757,-2.5845068053164875,2.043552773232236,2.4043935252572504,1,right
11.922,-0.7996684043782964,0.3137722127762053,-0.6185941837713017,1.7095196203274672,-2.6501318761747026,-6.407345740727969,-2.5882593657101483,2.05853424679844,2.482220176591235,1,right
11.923,-0.8020080065015883,0.3192050010245793,-0.6138026521432346,1.6745313318093193,-2.7102841193893186,-6.442008149052513,-2.5915633941615943,2.073884130582159,2.5593122045742773,1,right
11.927,-0.8042940358409973,0.3247511313434149,-0.6088583034273963,1.6383745612174578,-2.7697457283287776,-6.475976156494059,-2.5944074359642664,2.089587440694393,2.6356405242334326,1,right
11.929,-0.8065204682680656,0.330408597866636,-0.6037631732994236,1.6010135311043763,-2.828510449004978,-6.509219114258443,-2.596780232256351,2.1056285584904035,2.7111766555401666,1,right
11.93,-0.8086811941709648,0.33617537123828284,-0.5985193751503638,1.5624141728188499,-2.8865717478931,-6.541706492574647,-2.598670738765717,2.121991249890637,2.785892739539899,1,right
11.931,-0.8107700285326362,0.3420493991058765,-0.5931291001673785,1.5225441629872591,-2.9439227877025513,-6.573407925504031,-2.6000681445881595,2.138658685713514,2.859761554584704,1,right
11.934000000000001,-0.8127807214376467,0.3480286065795223,-0.5875946174905486,1.4813729548791046,-3.0005564051550455,-6.604293257690242,-2.60096189072197,2.155613462620052,2.932756531006974,1,right
11.935,-0.814706969021884,0.35411089667416995,-0.5819182744377408,1.43887180454576,-3.0564650909365847,-6.634332593143068,-2.601341688151415,2.1728376243827277,3.0048517630392837,1,right
11.939,-0.816542424871687,0.36029415075435234,-0.5761024967862531,1.395013791729128,-3.111640971951586,-6.663496346059804,-2.601197535397986,2.1903126833925994,3.0760220176288704,1,right
11.940999999999999,-0.8182807118717937,0.3665762290014199,-0.5701497890969203,1.349773836089446,-3.1660757958227546,-6.691755293248085,-2.600519735527768,2.20801964243105,3.1462427402624042,1,right
11.940999999999999,-0.8199154344968774,0.37295497092294416,-0.5640627350647057,1.3031287102990603,-3.219760917249644,-6.719080626924703,-2.599298912616005,2.2259390167555955,3.215490058008107,1,right
11.943,-0.8214401915372316,0.37942819592352356,-0.557843997880587,1.2550570521014155,-3.272687285654176,-6.745444006225187,-2.5975260276684216,2.2440508565499186,3.283740779979626,1,right
11.944,-0.822848589241164,0.3859937039560182,-0.5514963205926972,1.2055393768742113,-3.324845433721817,-6.770817606193524,-2.595192393997336,2.262334769788948,3.350972395423326,1,right
11.948,-0.8241342548448858,0.39264927627075186,-0.5450225264596963,1.1545580912302715,-3.376225466773554,-6.795174163805792,-2.5922896920490404,2.2807699455704262,3.417163069627892,1,right
11.95,-0.8252908504475458,0.399392676276424,-0.5384255192942872,1.1020975076292507,-3.4268170530841795,-6.818487021015918,-2.58880998367733,2.2993351779649416,3.482291637852246,1,right
11.954,-0.8263120871761291,0.4062216505212109,-0.531708283796062,1.048143859857888,-3.4766094152967035,-6.840730164896392,-2.5847457258564694,2.318008890436918,3.546337597464883,1,right
11.955,-0.8271917395742575,0.41313392979680036,-0.5248738858675003,0.9926853192323201,-3.5255913230804663,-6.861878264943867,-2.5800897838252252,2.3367691608894634,3.6092810984847157,1,right
11.959000000000001,-0.8279236601422367,0.42012723036162875,-0.5179254728948229,0.9357120113717167,-3.573751087178273,-6.88190670761654,-2.5748354436519696,2.355593747386372,3.6711029327104927,1,right
11.96,-0.8285017939523276,0.42719925527175046,-0.5108662739594214,0.8772160333882223,-3.621076554985559,-6.900791628167179,-2.568976424209152,2.3744601146048723,3.7317845216227266,1,right
11.964,-0.8289201932618794,0.4343476957996743,-0.5036995999299984,0.8171914713338606,-3.667555107802274,-6.918509939832469,-2.5625068885437527,2.3933454610729683,3.791307903238909,1,right
11.965,-0.8291730320473385,0.44157023291548037,-0.4964288433736868,0.7556344177407187,-3.7131736598958116,-6.935039360436188,-2.555421454628612,2.4122267472454064,3.849655718099581,1,right
11.97,-0.8292546203836904,0.44886453880107335,-0.4890574782174522,0.6925429890863538,-3.757918659510907,-6.950358436460401,-2.547715205477789,2.431080724472411,3.9068111945595296,1,right
11.970999999999998,-0.8291594185955231,0.45622827836614244,-0.48158905909094674,0.6279173430119792,-3.8017760919599985,-6.964446564635523,-2.539383698607354,2.4498839649153967,3.9627581335550786,1,right
11.972999999999999,-0.8288820511074452,0.46365911073300187,-0.47402722029341854,0.5617596951165899,-3.8447314849250747,-6.977284011096707,-2.5304229748212475,2.4686128924638466,4.017480893015042,1,right
11.974,-0.8284173199236874,0.4711546906583161,-0.4663756743519309,0.4940743351457809,-3.8867699160995097,-6.988851928150492,-2.5208295663000624,2.487243814707466,4.070964372079516,1,right
11.978,-0.8277602176689702,0.4787126698638906,-0.4586382101685692,0.42486764238961333,-3.9278760232958563,-6.999132368692159,-2.5106005039688024,2.5057529560175795,4.123193995287173,1,right
11.98,-0.826905940123009,0.48633069825592384,-0.45081869077898334,0.3541481000994824,-3.968034017142958,-7.00810829831063,-2.4997333241178716,2.5241164917915286,4.174155696888257,1,right
11.982999999999999,-0.8258498981784017,0.4940064250207806,-0.442921050756924,0.2819263087295601,-4.007227696493112,-7.015763605114101,-2.4882260742497246,2.542310583913529,4.223835905436866,1,right
11.984000000000002,-0.8245877291482243,0.5017374995940778,-0.43494929330033766,0.20821499780401798,-4.045440466657341,-7.022083107305902,-2.47607731812179,2.5603114174851185,4.272221528812552,1,right
11.988,-0.8231153073481754,0.5095215725076758,-0.42690748703005077,0.13302903620689435,-4.082655360584092,-7.027052558536343,-2.4632861399544432,2.5780952388778924,4.319299939817597,1,right
11.988,-0.8214287538800958,0.5173562961244307,-0.4187997625285517,0.05638544068715981,-4.118855063093934,-7.030658651052497,-2.4498521477709714,2.595638395160743,4.365058962492664,1,right
11.993,-0.8195244455512424,0.5252393252723654,-0.41063030864629213,-0.021696617632740042,-4.154021938279975,-7.032889016664055,-2.4357754758346193,2.612917374953264,4.409486859289783,1,right
11.994000000000002,-0.8173990228783439,0.533168317790093,-0.40240336860481957,-0.10119580896081731,-4.188138060180892,-7.03373222553948,-2.4210567861459813,2.629908850756359,4.452572319237901,1,right
11.998,-0.8150493971443549,0.5411409349963195,-0.3941232359282564,-0.18208864297208524,-4.221185246830508,-7.033177782842814,-2.405697268962141,2.6465897228103956,4.494304447232423,1,right
11.998,-0.812472756493264,0.5491548420973016,-0.3857942502364685,-0.2643494696019753,-4.253145097784911,-7.031216123217505,-2.3896986422971196,2.662937164530493,4.534672754576338,1,right
11.999,-0.8096665710608963,0.55720770854481,-0.3774207929333249,-0.3479504827249574,-4.283999035225076,-7.027838603119663,-2.373063150385836,2.678928669497725,4.5736671508630415,1,right
12.002,-0.8066285971470618,0.5652972083547695,-0.36900728281932454,-0.4328617269506912,-4.313728348729905,-7.023037490999129,-2.355793561214311,2.694542099634143,4.6112779371187615,1,right
12.004000000000001,-0.8033568804388181,0.5734210203965089,-0.36055817165094295,-0.5190511077739631,-4.342314243811437,-7.016805955322709,-2.337893163437316,2.709755733558673,4.647495799815712,1,right
12.008,-0.7998497583002105,0.5815768286638726,-0.3520779396666379,-0.6064844052590985,-4.369737894194774,-7.009138050486644,-2.3193657631252096,2.7245483137699416,4.68231180519485,1,right
12.009,-0.7961058611511483,0.5897623225403053,-0.34357109110308126,-0.6951252911462669,-4.395980497291774,-7.000028700945419,-2.3002156806575074,2.738899091650975,4.715717393501425,1,right
12.01,-0.7921241129651888,0.5979751970701885,-0.33504214972675217,-0.7849353487360947,-4.4210233313597795,-6.98947368439116,-2.280447747858634,2.7527878699194686,4.7477043730354085,1,right
12.012,-0.7879037309285779,0.6062131532469947,-0.32649565440483796,-0.8758740946155358,-4.444847812303078,-6.977469615097854,-2.260067305347112,2.7661950424960953,4.778264914083142,1,right
12.013,-0.7834442243262554,0.6144738983250051,-0.31793615474130976,-0.9678990015884507,-4.467435548601621,-6.964013928256399,-2.239080200043192,2.7791016318320323,4.807391542826168,1,right
12.017000000000001,-0.7787453927457298,0.6227551461584646,-0.3093682068040169,-1.0609655227123642,-4.4887683938025935,-6.9491048656110355,-2.2174927827781437,2.791489323735565,4.835077135319098,1,right
12.017999999999999,-0.773807323705829,0.6310546175714355,-0.30079636895817546,-1.1550271166431445,-4.508828496537185,-6.932741462419464,-2.195311905946672,2.803340499736235,4.861314911624307,1,right
12.022,-0.7686303898249314,0.6393700407611729,-0.2922251978033966,-1.2500352745518721,-4.527598348127404,-6.914923535698021,-2.172544921142186,2.8146382670235806,4.8860984301871015,1,right
12.022,-0.7632152456462482,0.6476991517368027,-0.2836592441935478,-1.345939548881153,-4.545060827844186,-6.895651673709062,-2.1491996767129145,2.8253664859960095,4.909421582530888,1,right
12.027000000000001,-0.7575628242363082,0.6560396947952375,-0.2751030493068373,-1.4426875842109845,-4.561199245874394,-6.874927226643545,-2.125284515175172,2.83550979545382,4.931278588347699,1,right
12.029000000000002,-0.7516743336671379,0.6643894230384066,-0.26656114073039977,-1.5402251505070013,-4.575997384050571,-6.852752298447634,-2.1008082704183795,2.8450536354687848,4.951663991055263,1,right
12.032,-0.7455512534846699,0.6727460989392552,-0.25803802852996893,-1.6384961790264907,-4.589439534393598,-6.829129739737959,-2.0757802646347976,2.853984267961086,4.970572653887596,1,right
12.033,-0.7391953312586459,0.6811074949691155,-0.24953820128917012,-1.7374428011599998,-4.60151053551457,-6.804063141746007,-2.0502103049052933,2.8622887950127116,4.987999756581914,1,right
12.038,-0.7326085793047288,0.6894713943064245,-0.24106612211990655,-1.8370053904886032,-4.612195806918368,-6.77755683122794,-2.024108679370841,2.8699551749446965,5.003940792720385,1,right
12.039000000000001,-0.7257932716648896,0.6978355916529565,-0.23262622465940774,-1.9371226083390225,-4.621481381247526,-6.749615866271983,-1.9974861529178807,2.876972236183841,5.018391567781067,1,right
12.042,-0.718751941421469,0.7061978941848324,-0.22422290907719225,-2.0377314531207107,-4.62935393450101,-6.720246032931402,-1.970353962304103,2.883329688942728,5.031348197948059,1,right
12.043,-0.7114873784014226,0.7145561226623407,-0.21586053811609826,-2.1387673137307894,-4.635800814258603,-6.689453842606911,-1.9427238106497002,2.889018134735054,5.04280710972666,1,right
12.047,-0.7040026273028408,0.7229081127180058,-0.20754343318743973,-2.240164027314311,-4.640810065937524,-6.657246530098273,-1.914607861217624,2.8940290737463883,5.0527650404050295,1,right
12.049000000000001,-0.6963009862492556,0.7312517163359044,-0.1992758705337269,-2.3418539416687265,-4.64437045710387,-6.623632052240727,-1.886018730404936,2.8983549100786243,5.061219039399592,1,right
12.050999999999998,-0.688386005750777,0.7395848035239108,-0.19106207746509704,-2.4437679825826737,-4.646471499857395,-6.58861908703781,-1.8569694798659033,2.9019889548844358,5.068166470517066,1,right
12.052,-0.6802614880261814,0.7479052641642336,-0.18290622866949638,-2.5458357264002163,-4.647103471303965,-6.552217033198049,-1.8274736076860942,2.9049254274061154,5.073605015161722,1,right
12.056,-0.6719314866179934,0.7562110100100122,-0.17481244259342035,-2.647985478102522,-4.646257432125917,-6.514436009978989,-1.7975450385253748,2.9071594539312167,5.077532676512174,1,right
12.058,-0.6634003062151389,0.7644999767799056,-0.16678477788862175,-2.7501443551995943,-4.643925243256319,-6.475286857238004,-1.7671981126463827,2.908687064675414,5.079947784687624,1,right
12.061,-0.6546725025864251,0.7727701262889335,-0.15882722991801396,-2.8522383777251163,-4.640099580658943,-6.4347811355853155,-1.7364475737437783,2.909505188601015,5.080849002919209,1,right
12.062000000000001,-0.6457528825235809,0.7810194485429641,-0.15094372731174685,-2.9541925646277,-4.634773948211489,-6.392931126530724,-1.705308555488324,2.9096116461775345,5.080235334737707,1,right
12.065999999999999,-0.636646503694967,0.7892459637179285,-0.143138128565296,-3.0559310368518617,-4.627942688685354,-6.3497498325116135,-1.6737965666986452,2.9090051400887105,5.078106132184554,1,right
12.067,-0.6273586743197919,0.7974477239451196,-0.13541421867470885,-3.1573771274018423,-4.619600992810938,-6.305250976685885,-1.6419274750960473,2.9076852439210397,5.074461105043824,1,right
12.067,-0.6178949525865699,0.8056228148339588,-0.12777570580550376,-3.2584534986810034,-4.609744906413175,-6.259449002369625,-1.6097174898150406,2.9056523890305916,5.069300331063942,1,right
12.071,-0.6082611457563,0.8137693566821246,-0.12022621799077497,-3.3590822673989,-4.598371335597663,-6.212359071995501,-1.5771831432342707,2.90290785007745,5.0626242670892685,1,right
12.072000000000001,-0.5984633089060999,0.8218855053385158,-0.11276929985641393,-3.4591851373372835,-4.585478049963405,-6.163997065464067,-1.5443412729099133,2.899453729878798,5.054433760992788,1,right
12.075999999999999,-0.5885077432796451,0.8299694526899393,-0.10540840937922852,-3.558683540002102,-4.571063683855852,-6.114379577792835,-1.5112090041742279,2.895292944065912,5.044730064321358,1,right
12.077,-0.5784009942174806,0.8380194267473292,-0.09814691469059166,-3.6574987818715075,-4.555127735879529,-6.06352391614627,-1.4778037335679146,2.8904292057336276,5.033514845604836,1,right
12.078,-0.5681498486458032,0.8460336913204177,-0.09098809093935988,-3.7555521945800803,-4.537670567263154,-6.011448096653784,-1.4441431130556455,2.884867010105098,5.020790204300661,1,right
12.081,-0.5577613321096733,0.8540105452849207,-0.08393511722936216,-3.852765283061995,-4.51869339987575,-5.958170841601201,-1.41024503492963,2.8786116191999,5.006558685346,1,right
12.082,-0.5472427053464928,0.861948321456368,-0.07699107365512864,-3.9490598679896203,-4.498198314477902,-5.903711577395604,-1.3761276173052845,2.8716690464915327,4.990823294285258,1,right
12.085999999999999,-0.5366014604031546,0.8698453850913797,-0.07015893847066798,-4.044358221210188,-4.4761882494099945,-5.848090433372402,-1.3418091901123488,2.8640460415383284,4.973587512936405,1,right
12.087,-0.5258453163001957,0.8777001320437141,-0.06344158543369591,-4.138583194196474,-4.452666999704906,-5.791328241328006,-1.307308281484107,2.8557500745698294,4.954855315555221,1,right
12.092,-0.5149822142385653,0.8855109866082319,-0.05684178136955146,-4.231658339787967,-4.427639216566302,-5.733446535621708,-1.272643604446743,2.8467893210087,4.934631185452292,1,right
12.093,-0.5040203123319723,0.8932763990886056,-0.050362183992298346,-4.323508027496112,-4.4011104071492895,-5.674467553687029,-1.2378340438102822,2.8371726459062816,4.912920132013228,1,right
12.095,-0.49296797983263513,0.900994843122624,-0.04400534000333694,-4.414057552644161,-4.373086934575883,-5.614414236789507,-1.2028986431620479,2.8269095882679878,4.8897277080683175,1,right
12.095999999999998,-0.4818337908032581,0.9086648127926488,-0.03777368346585452,-4.503233239608833,-4.343576018113397,-5.553310230864713,-1.1678565918630923,2.8160103452428094,4.865060027553522,1,right
12.100999999999999,-0.4706265171760689,0.9162848195401688,-0.031669534436823715,-4.590962539427492,-4.312585733439557,-5.491179887267092,-1.1327272119476426,2.8044857561493326,4.838923783400451,1,right
12.100999999999999,-0.45935512113386906,0.9238533888948833,-0.025695097832349946,-4.6771741220308085,-4.280125012913864,-5.428048263257184,-1.0975299448252416,2.792347286308794,4.811326265588711,1,right
12.105,-0.44802874675100357,0.9313690570219144,-0.019852462503304465,-4.761797963356919,-4.24620364577042,-5.36394112205172,-1.0622843376849633,2.779607010653899,4.782275379289777,1,right
12.106,-0.43665671084338703,0.9388303670867622,-0.014143600499030611,-4.844765427598964,-4.210832278143236,-5.298884932258187,-1.0270100295008247,2.766277597080316,4.751779663027309,1,right
12.11,-0.4252484929929057,0.9462358654376596,-0.008570366494410335,-4.926009344833507,-4.1740224128307775,-5.232906866512537,-0.9917267365373219,2.752372289506003,4.719848306774675,1,right
12.110999999999999,-0.41381372473014694,0.9535840976097031,-0.0031344973519033042,-5.005464084272792,-4.135786408702323,-5.166034799135942,-0.9564542372538858,2.737904890601793,4.68649116990622,1,right
12.115,-0.40236217787934053,0.9608736041642281,0.002162388211460492,-5.083065623379037,-4.096137479644562,-5.098297302623766,-0.9212123565069621,2.722889744154977,4.651718798914702,1,right
12.116,-0.3909037520896941,0.9681029163895566,0.007318789878801868,-5.158751613074017,-4.055089692942692,-5.029723642777277,-0.8860209489484021,2.707341717025961,4.615542444803189,1,right
12.120999999999999,-0.37944846159661855,0.9752705519037917,0.012333325926602166,-5.232461439272052,-4.012657966986221,-4.960343772286059,-0.8508998815188757,2.6912761806564784,4.5779740800556175,1,right
12.122,-0.3680064212721976,0.9823750102141128,0.017204733360034162,-5.304136280959186,-3.968858068185594,-4.890188322566571,-0.8158690149351108,2.674708992086249,4.53902641508613,1,right
12.125,-0.35658783203490657,0.989414768297124,0.021931867984006356,-5.373719165035861,-3.923706606981763,-4.8192885936599605,-0.7809481840699051,2.65765647443345,4.498712914063308,1,right
12.126,-0.3452029656957158,0.9963882762695053,0.026513704399236275,-5.4411550181347055,-3.8772210328268293,-4.747676541989859,-0.7461571771240608,2.640135396792887,4.457047810001396,1,right
12.13,-0.33386214932494823,1.0032939532174028,0.030949335911305918,-5.506390715619217,-3.8294196280099775,-4.675384765778702,-0.7115157134896493,2.622162953504299,4.414046119006657,1,right
12.130999999999998,-0.3225757492334873,1.0101301832472658,0.03523797433850128,-5.569375127963106,-3.7803215001990322,-4.602446487918967,-0.6770434202043314,2.6037567427418598,4.3697236535630894,1,right
12.134,-0.31135415466921185,1.016895311811088,0.039378949701149815,-5.630059164703929,-3.729946573564127,-4.528895536093671,-0.6427598069511378,2.5849347443919615,4.324097034763119,1,right
12.134,-0.3002077613249838,1.023587642347109,0.043371709774314635,-5.688395816158281,-3.67831557834621,-4.454766319938524,-0.6086842398300844,2.5657152972720842,4.277183703511443,1,right
12.135,-0.2891469547373534,1.030205433265588,0.04721581948858598,-5.744340193079412,-3.625450038729393,-4.380093805036284,-0.5748359146172584,2.546117075898887,4.229001930953952,1,right
12.139000000000001,-0.2781820936443587,1.0367468953003498,0.05091096016626682,-5.797849564431463,-3.571372258872456,-4.3049134835321,-0.5412338304990907,2.5261590670994405,4.179570828506275,1,right
12.14,-0.267323493379328,1.0432101892411958,0.05445692857840559,-5.84888339344782,-3.5161053069512502,-4.2292613411569455,-0.5078967649985882,2.5058605466714097,4.128910357726433,1,right
12.145,-0.25658140939014096,1.0495934240595195,0.057853635805045114,-5.8974033721342325,-3.4596729970601596,-4.1531738204447315,-0.47484325032217867,2.4852410561403038,4.077041340044904,1,right
12.145,-0.24596602097167553,1.0558946554387727,0.06110110588203369,-5.943373454370283,-3.402099868817343,-4.076687779927174,-0.4420915510849861,2.4643203795739073,4.023985466235423,1,right
12.145999999999999,-0.23548741528446457,1.0621118847220716,0.06419947422293176,-5.986759887740734,-3.3434111646000493,-3.9998404492199975,-0.409659643318809,2.4431185203956187,3.9697653054810265,1,right
12.149000000000001,-0.2251555717120423,1.0682430582904001,0.06714898581157439,-6.027531244145894,-3.283632804758123,-3.9226693805667394,-0.3775651946678865,2.4216556781375043,3.914404313886372,1,right
12.15,-0.21498034658740586,1.0742860673855896,0.06994999316839763,-6.065658449097553,-3.22279136191579,-3.8452123985825177,-0.34582554567840434,2.3999522250730125,3.85792684228399,1,right
12.154000000000002,-0.20497145830348612,1.0802387483915912,0.07260295410098318,-6.1011148095245025,-3.1609140358937444,-3.767507550593059,-0.31445769208860963,2.378028682668485,3.800358143178732,1,right
12.155,-0.1951384728182728,1.0860988835844125,0.07510842925538837,-6.133876039979287,-3.0980286303552953,-3.689593059309361,-0.28347826802737475,2.35590569779185,3.741724376671448,1,right
12.158,-0.18549078956378404,1.0918642023548175,0.07746707948798841,-6.163920287265496,-3.034163531512028,-3.6115072784003552,-0.2529035300300658,2.3336040186161955,3.682052615199693,1,right
12.159,-0.17603762775938325,1.097532382899873,0.07967966307843895,-6.191228153572353,-2.969347688796304,-3.5332886508712287,-0.22274934178164058,2.3111444701552832,3.6213708469301467,1,right
12.164000000000001,-0.16678801311451485,1.1031010543729347,0.08174703280875999,-6.2157827182106935,-2.9036105973200055,-3.454975670023652,-0.19303115949801514,2.2885479293674975,3.55970797763436,1,right
12.165,-0.15775076488746828,1.108567799478625,0.08367013294620494,-6.237569558036581,-2.8369822819361277,-3.3766068427736844,-0.16376401785790096,2.2658352997642064,3.497093830876474,1,right
12.17,-0.14893448324597527,1.1139301574985703,0.08544999618661737,-6.256576766640988,-2.769493282717078,-3.298220655102737,-0.13496251639851994,2.243027485458061,3.4335591463386397,1,right
12.17,-0.14034753685488027,1.119185627733412,0.08708774063631324,-6.272794972376028,-2.7011746416609017,-3.2198555394167,-0.1066408062898577,2.2201453645863594,3.369135576107075,1,right
12.174000000000001,-0.13199805060226497,1.1243316733477513,0.0885845669296196,-6.286217355280325,-2.6320578904340963,-3.141549843588189,-0.07881257740340994,2.1972097620442814,3.303855678738941,1,right
12.175,-0.12389389337431143,1.1293657256086775,0.08994175558835489,-6.296839662958086,-2.562175038957204,-3.0633418014568057,-0.05149104559271334,2.174241421462509,3.2377529109275986,1,right
12.177999999999999,-0.11604266580266498,1.134285188514541,0.09116066472395247,-6.304660225458464,-2.491558564636988,-2.9852695045623787,-0.024688940104329538,2.151260976363551,3.1708616165812273,1,right
12.177999999999999,-0.10845168793296042,1.139087443816232,0.09224272816710109,-6.309679969193745,-2.420241402046708,-2.907370874886308,0.0015815089606322154,2.128288920430919,3.1032170131273635,1,right
12.183,-0.10112798679322678,1.1437698564361218,0.09318945409305482,-6.311902429926893,-2.348256932853803,-2.829683638376434,0.027308583212913882,2.105345576825229,3.034855174853529,1,right
12.184000000000001,-0.09407828386944071,1.1483297802894874,0.09400242419952737,-6.311333764850897,-2.2756389757922095,-2.7522452990312263,0.052481088646397944,2.082451066481248,2.965813013091861,1,right
12.189,-0.08730898251732025,1.1527645645119855,0.09468329348614311,-6.307982763774373,-2.2024217764744867,-2.6750931133195888,0.07708836848972989,2.0596252753199367,2.8961282530535057,1,right
12.19,-0.0808261553518565,1.1570715600967776,0.09523379067061633,-6.301860859419798,-2.1286399968370495,-2.598264064713198,0.1011203163121568,2.03688782030963,2.8258394071164608,1,right
12.193,-0.07463553165989761,1.1612481269452768,0.0956557192534596,-6.292982136832773,-2.0543287040099596,-2.521794838108977,0.124567389455873,2.014258014310617,2.754985744368613,1,right
12.194,-0.06874248487930473,1.165291641335213,0.09595095921965245,-6.281363341892704,-1.9795233584010203,-2.4457217939201668,0.1474206228655412,1.991754829637597,2.683607256205869,1,right
12.198,-0.06315202018296262,1.1691995038101977,0.09612146935494448,-6.267023888907361,-1.904259800782293,-2.3700809416153494,0.16967164338400575,1.9693968602747327,2.6117446177835393,1,right
12.199000000000002,-0.0578687621987716,1.1729691474972168,0.09616929015726254,-6.249985867265817,-1.828574238165638,-2.294907912485837,0.19131268458153652,1.9472022826783317,2.5394391451175187,1,right
12.203,-0.05289694289044257,1.1765980468607382,0.09609654732868733,-6.230274047116464,-1.7525032282524595,-2.2202379314229566,0.21233660218423567,1.9251888151025547,2.466732747630301,1,right
12.204,-0.048240389620255925,1.1800837269023035,0.09590545582980728,-6.207915884028944,-1.6760836622415205,-2.146105787488019,0.23273689011644266,1.903373675464174,2.3936678760641423,1,right
12.204,-0.04390251341177818,1.183423772812704,0.09559832446681414,-6.182941522591091,-1.5993527457774814,-2.0725458030590915,0.2525076969248716,1.8817735381639944,2.320287466325747,1,right
12.207,-0.03988629742585807,1.1866158400800306,0.0951775609682739,-6.155383798884337,-1.5223479778217113,-1.9995918013401444,0.27164384190881485,1.860404491005051,2.246634880983713,1,right
12.208,-0.036194285660820544,1.1896576650469806,0.09464567748944491,-6.125278241773415,-1.4451071272259177,-1.9272770720196817,0.2901408300336071,1.8392819937493683,2.17275385078227,1,right
12.213,-0.032828571892313765,1.1925470758894596,0.0940052964529366,-6.092663072938666,-1.3676682067882497,-1.8556343348676119,0.30799486494808687,1.8184208394545829,2.0986884178906093,1,right
12.213,-0.02979078887715498,1.1952820039585457,0.09325915660798001,-6.0575792055355056,-1.2900694446793735,-1.7846957011724531,0.3252028598666002,1.7978351190104018,2.024482881448313,1,right
12.214,-0.027082097851797233,1.1978604954039789,0.09241011918569338,-6.020070241176429,-1.2123492536685188,-1.7144926334808113,0.34176244631960384,1.777538188894471,1.950181745323411,1,right
12.217,-0.024703178358734968,1.2002807229887738,0.09146117404338916,-5.980182464596345,-1.1345461995566268,-1.6450559051074072,0.35767198082415275,1.7575426420877527,1.8758296678703872,1,right
12.218,-0.022654218442751662,1.2025409979974224,0.09041544570252492,-5.937964835173137,-1.0566989707664467,-1.576415561443956,0.37293054952370014,1.7378602820903049,1.8014714134750556,1,right
12.222000000000001,-0.02093490528048241,1.2046397821210686,0.08927619917423604,-5.893468974650228,-0.97884635049591,-1.5086008845393089,0.3875379708447777,1.7185020999791845,1.7271518056729593,1,right
12.222999999999999,-0.019544416329669082,1.2065756991880163,0.08804684544034529,-5.846749150728419,-0.9010271918631618,-1.4416403614210576,0.40149479621625783,1.6994782544510543,1.6529156816277952,1,right
12.227,-0.018481411086832912,1.2083475466188733,0.08673094642556657,-5.797862256369498,-0.8232803959283331,-1.3755616560730763,0.414802308895032,1.6807980547929766,1.5788078477563448,1,right
12.228,-0.01774402351376486,1.2099543065207532,0.08533221925725976,-5.7468677846838565,-0.7456448923684876,-1.3103915848742576,0.42746252094006837,1.662469946725805,1.5048730362865117,1,right
12.232000000000001,-0.017329855143307774,1.2113951563800858,0.0838545395705063,-5.693827799268069,-0.668159622582273,-1.2461560953061293,0.4394781683749473,1.6445015010655433,1.4311558625353,1,right
12.232999999999999,-0.01723596882689973,1.2126694793578445,0.08230194359865628,-5.638806899852111,-0.590863525001016,-1.182880247739596,0.45085270457710624,1.626899405149026,1.3577007826939396,1,right
12.238,-0.017458883070409523,1.2137768742256614,0.08067862880177405,-5.581872183109844,-0.5137955223833167,-1.1205882001136376,0.46159029193017115,1.6096694569712873,1.284552051907855,1,right
12.239,-0.017994566946156178,1.2147171649976514,0.07898895281305786,-5.523093198480559,-0.43699451087063407,-1.059303195321488,0.4716957917738981,1.5928165619830106,1.2117536824398105,1,right
12.242,-0.018838435673494473,1.2154904103051614,0.07723743050508358,-5.462541898843638,-0.36049935058189414,-0.999047551122576,0.4811747526844108,1.5763447324975088,1.1393494017053027,1,right
12.243,-0.01998534710411292,1.2160969125291317,0.07542872898810003,-5.400292585882941,-0.2843488575258086,-0.9398426524013241,0.4900333971155908,1.560257089657746,1.0673826099701647,1,right
12.247,-0.021429599486669445,1.2165372266495182,0.07356766036259281,-5.3364218499722185,-0.20858179661035878,-0.8817089455968002,0.4982786064306621,1.5445558679149964,0.9958963375013414,1,right
12.248,-0.023164930981626537,1.2168121686985358,0.07165917207199132,-5.27100850440775,-0.1332368755297792,-0.8246659351301717,0.505917904351215,1.5292424219718301,0.9249332009629342,1,right
12.251,-0.02518452143986453,1.2169228236240237,0.06970833474870156,-5.204133513809559,-0.05835273931036304,-0.7687321816599231,0.5129594388491319,1.51431723614321,0.8545353588508631,1,right
12.252,-0.027480996952901977,1.2168705522925303,0.06772032752115205,-5.1358799165078795,0.016032034702484765,-0.7139253019978784,0.5194119625051172,1.499779936090603,0.7847444657608813,1,right
12.257,-0.030046437633827767,1.2166569972983374,0.06570042084541669,-5.066332740727148,0.08987894163231,-0.660261970522199,0.5252848113557959,1.4856293028851104,0.7156016252861715,1,right
12.258,-0.0328723889991238,1.2162840872034661,0.06365395703158785,-4.995578914375572,0.16314955384982605,-0.6077579219267103,0.5305878822496262,1.4718632893567434,0.6471473413423805,1,right
12.262,-0.035949877196825956,1.2157540388247463,0.06158632874312503,-4.923707168244388,0.23580552595488985,-0.5564279551491493,0.5353316087301853,1.4584790386880786,0.5794214677196895,1,right
12.263,-0.039269428174655806,1.2150693572150224,0.059502955843656766,-4.850807932417217,0.3078086001742969,-0.5062859383242064,0.5395269354637175,1.4454729052116386,0.5124631556633795,1,right
12.267000000000001,-0.04282109071524682,1.2142328330560261,0.05740926103224931,-4.77697322568643,0.3791206123857991,-0.4573448146105626,0.543185291226204,1.4328404773714443,0.44631079928632583,1,right
12.267999999999999,-0.046594463098843256,1.2132475372810827,0.05531064473718538,-4.702296537770269,0.4497034989769844,-0.4096166087444949,0.5463185604636039,1.420576602810281,0.3810019786189475,1,right
12.270999999999999,-0.05057872301314776,1.2121168128585948,0.05321245973131647,-4.626872704121487,0.5195193047457826,-0.363112434176033,0.5489390534697439,1.40867541551823,0.3165734002325645,1,right
12.272,-0.054762660261915556,1.2108442637644923,0.051119985882018694,-4.550797773115618,0.5885301920473739,-0.3178425006470986,0.5510594753867837,1.3971303648436795,0.25306083601554036,1,right
12.272,-0.05913471183886602,1.209433741239241,0.04903840536423782,-4.474168865404541,0.6566984513901863,-0.27381612207454065,0.5526928945232717,1.3859342459253745,0.19049906183801604,1,right
12.275,-0.06368299895155734,1.2078893274891556,0.046972778601488165,-4.397084025218867,0.723986513681461,-0.23104172460449465,0.5538527106453288,1.3750792309697017,0.12892179848467766,1,right
12.276,-0.06839536553771075,1.206215317083191,0.04492802119510323,-4.3196420634008454,0.7903569643205549,-0.1895268547080375,0.5545526237330615,1.364556900933828,0.06836165659651941,1,right
12.280999999999999,-0.07325941777392399,1.2044161963981872,0.04290888211393967,-4.241942391947825,0.8557725593357292,-0.14927818719167982,0.5548066034013243,1.3543582774200336,0.008850086211286407,1,right
12.282,-0.0782625641124239,1.2024966215343034,0.040919923387564804,-4.164084850052746,0.920196243736816,-0.11030153299824372,0.5546288590205888,1.3444738547229536,-0.04958266914600436,1,right
12.283,-0.0833920554869506,1.2004613951262284,0.03896550147386274,-4.0861695226654104,0.9835911721493833,-0.07260184666934585,0.5540338105399608,1.334893631999488,-0.10690761399637055,1,right
12.286,-0.08863502544798915,1.1983154424241995,0.037049750386118685,-4.00829655446663,1.0459207316058312,-0.03618323333003899,0.5530360600131076,1.3256071455320562,-0.16309703823489421,1,right
12.287,-0.09397853006759764,1.1960637869820974,0.035176566585529596,-3.9305659631852277,1.1071485662618645,-0.0010489550518740969,0.5516503638266127,1.3166035010567798,-0.21812455042127388,1,right
12.290999999999999,-0.09940958747731259,1.1937115263175833,0.03334959557745429,-3.85307745514936,1.1672386039079719,0.032798563537744095,0.549891605629083,1.3078714061290517,-0.27196510719751893,1,right
12.290999999999999,-0.10491521689788869,1.191263807954545,0.031572220093831094,-3.775930244094683,1.2261550843299225,0.06535773051405588,0.5477747699581714,1.2993992024997898,-0.32459503899414616,1,right
12.295,-0.11048247701594621,1.1887258062601196,0.029847549709260793,-3.6992228732139725,1.283862589673269,0.09662778288381499,0.5453149165615684,1.2911748984764855,-0.37599207218290454,1,right
12.296,-0.1160985035598033,1.186102700450168,0.02817841173804829,-3.623053040225787,1.3403260769844019,0.126608783881758,0.5425271554069406,1.283186201243937,-0.42613534783064616,1,right
12.3,-0.12175054591927759,1.1833996540806495,0.026567343297320405,-3.5475174252407733,1.3955109130973293,0.15530162142820694,0.5394266223747689,1.2754205491203012,-0.47500543720548793,1,right
12.300999999999998,-0.12742600264523468,1.1806217962715186,0.02501658448533015,-3.4727115212054707,1.4493829120318853,0.1827080078376358,0.5360284556270515,1.267865143724816,-0.5225843541828682,1,right
12.305,-0.1331124556581588,1.177774204824039,0.023528072694297814,-3.3987294667049848,1.5019083750654985,0.20883048086433031,0.5323477726438965,1.2605069820342147,-0.5688555646955054,1,right
12.306,-0.1387977029906085,1.174861891297631,0.022103438135931762,-3.3256638809077637,1.5530541336369743,0.23367240616757143,0.5283996479191294,1.2533328883054928,-0.6138039933676105,1,right
12.311,-0.14446978988188128,1.1718897880178516,0.020744000695864306,-3.253605700437774,1.602787595236984,0.25723798127507924,0.5241990913051845,1.2463295458432995,-0.657416027469999,1,right
12.312000000000001,-0.15011703803063373,1.168862736903595,0.019450768248408475,-3.1826440179617483,1.6510767924360787,0.2795322411197677,0.5197610269967426,1.2394835285907841,-0.6996795183289952,1,right
12.315,-0.1557280727935209,1.1657854799403178,0.018224436557330605,-3.1128659222817987,1.6978904351970812,0.30056106522118325,0.5151002731418021,1.2327813325232617,-0.7405837803182236,1,right
12.315999999999999,-0.16129184810185176,1.1626626510952123,0.01706539086869849,-3.044356339726584,1.7431979666146644,0.3203311865793356,0.5102315220681497,1.2262094068245495,-0.7801195875585485,1,right
12.32,-0.16679766886490593,1.159498769471604,0.01597370927808046,-2.9771978766373666,1.78696962222077,0.3388502023449796,0.5051693211125146,1.2197541848262765,-0.818279168447548,1,right
12.32,-0.17223521065092842,1.1562982335273342,0.014949167932563432,-2.9114706627486844,1.829176492990281,0.3561265863267715,0.4999280540390458,1.2134021146908862,-0.8550561981360127,1,right
12.325999999999999,-0.17759453649445273,1.1530653162236442,0.013991248106027353,-2.847252195267017,1.8697905921770426,0.37216970339211236,0.49452192303315995,1.2071396898194222,-0.8904457890650256,1,right
12.327,-0.18286611077021617,1.149804161014907,0.01309914515505634,-2.7846171834546722,1.9087849261059153,0.38698982581489455,0.4889649312562469,1.2009534789655245,-0.9244444796732331,1,right
12.329,-0.18804081018479474,1.1465187786279618,0.012271779316215517,-2.7236373935302574,1.9461335690420458,0.40059815161980417,0.4832708659462077,1.1948301560373584,-0.9570502213799478,1,right
12.33,-0.19310993204539104,1.1432130446109352,0.011507808247166752,-2.6643814937014074,1.9818117422539747,0.41300682496928853,0.4774532820483235,1.1887565295694573,-0.9882623639457379,1,right
12.334000000000001,-0.19806520005137784,1.1398906976559924,0.010805641158329425,-2.6069148991499933,2.0157958973825414,0.42422895863578547,0.47152548636052266,1.1827195718466799,-1.0180816393081706,1,right
12.335,-0.20289876790602746,1.1365553387158482,0.010163454344291138,-2.5512996167947795,2.048063804222828,0.43427865859833625,0.4655005221767173,1.17670644766266,-1.046510143986375,1,right
12.339,-0.20760322106044232,1.1332104309346087,0.00957920791148588,-2.4975940896614413,2.078594643021585,0.44317105079925595,0.45939115441152445,1.1707045426952796,-1.0735513201440905,1,right
12.341,-0.21217157688254687,1.1298593003990558,0.009050663507389622,-2.4458530406949985,2.1073691013877203,0.4509223100931293,0.4532098551998363,1.164701491469002,-1.0992099353899574,1,right
12.341,-0.21659728349585725,1.1265051376956268,0.008575402883483737,-2.396127315855011,2.134369475908499,0.45754969141703594,0.44696879001673523,1.1586852048100693,-1.1234920613552815,1,right
12.345,-0.22087421747107755,1.1231510002397964,0.008150847160163708,-2.3484637263393813,2.1595797785591233,0.463071563207585,0.44067980445717597,1.1526438965855386,-1.1464050510233392,1,right
12.345,-0.22499668051052632,1.1197998153248439,0.007774276677914353,-2.3029048897882336,2.182985847988316,0.4675074430870629,0.4343544118669648,1.1465661094532107,-1.1679575147457908,1,right
12.349,-0.22895939525537784,1.1164543838109393,0.007442851298083903,-2.2594890706447393,2.2045754654908496,0.4708780356781613,0.42800378196407707,1.1404407394133895,-1.1881592949123494,1,right
12.35,-0.23275750034252515,1.1131173843547195,0.00715363098765726,-2.218250021453804,2.2243384741399073,0.47320527160551995,0.42163873049505096,1.1342570590683891,-1.2070214392981027,1,right
12.350999999999999,-0.23638654481998483,1.1097913780750845,0.006903596516089171,-2.179216829762156,2.242266897147703,0.4745123453026953,0.4152697099187715,1.1280047395595232,-1.2245561731435106,1,right
12.354000000000001,-0.23984248201505537,1.106478813548003,0.00668967008709546,-2.1424137768876523,2.2583550501846643,0.47482374844204916,0.4089068010994264,1.1216738711639556,-1.2407768700251416,1,right
12.354000000000001,-0.2431216629572678,1.103182032004255,0.006508735699550533,-2.1078602132337374,2.272599643715153,0.47416529660011647,0.4025597059903697,1.115254982533625,-1.2556980215713562,1,right
12.359000000000002,-0.24622082947591564,1.0999032725791893,0.006357659003756142,-2.0755704519547216,2.2849998738017048,0.47256414820458975,0.3962377412906193,1.108739058558264,-1.2693352060733423,1,right
12.359000000000002,-0.24913710709808382,1.0966446774505298,0.006233306421411578,-2.045553681185808,2.295557501157411,0.4700488156042586,0.38994983305572906,1.1021175568342998,-1.281705056038128,1,right
12.364,-0.2518679978620156,1.0934082967022791,0.006132563323026156,-2.0178138947386444,2.304276918487366,0.46664916826007025,0.3837045122448247,1.095382422721185,-1.2928252247264735,1,right
12.365,-0.2544113731375468,1.090196092767929,0.006052351086984289,-1.9923498411696512,2.3111652061547976,0.46239642805277387,0.37750991118565796,1.0885261029664166,-1.3027143517148503,1,right
12.37,-0.2567654665173253,1.0870099443360453,0.005989642889785412,-1.969154991134914,2.316232176202235,0.4573231566999866,0.37137376093963637,1.0815415578802017,-1.3113920275170832,1,right
12.370999999999999,-0.25892886681643823,1.0838516496462363,0.005941478095313244,-1.948217522951939,2.3194904047527567,0.45146323527298293,0.3653033895489047,1.074422272040413,-1.31887875729764,1,right
12.374,-0.26090051119842395,1.080722929158291,0.0059049751308742895,-1.9295203262951133,2.3209552528111486,0.44485183580105975,0.35930572114769777,1.0671622635081157,-1.3251959237050213,1,right
12.374,-0.262679678434118,1.077625427631248,0.005877342768951607,-1.913041023958207,2.3206448754795415,0.43752538494897675,0.3533872759203548,1.0597560915335902,-1.3303657488502203,1,right
12.378,-0.2642659822959369,1.0745607156913695,0.005855889772901592,-1.898752011623738,2.3185802195969285,0.4295215197507131,0.34755417088857055,1.0521988627323846,-1.3344112554518077,1,right
12.378,-0.2656593650911443,1.071530290993102,0.005838032900378331,-1.8866205155854336,2.3147850098068057,0.4208790353806269,0.3418121215106681,1.0444862357105316,-1.3373562271658372,1,right
12.383,-0.266860091338383,1.0685355790870212,0.005821303285330915,-1.8766086683763905,2.30928572305209,0.41163782494105006,0.3361664440759037,1.0366144241176392,-1.339225168115473,1,right
12.384,-0.2678687415884258,1.0655779341078946,0.005803351243729619,-1.8686736022618156,2.302111551491436,0.4018388112434117,0.33062205887706003,1.0285801981061404,-1.3400432616320106,1,right
12.388,-0.26868620638175167,1.0626586393873005,0.00578194957609786,-1.8627675605614158,2.293294353826106,0.39152387055814586,0.3251834941448427,1.020380884174534,-1.3398363282158061,1,right
12.389000000000001,-0.26931368032246916,1.0597789080802837,0.005754995470511473,-1.8588380267725806,2.282868595021654,0.38073574830692575,0.3198548907278736,1.0120143633719978,-1.338630782722535,1,right
12.394,-0.26975265623133066,1.0569398838757584,0.005720511137503821,-1.8568278714714594,2.270871274403889,0.3695179666691642,0.31464000750236154,1.003479067841287,-1.3364535907771884,1,right
12.395,-0.2700049193223707,1.0541426418368842,0.005676643331089984,-1.8566755169748583,2.2573418421038607,0.3579147240732398,0.3095422274958371,0.9947739756763607,-1.3333322244152657,1,right
12.398,-0.2700725413296541,1.0513881893908716,0.005621661930032711,-1.8583151197515388,2.24232210382199,0.34597078654155233,0.3045645647096514,0.985898604070696,-1.329294616947764,1,right
12.399000000000001,-0.2699578744926954,1.0486774674592523,0.005553957768205591,-1.861676770577017,2.225856113876975,0.33373137085727544,0.29970967162526496,0.9768530007317693,-1.324369117043763,1,right
12.404000000000002,-0.2696635452921145,1.0460113516949072,0.0054720399014010134,-1.8666867124312778,2.2079900565006882,0.32124201951957143,0.2949798473796893,0.9676377335366966,-1.3185844420217034,1,right
12.405,-0.26919244781516677,1.0433906537784128,0.0053745324725199516,-1.8732675761439697,2.188772115336015,0.3085484674530522,0.2903770465957866,0.9582538784035344,-1.3119696303378163,1,right
12.409,-0.268547736630395,1.0408161227261317,0.005260171295883477,-1.881338633796574,2.168252331090432,0.29569650043642504,0.2859028888446034,0.9487030053862341,-1.304553993300201,1,right
12.41,-0.2677328190663629,1.0382884461719066,0.005127800240374981,-1.8908160698957786,2.146482447294096,0.28273180521454283,0.2815586686728561,0.9389871631706245,-1.2963670662474662,1,right
12.411,-0.26675134681687573,1.0358082515971536,0.004976367459091456,-1.9016132703367818,2.1235157441073613,0.26969981125749154,0.2773453660491042,0.9291088624540874,-1.287438559811686,1,right
12.412,-0.265607206819852,1.0333761074971313,0.004804921491673755,-1.9136411291795368,2.099406860118865,0.2566455241298938,0.2732636570381001,0.9190710588609863,-1.2777983120960206,1,right
12.414000000000001,-0.26430451136999306,1.0309925244841132,0.004612607255020653,-1.9268083732649737,2.074211602071777,0.24361335043328178,0.2693139245575926,0.9088771358755582,-1.2674762423822326,1,right
12.419,-0.26284758743338343,1.0286579563416143,0.004398661937641884,-1.9410219041858905,2.0479867428157603,0.23064691462274617,0.265496269152183,0.8985308879677474,-1.2565023065979888,1,right
12.419,-0.261240965143531,1.0263728010541673,0.004162410817314341,-1.956187154550053,2.0207898095960255,0.21778886969173802,0.2618105197636269,0.8880365039171245,-1.2449064545589024,1,right
12.42,-0.2594893654715944,1.0241374018404774,0.00390326302452304,-1.9722084508310886,1.9926788680584941,0.20508070676588722,0.2582562444862352,0.8773985503056168,-1.2327185889557222,1,right
12.422,-0.2575976870771028,1.0219520482183526,0.0036207072745598695,-1.9889893725250831,1.963712309164241,0.19256257033962373,0.2548327612964058,0.8666219551493356,-1.2199685260552118,1,right
12.423,-0.25557099236471376,1.0198169771334005,0.003314307593944039,-2.006433099914205,1.9339486443864866,0.1802730841969598,0.25153914874569827,0.8557119916393637,-1.2066859580814695,1,right
12.427,-0.25341449280185246,1.0177323741853617,0.0029836990746939514,-2.0244427473863498,1.903446311290025,0.16824919001129635,0.24837425660723852,0.8446742619609525,-1.1929004172427404,1,right
12.427999999999999,-0.2511335335880095,1.015698374978836,0.0026285836992630067,-2.0429216818426794,1.8722634897734232,0.15652599892692173,0.24533671646561758,0.8335146811601822,-1.1786412413671588,1,right
12.432,-0.24873357780134567,1.0137150666111356,0.0022487262813477697,-2.0617738262429466,1.8404579288886023,0.1451366560869788,0.24242495224081947,0.8222394610267568,-1.163937541109326,1,right
12.432,-0.24622019017684402,1.0117824892954141,0.001843950558339712,-2.080903948340142,1.808086784150314,0.13411221807343346,0.23963719063708414,0.8108550939612367,-1.148818168688186,1,right
12.436,-0.24359902069069767,1.0099006381056088,0.0014141354568251514,-2.1002179346573393,1.7752064652460506,0.12348154322543943,0.23697147150797537,0.7993683367946642,-1.1333116881152954,1,right
12.437000000000001,-0.2408757881359854,1.0080694648227595,0.0009592115455769782,-2.119623049760689,1.7418724940551407,0.1132711948034467,0.23442565812928579,0.7877861945282059,-1.117446346871314,1,right
12.442,-0.23805626387295664,1.0062888798597438,0.00047915769469246747,-2.1390281808833183,1.708139372884163,0.10350535696744599,0.23199744737176548,0.7761159039601211,-1.1012500489873418,1,right
12.443,-0.2351462559240415,1.0045587542408856,-2.6002031675267003e-05,-2.1583440679554147,1.6740604628243394,0.09420576353886723,0.22968437976601247,0.764364917167075,-1.0847503294866152,1,right
12.449000000000002,-0.23215159356227646,1.0028789216122591,-0.0005562012172357335,-2.1774835190960498,1.639687872135264,0.08539163951685241,0.22748384945220593,0.7525408848065358,-1.0679743301410525,1,right
12.45,-0.22907811251615423,1.0012491802585937,-0.0011113336443880537,-2.1963616116222924,1.6050723545581789,0.07707965532089504,0.22539311400770198,0.740651639206751,-1.0509487764961707,1,right
12.452,-0.2259316408872345,0.9996692951055605,-0.0016912555439300635,-2.214895878630914,1.5702632174610074,0.06928389373317222,0.22340930414584098,0.7287051772105585,-1.0336999561170406,1,right
12.453,-0.2227179858511678,0.9981389996928555,-0.0022957875511019177,-2.2330064812074872,1.535308239716512,0.06201582951528477,0.22152943327963942,0.7167096427390837,-1.0162536980071413,1,right
12.456,-0.21944292118941083,0.996657998112334,-0.002924716386063391,-2.250616366316928,1.5002535992142418,0.055284321675557684,0.2197504069443537,0.7046733090411849,-0.9986353531512601,1,right
12.456,-0.21611217567914356,0.9952259669135598,-0.003577796279457423,-2.2676514104285586,1.4651438099063725,0.049095618364530136,0.21806903207321063,0.6926045605943449,-0.9808697761329453,1,right
12.463,-0.21273142235327483,0.9938425569842738,-0.004254750162827001,-2.2840405489275484,1.430021668287127,0.043453374377775314,0.2164820261208973,0.6805118746225667,-0.9629813077764464,1,right
12.464,-0.2093062686305304,0.9925073954149355,-0.004955270643875098,-2.2997158913631623,1.3949282092051651,0.03835868124672543,0.21498602602969336,0.6684038021967149,-0.9449937587625803,1,right
12.467,-0.20584224730667774,0.9912200873552922,-0.005679020789463534,-2.314612822582604,1.3599026709081778,0.03381010989973149,0.21357759703340828,0.6562889488826515,-0.9269303941675446,1,right
12.467,-0.20234480839021723,0.9899802178675082,-0.006425634742879122,-2.328670089797385,1.3249824692188739,0.029803765877151445,0.21225324129455667,0.6441759549024426,-0.9088139188733366,1,right
12.470999999999998,-0.19881931175642192,0.9887873537743843,-0.007194718202905688,-2.341829875627112,1.2902031807416308,0.02633335708582799,0.21100940637046747,0.6320734747738737,-0.8906664637981562,1,right
12.472000000000001,-0.19527102058034637,0.9876410454928861,-0.007985848789941774,-2.354037857163359,1.2555985349992722,0.02339027407988081,0.20984249350427328,0.6199901563934888,-0.8725095728949513,1,right
12.475999999999999,-0.1917050954936616,0.9865408288351564,-0.008798576321093916,-2.365243251093877,1.221200415399732,0.020963682856290668,0.20874886573696738,0.6079346195283749,-0.8543641908661076,1,right
12.475999999999999,-0.18812658939718013,0.9854862267551511,-0.00963242301342555,-2.375398844924835,1.1870388689327653,0.019040630155287192,0.20772485583618913,0.5959154337163972,-0.8362506515572978,1,right
12.477,-0.18454044285720092,0.9844767510207586,-0.01048688363118898,-2.384461014336051,1.1531421244973648,0.01760616125706242,0.20676677403382587,0.583941095746921,-0.8181886670689739,1,right
12.481,-0.18095148001918976,0.9835119037960787,-0.011361425586888147,-2.392389726701295,1.119536619761132,0.016643450267811312,0.20587091555790338,0.5720200072042296,-0.8001973177599152,1,right
12.482000000000001,-0.17736440497539363,0.9825911791215378,-0.012255488997525127,-2.3991485308027567,1.0862470364535266,0.01613394288954268,0.20503356794064365,0.5601604527282256,-0.7822950433928376,1,right
12.485999999999999,-0.1737837985149662,0.9817140642790092,-0.01316848668982528,-2.4047045327656145,1.0532963439956733,0.01605751166950344,0.20425101808855056,0.5483705794748555,-0.7644996355967133,1,right
12.487,-0.17021411517480506,0.9808800410274373,-0.014099804146507092,-2.409028358425433,1.0207058512325664,0.016392623400104115,0.2035195591073909,0.5366583779487607,-0.746828231684756,1,right
12.488,-0.16665968051124055,0.9800885866943085,-0.015048799391549485,-2.412094103287901,0.9884952653460333,0.017116516709998895,0.20283549687889824,0.5250316642085575,-0.7292973097917816,1,right
12.49,-0.16312468852773607,0.979339175110824,-0.016014802822756247,-2.413879272947204,0.9566827557887078,0.018205384951454896,0.20219515638694396,0.5134980634108923,-0.7119226852798585,1,right
12.491,-0.1596131992101197,0.9786312773833583,-0.016997117011730012,-2.414364717775935,0.9252850203919171,0.019634557858791944,0.20159488779106588,0.5020649946596456,-0.6947195083615177,1,right
12.495,-0.15612913613201174,0.9779643624993286,-0.017995016504364185,-2.413534564745706,0.8943173514898544,0.02137867708532172,0.20103107224538172,0.4907396571268986,-0.6777022628901985,1,right
12.497,-0.1526762841049907,0.9773378977716143,-0.019007747666303466,-2.41137614752371,0.8637937011426269,0.023411863664021565,0.2005001274610398,0.4795290174125463,-0.6608847662680445,1,right
12.5,-0.14925828686636802,0.9767513491320027,-0.020034528621672324,-2.407879935036613,0.8337267452303406,0.02570787706968737,0.19999851301047494,0.4684397981097281,-0.6442801704216657,1,right
12.501,-0.14587864481874196,0.9762041812896379,-0.02107454932688443,-2.4030394584993733,0.8041279463292914,0.028240265887520256,0.19952273537184212,0.4574784675435569,-0.6279009637970077,1,right
12.505,-0.1425407128537564,0.9756958577737843,-0.0221269718062889,-2.396851236902762,0.7750076152826006,0.030982510093931437,0.19906935271209478,0.44665123065095563,-0.611758974325044,1,right
12.505999999999998,-0.139247698305037,0.9752258408802102,-0.02319093055744898,-2.389314700949527,0.7463749713789479,0.033908154956104136,0.19863497940725958,0.43596402096975806,-0.5958653733106204,1,right
12.511,-0.1360026590822952,0.9747935915362113,-0.02426553311746736,-2.3804321154252888,0.7182382010543923,0.0369909365575304,0.19821629029853322,0.4254224937055991,-0.5802306801974205,1,right
12.511,-0.13280850204157812,0.9743985690917984,-0.025349860773221038,-2.37020849998639,0.6906045150336485,0.0402048989573436,0.1978100246828916,0.41503201984550364,-0.5648647681627077,1,right
12.515999999999998,-0.12966798164701354,0.9740402310372577,-0.026442969397647727,-2.3586515483430492,0.6634802038285805,0.04352450299179469,0.19741299003695648,0.4047976812874842,-0.5497768704962054,1,right
12.517000000000001,-0.12658369897764232,0.9737180326438718,-0.027543890397088554,-2.3457715458123185,0.6368706915130988,0.046924726726672375,0.19702206547290937,0.39472426695587604,-0.5349755877182255,1,right
12.520999999999999,-0.12355810112822924,0.973431426526458,-0.02865163175875954,-2.3315812852114868,0.610780587695091,0.05038115756984513,0.19663420492527955,0.38481626987257206,-0.5204688953929204,1,right
12.520999999999999,-0.12059348104394849,0.9731798621315961,-0.029765179194160066,-2.316095981058756,0.5852137376074766,0.05387007605340742,0.1962464400674578,0.3750778851547664,-0.5062641525933343,1,right
12.525,-0.11769197781609676,0.9729627851605723,-0.03088349738384106,-2.299333182044209,0.5601732702419544,0.05736853129514561,0.19585588295680725,0.36551300891027894,-0.49236811097575156,1,right
12.526,-0.11485557745156243,0.9727796369385752,-0.032005531337009924,-2.281312681730347,0.5356616444504989,0.060854408149201906,0.19545972840724984,0.3561252380020064,-0.4787869244216831,1,right
12.53,-0.11208611411318108,0.9726298537411942,-0.03313020788061497,-2.2620564274377397,0.5116806929411684,0.06430648605590958,0.19505525608820928,0.3469178706535327,-0.46552615920669965,1,right
12.530999999999999,-0.10938527181116017,0.9725128660871527,-0.034256437286631775,-2.24158842726768,0.4882316640962936,0.06770448960080207,0.1946398323487817,0.3378939078684288,-0.45259080465620566,1,right
12.536,-0.10675458650960759,0.9724280980038487,-0.03538311503838447,-2.219934655210126,0.4653152615426362,0.07102913079276414,0.19421091176599023,0.32905605563628165,-0.43998528424914946,1,right
12.537,-0.10419544860036199,0.9723749662706664,-0.036509123731930784,-2.1971229542816553,0.44293168140462846,0.07426214307119854,0.19376603841595608,0.32040672789900626,-0.4277134671315871,1,right
12.54,-0.10170910569091254,0.9723528796452531,-0.03763333510774045,-2.1731829376346954,0.421080647173334,0.0773863070519279,0.19330284686678711,0.3119480502515252,-0.4157786800029491,1,right
12.540999999999999,-0.09929666565366685,0.9723612380800059,-0.038754612207723034,-2.148145887575885,0.39976144212529574,0.08038546802134365,0.19281906289194642,0.30368186435143146,-0.40418371933880626,1,right
12.544,-0.09695909988767559,0.9723994319379975,-0.03987181164938233,-2.1220446524280927,0.3789729392269702,0.0832445451880522,0.1923125039028178,0.29560973301279125,-0.3929308639148877,1,right
12.545,-0.09469724674960271,0.9724668412180653,-0.0409837860036313,-2.094913541167389,0.35871362846197224,0.08594953270095859,0.19178107910323078,0.2877329459538942,-0.382021887599854,1,right
12.545,-0.09251181511863597,0.9725628347982344,-0.04208938626072346,-2.0667882157631214,0.3389816415198857,0.08848749244237082,0.19122278938913984,0.28005252613981846,-0.37145807239421336,1,right
12.549000000000001,-0.09040338806908083,0.9726867697059183,-0.043187464373458495,-2.037705581146179,0.31977477378691505,0.09084653860430818,0.1906357270534694,0.2725692366081536,-0.3612402217097872,1,right
12.55,-0.08837242663116915,0.9728379904234157,-0.04427687587681846,-2.0077036727275877,0.30109050358017553,0.09301581405575632,0.19001807537655685,0.26528358763729404,-0.3513686738940301,1,right
12.554,-0.08641927362424517,0.9730158282385666,-0.04535648258966819,-1.9768215415044927,0.28292600862079814,0.09498545866246294,0.18936810816205765,0.25819584414676944,-0.34184331599558826,1,right
12.555,-0.08454415754967892,0.9732196006511146,-0.04642515539730882,-1.9450991373767323,0.2652781800018659,0.09674657049199954,0.1886841892412107,0.25130603327272705,-0.33266359775243587,1,right
12.556,-0.0827471965346391,0.9734486108421225,-0.04748177709722916,-1.9125771923545594,0.24814363437549464,0.09829116222522902,0.18796477194778424,0.24461395209173942,-0.32382854577601344,1,right
12.56,-0.08102840231917596,0.9737021472061677,-0.048525245276972925,-1.879297105924437,0.23151872534419662,0.0996121158663911,0.18720839856183163,0.23811917547257516,-0.3153367779040023,1,right
12.561,-0.07938768427476386,0.9739794829380825,-0.04955447518581309,-1.8453008342485269,0.21539955478381637,0.10070313807177686,0.18641369972028854,0.2318210640361411,-0.30718651769536276,1,right
12.565,-0.07782485343518654,0.9742798756631895,-0.05056840255735188,-1.810630783811197,0.19978198436000533,0.10155871702738622,0.18557939379234223,0.2257187722043693,-0.29937560904225213,1,right
12.565,-0.07633962651879797,0.9746025671037852,-0.051565986341007376,-1.7753297095348157,0.18466164724233572,0.10217408103367812,0.1847042862173969,0.21981125631939044,-0.2919015308744242,1,right
12.57,-0.0749316299297741,0.9749467827812501,-0.05254621131175669,-1.739440617267259,0.17003395996973678,0.10254515880053566,0.18378726880334936,0.21409728281489845,-0.2847614119326921,1,right
12.571,-0.07360040373994287,0.975311731758431,-0.053508090544474515,-1.7030066705416227,0.15589413442238018,0.10266854145489379,0.18282731898277554,0.20857543642217444,-0.27795204558900993,1,right
12.574000000000002,-0.07234540566213704,0.9756966064306024,-0.05445066774866527,-1.6660711015068272,0.14223718985656766,0.10254144626278842,0.18182349902451206,0.20324412839379616,-0.2714699046916972,1,right
12.575,-0.07116601502565259,0.9761005823772183,-0.0553730194567567,-1.6286771259261024,0.1290579649605891,0.10216168206688596,0.18077495519799544,0.19810160472861513,-0.26531115641528585,1,right
12.578,-0.0700615367579815,0.9765228182912548,-0.056274257053140354,-1.5908678621387866,0.11635112989092015,0.10152761643984115,0.17968091688760043,0.19314595438213583,-0.25947167709542207,1,right
12.579,-0.06903120537230967,0.976962456007221,-0.057153528630357595,-1.5526862538794195,0.10411119824951602,0.10063814455311389,0.17854069565409061,0.18837511744697702,-0.25394706703019265,1,right
12.584000000000001,-0.0680741889616451,0.9774186206514032,-0.058010020662429794,-1.5141749968468052,0.09233253896432903,0.09949265976015022,0.1773536842401684,0.18378689328863823,-0.24873266523017462,1,right
12.585,-0.06718959320536634,0.9778904209375745,-0.05884295948859258,-1.475376468914518,0.08100938803653521,0.09809102589210364,0.1761193555169796,0.17937894862233117,-0.24382356410042338,1,right
12.588,-0.06637646539658079,0.9783769496287131,-0.05965161260225124,-1.4363326638732594,0.07013586011929544,0.09643355126354029,0.17483726136829567,0.17514882551716543,-0.23921462403851887,1,right
12.588,-0.06563379849568439,0.9788772841803329,-0.06043528974120632,-1.3970851285945252,0.05970595989420186,0.09452096438483691,0.17350703150896285,0.1710939493145027,-0.2349004879336789,1,right
12.594000000000001,-0.0649605352079519,0.9793904875727727,-0.06119334377686791,-1.357674903504213,0.04971359321286855,0.0923543913772458,0.17212837223407126,0.1672116364478117,-0.23087559555282708,1,right
12.595,-0.06435557207361793,0.9799156093296337,-0.061925171402639166,-1.3181424662541004,0.04015257797241672,0.08993533508586689,0.17070106509515964,0.16349910215186608,-0.22713419780036265,1,right
12.597999999999999,-0.06381776355021024,0.9804516867119941,-0.06263021362619665,-1.2785276784785307,0.031016654694879076,0.08726565588503492,0.16922496549963434,0.1599534680496311,-0.22367037083922733,1,right
12.597999999999999,-0.06334592606047108,0.9809977460751842,-0.06330795607664616,-1.238869735523182,0.02229949678180451,0.08434755416990085,0.16770000122944073,0.15657176960567976,-0.22047803006169436,1,right
12.603,-0.06293884197514278,0.981552804374472,-0.06395792914042889,-1.1992071190324378,0.01399472041658347,0.08118355452726236,0.16612617087488754,0.15335096343546772,-0.2175509438991185,1,right
12.604000000000001,-0.0625952634976047,0.9821158708054943,-0.06457970793513468,-1.1595775522816394,0.0060958940882353116,0.0777764915779789,0.16450354217938254,0.15028793446027452,-0.21488274746068398,1,right
12.607000000000001,-0.06231391641784343,0.9826859485647539,-0.06517291212188453,-1.120017958140378,-0.0014034522883982624,0.07412949748259369,0.16283225029069925,0.14737950289808988,-0.21246695599196555,1,right
