time,gFx,gFy,gFz,ax,ay,az,wx,wy,wz,subject_number,foot
5.502999999999999,0.3077202298740529,0.9476204601157813,0.03971357249584851,2.702316963322536,-0.12773854711284413,0.44300418331439373,0.33408512126897794,0.22007010903966198,-0.67045416485333,1,left
5.504,0.30251512654596385,0.9477876638307883,0.03887232222798626,2.680799591350931,-0.11661076979195671,0.42919421644737593,0.33436709101612944,0.224207554561438,-0.6738823630916393,1,left
5.507999999999999,0.2973596880188033,0.9479400520254051,0.038048976831554164,2.6583339020514622,-0.10553375125053185,0.4153954631012626,0.33458192157385824,0.22823050443165796,-0.6770552772193769,1,left
5.5089999999999995,0.2922559701818512,0.9480784576304142,0.03724283974156871,2.6349362783747026,-0.09452082679136539,0.4016151234583662,0.334730571097932,0.232137509231456,-0.6799735402588426,1,left
5.5120000000000005,0.28720596026924766,0.9482037436962364,0.03645323232222708,2.610623724327013,-0.08358513065574179,0.3878603977001325,0.3348139770177978,0.23592721646843728,-0.6826378861585628,1,left
5.513,0.28221157526191565,0.9483168012474563,0.03567949513205581,2.5854138264500066,-0.07273956948932847,0.37413846387230904,0.3348330532306556,0.23959836800110929,-0.6850491504499383,1,left
5.513,0.2772746606309956,0.9484185469532368,0.03492098887548427,2.559324714339426,-0.0619967947809619,0.3604564552331838,0.33478868751639096,0.24314979753355095,-0.6872082706990184,1,left
5.517,0.2723969894242825,0.9485099206272459,0.03417709506689199,2.5323750216419905,-0.0513691755228304,0.3468214380038998,0.33468173917361077,0.2465804281912022,-0.6891162867610555,1,left
5.518,0.26758026169511095,0.9485918825717475,0.03344721643555876,2.5045838485891037,-0.04086877202084394,0.33324039020032187,0.3345130368768371,0.24988927018831875,-0.6907743408447716,1,left
5.522,0.2628261042722971,0.9486654107803225,0.03273077710521031,2.475970726445031,-0.030507311208324207,0.31972018179471706,0.33428337675473424,0.25307541859729143,-0.692183677392538,1,left
5.522,0.258136070867408,0.9487314980118293,0.0320272225849964,2.4465555838675797,-0.02029616349650524,0.30626755621602,0.333993520689064,0.25613805122968414,-0.6933456427819554,1,left
5.527,0.2535116425107013,0.9487911487470182,0.03133601960676712,2.416358715101488,-0.010246321131705025,0.29288911314968197,0.33364419483388497,0.2590764266384928,-0.6942616848535978,1,left
5.528,0.24895422829942673,0.9488453760401148,0.03065665583760025,2.3854007499223715,-0.0003683780294268248,0.27959129259827953,0.3332360883543388,0.26188988225077703,-0.694933352268973,1,left
5.531000000000001,0.2444651664328919,0.948895198279855,0.0299886394902539,2.353702625246768,0.009327488943920043,0.2663803601642501,0.3327698523841922,0.26457783263946144,-0.6953622937020397,1,left
5.532,0.240045725499977,0.9489416358763628,0.029331498850434373,2.3212855583215743,0.018831537270527613,0.2532623935163365,0.3322460992011318,0.2671397679427455,-0.6955502568669176,1,left
5.537000000000001,0.23569710597865487,0.9489857078907964,0.028684781737949434,2.2881710214039894,0.02813447469027969,0.24024327000155243,0.33166540161864266,0.2695752524392035,-0.6954990873837226,1,left
5.537999999999999,0.23142044190502536,0.9490284286234715,0.02804805491499414,2.254380717840949,0.03722747374725793,0.22732865536473026,0.3310282925931301,0.27188392328629507,-0.6952107274837627,1,left
5.541,0.22721680267235542,0.9490708041734975,0.027420903446467224,2.2199365594549727,0.04610218500094616,0.21452399353797985,0.3303352650447832,0.2740654894296455,-0.6946872145546401,1,left
5.542000000000001,0.2230871949285717,0.9491138289794286,0.02680293000829574,2.1848606451413364,0.05475074892883877,0.2018344974626698,0.3295867718905122,0.2761197306900909,-0.6939306795251143,1,left
5.547000000000001,0.2190325645519148,0.9491584823465823,0.0261937541370094,2.149175240579555,0.06316580654655703,0.18926514090684268,0.328783226287131,0.2780464970351203,-0.6929433450889052,1,left
5.547999999999999,0.2150537986960292,0.9492057249630854,0.025593011419152628,2.1129027589602654,0.07134050877095095,0.1768206512412913,0.3279250020827943,0.27984570804098136,-0.6917275237659343,1,left
5.551,0.21115172790499015,0.9492564954038761,0.02500035262887566,2.076065742626802,0.07926852455101609,0.16450550313785273,0.3270124344745406,0.28151735255134963,-0.6902856157988365,1,left
5.5520000000000005,0.20732712830396532,0.94931170662048,0.02441544283175778,2.038686845528991,0.08694404779078446,0.15232391315382257,0.3260458208696334,0.2830614885380979,-0.688620106881912,1,left
5.556,0.2035807238709558,0.949372242416266,0.02383796048027452,2.0007888163850147,0.09436180308765989,0.14027983516674827,0.3250254219482352,0.2844782431693332,-0.6867335657190282,1,left
5.558,0.19991318878924003,0.9494389539138717,0.023267596530949283,1.9623944824455737,0.10151705030896029,0.12837695662423373,0.32395146292479465,0.2857678130895035,-0.684628641406338,1,left
5.56,0.19632514987106064,0.9495126560316465,0.02270405361493535,1.923526733753011,0.10840558802870526,0.11661869557376835,0.32282413500536905,0.28693046491601143,-0.6823080606350327,1,left
5.561,0.19281718903421274,0.9495941239947292,0.02214704529140762,1.8842085077865816,0.11502375584594811,0.1050081984379893,0.32164359703795287,0.287966535956404,-0.6797746247087175,1,left
5.566,0.18938984580739313,0.9496840899114112,0.0215962954062649,1.8444627743836162,0.1213684356051981,0.09354833850119065,0.3204099773527265,0.2888764351498448,-0.6770312063693674,1,left
5.566,0.186043619838461,0.9497832394470046,0.021051537568913804,1.8043125208249737,0.12743705153871412,0.08224171507330784,0.3191233757861372,0.2896606442300279,-0.6740807464322285,1,left
5.567,0.18277897338113797,0.9498922086255089,0.020512514750201737,1.7637807369718816,0.1332275693496756,0.07109065329802958,0.31778386586831886,0.29031971907542503,-0.6709262502645416,1,left
5.571000000000001,0.1795963337386999,0.9500115807850493,0.01997897899770781,1.722890400340033,0.13873849425445123,0.06009720457212175,0.31639149712755343,0.2908542911567689,-0.6675707842055834,1,left
5.572,0.1764960956462869,0.9501418837105863,0.019450691261592393,1.681664460995652,0.1439688680013947,0.04926314754348751,0.31494629745107194,0.2912650689604091,-0.6640174720600509,1,left
5.5760000000000005,0.17347862357519578,0.9502835869686628,0.01892742132373783,1.6401258261571345,0.14891826488279922,0.038589989655933965,0.31344827545559234,0.29155283929672166,-0.6602694917611059,1,left
5.577000000000001,0.17054425394354464,0.9504370994705194,0.01840894782331454,1.5982973443848534,0.15358678675583967,0.02807896920906782,0.311897422846493,0.29171846845802507,-0.6563300722355927,1,left
5.582000000000001,0.16769329721950274,0.9506027672891287,0.01789505837263557,1.5562017892407405,0.15797505708752727,0.017731057902200087,0.31029371675862033,0.2917629032210034,-0.652202490468255,1,left
5.582999999999999,0.1649260399056214,0.9507808717531716,0.01738554975855961,1.5138618423450292,0.1620842140429807,0.007546963833342894,0.3086371220744263,0.2916871716944651,-0.6478900687541913,1,left
5.584,0.16224274639439643,0.9509716278370088,0.01688022822656556,1.4713000759899981,0.16591590266094058,-0.0024728650664452814,0.30692759371498096,0.2914923840129151,-0.6433961721282391,1,left
5.585,0.15964366068569635,0.9511751828615953,0.01637890984556409,1.428538935889729,0.16947226620542025,-0.012328237166967316,0.3051650788992532,0.29117973287606996,-0.638724205959437,1,left
5.586,0.15712900795702572,0.9513916155200076,0.015881420950707416,1.3856007248774864,0.17275593680701387,-0.022019212835471386,0.3033495193669,0.2907504939341018,-0.6338776136981843,1,left
5.5920000000000005,0.15469899597882156,0.9516209352424918,0.01538759865973319,1.3425075881283905,0.17577002548115836,-0.03154609969857117,0.30148085355965387,0.2902060260180528,-0.6288598747631952,1,left
5.593,0.15235381636927786,0.9518630819156049,0.014897291456864123,1.2992815000645437,0.17851811156408492,-0.04090944748736459,0.299559018756244,0.2895477712145262,-0.6236745025548344,1,left
5.596,0.15009364568610345,0.9521179259658649,0.014410359837209445,1.255944252865974,0.18100423158098605,-0.05011004249184995,0.29758395315563674,0.288777254783422,-0.6183250425809176,1,left
5.596,0.14791864635610516,0.9523852688111929,0.013926677003466986,1.212517446463644,0.1832328675550642,-0.059148901652008715,0.2955555979032259,0.2878960849171575,-0.6128150706805706,1,left
5.599,0.1458289674475258,0.9526648436745521,0.013446129605302793,1.1690224798903923,0.18520893476536504,-0.06802726631245505,0.29347389905445254,0.28690595233948507,-0.6071481913312581,1,left
5.6,0.1438247452933987,0.9529563167445102,0.012968618510708725,1.1254805438653652,0.1869377689605471,-0.0767465956670852,0.29133880947018015,0.28580862974169663,-0.6013280360236216,1,left
5.605,0.14190610397547992,0.9532592886586736,0.012494059598293198,1.0819126144872224,0.188425113035001,-0.08530855991969558,0.2891502906379979,0.284605971053687,-0.5953582616883079,1,left
5.606,0.14007315567762166,0.9535732962801456,0.012022384559819443,1.038339447911221,0.18967710317300598,-0.09371503318607793,0.2869083144134719,0.28329991054703596,-0.5892425491585135,1,left
5.61,0.138326000915685,0.9538978147350238,0.011553541703620548,0.9947815758851314,0.1907002544659027,-0.10196808616264338,0.284612864675211,0.2818924617669607,-0.5829846016515354,1,left
5.61,0.13666472864967988,0.9542322596793931,0.011087496751288633,0.9512593020188774,0.19150144600656863,-0.11006997858617582,0.28226393888745976,0.2803857162896872,-0.5765881432521855,1,left
5.615,0.13508941628339707,0.9545759897663618,0.010624233620932608,0.9077926986627652,0.19208790546480617,-0.11802315150886838,0.27986154956377796,0.27878184230149433,-0.5700569173805079,1,left
5.617000000000001,0.13360012955596198,0.9549283092867678,0.010163755190060218,0.8644016042692177,0.1924671931465977,-0.12583021941235703,0.27740572562521265,0.27708308299539014,-0.5633946852258302,1,left
5.619,0.13219692232798447,0.9552884709602821,0.009706084030214541,0.8211056211130296,0.19264718553954496,-0.13349396218403067,0.27489651364621526,0.2752917547810983,-0.5566052241287807,1,left
5.62,0.13087983626447228,0.9556556788564988,0.009251263103896202,0.7779241132453157,0.19263605834619374,-0.14101731697847122,0.27233397898140077,0.27341024530375085,-0.5496923258925178,1,left
5.625,0.12964890041817914,0.9560290914283649,0.00879935641292361,0.7348762045565475,0.19244226900635014,-0.14840336998645695,0.26971820676609637,0.27144101126641246,-0.5426597950040412,1,left
5.626,0.12850413071875558,0.9564078246422653,0.008350449588046985,0.691980776824337,0.19207453870892358,-0.15565534813355122,0.2670493027834701,0.2693865760512954,-0.5355114467460873,1,left
5.631,0.12744552937396936,0.9567909551904364,0.00790465041225255,0.6492564676219656,0.19154183389328205,-0.16277661072989638,0.26432739419087853,0.2672495271342655,-0.5282511051797604,1,left
5.631,0.12647308418892575,0.9571775237740588,0.0074620892724549985,0.606721667964028,0.19085334723958255,-0.16977064109243722,0.26155263009791896,0.26503251328698735,-0.5208826009777022,1,left
5.6339999999999995,0.12558676780709113,0.9575665384498688,0.007022919534994217,0.5643945195660085,0.19001847814703873,-0.1766410381604148,0.25872518199322847,0.262738241566244,-0.5134097690972098,1,left
5.635,0.12478653687440118,0.9579569780375817,0.006587317840549736,0.522292911595091,0.18904681269861617,-0.18339150812459515,0.25584524404046194,0.26036947411688444,-0.5058364463320498,1,left
5.635,0.12407233112670356,0.9583477955886206,0.0061554843135750515,0.4804344767900521,0.18794810311019702,-0.19002585609033334,0.2529130333061076,0.2579290248635059,-0.49816646887081256,1,left
5.638999999999999,0.12344407240100086,0.9587379219193344,0.005727642677157892,0.4388365868286812,0.18673224666183635,-0.19654797779421682,0.24992879000518903,0.2554197561929099,-0.49040367003901303,1,left
5.64,0.1229016635719155,0.9591262692148472,0.005304040255043531,0.3975163468218173,0.1854092641083403,-0.2029618513936887,0.2468927778272104,0.25284457570200436,-0.48255187835219193,1,left
5.644,0.12244498741766749,0.9595117347119235,0.004884947832061186,0.3564905888137943,0.1839892775660305,-0.2092715293487191,0.24380528436217316,0.2502064330367324,-0.4746149159175919,1,left
5.644,0.12207390542553358,0.9598932044688552,0.004470659337229732,0.31577586416982945,0.18248248787222393,-0.2154811304142679,0.24066662162280056,0.24750831682025828,-0.466596597172049,1,left
5.649,0.121788256553579,0.9602695572270092,0.00406149131293341,0.27538843473169117,0.1808991514136491,-0.22159483176197411,0.23747712665424872,0.24475325166301842,-0.4585007279335526,1,left
5.65,0.1215878559706411,0.9606396683636148,0.003657782140061858,0.23534426262382496,0.17924955641974152,-0.2276168612492063,0.23423716222243568,0.24194429524706587,-0.45033110474368115,1,left
5.651,0.12147249379882358,0.9610024139300063,0.003259891002582805,0.19565899865645656,0.1775439987349917,-0.2335514898470957,0.23094711757197256,0.23908453547696323,-0.44209151447788597,1,left
5.654,0.1214419338816989,0.9613566747653575,0.002868196590888908,0.15634796959036726,0.1757927571766977,-0.23940302420777032,0.2276074092445348,0.23617708768931617,-0.4337857342003763,1,left
5.654,0.12149591259711014,0.9617013406739614,0.002483095555682589,0.11742616510004343,0.17400606875060193,-0.24517579929471173,0.22421848194836702,0.23322509191288487,-0.4254175312401423,1,left
5.6579999999999995,0.12163413772832572,0.9620353146526232,0.002105000734413561,0.07890822559016897,0.17219410408912994,-0.250874170968778,0.22078080946947087,0.2302317101710648,-0.41699066346445657,1,left
5.659,0.12185628740317199,0.9623575171513001,0.0017343391851211674,0.040808431704267394,0.17036694338441888,-0.2565025084533256,0.21729489561488255,0.22720012381839136,-0.4085088797259993,1,left
5.662999999999999,0.12216200910526168,0.9626668903459714,0.0013715500753093673,0.0031406957943958622,0.16853455292190297,-0.2620651866576685,0.21376127517830612,0.2241335309025946,-0.3999759204595774,1,left
5.664,0.12255091875217106,0.9629624024009314,0.0010170824788842349,-0.03408144469528331,0.16670676222775255,-0.26756657836902836,0.21018051491822742,0.22103514354361195,-0.39139551840423714,1,left
5.67,0.12302259982422258,0.9632430516986209,0.0006713931298826609,-0.07084483204047402,0.164893241824939,-0.2730110463291543,0.20655321453849645,0.21790818532085662,-0.3827713994264115,1,left
5.671,0.12357660251796708,0.963507871017542,0.00033494417011798014,-0.10713669135244086,0.16310348159268298,-0.2784029352116005,0.20288000766122738,0.2147558886599397,-0.37410728341959826,1,left
5.672999999999999,0.12421244289269179,0.9637559316423862,8.200912734024426e-06,-0.14294463210432776,0.16134676972405562,-0.2837465635154764,0.19916156278173158,0.2115814922099512,-0.3654068852559286,1,left
5.6739999999999995,0.1249296019763689,0.9639863473942497,-0.0003083703701855991,-0.1782566481736846,0.15963217227654372,-0.28904621539131886,0.19539858419506478,0.20838823820232483,-0.3566739157648569,1,left
5.6770000000000005,0.12572752479870095,0.9641982785710631,-0.0006143046372462004,-0.21306111650543205,0.1579685133104573,-0.29430613241458453,0.1915918128836371,0.20517936978223714,-0.34791208271409246,1,left
5.678,0.12660561932360695,0.9643909357891235,-0.000909140251794509,-0.24734679449810504,0.15636435561015258,-0.2995305053221235,0.1877420273552059,0.20195812830342955,-0.3391250917677857,1,left
5.683,0.1275632552612051,0.9645635837176333,-0.0011924211513130907,-0.2811028162147925,0.15482798198316355,-0.3047234657268667,0.18385004442044275,0.19872775057728612,-0.3303166473968901,1,left
5.684,0.12859976274710236,0.9647155447003336,-0.0014636990233225314,-0.31431868751873243,0.15336737713248164,-0.3098890778258476,0.17991671989914057,0.19549146606695658,-0.321490453716537,1,left
5.688,0.12971443088236467,0.9648462022605305,-0.001722535493992344,-0.34698428023203315,0.1519902100973926,-0.3150313301165745,0.17594294924400292,0.1922524940172771,-0.3126502152251893,1,left
5.689,0.13090650613179536,0.9649550044865834,-0.00196850432687552,-0.3790898254144698,0.1507038172584749,-0.3201541271366803,0.1719296680708371,0.18901404051121615,-0.30379963742027627,1,left
5.693,0.1321751905822054,0.9650414672947031,-0.002201193620344952,-0.4106259058577543,0.14951518590257937,-0.32526128124169795,0.16787785258385327,0.18577929544355534,-0.2949424272649638,1,left
5.694,0.13351964006613393,0.9651051775662344,-0.002420207985976666,-0.44158344788909815,0.1484309383438503,-0.3303565044357426,0.16378851988465615,0.18255142940250743,-0.28608229348067177,1,left
5.697,0.13493896216019124,0.9651457961582006,-0.002625170686640586,-0.4719537125762775,0.14745731659710717,-0.3354434002698242,0.15966272815340224,0.17933359044997513,-0.27722294663992075,1,left
5.6979999999999995,0.1364322140710668,0.965163060788208,-0.0028157257123975266,-0.5017282864247764,0.146600167600187,-0.3405254558224708,0.15550157669048525,0.17612890079116508,-0.2683680990340718,1,left
5.702000000000001,0.13799840042572484,0.9651567887961653,-0.002991539774295213,-0.5308990716559218,0.14586492898214548,-0.34560603377730703,0.15130620580700405,0.17294045332429087,-0.2595214642905152,1,left
5.702999999999999,0.13963647098469342,0.9651268797842538,-0.0031523041996753074,-0.5594582761532377,0.1452566153745334,-0.3506883646122093,0.14707779655655773,0.16977130806864169,-0.25068675672242474,1,left
5.704,0.14134531829817076,0.9650733181342046,-0.003297736716494128,-0.5873984031625366,0.14477980526329662,-0.35577553891464364,0.1428175703227829,0.16662448850690137,-0.24186769043700726,1,left
5.706,0.14312377532473883,0.9649961753995856,-0.003427583117681448,-0.6147122408295287,0.14443862837919907,-0.36087049983778857,0.13852678831649892,0.16350297794527435,-0.23306797830523907,1,left
5.707000000000001,0.14497061303400005,0.9648956125711711,-0.0035416187984307463,-0.6413928516569789,0.144236753625031,-0.3659760357120495,0.13420675105820482,0.16040971603260135,-0.22429133093891462,1,left
5.7139999999999995,0.1468845380171878,0.9647718822146659,-0.0036396501593555634,-0.6674335619616584,0.14417737753824106,-0.37109477282658565,0.12985879789960733,0.15734759554214064,-0.21554145577807815,1,left
5.7139999999999995,0.14886419012963265,0.9646253304818474,-0.0037215158699101256,-0.692827951409542,0.14426321328802086,-0.37622916839549164,0.12548430659822332,0.15431945945213812,-0.20682205631492617,1,left
5.7170000000000005,0.15090814018357537,0.9644563989990547,-0.003787087992773956,-0.7175698427058841,0.1444964802062681,-0.3813815037233063,0.12108469293704338,0.15132809832382033,-0.19813683143753588,1,left
5.718,0.15301488770217167,0.9642656266402351,-0.0038362729796979104,-0.7416532915113964,0.1448788938716237,-0.38655387758858545,0.11666141037676904,0.14837624796801982,-0.18948947486829112,1,left
5.718999999999999,0.15518285874003207,0.9640536511933377,-0.0038690125575666966,-0.7650725766360569,0.1454116568629912,-0.3917481998844501,0.11221594972805987,0.14546658739173984,-0.18088367467196564,1,left
5.722,0.15741040377353935,0.9638212109276911,-0.0038852845271880798,-0.7878221905280859,0.1460954504736052,-0.3969661855913116,0.10774983883115488,0.142601737016071,-0.17232311280852095,1,left
5.722,0.1596957956635314,0.9635691460670771,-0.0038851034988026134,-0.809896830055893,0.14693042777394075,-0.4022093491771633,0.10326464223016427,0.1397842571569856,-0.1638114647057854,1,left
5.727,0.1620372276916861,0.963298400169035,-0.003868521590015632,-0.8312913875967344,0.14791620831538851,-0.40747899950075783,0.09876196082926439,0.1370166467606566,-0.15535239882730018,1,left
5.728,0.16443281167018062,0.9630100214054661,-0.0038356291117251982,-0.8520009424760102,0.14905187459281755,-0.4127762352568217,0.09424343151796913,0.1343013423850773,-0.146949576210748,1,left
5.731,0.16688057612327756,0.9627051637338877,-0.0037865552632858927,-0.8720207528170368,0.15033597028778314,-0.41810194098239917,0.08971072675259663,0.13164071741989214,-0.13860664995252048,1,left
5.732,0.1693784645406614,0.9623850879434813,-0.0037214688503807887,-0.8913462478627461,0.1517665002952097,-0.4234567836394651,0.08516555408099961,0.12903708153649465,-0.13032726461413174,1,left
5.7379999999999995,0.17192433370629215,0.9620511625556498,-0.0036405790291342372,-0.9099730208287928,0.1533409325368076,-0.4288412097890267,0.08060965559758267,0.1264926803605961,-0.12211505552634674,1,left
5.739,0.1745159521125997,0.9617048645556349,-0.003544136068671705,-0.9278968223455739,0.15505620156490948,-0.43425544337201427,0.07604480731558878,0.12400969535962729,-0.11397364796706543,1,left
5.7410000000000005,0.1771509984764686,0.961347779929636,-0.0034324321128364637,-0.9451135545446638,0.15690871396082864,-0.43969948411234683,0.07147281844360172,0.12159024393749845,-0.10590665618918597,1,left
5.742000000000001,0.17982706038031876,0.9609816039804195,-0.003305801911785261,-0.96161926584317,0.15889435553225745,-0.44517310655763837,0.0668955305531803,0.11923637972941276,-0.09791768227486328,1,left
5.749,0.18254163306900564,0.9606081413942948,-0.00316462348744346,-0.9774101464774871,0.1610085003146244,-0.45067585977310093,0.06231481662451487,0.11695009308960501,-0.09001031479278283,1,left
5.75,0.18529211843942384,0.9602293060337791,-0.003009318693942007,-0.992482524835903,0.16324602138172312,-0.45620706770428127,0.05773257995697581,0.1147333117650593,-0.08218812723528297,1,left
5.751,0.18807582426172825,0.9598471204322178,-0.002840353634187612,-1.0068328646374638,0.16560130347130758,-0.4617658302243561,0.053150752931408723,0.11258790174844813,-0.07445467621238319,1,left
5.751,0.19088996366874697,0.9594637149688615,-0.0026582388951570755,-1.0204577630024516,0.168068257431716,-0.4673510248817911,0.04857129561102139,0.11051566830372908,-0.06681349938001048,1,left
5.756,0.19373165494550443,0.9590813267062275,-0.0024635295665848727,-1.0333539494577693,0.1706403364959387,-0.47296130936425235,0.0439961941677029,0.10851835715803507,-0.05926811307996031,1,left
5.757999999999999,0.19659792164576992,0.9587022978754457,-0.002256825010524223,-1.0455182859184469,0.1733105543898834,-0.4785951246947361,0.039427459120617056,0.10659765585369857,-0.05182200966938378,1,left
5.761,0.19948569305899794,0.9583290739977658,-0.002038768353573709,-1.0569477676844052,0.1760715052819104,-0.4842506991759585,0.0348671233739185,0.10475519525446088,-0.04447865451785719,1,left
5.7620000000000005,0.20239180505005974,0.9579642016312998,-0.0018100456800923049,-1.0676395254895157,0.17891538558101175,-0.4899260530991196,0.030317240040453088,0.10299255120013227,-0.03724148265036599,1,left
5.767,0.20531300129551072,0.9576103257335531,-0.0015713849133274704,-1.077590828637895,0.1818340175912893,-0.49561900423322197,0.02577988003832199,0.10131124630418863,-0.030113895014819713,1,left
5.768,0.2082459349435622,0.9572701866339032,-0.0013235543823186962,-1.0867990892602648,0.18481887503064592,-0.5013271741111862,0.021257129447213342,0.09971275188901528,-0.023099254353009864,1,left
5.771,0.21118717072923293,0.9569466166154637,-0.001067361086071768,-1.0952618677210806,0.18786111042184234,-0.5070479951290626,0.016751086618015682,0.09819849004959028,-0.016200880665054197,1,left
5.772,0.2141331875775152,0.9566425361111471,-0.0008036486789130948,-1.1029768792050159,0.19095158436428575,-0.5127787184746884,0.012263859062165133,0.09676983581589513,-0.00942204631181866,1,left
5.773,0.21708038172451896,0.956360949523381,-0.0005332952074920203,-1.1099420015092478,0.19408089669510575,-0.5185164229021831,0.007797560206443568,0.0954281193472514,-0.002765970897572211,1,left
5.775,0.2200250703839505,0.9561049406826002,-0.0002572106349786872,-1.116155284065849,0.19723941954823726,-0.5242580243687109,0.00335430613189472,0.09417462807128589,0.003764183870403379,1,left
5.776,0.2229634959864092,0.9558776679685387,2.3665801831763514e-05,-1.1216149582164472,0.20041733232036876,-0.5300002865499644,-0.0010637876173225185,0.09301060870121068,0.010165319202316342,1,left
5.7829999999999995,0.22589183101782082,0.9556823591286212,0.0003083683462461256,-1.126319448759154,0.20360465855272403,-0.5357398322508492,-0.0054546091284873414,0.09193726910268099,0.016434404080634988,1,left
5.784,0.22880618347715126,0.9555223058347954,0.0005959075276958512,-1.1302673867856101,0.20679130473773072,-0.5414731557278543,-0.00981605312445624,0.09095578000248528,0.02256847995705116,1,left
5.785,0.23170260296346362,0.955400858020987,0.0008852729682983216,-1.133457623809265,0.20996710101413235,-0.547196635919704,-0.014146023890075621,0.0900672765357263,0.028564665310019263,1,left
5.785,0.23457708739214,0.9553214180376632,0.0011754361507291947,-1.1358892471110016,0.21312184348637353,-0.5529065504834099,-0.018442438133476947,0.08927285962841232,0.034420160080873945,1,left
5.7860000000000005,0.23742559033146285,0.9552874346512402,0.001465353123744116,-1.1375615960949663,0.2162453374941296,-0.5585990903537795,-0.022703227794779183,0.0885735972126411,0.040132250006141755,1,left
5.794,0.24024402893896507,0.9553023969106446,0.0017539671368245041,-1.138474279372454,0.21932744093006587,-0.5642703744449444,-0.026926342814632902,0.08797052527182679,0.04569831086326623,1,left
5.795,0.24302829245599225,0.9553698279030419,0.0020402112072744165,-1.1386271923623406,0.2223581069316058,-0.5699164642118938,-0.031109753874944003,0.08746464871368985,0.05111581264656178,1,left
5.795,0.24577425119186813,0.955493278420905,0.0023230106308646053,-1.138020535325481,0.22532742568235448,-0.5755333779689988,-0.03525145512401284,0.08705694206900344,0.056382323689800146,1,left
5.796,0.24847776590451423,0.955676320560219,0.0026012854505409505,-1.136654831821123,0.228225665286459,-0.5811171049619176,-0.03934946689821614,0.08674835001436594,0.06149551475141363,1,left
5.8,0.251134697466564,0.9559225412663432,0.0028739528966797256,-1.134530947585777,0.2310433117245906,-0.5866636192090906,-0.043401838452245343,0.08653978771754851,0.06645316307787302,1,left
5.8,0.25374091669556936,0.9562355358415323,0.003139929808268609,-1.1316501098328042,0.23377110790005817,-0.5921688931289552,-0.04740665070979507,0.08643214100424838,0.07125315646036451,1,left
5.805,0.25629231422475,0.956618901426707,0.0033981350404607524,-1.1280139269687968,0.23640009178335802,-0.5976289109689095,-0.05136201904646995,0.08642626634536343,0.07589349729944941,1,left
5.806,0.2587848102966055,0.957076230469576,0.0036474918630892503,-1.1236244087206544,0.23892163366323457,-0.6030396820519528,-0.055266096116547106,0.08652299066419095,0.08037230669194453,1,left
5.81,0.2612143643733938,0.9576111041909215,0.00388693035723724,-1.1184839866650849,0.24132747251206849,-0.6083972538568068,-0.05911707473509501,0.08672311096324284,0.08468782855380767,1,left
5.811,0.2635769844742913,0.9582270860599533,0.004115389821483547,-1.1125955351500838,0.24360975147312708,-0.6136977249471961,-0.06291319082680741,0.08702739377066256,0.08883843379235473,1,left
5.815,0.26586873616817475,0.9589277152882684,0.004331821204777829,-1.105962392595794,0.24576105247690153,-0.6189372577658223,-0.06665272645276388,0.08743657440652304,0.09282262454067114,1,left
5.816,0.2680857511725701,0.9597165003508011,0.0045351895877992435,-1.0985883831599794,0.2477744299934263,-0.6241120913084134,-0.07033401292617597,0.08795135606958243,0.09663903846661148,1,left
5.82,0.2702242355326178,0.9605969125410093,0.004724476737543225,-1.0904778387512075,0.2496434439271212,-0.6292185536930683,-0.07395543402802048,0.0885724087453731,0.10028645316830749,1,left
5.82,0.27228047737673694,0.9615723795659763,0.004898683759496369,-1.0816356213706892,0.2513621916603207,-0.6342530746399404,-0.0775154293332989,0.089300367936801,0.10376379066762728,1,left
5.8260000000000005,0.27425085426408347,0.962646279185774,0.005056833867183863,-1.072067145761609,0.25292533925126076,-0.6392121978761166,-0.08101249765849522,0.09013583321873582,0.10707012201254641,1,left
5.827000000000001,0.2761318401505324,0.9638219329009334,0.00519797527970362,-1.0617784023426498,0.25432815179187995,-0.6440925934803553,-0.08444520064063156,0.09107936661837712,0.11020467199890674,1,left
5.829,0.27792001200425503,0.9651025996922077,0.005321184245644763,-1.0507759804003245,0.2555665229303604,-0.6488910701821377,-0.08781216645814578,0.09213149082348909,0.11316682402155041,1,left
5.83,0.27961205609824674,0.9664914698180944,0.005425568180246638,-1.039067091512644,0.25663700356288943,-0.6536045876292714,-0.09111209370363395,0.0932926872209054,0.11595612506432564,1,left
5.832999999999999,0.2812047739967956,0.9679916586779368,0.005510268895432859,-1.0266595931745714,0.2575368296986624,-0.6582302686380612,-0.09434375541831591,0.09456339376801541,0.11857229083796753,1,left
5.835,0.2826950882410444,0.9696062007508159,0.00557446590076832,-1.013562012593677,0.2582639495016771,-0.6627654114398218,-0.09750600329789379,0.09594400270025563,0.12101521107436261,1,left
5.8389999999999995,0.2840800477308016,0.9713380436206996,0.005617379755891639,-0.9997835706223721,0.25881704951238926,-0.6672075019372713,-0.10059777207087733,0.09743485808086957,0.12328495497665382,1,left
5.84,0.2853568327977081,0.973190042095557,0.005638275458541386,-0.985334205791096,0.25919558005180954,-0.6715542259840845,-0.10361808400824152,0.0990362532141468,0.1253817767813693,1,left
5.84,0.28652275996681287,0.9751649524246905,0.005636465853663003,-0.9702245984048526,0.2593997798101272,-0.6758034817006312,-0.10656605344745665,0.10074842797000715,0.12730612131126262,1,left
5.843999999999999,0.287575286406229,0.9772654266167174,0.005611315045099209,-0.9544661946635342,0.2594306996214496,-0.6799533918386534,-0.10944089117171624,0.10257156608274531,0.12905862935427787,1,left
5.843999999999999,0.2885120140677743,0.9794940068603709,0.0055622417822544165,-0.9380712307645459,0.2592902254257445,-0.6840023162073655,-0.11224190852699568,0.10450579247243588,0.13064014274633412,1,left
5.849,0.2893306935274751,0.9818531200507028,0.005488722785404488,-0.9210527569443516,0.2589811004185743,-0.6879488641731794,-0.11496852123499265,0.1065511706114773,0.13205170911212644,1,left
5.85,0.29002922754284755,0.9843450724242396,0.005390295969193953,-0.9034246614136965,0.25850694638871546,-0.6917919072449737,-0.11762025290180338,0.10870769994443906,0.1332945862604245,1,left
5.853,0.29060567435021567,0.9869720443082505,0.005266563523152389,-0.8852016941038499,0.25787228421778696,-0.6955305917358819,-0.12019673823038038,0.11097531336676857,0.1343702462384143,1,left
5.854,0.29105825072714203,0.9897360849908324,0.005117194809706178,-0.8663994899614945,0.2570825533881435,-0.6991643513890212,-0.12269772594460317,0.11335387476823394,0.13528037904914048,1,left
5.854,0.29138533484361506,0.9926391077181411,0.004941929042922827,-0.8470345912078615,0.256144130115517,-0.7026929196684178,-0.1251230814325791,0.1158431766472973,0.13602689603562346,1,left
5.859,0.2915854689253015,0.9956828848213868,0.004740577709128062,-0.8271244677980761,0.2550643435950437,-0.7061163413128213,-0.12747278911657522,0.11844293780293277,0.13661193293474438,1,left
5.86,0.2916573617549751,0.99886904297115,0.004513026682113569,-0.8066875354929465,0.253851489976259,-0.7094349828530612,-0.1297469545567656,0.12115280111072159,0.1370378526035173,1,left
5.864,0.29159989104152795,1.0021990585535223,0.0042592379814180015,-0.7857431712740862,0.25251484391151435,-0.7126495419791709,-0.13194580629576144,0.12397233139037481,0.13730724741989714,1,left
5.865,0.29141210568688936,1.005674253162145,0.003979251131160689,-0.7643117260096289,0.2510646676492546,-0.7157610557464609,-0.1340696974506744,0.12690101337215137,0.13742294135980943,1,left
5.869,0.2910932279793868,1.0092957892009826,0.0036731840962232905,-0.7424145343118663,0.24951221766869183,-0.7187709076300783,-0.1361191070592466,0.12993824976995527,0.13738799175163124,1,left
5.87,0.29064265573788234,1.0130646655943196,0.0033412337947048183,-0.7200739215266858,0.24786974885205768,-0.721680833437286,-0.13809464118636466,0.13308335946921027,0.13720569070890268,1,left
5.872999999999999,0.29005996442376913,1.0169817136034942,0.0029836762050752847,-0.6973132077932869,0.24615051619029263,-0.7244929260864057,-0.13999703379706047,0.13633557583792458,0.13687956624160846,1,left
5.874,0.28934490922701256,1.0210475927534828,0.0026008660993866255,-0.6741567091113193,0.2443687740177388,-0.7272096392610753,-0.14182714740188712,0.13969404516966877,0.13641338304593587,1,left
5.877000000000001,0.2884974271187593,1.0252627868749797,0.00219323643820626,-0.6506297353513162,0.24253977277114658,-0.7298337899481823,-0.14358597348034696,0.14315782526750065,0.13581114297199323,1,left
5.877999999999999,0.2875176388485337,1.0296276002691065,0.0017612974603740574,-0.6267585851430866,0.24067975326808658,-0.7323685598675587,-0.14527463268783866,0.146725884178178,0.13507708516856012,1,left
5.882999999999999,0.28640585084979,1.0341421540037359,0.0013056354963289492,-0.6025705375756014,0.23880593849968165,-0.7348174958012474,-0.14689437485138282,0.15039709908630497,0.13421568590353847,1,left
5.8839999999999995,0.2851625570042333,1.0388063823534042,0.0008269115320284505,-0.5780938406408421,0.2369365229324395,-0.7371845088298861,-0.148446578759181,0.15417025537836038,0.13323165805838405,1,left
5.888,0.2837884402052379,1.0436200293985098,0.0003258595515907296,-0.5533576963530951,0.23509065931387943,-0.7394738724834959,-0.1499327517488624,0.15804404588685583,0.13212995029441882,1,left
5.888,0.2822843736577393,1.0485826458028675,-0.00019671531208067397,-0.5283922424742675,0.23328844297661033,-0.7416902198137215,-0.15135452909907374,0.1620170703251675,0.13091574588855992,1,left
5.892,0.28065142185804265,1.0536935857902874,-0.000739938789957793,-0.503228530774972,0.23155089363552975,-0.7438385393943275,-0.15271367322887497,0.16608783492387733,0.12959446123564922,1,left
5.893,0.2788908412100611,1.0589520043394935,-0.001302869625895274,-0.47789850176038406,0.22989993467288514,-0.7459241702565436,-0.15401207270921358,0.17025475227975012,0.1281717440142292,1,left
5.898,0.2770040802501174,1.0643568546125322,-0.0018845018376551824,-0.45243495578922177,0.22835836990606567,-0.7479527957656299,-0.15525174109056564,0.17451614142875577,0.12665347101228966,1,left
5.899,0.2749927794660784,1.0699068856273208,-0.002483767068373594,-0.4268715205136266,0.22694985783317972,-0.7499304364448509,-0.15643481555065242,0.178870228154828,0.12504574560920056,1,left
5.903,0.2728587707057541,1.0756006401831022,-0.003099537008058178,-0.4012426145672496,0.22569888335172425,-0.7518634417528578,-0.15756355536596653,0.1833151455463262,0.12335489490975769,1,left
5.904,0.2706040761738445,1.0814364530492138,-0.0037306258635027277,-0.3755834074284661,0.22463072694596942,-0.7537584808203219,-0.1586403402106734,0.1878489348124383,0.12158746652599184,1,left
5.907,0.26823090701642677,1.0874124494320132,-0.004375792853362917,-0.3499297753853556,0.22377143133906385,-0.7556225321515136,-0.15966766828629192,0.19246954637202918,0.119750225002137,1,left
5.9079999999999995,0.26574166148813616,1.093526543740385,-0.005033744705992801,-0.3243182535288976,0.2231477656063223,-0.757462872296395,-0.16064815428540186,0.19717484122769882,0.11785014787791431,1,left
5.9079999999999995,0.26313892269275413,1.0997764386741073,-0.005703138142008036,-0.2987859837007491,0.22278718674668221,-0.7592870634986828,-0.161584527193042,0.20196259262953803,0.11589442138871804,1,left
5.9110000000000005,0.2604254558855881,1.1061596246595922,-0.006382582329857236,-0.27337065832198537,0.22271779870991923,-0.761102940325255,-0.16247962793214982,0.20683048799065273,0.11389043581933649,1,left
5.912000000000001,0.2576042053257931,1.1126733796549282,-0.0070706413079667544,-0.2481104600293099,0.22296830887788857,-0.7629185952822023,-0.16333640686434825,0.21177613093997566,0.11184578056050398,1,left
5.917000000000001,0.2546782906665424,1.1193147693418517,-0.0077658363694628595,-0.2230439970454666,0.22356798199881708,-0.7647423634227828,-0.16415792116008748,0.21679704335545577,0.10976823893566688,1,left
5.917999999999999,0.2516510028697986,1.126080647715453,-0.00846664840747901,-0.19821023421092612,0.22454659157450887,-0.7665828059525133,-0.16494733204920256,0.2218906672636113,0.10766578284696202,1,left
5.922999999999999,0.248525799632179,1.1329676580738823,-0.009171520224458062,-0.1736484197166231,0.2259343687439426,-0.7684486928505597,-0.1657079019577487,0.22705436656845054,0.10554656725644623,1,left
5.925,0.2453063003103437,1.1399722344049095,-0.009878858816653907,-0.14939800813938645,0.22776194892122356,-0.7703489845962539,-0.16644299153404624,0.23228542861564572,0.10341892450027548,1,left
5.925,0.24199628033711362,1.1470906031672912,-0.010587037652787118,-0.12549858139272146,0.23006031683120698,-0.7722928132149662,-0.16715605656621,0.23758106560658718,0.10129135842981084,1,left
5.928,0.23859966512259856,1.1543187854684176,-0.011294398976198433,-0.10198976976769014,0.2328607508007653,-0.7742894629272795,-0.1678506447933557,0.242938415877146,0.09917253837358175,1,left
5.928999999999999,0.23512052344107714,1.1616525996398128,-0.011999256173343848,-0.07891117467822582,0.23619476695145636,-0.7763483506158665,-0.16853039261260186,0.24835454505616578,0.09707129291401255,1,left
5.931,0.2315630603182998,1.1690876642086447,-0.012699896259211347,-0.05630229371587674,0.24009406355643834,-0.7784790061992446,-0.16919902168392384,0.25382644711889124,0.094996603472819,1,left
5.932,0.2279316094562734,1.1766194012588675,-0.013394582524320861,-0.03420244805879047,0.24459046561244033,-0.7806910529320931,-0.1698603354348631,0.25935104535071735,0.09295759769900724,1,left
5.937,0.22423062525972592,1.1842430401705448,-0.014081557371079998,-0.01265071216872563,0.24971586963643463,-0.7829941876380668,-0.17051821546705223,0.26492519323681124,0.09096354265345787,1,left
5.938,0.22046467455312788,1.19195362172076,-0.014759045346958276,0.008314154288773787,0.25550218869828095,-0.7853981608812498,-0.17117661786648505,0.27054567529331985,0.08902383778415504,1,left
5.942,0.21663842809244707,1.1997460025253732,-0.015425256362525478,0.02865377236444428,0.26198129770232786,-0.7879127570826209,-0.1718395694194395,0.2762092078560275,0.0871480076862228,1,left
5.943,0.21275665197867166,1.207614859798898,-0.0160783890645756,0.04833020764743783,0.26918497893276433,-0.7905477745881723,-0.17251116373595224,0.2819124398424688,0.08534569464106076,1,left
5.947,0.20882419907158625,1.2155546964113055,-0.016716634318573467,0.0673060320496698,0.2771448678794129,-0.7933130056956061,-0.17319555728274472,0.28765195350363637,0.08362665092902728,1,left
5.9479999999999995,0.20484600048618382,1.2235598462258863,-0.017338178741719307,0.08554438361072832,0.28589239936264504,-0.7962182166468547,-0.17389696532751395,0.29342426518154646,0.08200073091030195,1,left
5.9510000000000005,0.2008270572364668,1.2316244797095568,-0.017941208220267242,0.10300902437978988,0.2954587539781818,-0.7992731275940138,-0.17461965779652672,0.2992258260890379,0.08047788286877126,1,left
5.952000000000001,0.19677243207853723,1.239742609812948,-0.018523911345849003,0.11966439642897404,0.3058748048847131,-0.8024873925466556,-0.1753679550474918,0.3050530231282862,0.07906814061401993,1,left
5.956,0.19268724159996975,1.2479080981191883,-0.019084482718128196,0.13547567605045313,0.31717106495953334,-0.8058705793088873,-0.17614622355973478,0.31090217976460605,0.07778161483677866,1,left
5.957999999999999,0.1885766486044214,1.2561146612569174,-0.019621126082302095,0.1504088261874118,0.3293776343497404,-0.8094321494149528,-0.17695887154376053,0.3167695569722021,0.07662848421347516,1,left
5.961,0.1844458548457441,1.2643558775668768,-0.020132057291203678,0.16443064714662767,0.34252414844898693,-0.8131814380726297,-0.17781034447236285,0.3226513542685994,0.07561898625586048,1,left
5.962000000000001,0.18030009417052648,1.27262519400511,-0.02061550709623625,0.17750882563802142,0.35663972633229984,-0.8171276341241629,-0.17870512053552629,0.3285437108545488,0.07476340790203667,1,left
5.9670000000000005,0.17614462612922488,1.280915933261783,-0.021069723779110035,0.1896119821840041,0.3717529196840977,-0.8212797600349875,-0.17964770602146402,0.33444270687625405,0.07407207584559503,1,left
5.968999999999999,0.17198473011344548,1.2892213010741675,-0.021492975640428357,0.20070971693883224,0.3878916622572349,-0.8256466519210276,-0.1806426306262476,0.3403443648268098,0.07355534659998744,1,left
5.972,0.16782570007137032,1.2975343937140809,-0.021883553363412668,0.21077265395547423,0.40508321990368545,-0.83023693962593,-0.18169444269460927,0.3462446511037686,0.07322359629569486,1,left
5.973,0.1636728398450153,1.3058482056315237,-0.02223977227147453,0.219772483934691,0.4233541412203418,-0.8350590268601795,-0.18280770439463354,0.3521394777397751,0.0730872102082294,1,left
5.975,0.1595314591612399,1.3141556372355319,-0.02255997449503983,0.22768200548814865,0.4427302088563503,-0.8401210714146582,-0.18398698682920653,0.35802470432321226,0.07315657201550795,1,left
5.976,0.15540687029264436,1.3224495027905363,-0.022842531054704556,0.2344751649444105,0.46323639153142654,-0.8454309654618537,-0.18523686508842147,0.36389614011967364,0.0734420527877198,1,left
5.977,0.15130438538639154,1.3307225384057046,-0.02308584385817346,0.24012709472360402,0.48489679681769454,-0.8509963159585873,-0.18656191325315036,0.3697495463744257,0.07395399973363843,1,left
5.982,0.1472293144409209,1.338967410098328,-0.02328834760325722,0.24461415030342792,0.5077346247407648,-0.8568244251648194,-0.18796669937068544,0.3755806387208521,0.07470272476439781,1,left
5.984,0.14318696389004365,1.347176721914274,-0.023448511578005034,0.2479139457959616,0.5317721222590126,-0.862922271293805,-0.18945578042939165,0.3813850895891984,0.07569849295664038,1,left
5.987,0.1391826357269228,1.3553430240830753,-0.023564841345328023,0.25000538815146206,0.5570305386833313,-0.8692964893096004,-0.19103369735369216,0.3871585305405177,0.07695151097732861,1,left
5.9879999999999995,0.13522162707014698,1.363458821178128,-0.023635880288996266,0.25086871000199,0.5835300821030144,-0.8759533518886784,-0.19270497003043466,0.39289655450579736,0.0784719154967122,1,left
5.9910000000000005,0.13130923004870404,1.3715165802521905,-0.02366021098425553,0.25048550115429985,0.6112898768868666,-0.8828987505631873,-0.194474092372093,0.39859471794080525,0.08026976159638723,1,left
5.992000000000001,0.127450731868887,1.3795087389252432,-0.023636456349791956,0.24883873872223003,0.6403279223212814,-0.8901381770771872,-0.19634552742134703,0.4042485429132307,0.0823550111760682,1,left
5.992999999999999,0.12365141492989819,1.3874277134128774,-0.0235632805460189,0.24591281580666569,0.6706610523962483,-0.8976767050530784,-0.1983237025018511,0.40985351913859525,0.08473752136346271,1,left
5.995,0.11991655687382824,1.395265906496666,-0.023439389603710406,0.24169356848601228,0.7023048966560722,-0.9055189721833713,-0.20041300442028315,0.4154051059812929,0.08742703293243483,1,left
5.996,0.11625143047148494,1.4030157154506298,-0.023263531788099093,0.23616830079785206,0.7352738419809185,-0.9136691632288607,-0.20261777472506023,0.4208987344369917,0.09043315873546857,1,left
6.0,0.11266130324598096,1.4106695399481326,-0.02303449772307455,0.22932580746742331,0.7695809952233498,-0.9221309940400579,-0.20494230502741267,0.42632980911248836,0.09376537215729724,1,left
6.002000000000001,0.10915143673464492,1.4182197899811497,-0.02275112031332205,0.2211563942764062,0.805238146725591,-0.9309076967024932,-0.20739083239082803,0.4316937102189544,0.09743299559744507,1,left
6.005,0.10572708530362035,1.4256588938265564,-0.022412274498698766,0.21165189604038948,0.8422557348013924,-0.940002005842325,-0.2099675347952076,0.4369857955943461,0.10144518899033764,1,left
6.006,0.1023934944568043,1.4329793060882476,-0.02201687685221655,0.20080569217534056,0.8806428112810714,-0.9494161461165683,-0.2126765266824232,0.44220140277056935,0.10581093837257378,1,left
6.011,0.0991558986116243,1.4401735158306215,-0.02156388500413051,0.18861271982959302,0.9204070082221899,-0.959151820913163,-0.21552185459031634,0.44733585110080026,0.11053904450791457,1,left
6.0120000000000005,0.09601951834262738,1.4472340548031537,-0.02105229685567041,0.1750694845540332,0.9615545058922279,-0.969210202287013,-0.2185074928825513,0.4523844439621519,0.1156381115815349,1,left
6.015,0.0929895571171562,1.4541535057410868,-0.020481149541157196,0.16017406847931687,1.0040900021335468,-0.9795919221590436,-0.2216373395821128,0.45734247104866177,0.12111653597609821,1,left
6.016,0.09007119756284727,1.4609245107155224,-0.01984951810296185,0.1439261359650813,1.0480166832248854,-0.9902970648062454,-0.2249152123166306,0.46220521076933985,0.1269824951432554,1,left
6.02,0.0872695973125437,1.4675397794999645,-0.019156513856809988,0.12632693668224254,1.0933361963576058,-1.001325160671605,-0.228344844384117,0.4669679327657688,0.13324393658523434,1,left
6.021,0.08458988446911792,1.4739920979207377,-0.018401282442288263,0.10737930608558632,1.1400486238488896,-1.012675181523744,-0.23192988094811592,0.47162590056349074,0.13990856696227566,1,left
6.025,0.08203715272240894,1.4802743361629878,-0.0175830015709383,0.0870876632299797,1.1881524592180772,-1.0243455369970198,-0.23567387537168838,0.4761743743711394,0.14698384134278325,1,left
6.026,0.07961645613556677,1.4863794570085176,-0.016700878502012368,0.0654580058796514,1.2376445852563414,-1.036334072543764,-0.23958028570009457,0.48060861404098926,0.15447695261419347,1,left
6.031000000000001,0.07733280360304975,1.4923005239848746,-0.01575414729733628,0.04249790285611911,1.2885202542238823,-1.0486380688312646,-0.2436524713024795,0.4849238822042927,0.162394821073725,1,left
6.031000000000001,0.07519115297179467,1.4980307094056005,-0.014742065928210746,0.018216483566483966,1.3407730703128309,-1.061254242617011,-0.24789368968332423,0.4891154475944612,0.17074408421934978,1,left
6.0360000000000005,0.07319640481354855,1.5035633022768025,-0.01366391331757095,-0.007375575350027428,1.3943949745180242,-1.0741787491366346,-0.25230709347489283,0.49317858857081925,0.17953108676252647,1,left
6.0360000000000005,0.07135339584254428,1.5088917160324642,-0.012518986394594452,-0.034266066323212385,1.4493762320617924,-1.0874071860398864,-0.25689572762237994,0.49710859685531766,0.1887618708854557,1,left
6.039,0.06966689198906234,1.51400949603999,-0.011306597224782127,-0.06244127017046374,1.50570542252285,-1.1009345989108854,-0.2616625267739499,0.5009007814942358,0.1984421667668567,1,left
6.04,0.06814158115971446,1.5189103267936974,-0.01002607026822521,-0.09188597850625663,1.5633694328233085,-1.1147554884097557,-0.2666103128883523,0.5045504730565367,0.2085773834015204,1,left
6.044,0.06678206572813132,1.5235880386977876,-0.008676739815186303,-0.12258351931977009,1.6223534532317363,-1.1288638190736464,-0.2717417930733023,0.5080530280801544,0.21917259974016995,1,left
6.045,0.06559285479793765,1.528036614341158,-0.007257947645136503,-0.1545157858015506,1.6826409765440529,-1.1432530298159793,-0.2770595576683257,0.5114038337770965,0.2302325561774479,1,left
6.046,0.06457835626621225,1.5322501941858926,-0.005769040949027643,-0.18766326850376847,1.7442138006078818,-1.1579160461636167,-0.28256607857335586,0.5145983130063604,0.2417616464043337,1,left
6.0489999999999995,0.06374286869858764,1.5362230816220053,-0.004209370547675037,-0.222005090922214,1.8070520343597685,-1.172845294272466,-0.2882637077602397,0.5176319295158546,0.25376390957849415,1,left
6.05,0.0630905730134578,1.5399497473708932,-0.002578289437279178,-0.257519048591724,1.8711341075484171,-1.1880327167628437,-0.29415467578845683,0.5205001934407902,0.2662430226519878,1,left
6.055,0.06262552396497809,1.543424833239805,-0.0008751517005172396,-0.2941816517902181,1.9364367843207848,-1.2034697904166973,-0.30024109008224065,0.5231986670381734,0.27920229263297053,1,left
6.056,0.06235164141484446,1.546643155238456,0.0009006881671265027,-0.33196817194995165,2.0029351808515052,-1.2191475457795664,-0.3065249327914963,0.5257229706439529,0.29264464862352896,1,left
6.059,0.0622727013932045,1.549599706071913,0.0027498754691417395,-0.37085269187795644,2.070602787199678,-1.2350565887108849,-0.31300805817585287,0.528068788852193,0.3065726335925535,1,left
6.06,0.062392326964563906,1.552289657027011,0.004673055039814818,-0.4108081597647672,2.1394114934809165,-1.2511871238686545,-0.3196921895164076,0.5302318769225366,0.3209883959080613,1,left
6.061,0.06271397892419535,1.5547083592749318,0.006670870519146062,-0.45180644633289974,2.2093316199476836,-1.2675289798236882,-0.3265789155732164,0.5322080674232007,0.33589368066759134,1,left
6.065,0.06324094634867021,1.5568513446197996,0.008743963230061528,-0.4938184033441582,2.2803319496773935,-1.284071634974556,-0.33366968660716,0.5339932771162349,0.35128982086668825,1,left
6.065,0.06397633701412343,1.558714325736209,0.010892970751840276,-0.5368139210570635,2.3523797620727462,-1.3008042431434936,-0.3409658099853907,0.5355835140912479,0.36717772844688984,1,left
6.069,0.0649230676811449,1.5602931959624928,0.013118525319958914,-0.5807619828595483,2.4254408658802347,-1.3177156580256486,-0.3484684453901459,0.53697488515327,0.38355788526604156,1,left
6.07,0.06608385422607041,1.5615840287459195,0.015421252195918654,-0.625630716440514,2.4994796313327794,-1.3347944561893483,-0.3561785996513018,0.5381636034698704,0.40043033403516787,1,left
6.074,0.06746120157970639,1.5625830768587285,0.01780176811797233,-0.6713874414975272,2.574459021523732,-1.3520289586171284,-0.3640971212236292,0.5391459964820915,0.4177946692675434,1,left
6.074,0.06905739342704992,1.5632867715133998,0.020260679877313118,-0.7179987141068362,2.650340623222057,-1.36940725083608,-0.37222469433030675,0.5399185140831871,0.43565002828702093,1,left
6.077999999999999,0.07087448163473449,1.5636917215025075,0.02279858299622706,-0.7654303678845357,2.727084677341305,-1.3869172016865527,-0.38056183279484274,0.5404777370685722,0.45399508234408364,1,left
6.079,0.07291427540853407,1.5637947124758824,0.025416060437027644,-0.8136475520702506,2.804650109277693,-1.4045464807787,-0.3891088735841548,0.5408203858597982,0.4728280278895039,1,left
6.082999999999999,0.07517833023539733,1.5635927064481836,0.028113681248480373,-0.8626147666671726,2.882994559335189,-1.422282574686761,-0.3978659700861564,0.5409433295047683,0.49214657805689915,1,left
6.084,0.07766793672296819,1.5630828416057159,0.030891999055345964,-0.9122958947746279,2.962074413457981,-1.4401128019313556,-0.4068330851458022,0.540843594955788,0.5119479544068821,1,left
6.0889999999999995,0.08038410950161859,1.5622624324570895,0.03375155030952141,-0.9626542322516168,3.0418448344930695,-1.4580243268004116,-0.41600998388414534,0.540518376626431,0.5322288789869011,1,left
6.0889999999999995,0.08332757638638445,1.5611289703539744,0.03669285224161547,-1.0136525148519187,3.122259794207936,-1.4760041720596415,-0.4253962263255628,0.5399650462275677,0.5529855667622624,1,left
6.093,0.08649876800196932,1.5596801243974885,0.03971640047382832,-1.0652529429734001,3.2032721062903824,-1.4940392306037713,-0.43499115985890996,0.5391811628822628,0.5742137184752123,1,left
6.093999999999999,0.0898978080564106,1.5579137427394545,0.04282266627484021,-1.117417204166116,3.2848334605595957,-1.5121162760999425,-0.4447939115589653,0.5381644835186015,0.5959085139903301,1,left
6.097,0.09352450441644927,1.5558278542830002,0.04601209345491671,-1.170106493545624,3.366894458619344,-1.5302219726749104,-0.45480338039512774,0.5369129735388501,0.618064606185854,1,left
6.098,0.09737834109815482,1.5534206707834672,0.04928509491375532,-1.2232815322596664,3.4494046511859335,-1.548342883697824,-0.46501822935492904,0.535424817762696,0.6406761154519112,1,left
6.105,0.10145847124661823,1.5506905893483514,0.0526420488594956,-1.2769025841579857,3.532312577325115,-1.566465479710485,-0.475436877510519,0.5336984316416382,0.6637366248579621,1,left
6.106,0.10576371114354338,1.5476361953327022,0.05608329471144969,-1.3309294708165562,3.6155658058335782,-1.5845761455570748,-0.4860574920568756,0.5317324727409325,0.6872391760530988,1,left
6.108,0.11029253525344264,1.544256265622698,0.059609128686198214,-1.3853215850689016,3.6991109790019525,-1.60266118676537,-0.4968779803510806,0.5295258524848118,0.7111762659641357,1,left
6.108,0.11504307229776135,1.5405497722946901,0.06321979905481358,-1.4400379031984505,3.782893858997365,-1.6207068352314862,-0.5078959819825881,0.5270777481600194,0.7355398443577291,1,left
6.115,0.12001310233205335,1.5365158866303932,0.06691550105134653,-1.495036995947049,3.8668593771046154,-1.6386992542601404,-0.5191088609049894,0.5243876151720044,0.7603213123340221,1,left
6.1160000000000005,0.1252000547956783,1.532153983462036,0.07069637140844783,-1.5502770384957951,3.9509516860658542,-1.6566245430123623,-0.5305136976632778,0.5214551995234341,0.7855115217993915,1,left
6.117000000000001,0.13060100750657846,1.5274636458157855,0.07456248249678822,-1.6057158195752885,4.035114215759318,-1.67446874041246,-0.5421072817657908,0.5182805503639577,0.8111007758612298,1,left
6.117000000000001,0.13621268658200242,1.5224446698178329,0.07851383605474048,-1.6613107498632087,4.119289732458228,-1.6922178285659006,-0.553886104276867,0.5148640322434126,0.8370788298983395,1,left
6.117999999999999,0.142031467272456,1.5170970698209711,0.08255035651538756,-1.717018869827816,4.203420401911297,-1.7098577357395681,-0.5658463507214163,0.5112063365799451,0.8634348929558245,1,left
6.122000000000001,0.14805337569738986,1.5114210836956752,0.08667188397127853,-1.7727968571765462,4.287447856486499,-1.727374338955633,-0.5779838943785321,0.5073084919738463,0.8901576292203734,1,left
6.122999999999999,0.1542740914730973,1.5054171782089045,0.09087816686456802,-1.8286010340693164,4.371313266619791,-1.7447534662499893,-0.5902942900155074,0.5031718732132584,0.9172351595235013,1,left
6.127000000000001,0.1606889512328366,1.4990860543910123,0.09516885453826791,-1.884387374275657,4.454957416641876,-1.7619808986408383,-0.6027727680995278,0.4987982089372408,0.9446550629272686,1,left
6.127999999999999,0.16729295305435338,1.4924286527754267,0.09954348980560489,-1.9401115105508668,4.538320784213469,-1.7790423718273363,-0.6154142295218985,0.49418958794500184,0.9724043784692151,1,left
6.129,0.17408076182473822,1.4854461583910068,0.10400150167736275,-1.9957287426790358,4.621343621082834,-1.795923577592246,-0.6282132408701594,0.4893484641394159,1.0004696071442727,1,left
6.132000000000001,0.18104671558738522,1.4781400053770604,0.10854219835522788,-2.0511940467266103,4.703966032036399,-1.812610164856791,-0.641164030283926,0.4842776600922666,1.0288367142023966,1,left
6.132000000000001,0.18818483293448932,1.4705118810623323,0.11316476057769484,-2.1064620859541203,4.786128049754786,-1.8290877403607482,-0.6542604839307585,0.47898036921798115,1.0574911318416031,1,left
6.1370000000000005,0.19548882152698463,1.4625637293200326,0.11786823539157457,-2.161487223660795,4.867769704801814,-1.8453418689858605,-0.6674961431388158,0.473460156541956,1.0864177623770077,1,left
6.138,0.2029520878321921,1.4542977530082712,0.12265153040835866,-2.2162235381404822,4.948831090815239,-1.8613580737654127,-0.6808642022234841,0.46772095804891245,1.1156009819673234,1,left
6.141,0.21056774816171026,1.4457164153343491,0.12751340859296065,-2.270624839907544,5.02925242513512,-1.8771218356272779,-0.6943575070455912,0.4617670785960729,1.145024644981103,1,left
6.142,0.21832864106886013,1.4368224400326355,0.1324524836234848,-2.324644691350705,5.108974105104229,-1.8926185929170916,-0.7079685543392114,0.4556031883753072,1.1746720890857894,1,left
6.147,0.22622734113074916,1.4276188103079892,0.1374672158535044,-2.3782364289719875,5.187936760273242,-1.9078337407475376,-0.7216894918474507,0.4492343179077725,1.2045261411433759,1,left
6.148,0.23425617409977217,1.418108766560009,0.1425559089066091,-2.431353188366928,5.266081300741602,-1.922752630218999,-0.7355121193049572,0.44266585155395183,1.2345691239971683,1,left
6.152,0.24240723336787684,1.4082958029609818,0.1477167069376907,-2.4839479321011435,5.34334896186295,-1.937360567556053,-0.7494278903062428,0.4359035195213951,1.2647828642347765,1,left
6.153,0.25067239764885035,1.3981836630073579,0.15294759259857615,-2.5359734806371153,5.419681345541849,-1.951642813203501,-0.7634279150992127,0.4289533883518791,1.2951487010130651,1,left
6.156000000000001,0.25904334975139,1.3877763341958191,0.15824638573905947,-2.587382546463672,5.495020458346138,-1.9655845809247483,-0.7775029643435953,0.4218218498691267,1.325647496031326,1,left
6.157,0.2675115962887808,1.3770780419869004,0.16361074285827085,-2.638127771579161,5.569308746656779,-1.979171036944471,-0.7916434738742268,0.41451560856767566,1.3562596447394313,1,left
6.1610000000000005,0.2760684881521016,1.3660932432121529,0.16903815730157393,-2.688161768477664,5.642489129074348,-1.9923872991765692,-0.8058395505093924,0.40704166742294196,1.3869650888681553,1,left
6.162000000000001,0.28470524156824933,1.3548266190595264,0.17452596018251043,-2.737437164785838,5.714505026298473,-2.005218436577421,-0.8200809789446338,0.39940731210200603,1.4177433303692426,1,left
6.166,0.2934129595735804,1.3432830677425132,0.18007132200408968,-2.7859066516960564,5.785300388693509,-2.017649468663439,-0.8343572297726287,0.3916200935541486,1.4485734468531146,1,left
6.166,0.30218265375303394,1.3314676969278434,0.18567125495847597,-2.8335230363394843,5.8548197217505615,-2.0296653652308607,-0.848657468669894,0.38368780895968113,1.4794341086123834,1,left
6.171,0.31100526611370116,1.31938581596872,0.19132261589086666,-2.880239298240544,5.9230081096526055,-2.041251046314606,-0.8629705667912101,0.3756184810151541,1.5103035973195416,1,left
6.171,0.3198716909753925,1.3070429279686897,0.19702210991415992,-2.9260086499919,5.989811237145971,-2.0523913824218774,-0.8772851124127495,0.36742033553259207,1.54115982648735,1,left
6.1770000000000005,0.3287727967705044,1.2944447216865993,0.202766294653655,-2.9707846022866593,6.055175409917782,-2.0630711950749863,-0.8915894238649691,0.3591017773299829,1.5719803637805365,1,left
6.178,0.33769944765545945,1.2815970632845375,0.20855158508744737,-3.0145210334418864,6.119047573675116,-2.07327525769666,-0.9058715637963568,0.3506713643898587,1.6027424552674279,1,left
6.183,0.346642524847775,1.2685059879160825,0.21437425893190987,-3.0571722635448184,6.181375332117685,-2.0829882968697975,-0.9201193548091328,0.3421377802624362,1.6334230517001171,1,left
6.184,0.3555929476166623,1.2551776911498282,0.22023046250809267,-3.09869313335031,6.24210696399168,-2.092194994002321,-0.9343203964744065,0.33350980474528025,1.663998836853794,1,left
6.185,0.36454169387241914,1.241618520221073,0.22611621702172446,-3.1390390880550467,6.301191439408176,-2.100879987426409,-0.9484620835664257,0.3247962831503506,1.694446257666404,1,left
6.186,0.3734798203190755,1.2278349651023912,0.23202742519847513,-3.1781662660709653,6.3585784356050254,-2.1090278749599713,-0.9625316250533953,0.3160060949715854,1.7247415553988568,1,left
6.187,0.38239848214645006,1.2138336493864004,0.23795987822466913,-3.2160315929170515,6.414218352326593,-2.1166232169567887,-0.9765160632144021,0.3071481230451188,1.754860796746379,1,left
6.192,0.39128895223523513,1.199621320985651,0.24390926294095464,-3.252592880345341,6.468062326990962,-2.1236505398702334,-0.9904022924196205,0.29823122401476904,1.7847799041205623,1,left
6.193,0.4001426398374163,1.1852048426721915,0.2498711692307474,-3.2878089308134126,6.520062249809361,-2.13009434035394,-1.0041770774128174,0.28926420041262413,1.8144746848419226,1,left
6.196000000000001,0.408951108683746,1.1705911824956585,0.2558410975481926,-3.3216396472212617,6.570170779010506,-2.1359390899432733,-1.0178270711027424,0.28025577438514027,1.8439208592715932,1,left
6.197,0.41770609446674395,1.1557874041255025,0.2618144665417078,-3.354046146872617,6.61834135628217,-2.1411692404700897,-1.0313388319032655,0.27121456303915653,1.8730940879680447,1,left
6.197,0.426399521651782,1.1408006571587743,0.26778662074328147,-3.3849908768995953,6.66452822247363,-2.1457692305601266,-1.0446988406618039,0.26214905538208505,1.9019699979540836,1,left
6.2,0.4350235195672832,1.1256381674345852,0.2737528383036813,-3.414437727431552,6.708686433561976,-2.1497234936709217,-1.057893517215223,0.25306759083041525,1.930524208178672,1,left
6.2010000000000005,0.443570437707062,1.1103072274128079,0.27970833875522166,-3.442352139738954,6.750771876914922,-2.153016468016116,-1.0709092366119974,0.24397833926057852,1.9587323542573212,1,left
6.205,0.4520328601538074,1.094815186697179,0.285648290781477,-3.468701208296221,6.790741287940474,-2.1556326085216573,-1.0837323450389817,0.23488928257614797,1.9865701125739583,1,left
6.206,0.46040361901985327,1.079169442795195,0.29156781997392334,-3.493453776657242,6.828552267243127,-2.1575564008472887,-1.0963491754906691,0.22580819776530278,2.0140132238262405,1,left
6.211,0.46867580680365634,1.0633774322072147,0.2974620165584734,-3.516580527223684,6.864163298407448,-2.1587723774827565,-1.1087460632182957,0.2167426414224625,2.041037516095306,1,left
6.211,0.47684278757336823,1.0474466219305028,0.3033259430777634,-3.5380540649817203,6.897533766523738,-2.159265135926211,-1.120909360995601,0.20769993570799833,2.0676189275198715,1,left
6.215,0.4848982069084538,1.031384501453941,0.30915464201888143,-3.5578489952782246,6.928623977564318,-2.1590193589502973,-1.1328254542374596,0.1986871557199497,2.0937335286534693,1,left
6.216,0.4928360005529019,1.0151985753067667,0.3149431433822456,-3.575941995702811,6.9573951787126544,-2.1580198369593915,-1.1444807760069662,0.1897111182517192,2.1193575445823942,1,left
6.22,0.5006504017563722,0.9988963562094335,0.32068647219360985,-3.592311882137347,6.983809579741101,-2.156251492439373,-1.1558618219458885,0.18077837190978363,2.1444673768806823,1,left
6.221,0.5083359473013743,0.9824853588565996,0.32637965596434576,-3.606939669029758,7.007830375526486,-2.153699406499186,-1.166955165162689,0.17189518856554473,2.169039625477084,1,left
6.227,0.5158874822336176,0.9659730943430019,0.3320177321040141,-3.6198086239440523,7.029421769786112,-2.150348847501292,-1.177747471111569,0.16306755611554802,2.1930511105075925,1,left
6.228,0.5233001633263404,0.9493670652240067,0.3375957552857035,-3.6309043164335573,7.048549000109988,-2.146185301775898,-1.188225512495202,0.1543011725244214,2.2164788942256104,1,left
6.231,0.5305694613170697,0.9326747611842108,0.34310880476135036,-3.6402146612793462,7.065178364358192,-2.1411945064115963,-1.1983761842229954,0.1456014411250278,2.2393003030402974,1,left
6.231,0.5376911619590337,0.9159036552700442,0.348551991623125,-3.6477299561308016,7.079277248485349,-2.1353624841127647,-1.2081865184558553,0.13697346715048447,2.2614929497520238,1,left
6.234,0.5446613659319217,0.8990612006284038,0.35392046600900684,-3.653442913580154,7.090814155847074,-2.1286755801117327,-1.217643699767528,0.12842205547287766,2.2830347560521864,1,left
6.235,0.5514764876591635,0.8821548276854063,0.3592094242546848,-3.657348687697724,7.099758738036086,-2.121120501121342,-1.2267350804516461,0.1199517095236906,2.303903975352897,1,left
6.24,0.5581332530813984,0.8651919416970235,0.36441411599673046,-3.6594448950494494,7.10608182728844,-2.1126843563111266,-1.2354481960026416,0.11156663137117023,2.3240792160102486,1,left
6.2410000000000005,0.5646286964384614,0.848179920605363,0.3695298512322812,-3.659731630213089,7.109755470492941,-2.1033547002878663,-1.243770780797658,0.10327072293007614,2.343539465002997,1,left
6.244,0.5709601561158576,0.8311261131404648,0.374552007340325,-3.6582114758043227,7.1107529648293815,-2.0931195780587863,-1.2516907840055593,0.0950675882794874,2.3622641121265646,1,left
6.245,0.5771252696163417,0.814037837116306,0.3794760360711938,-3.6548895070187735,7.109048895053698,-2.081967571953141,-1.2591963857480364,0.08696053706458799,2.3802329747602773,1,left
6.25,0.5831219677219465,0.7969223778791713,0.38429747051268537,-3.6497732906907703,7.10461917244055,-2.0698878504753506,-1.2662760135366913,0.07895258895860677,2.3974263232636934,1,left
6.25,0.588948467915387,0.7797869868754466,0.3890119320403096,-3.6428728788645053,7.097441075386127,-2.0568702190602726,-1.272918358990086,0.07104647915395136,2.4138249070183386,1,left
6.251,0.5946032671292156,0.7626388803116663,0.3936151372556962,-3.634200796868054,7.087493291666245,-2.042905172698537,-1.279112394739824,0.06324466481484298,2.429409980941778,1,left
6.254,0.6000851338855324,0.7454852378811633,0.39810290491328654,-3.6237720258755877,7.074755962336947,-2.0279839503972297,-1.2848473912648035,0.055549332357426325,2.444163331961782,1,left
6.255,0.6053930998853152,0.7283332015345487,0.40247116282965134,-3.6116039799379736,7.059210727256937,-2.0120985914385034,-1.2901129332978176,0.047962405386612415,2.458067304748856,1,left
6.261,0.6105264511100937,0.7111898742804813,0.4067159547598633,-3.59771647745689,7.040840772203254,-1.9952419933959802,-1.294898935541097,0.040485553156219656,2.4711048261902735,1,left
6.2620000000000005,0.6154847185041197,0.6940623190140938,0.4108334472131085,-3.582131707072529,7.019630877543533,-1.9774079718660644,-1.2991956575947814,0.03312019948590021,2.4832594284233154,1,left
6.265,0.6202676683042632,0.6769575573759337,0.4148199361698013,-3.564874187982568,6.995567468354786,-1.9585913217874769,-1.3029937180946822,0.0258675321056581,2.4945152704301834,1,left
6.266,0.6248752920763683,0.6598825686425148,0.41867185366042153,-3.545970724968095,6.968638665543746,-1.9387878798143452,-1.3062841080730623,0.01872851240648311,2.504857158232003,1,left
6.266,0.6293077965050572,0.6428442886427532,0.4223857741732698,-3.5254503588705988,6.938834336927333,-1.9179945864760384,-1.3090582035547553,0.011703885575944529,2.514270563716798,1,left
6.27,0.6335655929759758,0.6258496086890774,0.4259584208659619,-3.5033443135222933,6.906146146896839,-1.8962095464489188,-1.3113077773995185,0.004794191097911626,2.5227416421337447,1,left
6.271,0.6376492869885885,0.6089053745128538,0.4293866715564675,-3.4796859398643676,6.870567603607977,-1.8734320856675437,-1.3130250104000512,-0.0020002264041059144,2.5302572482833785,1,left
6.274,0.6415596674398893,0.5920183851971886,0.43266756446893323,-3.4545106575098066,6.832094103218975,-1.849662804729353,-1.3142025016436303,-0.008679206000176357,2.5368049514307645,1,left
6.275,0.6452976958204841,0.5751953921009122,0.4357983037151579,-3.4278558937399444,6.790722971017455,-1.8249036284492222,-1.31483327814381,-0.015242758983572025,2.5423730489659455,1,left
6.279,0.6488644953645389,0.5584430977660638,0.4387762645026482,-3.3997610198668586,6.746453499333835,-1.799157851498442,-1.3149108037471002,-0.02169105711632136,2.546950578833223,1,left
6.281000000000001,0.6522613401954986,0.5417681547985862,0.4415989980677559,-3.3702672848893735,6.699286982130782,-1.7724301800598545,-1.3144289873179946,-0.028024420609873858,2.5505273307480603,1,left
6.2829999999999995,0.6554896445104709,0.5251771647080911,0.44426423633374396,-3.3394177463661685,6.649226746149815,-1.7447267694280195,-1.3133821902041434,-0.03424330585973365,2.553093856217581,1,left
6.284,0.6585509518473366,0.5086766766891959,0.44676989629010005,-3.307257198425387,6.596278178487922,-1.7160552574804655,-1.311765232981882,-0.040348292952586545,2.5546414773777872,1,left
6.29,0.6614469244794501,0.49227318632642714,0.44911408408407333,-3.2738320968261,6.5404487504686735,-1.6864247939432526,-1.30957340148072,-0.04634007296411568,2.5551622946577552,1,left
6.291,0.664179332982216,0.4759731342063556,0.4512950988093193,-3.2391904809831082,6.481748037664063,-1.655846065371283,-1.3068024520837682,-0.052219435065372174,2.5546491932781596,1,left
6.294,0.6667500460129548,0.459782904421806,0.4533114359695818,-3.2033818928627826,6.420187735914955,-1.6243313157610109,-1.3034486162994536,-0.05798725345524025,2.553095848588559,1,left
6.295,0.6691610203406613,0.44370882295384184,0.45516179058854744,-3.1664572926540386,6.3557816731897985,-1.591894362710456,-1.2995086045982138,-0.06364447413621137,2.550496730244919,1,left
6.2989999999999995,0.6714142911547427,0.42775715592024266,0.45684505993130475,-3.128468971115022,6.288545817112991,-1.5585506090387011,-1.2949796095062032,-0.069192101550359,2.5468471052258916,1,left
6.3,0.6735119626690135,0.4119341076848997,0.458360345798636,-3.0894704584927566,6.218498277986075,-1.52431704977437,-1.2898593079463676,-0.07463118509208556,2.542143039683368,1,left
6.303,0.6754561990210296,0.39624581882996424,0.4597069563551871,-3.049516429909787,6.1456593071167935,-1.4892122744199388,-1.2841458628155662,-0.07996280551389537,2.536381399619836,1,left
6.303999999999999,0.6772492154553287,0.3806983640003446,0.46088440746035947,-3.008662607108804,6.070051290262863,-1.4532564643961245,-1.2778379237847226,-0.0851880612411326,2.529559850382046,1,left
6.309,0.678893269777613,0.36529774963566564,0.46189242348674503,-2.966965656443335,5.991698735989323,-1.4164713855680542,-1.2709346273072912,-0.0903080546113117,2.5216768549574646,1,left
6.31,0.6803906540738102,0.3500499116062298,0.46273093762878714,-2.9244830829998456,5.910628258730223,-1.378880375752404,-1.2634355958196246,-0.09532387805335903,2.5127316710569594,1,left
6.314,0.6817436867002649,0.33496071276826506,0.4634000917160731,-2.88127312073401,5.8268685563375175,-1.3405083271022684,-1.2553409361151178,-0.1002366002217786,2.5027243469641167,1,left
6.315,0.6829547045666461,0.32003594045237665,0.46390023554954124,-2.8373946185014907,5.740450381892141,-1.3013816632641353,-1.2466512368722993,-0.10504725210045285,2.491655716128543,1,left
6.319,0.6840260557475977,0.30528130389834635,0.46423192577960554,-2.7929069218613116,5.651406509544417,-1.2615283111990292,-1.2373675653153233,-0.10975681309048982,2.4795273904774517,1,left
6.32,0.6849600924685783,0.290702431648025,0.4643959243459196,-2.7478697505278196,5.559771694143275,-1.2209776675576496,-1.2274914630051397,-0.11436619711614818,2.4663417524443565,1,left
6.32,0.6857591645130378,0.2763048689037415,0.46439319649759686,-2.702343071345316,5.46558262440606,-1.1797605594971632,-1.2170249408655467,-0.11887623888215823,2.452101945848429,1,left
6.3229999999999995,0.6864256130937318,0.2620940748524115,0.4642249084084071,-2.656386966657676,5.368877869373225,-1.137909199825226,-1.2059704737403738,-0.12328768059471251,2.436811866003095,1,left
6.325,0.6869617652283079,0.24807541995174162,0.4638924243951772,-2.610061497943716,5.269697817884747,-1.0954571363548085,-1.1943309948839753,-0.1276011595576914,2.420476149567202,1,left
6.327000000000001,0.687369928662699,0.23425418318069013,0.463397303742015,-2.5634265645876417,5.168084610807755,-1.0524391953514893,-1.1821098906778902,-0.1318171969558236,2.403100164511263,1,left
6.327999999999999,0.6876523873895416,0.22063554926772355,0.46274129713026285,-2.516541757652695,5.064082065737663,-1.0088914189530604,-1.169310995671079,-0.1359361879569522,2.384690000320222,1,left
6.332999999999999,0.6878113978057003,0.20722460591950911,0.46192634267694,-2.4694662085250436,4.957735593887979,-0.964850996439567,-1.1559385879318396,-0.1399583931657154,2.3652524584133907,1,left
6.334,0.6878491855420686,0.19402634107696518,0.4609545615931985,-2.4222584325491923,4.84909210913686,-0.9203561893696032,-1.1419973846762987,-0.1438839314407541,2.3447950427316453,1,left
6.334,0.6877679429836342,0.1810456402241268,0.45982825348269524,-2.37497616905105,4.738199930491102,-0.8754462512937798,-1.1274925381367222,-0.14771277408727948,2.323325950439017,1,left
6.337999999999999,0.6875698274840418,0.1682872837680525,0.45854989129969703,-2.327676221440297,4.625108681560555,-0.8301613440087783,-1.1124296316312388,-0.15144474043655612,2.300854062682849,1,left
6.3389999999999995,0.6872569602700852,0.15575594450200536,0.4571221159779689,-2.2804143023588996,4.509869191928806,-0.7845424530107136,-1.0968146757949395,-0.15507949482357675,2.2773889353537724,1,left
6.3420000000000005,0.686831426026531,0.14345618516492012,0.4555477307305957,-2.233244887566806,4.392533404000073,-0.7386313041087261,-1.0806541049306944,-0.1586165449739284,2.252940789783844,1,left
6.343,0.6862952731471418,0.13139245611180583,0.45382969501348414,-2.18622107995977,4.273154286556878,-0.6924702819047379,-1.0639547734364294,-0.1620552418105698,2.227520503318307,1,left
6.347,0.6856505146308081,0.11956909310608733,0.4519711181445174,-2.139394483838766,4.151785754957466,-0.6461023501477339,-1.0467239522640202,-0.16539478069096017,2.2011395996935965,1,left
6.347,0.684899129592204,0.10799031523828942,0.4499752525781953,-2.092815089295602,4.028482597636009,-0.59957097383077,-1.0289693253633903,-0.1686342040846999,2.173810239151369,1,left
6.351,0.6840430653478997,0.09666022296916676,0.44784548685147935,-2.0465311665797516,3.903300408562754,-0.5529200428981927,-1.0106989860638587,-0.17177240570155908,2.145545208215564,1,left
6.353,0.6830842400341723,0.08558279628970289,0.44558533823565194,-2.000589170312004,3.7762955253155908,-0.5061937974299596,-0.9919214333432532,-0.17480813607948592,2.1163579090567373,1,left
6.357,0.6820245457106694,0.07476189298515228,0.44319844514432094,-1.9550336534112098,3.6475249724089247,-0.45943675416948354,-0.9726455679338021,-0.17774000964189846,2.086262348365174,1,left
6.358,0.6808658519026811,0.0642012469851243,0.44068855935502593,-1.9099071906012761,3.517046409520375,-0.4126936342610815,-0.9528806882123372,-0.18056651323327208,2.055273125651627,1,left
6.361000000000001,0.6796100095335675,0.05390446677716417,0.4380595381024959,-1.8652503113665162,3.384918084250562,-0.3660092920628902,-0.9326364858208844,-0.1832860161417408,2.023405420891854,1,left
6.362,0.6782588551965334,0.04387503385938291,0.43531533609894846,-1.8211014422245835,3.2511987890461853,-0.31942864490102474,-0.9119230409622885,-0.18589678161713163,1.9906749814285325,1,left
6.3660000000000005,0.6768142157096654,0.034116301209558116,0.4324599975315162,-1.7774968581874386,3.1159478219116954,-0.272996603630797,-0.8907508173141111,-0.18839697989254775,1.9570981080415544,1,left
6.367000000000001,0.6752779128906921,0.024631491753396104,0.42949764807760565,-1.734470643282147,2.9792249505301003,-0.22675800387097772,-0.8691306565026701,-0.19078470271731016,1.9226916400951986,1,left
6.371,0.6736517684806755,0.015423696822510338,0.42643248696836267,-1.6920546600047517,2.8410903794089126,-0.1807575377773866,-0.8470737720777378,-0.19305797940875283,1.8874729396681795,1,left
6.372000000000001,0.6719376091406172,0.006495874601743358,0.4232687791255763,-1.650278527582037,2.701604719662816,-0.13503968622251866,-0.8245917429270978,-0.19521479443005066,1.8514598745701567,1,left
6.377000000000001,0.6701372714431165,-0.002149151426163626,0.420010847401805,-1.6091696089176464,2.5608289610404116,-0.08964865124847293,-0.8016965060688775,-0.19725310650093433,1.8146708001459009,1,left
6.377999999999999,0.6682526067829591,-0.010508694024493071,0.4166630649616593,-1.5687530061007648,2.4188244457983568,-0.04462828866113182,-0.7784003487583179,-0.19917086924781896,1.777124539765981,1,left
6.381,0.6662854861344744,-0.01858020371765594,0.413229847845165,-1.52905156435742,2.275652844022319,-2.2040634351154198e-05,-0.7547158998444196,-0.2009660533995378,1.738840363900555,1,left
6.382000000000001,0.6642378045889658,-0.02636127025848099,0.40971564774846664,-1.490085884326355,2.131376129990464,0.04412713180614093,-0.7306561203107214,-0.20263667053453235,1.6998379676706221,1,left
6.386,0.6621114856123046,-0.03384962402810847,0.4061249450459406,-1.4518743425434186,1.9860565591716708,0.08777681654837431,-0.7062342929333124,-0.20418079838500372,1.6601374467689147,1,left
6.3870000000000005,0.659908484969764,-0.04104313734943221,0.4024622420662495,-1.414433120020468,1.8397566454473206,0.1308852185373456,-0.6814640109880709,-0.20559660770317717,1.619759271640493,1,left
6.3870000000000005,0.6576307942727031,-0.047939825697261275,0.39873205662507705,-1.3777762388068804,1.6925391381423154,0.1734112284225428,-0.6563591659684206,-0.20688239063484928,1.5787242598800024,1,left
6.393,0.6552804441120653,-0.05453784879330848,0.39493891580833146,-1.3419156064239393,1.5444669984479986,0.21531449183508983,-0.6309339344257808,-0.20803659024688573,1.537053547145341,1,left
6.394,0.6528595067552648,-0.06083551158092883,0.3910873499923462,-1.3068610680645691,1.3956033748168375,0.25655547941826135,-0.6052027643173347,-0.20905783031832548,1.494768557506176,1,left
6.396,0.6503700983907821,-0.06683126507881773,0.38718188708430457,-1.272620466453135,1.2460115769060793,0.2970955577334468,-0.5791803613967008,-0.20994494420623863,1.4518909744886497,1,left
6.397,0.6478143809074419,-0.07252370711142442,0.38322704696609344,-1.2391997092623133,1.0957550476451514,0.3368970611618554,-0.5528816760302547,-0.21069700189524299,1.4084427137309998,1,left
6.401,0.6451945631953383,-0.0779115829087988,0.37922733612613285,-1.206602843986346,0.944897332999291,0.37592336492035366,-0.5263218905475122,-0.21131333487584744,1.3644458975424214,1,left
6.402,0.6425129019539052,-0.08299378556384042,0.37518724246694324,-1.174832140031256,0.793502049147773,0.4141389591961729,-0.4995164070812381,-0.2117935587945411,1.3199228313110014,1,left
6.403,0.6397717019913951,-0.08776935633328882,0.3711112302813954,-1.1438881770795772,0.6416328475330026,0.45150952384489745,-0.4724808358217621,-0.21213759387778802,1.2748959816359584,1,left
6.405,0.6369733160015277,-0.09223748477160014,0.367003735394772,-1.1137699375198618,0.4893533795666966,0.48800200208914635,-0.44523098360923624,-0.2123456831316965,1.2293879560578431,1,left
6.406000000000001,0.6341201438067743,-0.09639750869090156,0.3628691604716265,-1.0844749000282212,0.33672726351764304,0.5235846710948234,-0.41778284278686295,-0.2124184083187427,1.1834214842588475,1,left
6.41,0.6312146310614751,-0.10024891394141722,0.3587118704881222,-1.0559991320969007,0.1838180553643557,0.5582272078575982,-0.39015258023746135,-0.21235670371253765,1.1370194006039172,1,left
6.412000000000001,0.6282592674122343,-0.10379133400729884,0.3545361883727143,-1.0283373805769178,0.030689224063082193,0.5919007498345316,-0.36235652652512435,-0.21216186763123598,1.0902046278919881,1,left
6.415,0.6252565841213441,-0.10702454941770068,0.3503463908195708,-1.0014831600095286,-0.12259586905918637,0.6245779503113594,-0.33441116506315094,-0.211835571749798,1.0430001621853453,1,left
6.416,0.6222091511747642,-0.10994848698390582,0.3461467042817624,-0.9754288386647029,-0.2759739872258354,0.656233028604891,-0.30633312122891426,-0.21137986819093052,0.9954290585838508,1,left
6.421,0.6191195739150616,-0.11256321888720996,0.3419413011597188,-0.9501657222071322,-0.42938203188563845,0.6868418151971969,-0.27813915134584993,-0.21079719439414984,0.947514417809605,1,left
6.422000000000001,0.6159904892480107,-0.11486896165057275,0.33773429621307605,-0.9256841349126097,-0.5827570535818712,0.7163817918954061,-0.2498461314523208,-0.21009037576203488,0.8992793734664868,1,left
6.426,0.6128245614631181,-0.11686607502423364,0.33352974322370454,-0.9019734983599146,-0.736036260456007,0.7448321271079952,-0.22147104577673435,-0.20926262608236548,0.8507470798379609,1,left
6.4270000000000005,0.6096244776977506,-0.11855506080930885,0.3293316319084572,-0.879022407525606,-0.8891570248265568,0.7721737063254522,-0.19303097483795434,-0.20831754572447908,0.8019407000855587,1,left
6.431,0.6063929430788642,-0.11993656164345923,0.32514388503721936,-0.8568187042113756,-1.0420568882835268,0.7983891578901322,-0.16454308308976548,-0.20725911760782162,0.7528833947095122,1,left
6.432,0.6031326755934441,-0.1210113597750602,0.32097035569118476,-0.8353495477358198,-1.1946735657386864,0.8234628741369912,-0.13602460602791397,-0.20609170094032273,0.7035983101321747,1,left
6.435,0.5998464007551596,-0.12178037584900006,0.3168148246118122,-0.8146014828246725,-1.3469449488713898,0.8473810279837077,-0.10749283667805969,-0.2048200227238886,0.6541085672640685,1,left
6.435,0.596536846142735,-0.12224466771944723,0.31268099762341295,-0.7945605046356857,-1.4988091094090534,0.870131585045469,-0.07896511138283943,-0.2034491670239817,0.6044372499116801,1,left
6.44,0.5932067358857125,-0.12240542929746033,0.3085725031372288,-0.7752121208564547,-1.6502043026805884,0.891704311346419,-0.05045879480615227,-0.20198456199994336,0.5546073928854711,1,left
6.441,0.5898587851686905,-0.12226398943573392,0.3044928897537656,-0.7565414108155518,-1.8010689718800832,0.912090776696458,-0.021991264072740234,-0.20043196469241784,0.5046419696659844,1,left
6.444,0.5864956948181187,-0.12182181084882651,0.3004456239774911,-0.7385330815493673,-1.9513417534768744,0.931284353798722,0.006420108038850795,-0.19879744356395013,0.45456387948539995,1,left
6.445,0.5831201460274119,-0.1210804890647886,0.2964340880490335,-0.7211715207690416,-2.100961484206787,0.949280213149701,0.03475797093178362,-0.19708735878856407,0.40439593368144494,1,left
6.45,0.5797347952669805,-0.12004175140273787,0.2924615778875532,-0.7044408466738207,-2.2498672100778085,0.966075313790546,0.06300501513665793,-0.19530834028587188,0.35416084118016866,1,left
6.4510000000000005,0.576342269415638,-0.11870745596961163,0.28853130112464004,-0.6883249545590671,-2.397998197821756,0.9816683899646901,0.09114399244903505,-0.1934672634950349,0.30388119296376975,1,left
6.454,0.5729451611385795,-0.11707959066787944,0.28464637520640834,-0.6728075601690172,-2.5452939492216284,0.9960599337334761,0.11915773729063285,-0.1915712229375668,0.25357944544189776,1,left
6.455,0.5695460245259064,-0.11516027220544564,0.28080982554263245,-0.6578722397461877,-2.6916942187422706,1.009252173598036,0.1470291890783219,-0.18962750388722793,0.20327790295711043,1,left
6.455,0.5661473709973648,-0.11295174509998075,0.27702458368612964,-0.6435024667310996,-2.8371390348897685,1.0212490491722177,0.17474141493927758,-0.18764355295009758,0.15299870021746004,1,left
6.46,0.5627516654761628,-0.11045638067180291,0.27329348553015975,-0.6296816450677064,-2.9815687257225814,1.0320561819479064,0.2022776318628009,-0.18562694862720622,0.10276378576157041,1,left
6.461,0.559361322837439,-0.10767667602102074,0.26961926951880616,-0.6163931390715871,-3.1249239489348515,1.0416808421906478,0.2296212276263945,-0.1835853726625209,0.05259490724911475,1,left
6.465,0.5559787046424215,-0.10461525298579474,0.266004574875386,-0.6036202998195861,-3.2671457269295896,1.050131912000049,0.25675578027868984,-0.18152658249394465,0.0025135988072475307,1,left
6.465,0.5526061161741163,-0.10127485707955863,0.2624519398625327,-0.5913464880211613,-3.4081754872965146,1.0574198445660166,0.2836650762087972,-0.1794583848554438,-0.047458829648782716,1,left
6.47,0.5492458037917914,-0.09765835640569799,0.2589638000916403,-0.5795550933332306,-3.5479551091062453,1.063556619648504,0.3103331268805949,-0.17738861052445484,-0.09730130126491554,1,left
6.47,0.5458999526190187,-0.0937687405487931,0.25554248689973846,-0.5682295501399782,-3.6864269752176506,1.0685556953683775,0.336744184309872,-0.17532509020867398,-0.1469929794112798,1,left
6.471,0.5425706845754086,-0.0896091194422354,0.2521902258093687,-0.5573533501114706,-3.8235340297336173,1.0724319567102378,0.36288275536159453,-0.17327563156630407,-0.19651327330242604,1,left
6.474,0.5392600567576451,-0.08518272221237407,0.24890913508207022,-0.5469100523800356,-3.959219837832278,1.075201661704541,0.3887336149438701,-0.1712479973538305,-0.2458418422179293,1,left
6.475,0.5359700601720261,-0.08049289600031072,0.24570122437165037,-0.5368832924656495,-4.093428644138831,1.0768823865696604,0.4142818181744513,-0.16924988469541435,-0.2949585984660692,1,left
6.479,0.5327026188178721,-0.07554310476495338,0.24256839348141568,-0.5272567907919133,-4.226105426857317,1.0774929707747425,0.4395127115948319,-0.16728890546803235,-0.34384370923280155,1,left
6.48,0.5294595891167918,-0.07033692807297019,0.2395124312276447,-0.5180143611117304,-4.357195946782265,1.0770534624112278,0.46441194350616877,-0.16537256779655551,-0.3924775974576864,1,left
6.484,0.5262427596749361,-0.06487805988058594,0.23653501440890232,-0.5091399188720317,-4.486646791364007,1.075585063941216,0.4889654735003894,-0.1635082586530423,-0.4408409418778293,1,left
6.485,0.5230538513540187,-0.05917030730908787,0.23363770688059765,-0.5006174894898652,-4.61440541420869,1.073110078324474,0.513159581258936,-0.16170322755462926,-0.488914676380227,1,left
6.4879999999999995,0.5198945176154842,-0.05321758941211886,0.23082195873826014,-0.49243121651325983,-4.740420170389463,1.069651855522871,0.5369808746906458,-0.15996457135453024,-0.5366799888021887,1,left
6.489,0.5167663450964086,-0.04702393592992437,0.22808910561876747,-0.48456536964133723,-4.8646403479405915,1.0652347393780648,0.5604162974792721,-0.15829922012080377,-0.5841183193187262,1,left
6.494,0.5136708543777692,-0.040593486024663734,0.22544036813185722,-0.47700435257915325,-4.987016195901419,1.059884014855388,0.5834531361101224,-0.15671392409771873,-0.631211358554976,1,left
6.495,0.5106095009120452,-0.033930486990893086,0.22287685143213737,-0.4697327107037199,-5.107498949272061,1.0536258556440452,0.6060790264442156,-0.15521524174473833,-0.6779410455608309,1,left
6.499,0.5075836760827221,-0.027039292934267108,0.2203995449356823,-0.4627351385185772,-5.226040851237578,1.0464872721009888,0.6282819599072565,-0.1538095288483532,-0.7242895657840166,1,left
6.499,0.5045947083712228,-0.019924363408636573,0.21800932217869323,-0.4559964868751596,-5.342595173012094,1.03849605952316,0.6500502893595789,-0.15250292870222307,-0.7702393491768648,1,left
6.502999999999999,0.5016438646083272,-0.012590261998191297,0.2157069408114664,-0.44950176994003627,-5.457116231648839,1.0296807467301723,0.6713727347120282,-0.15130136335133582,-0.8157730685709813,1,left
6.504,0.49873235128937843,-0.005041654828340333,0.21349304271978342,-0.4432361718878894,-5.569559406156587,1.0200705449369911,0.6922383883515448,-0.15021052589615863,-0.8608736384529223,1,left
6.507999999999999,0.49586131593671645,0.0027166910126358466,0.21136815426753094,-0.4371850533008399,-5.679881152257197,1.0096952968937167,0.7126367204389555,-0.1492358738530408,-0.9055242142728395,1,left
6.5089999999999995,0.49303184849837656,0.01067990915943257,0.20933268665884372,-0.4313339572554317,-5.78803901611316,0.9985854262672061,0.7325575841402041,-0.14838262356742823,-0.9497081924168672,1,left
6.513,0.4902449827770185,0.018843035780994437,0.20738693642400088,-0.425668615079243,-5.89399164734808,0.9867718872369918,0.7519912208509412,-0.14765574567676823,-0.9934092109727742,1,left
6.513,0.48750169788564524,0.027201011534114847,0.20553108603788314,-0.4201749517597104,-5.997698811676915,0.9742861142757577,0.7709282654730479,-0.14705996162031543,-1.0366111514171148,1,left
6.518,0.4848029197270567,0.035748683674380895,0.20376520468156847,-0.4148390909883267,-6.0991214034566,0.9611599720825237,0.7893597518003026,-0.1465997411933987,-1.0792981413507723,1,left
6.519,0.482149522493362,0.04448080833821677,0.20208924915688642,-0.409647359823906,-6.1982214584613455,0.9474257056346684,0.8072771180689947,-0.1462793011440709,-1.1214545584084032,1,left
6.522,0.47954233018117276,0.0533920530099612,0.20050306496095657,-0.4045862929591061,-6.294962167180439,0.9331158903229916,0.8246722127278715,-0.14610260481043974,-1.1630650354658527,1,left
6.523,0.47698211811716734,0.062476999188288806,0.1990063875237009,-0.39964263657484894,-6.389307888929839,0.918263382132176,0.841537300459347,-0.1460733627793538,-1.2041144672170299,1,left
6.523,0.4744696144873135,0.07173014526651847,0.19759884360787255,-0.39480335176769554,-6.481224167062153,0.9029012678272652,0.8578650683774416,-0.14619503445745363,-1.244588017934668,1,left
6.527,0.47200550186224205,0.08114590964196063,0.19627995287073388,-0.3900556175356087,-6.570677745552868,0.8870628151051207,0.8736486321374374,-0.14647083028389524,-1.2844711297678575,1,left
6.529,0.4695904187119358,0.09071863406881404,0.19504912959045817,-0.3853868333078733,-6.657636587233738,0.8707814226682602,0.8888815415857267,-0.14690371422440954,-1.3237495306720863,1,left
6.532,0.4672249609036471,0.10044258726571406,0.1939056845672782,-0.3807846210052441,-6.742069893937359,0.8540905701770188,0.9035577856817747,-0.14749640627686103,-1.3624092413214144,1,left
6.532,0.464909683175241,0.11031196878486431,0.19284882721587074,-0.3762368266166548,-6.8239481288098,0.8370237680346054,0.9176717966115362,-0.14825138488102638,-1.4004365808106753,1,left
6.537000000000001,0.4626451005712896,0.12032091314796695,0.19187766786841737,-0.37173152129438847,-6.903243040939606,0.8196145069956132,0.9312184531150782,-0.14917088921582924,-1.4378181712094042,1,left
6.537999999999999,0.46043168982408256,0.13046349425614895,0.19099122030610707,-0.3672570020464866,-6.9799276919369,0.8018962077736722,0.9441930830705543,-0.1502569213857397,-1.4745409410785242,1,left
6.539,0.45826989065917173,0.14073373008513587,0.19018840453053146,-0.3628017922433739,-7.053976483175892,0.7839021711581887,0.9565914653750678,-0.15151124849851164,-1.5105921280590011,1,left
6.542000000000001,0.4561601070047446,0.15112558767864914,0.18946804977609044,-0.3583546422324838,-7.1253651818994,0.7656655293354376,0.968409831161329,-0.152935404636904,-1.545959280639829,1,left
6.542999999999999,0.4541027080864019,0.1616329884490866,0.1888288977516041,-0.3539045302780725,-7.19407094488376,0.7472191989220839,0.9796448643873691,-0.15453069272750983,-1.58063025921081,1,left
6.547000000000001,0.4520980293973077,0.17224981378663576,0.18826960608644133,-0.3494406639054234,-7.260072339268059,0.7285958358830725,0.9902937018349216,-0.15629818631029932,-1.6145932365036701,1,left
6.547000000000001,0.45014637354867887,0.18296991096959234,0.1877887519475155,-0.34495248165198195,-7.323349360651268,0.7098277923188296,1.0003539325504132,-0.15823873121297133,-1.647836697523089,1,left
6.5520000000000005,0.448248011022139,0.1937870993606668,0.18738483579085372,-0.3404296552126132,-7.383883448654587,0.6909470750688547,1.0098235967608342,-0.16035294713469816,-1.6803494390672051,1,left
6.553,0.4464031808579177,0.20469517686547942,0.1870562852139326,-0.3358620919661354,-7.441657500138584,0.6719853060782716,1.0187011842950766,-0.16264122914434323,-1.7121205689351555,1,left
6.557,0.4446120913182956,0.21568792662025577,0.18680145888102023,-0.33123993787021405,-7.496655880256855,0.6529736844734946,1.026985632539631,-0.1651037490987274,-1.7431395049171126,1,left
6.558,0.4428749205633328,0.22675912386716748,0.1866186505031427,-0.32655358071160245,-7.548864431520061,0.6339429502928358,1.0346763239558472,-0.16774045698701878,-1.7733959736601999,1,left
6.561,0.44119181736667956,0.23790254296877417,0.18650609286420922,-0.32179365369858554,-7.598270481036301,0.6149233498176492,1.0417730831842587,-0.1705510822078194,-1.8028800095015363,1,left
6.562,0.43956290188556807,0.249111964507785,0.18646196189020356,-0.31695103938232816,-7.644862846085754,0.5959446024494639,1.0482761737597655,-0.17353513478602328,-1.8315819533574895,1,left
6.567,0.437988266483998,0.2603811824153525,0.186484380758655,-0.3120168738936452,-7.688631838179562,0.5770358690785002,1.054186294459773,-0.17669190653702008,-1.8594924517560418,1,left
6.567,0.4364679765948791,0.27170401107134995,0.18657142404564214,-0.3069825514814997,-7.729569265744862,0.5582257218889942,1.0595045753056709,-0.18002047218631645,-1.8866024560969459,1,left
6.572,0.43500207159790255,0.2830742923235757,0.186721121910118,-0.3018397293392983,-7.767668435569794,0.5395421155468731,1.0642325732363356,-0.1835196904531472,-1.9129032222221005,1,left
6.5729999999999995,0.4335905656860457,0.2944859023785593,0.18693146431803162,-0.29658033270479106,-7.802924153134194,0.5210123597155237,1.06837226747064,-0.18718820510714201,-1.9383863103763088,1,left
6.577000000000001,0.4322334486949712,0.30593275852390495,0.18720040530861046,-0.2911965602190957,-7.83533272194357,0.5026630928456766,1.0719260545742473,-0.19102444600760754,-1.9630435856362791,1,left
6.577000000000001,0.4309306868751403,0.31740882564994544,0.18752586730232707,-0.2856808895300539,-7.864891941975788,0.484520257185793,1.0748967432442795,-0.19502663013547467,-1.9868672188834071,1,left
6.582000000000001,0.4296822235929648,0.3289081225455761,0.18790574544668395,-0.2800260831247955,-7.891601107341753,0.4666090749597799,1.0772875488237552,-0.19919276262844535,-2.009849688393525,1,left
6.582999999999999,0.4284879799521264,0.34042472794907186,0.1883379119938425,-0.27422519437602666,-7.915461003253175,0.4489540256593759,1.0791020875560122,-0.20352063783035668,-2.031983782114435,1,left
6.586,0.4273478553299741,0.35195278633899213,0.18882022070314886,-0.2682715737861828,-7.936473902382328,0.43157882439914447,1.0803443705876592,-0.20800784036625444,-2.0532626006996546,1,left
6.587000000000001,0.42626172782878835,0.36348651345226396,0.18935051126039276,-0.2621588754131854,-7.9546435606905455,0.41450640128267224,1.0810187977269263,-0.21265174625513966,-2.0736795613643726,1,left
6.59,0.42522945464860723,0.37502020151658705,0.18992661370370198,-0.25588106346112466,-7.969975212793991,0.3977588817293059,1.0811301509626416,-0.2174495240728161,-2.0932284026271923,1,left
6.593999999999999,0.4242508723955666,0.38654822418298596,0.1905463528438031,-0.24943241901875116,-7.982475566927076,0.3813575677115611,1.0806835877474084,-0.22239813617772325,-2.1119031899987752,1,left
6.595,0.4233257973429362,0.3980650411419855,0.19120755266371264,-0.24280754692820294,-7.992152799555738,0.3653229198542081,1.079684634046933,-0.2274943400130898,-2.129698322676023,1,left
6.595,0.42245402565883033,0.40956520240538385,0.19190804067868975,-0.2360013827659215,-7.999016549684634,0.3496745403469686,1.0781391771588094,-0.23273468949974885,-2.1466085412680003,1,left
6.599,0.42163533360825783,0.42104335223818257,0.19264565223218807,-0.2290091999172197,-8.003077912894174,0.33443115662375017,1.076053458317343,-0.23811553653721756,-2.162628936427571,1,left
6.599,0.42086947773187666,0.43249423273189425,0.19341823470048025,-0.22182661672545947,-8.004349435135229,0.319610605762399,1.0734340651262004,-0.24363303263615765,-2.1777549579907016,1,left
6.603,0.42015619499970647,0.44391268701566683,0.19422365157829713,-0.21444960368870863,-8.002845106294366,0.30522981958184886,1.070287923873977,-0.24928313070857408,-2.191982424073125,1,left
6.604,0.41949520293463677,0.4552936621030049,0.19505978641918306,-0.20687449063837404,-7.998580353500085,0.2913048105236686,1.0666222917713417,-0.25506158703968496,-2.2053075297212175,1,left
6.605,0.4188861996994275,0.4666322113729747,0.19592454660850286,-0.19909797376565028,-7.991572034070639,0.2778506586023558,1.0624447491201083,-0.26096396346069783,-2.217726854980875,1,left
6.609,0.4183288641432719,0.4779234966845349,0.1968158669538098,-0.19111712232322686,-7.981838427961737,0.2648814998189455,1.0577631914081853,-0.2669856297392796,-2.229237372395308,1,left
6.609,0.4178228558091916,0.4891627901174456,0.1977317130832116,-0.18292938486696783,-7.969399229598803,0.25241051632484973,1.052585821319891,-0.27312176620431117,-2.2398364539700237,1,left
6.6129999999999995,0.4173678149095743,0.500345475328043,0.19867008464632827,-0.1745325949698104,-7.954275539032488,0.24044992842806287,1.0469211406496481,-0.2793673666218722,-2.2495218776406665,1,left
6.614,0.4169633622816216,0.5114670485094202,0.19962901831546834,-0.16592497637738238,-7.936489852382626,0.22901098842629553,1.0407779421056287,-0.28571724133974424,-2.258291833276781,1,left
6.617999999999999,0.41660909933614043,0.5225231189520836,0.20060659058697616,-0.15710514758181257,-7.916066051534955,0.21810397623123848,1.034165300988494,-0.2921660207180494,-2.2661449282519426,1,left
6.619,0.41630460801257174,0.533509409209365,0.2016009203838428,-0.14807212578960846,-7.8930293930471995,0.2077381967496208,1.027092566728974,-0.29870815886395513,-2.273080192608064,1,left
6.622999999999999,0.4160494507514615,0.5444217548799174,0.20261017146043298,-0.1388253302588709,-7.867406496213485,0.1979219789882233,1.0195693542666604,-0.3053379376886745,-2.2790970838390874,1,left
6.624,0.41584317049442254,0.5552561040261351,0.2036325546093402,-0.1293645849805066,-7.839225330228444,0.18866267685153484,1.0116055352510336,-0.31204947130527694,-2.2841954913166034,1,left
6.627000000000001,0.4156852907226614,0.5660085162516266,0.20466632967006274,-0.11969012067748794,-7.808515200384913,0.17996667160229057,1.0032112290444308,-0.318836710786089,-2.2883757403773237,1,left
6.627999999999999,0.4155753155479601,0.5766751614633266,0.20570980733934302,-0.10980257609559584,-7.7753067332316625,0.1718393759567095,0.994396793505361,-0.3256934492987203,-2.2916385960896988,1,left
6.632999999999999,0.4155127298735544,0.5872523183446321,0.2067613507828593,-0.09970299855846809,-7.7396318606102685,0.16428523978784487,0.9851728155293106,-0.3326133276399803,-2.293985266714314,1,left
6.632999999999999,0.41549699964564923,0.5977363725649254,0.20781937704702924,-0.08939284375916262,-7.7015238024829795,0.15730775741207792,0.9755501013229504,-0.3395898401871713,-2.2954174068700905,1,left
6.638,0.41552757221711856,0.6081238147487138,0.2088823582680442,-0.07887397475983317,-7.661017048456225,0.15090947643541722,0.965539666386441,-0.3466163412864411,-2.295937120415656,1,left
6.64,0.4156038768419586,0.6184112382253713,0.20994882267412213,-0.06814866017050747,-7.618147337897381,0.1450920081379101,0.9551527251773649,-0.3536860520980608,-2.295546963052633,1,left
6.642,0.4157253253136652,0.6285953365783369,0.21101735537775412,-0.057219571477353556,-7.572951638535364,0.13985603937612687,0.9444006804286655,-0.3607920679186552,-2.294249944654964,1,left
6.643,0.4158913127547611,0.638672901011249,0.21208659895704407,-0.04608977949022117,-7.525468123428793,0.1352013459853412,0.9332951120918577,-0.36792736600055487,-2.292049531325769,1,left
6.648,0.41610121855904514,0.6486408175488189,0.21315525382806289,-0.034762749878653014,-7.475736146178625,0.13112680766469573,0.9218477658756985,-0.3750848138885672,-2.288949647180631,1,left
6.649,0.4163544074828489,0.6584960640914962,0.21422207841308827,-0.023242337764976154,-7.423796214255528,0.1276304243303114,0.9100705413494522,-0.382257178294562,-2.284954675853574,1,left
6.652,0.41665023087691216,0.6682357073437962,0.2152858891125606,-0.011532781342508007,-7.3696899603056485,0.12470933392296578,0.8979754795788734,-0.3894371345303565,-2.280069461719439,1,left
6.653,0.41698802804680185,0.6778568996363589,0.2163455600915797,0.00036130551365417114,-7.313460111292008,0.12235983165863121,0.8855747502620487,-0.3966172765194441,-2.2742993108237486,1,left
6.657,0.41736712772626194,0.6873568756614714,0.21740002289464613,0.012434941676346385,-7.255150455322409,0.1205773907118229,0.8728806383312896,-0.40379012740815634,-2.2676499915085992,1,left
6.657,0.4177868496439602,0.6967329491410328,0.2184482659048353,0.02468278827018199,-7.19480580600851,0.11935668432335689,0.8599055299863569,-0.4109481507968675,-2.2601277347205615,1,left
6.662000000000001,0.4182465061620717,0.7059825094455869,0.2194893336651507,0.03709915928368463,-7.1324719641946155,0.1186916093257589,0.8466618981479453,-0.4180837625939027,-2.2517392339923505,1,left
6.662999999999999,0.41874540396755694,0.7151030181838223,0.22052232607907404,0.049678033324382906,-7.068195676888784,0.11857531108119222,0.8331622874421438,-0.42518934340503795,-2.2424916451291677,1,left
6.664,0.4192828458021622,0.7240920057831483,0.2215463975044495,0.062413066552039195,-7.002024593223008,0.11900020982838456,0.8194192990465137,-0.43225725120988834,-2.232392585703081,1,left
6.666,0.41985813222038687,0.7329470680821848,0.22256075575220546,0.07529760682566876,-6.9340072172634715,0.11995802843662856,0.8054455758502848,-0.43927983398666376,-2.221450134497979,1,left
6.667000000000001,0.42047056336406163,0.7416658629551378,0.22356466099887648,0.08832470910047112,-6.86419285748636,0.12143982156650565,0.791253788257808,-0.44624944203643735,-2.209672831003513,1,left
6.672000000000001,0.42111944074012697,0.7502461069879542,0.2245574246168618,0.10148715211124369,-6.79263157272923,0.123436006238536,0.7768566207429648,-0.45315843991951377,-2.197069674979022,1,left
6.672999999999999,0.421804068986832,0.7586855722280449,0.22553840791983892,0.11477745637927675,-6.719374114422632,0.12593639381248678,0.7622667591389438,-0.4599992180061035,-2.1836501260643493,1,left
6.6739999999999995,0.42252375761336336,0.7669820830319563,0.2265070208164701,0.12818790354106377,-6.644471865040229,0.1289302233523494,0.7474968786226451,-0.466764203661311,-2.1694241034037423,1,left
6.6770000000000005,0.42327782269973413,0.7751335130366421,0.22746272036506235,0.14171055680218123,-6.567976773393827,0.13240619620734498,0.7325596323523788,-0.47344587208426636,-2.1544019852466483,1,left
6.6770000000000005,0.4240655885474922,0.7831377822792831,0.22840500922456566,0.1553372819683958,-6.489941288642827,0.13635251137773388,0.7174676407169714,-0.48003675682103564,-2.1385946084868763,1,left
6.682,0.4248863892750067,0.7909928544885535,0.22933343400164638,0.16905976831103334,-6.410418295576094,0.14075690108949426,0.7022334811538796,-0.48652945997072816,-2.122013268099279,1,left
6.683,0.42573957035226484,0.7986967345677954,0.23024758349734406,0.18286954871933378,-6.329461053026444,0.14560666614944595,0.6868696784934257,-0.49291666210398016,-2.1046697164308275,1,left
6.687,0.4266244900706461,0.8062474662883183,0.23114708685938842,0.1967580189444784,-6.247123136025593,0.1508887109167765,0.6713886957858285,-0.49919113191273135,-2.0865761623006867,1,left
6.687,0.4275405209449301,0.8136431302085787,0.23203161164938277,0.2107164559356183,-6.163458381609907,0.15658957787436928,0.6558029255672915,-0.5053457356099309,-2.06774526986169,1,left
6.692,0.42848705104848434,0.8208818418317644,0.23290086183878123,0.22473603530755762,-6.07852083804449,0.16269548181383736,0.6401246815210394,-0.5113734460975067,-2.0481901571734094,1,left
6.693,0.4294634852874276,0.8279617500112264,0.23375457575250116,0.23880784797997048,-5.992364717229188,0.16919234364940824,0.6243661904888576,-0.5172673519206062,-2.027924394434876,1,left
6.697,0.4304692466239932,0.8348810356118564,0.23459252398198124,0.2529229160282315,-5.905044350046288,0.17606582387700653,0.6085395847883863,-0.5230206660257757,-2.006962001822878,1,left
6.6979999999999995,0.43150377726221456,0.8416379104361278,0.235414507289406,0.2670722077861151,-5.816614144406016,0.18330135569604544,0.5926568947911576,-0.528626734340377,-1.9853174468796932,1,left
6.7010000000000005,0.43256653980983784,0.8482306164251351,0.2362203545222111,0.28124665224076906,-5.727128545742454,0.19088417781255929,0.5767300417161304,-0.5340790441901616,-1.9630056413920665,1,left
6.702000000000001,0.43365701842812066,0.8546574251468626,0.23700992055305087,0.29543715276049143,-5.636641999709146,0.19879936694339181,0.560770830593284,-0.5393712325715133,-1.9400419377012408,1,left
6.706,0.4347747199758666,0.8609166375865364,0.23778308425550215,0.3096346001959392,-5.545208916820468,0.20703187004219412,0.5447909433516694,-0.5444970942944496,-1.9164421243819008,1,left
6.707000000000001,0.43591917514754797,0.8670065842575498,0.23853974652048135,0.3238298853954673,-5.452883638781823,0.2155665362689836,0.5288019319861897,-0.5494505900120333,-1.892222421225961,1,left
6.71,0.4370899395995228,0.8729256256547543,0.23927982831460984,0.3380139111753448,-5.359720406248808,0.22438814872596938,0.5128152117572893,-0.5542258541513833,-1.867399473465268,1,left
6.711,0.43828659505377104,0.8786721530737368,0.2400032687806079,0.35217760378561336,-5.265773327752846,0.23348145598326187,0.4968420543776691,-0.5588172027609957,-1.841990345165451,1,left
6.716,0.4395087503657303,0.8842445898211009,0.24071002338011724,0.36631192391234885,-5.171096349528138,0.24283120341895115,0.48089358114012193,-0.5632191412885943,-1.816012511721387,1,left
6.7170000000000005,0.4407560425417328,0.8896413928427187,0.2414000620804366,0.38040787725705205,-5.075743225972443,0.2524221643988639,0.46498075594058536,-0.5674263723032144,-1.7894838513829991,1,left
6.72,0.44202813769123,0.8948610547990419,0.24207336758855022,0.3944565247338385,-4.979767490471894,0.2622391713220879,0.4491143781505503,-0.5714338031746994,-1.7624226357384376,1,left
6.721,0.4433247318990911,0.8999021066188623,0.24272993363718112,0.40844899232501203,-4.883222426318018,0.2722671465590917,0.43330507529303275,-0.5752365537232443,-1.7348475190800534,1,left
6.727,0.44464555200462597,0.9047631205656346,0.2433697633272133,0.42237648063549604,-4.786161037443112,0.28249113330995773,0.4175632954764189,-0.5788299638510602,-1.7067775265769944,1,left
6.728,0.4459903562770092,0.9094427138527429,0.24399286752990637,0.4362302741864628,-4.688636018698406,0.29289632641089947,0.4018992995406264,-0.5822096011676624,-1.6782320411767233,1,left
6.73,0.4473589349808292,0.9139395528451595,0.24459926335229765,0.45000175048833707,-4.590699725397771,0.3034681031178372,0.38632315289253755,-0.5853712686122187,-1.6492307891920746,1,left
6.731,0.4487511108294948,0.9182523578843445,0.2451889726697573,0.4636823889331656,-4.492404141848239,0.31419205389637156,0.37084471711959804,-0.5883110120384013,-1.6197938247080121,1,left
6.731,0.4501667393274428,0.9223799087710368,0.2457620207301077,0.47726377954613264,-4.393800848587316,0.3250540132480149,0.35547364167183954,-0.5910251276592725,-1.5899415132630101,1,left
6.736000000000001,0.4516057090042528,0.9263210509393802,0.24631843483368857,0.49073763163576456,-4.2949409880458145,0.3360400906030191,0.34021935601458037,-0.5935101692117157,-1.5596945154376392,1,left
6.737,0.4530679415448291,0.930074702357881,0.24685824309302803,0.5040957823821063,-4.195875228353986,0.3471367013105761,0.32509106254259407,-0.5957629547366772,-1.5290737708027229,1,left
6.74,0.45455339182022514,0.933639861195109,0.2473814732744839,0.5173302053950357,-4.096653725145929,0.3583305977147349,0.3100977303457031,-0.5977805729381408,-1.498100482356108,1,left
6.74,0.45606204782467674,0.9370156142864217,0.24788815172259202,0.5304330192404151,-3.997326081907422,0.3696089000905812,0.29524808980434475,-0.5995603891204887,-1.4667961013969908,1,left
6.7410000000000005,0.4575939305262367,0.9402011464325126,0.24837830236562938,0.5433964958699609,-3.8979413106552476,0.38095912683006916,0.28055062797166946,-0.6011000507107132,-1.4351823127498837,1,left
6.746,0.45914909364034495,0.9431957505556793,0.24885194579758796,0.556213068856199,-3.7985477954264564,0.3923692230530207,0.266013584699118,-0.6023974923712709,-1.4032810202492862,1,left
6.746,0.46072762333754513,0.9459988387386256,0.24930909842775878,0.5688753413676544,-3.6991932603648805,0.4038275870332066,0.25164494946283733,-0.603450940708688,-1.3711143323951844,1,left
6.75,0.4623296378986542,0.9486099541715691,0.24974977168617837,0.5813760938805087,-3.5999247429485095,0.4153230942151042,0.2374524588487303,-0.6042589185823308,-1.3387045480886008,1,left
6.751,0.46395528733320424,0.9510287840324501,0.25017397127356794,0.5937082916566981,-3.5007885722104777,0.42684511881125464,0.22344359465439617,-0.6048202490170718,-1.3060741423556026,1,left
6.754,0.465604752980481,0.9532551733190695,0.25058169644976647,0.6058650920248092,-3.401830351668336,0.4383835530131124,0.2096255825667005,-0.6051340587228679,-1.2732457519674105,1,left
6.755,0.46727824711898097,0.9552891396366912,0.2509729393630914,0.6178398514996699,-3.3030949466765436,0.44992882384838867,0.19600539137421974,-0.6051997812235741,-1.240242160863548,1,left
6.761,0.4689760126247712,0.9571308889142314,0.2513476844235914,0.629626132776049,-3.20462647591748,0.4614719077179651,0.1825897326743324,-0.6050171595966003,-1.2070862852843454,1,left
6.7620000000000005,0.4706983227510896,0.9587808319721121,0.2517059077013248,0.6412177116313715,-3.106468306746798,0.4730043426455046,0.16938506103527615,-0.6045862488243124,-1.1738011585185375,1,left
6.765,0.472445481155767,0.9602396017918942,0.2520475762882876,0.6526085837718368,-3.008663054109572,0.4845182382729077,0.15639757457405834,-0.6039074177573668,-1.1404099151711964,1,left
6.765,0.47421782236282894,0.9615080712413326,0.252372647514778,0.6637929716557853,-2.9112525827444506,0.49600628363475363,0.14363321591169406,-0.6029813506894524,-1.1069357748567996,1,left
6.769,0.47601571286469835,0.9625873708943484,0.2526810678512175,0.6747653313276006,-2.814278012393944,0.5074617527448422,0.1310976734678516,-0.6018090485422045,-1.073402025221864,1,left
6.77,0.47783955300962044,0.963478906464519,0.2529727712218322,0.6855203592948561,-2.717779725739946,0.5188785080278934,0.11879638305760858,-0.6003918296583407,-1.0398320042012703,1,left
6.774,0.47968977968000387,0.9641843752535685,0.2532476763133633,0.6960529994808259,-2.6217973787847617,0.5302510016293952,0.10673452975366252,-0.598731330200361,-1.00624908141217,1,left
6.775,0.4815668696010101,0.9647057809153948,0.25350568237568266,0.7063584502838678,-2.5263699133991353,0.5415742746364937,0.09491704997799592,-0.5968295041514479,-0.9726766385891862,1,left
6.78,0.48347134297429606,0.9650454457760194,0.25374666309853133,0.7164321717745639,-2.4315355717601537,0.5528439542427103,0.08334863378766928,-0.5946886229144975,-0.9391380489645239,1,left
6.781000000000001,0.48540376703245286,0.9652060199682492,0.25397045842884686,0.726269893060867,-2.3373319124033793,0.5640562488891473,0.07203372732010156,-0.5923112745045168,-0.9056566554965669,1,left
6.784,0.4873647590612973,0.9651904867706974,0.2541768645769057,0.735867619850846,-2.243795827615155,0.5752079414146997,0.06097653536390017,-0.5897003623289271,-0.8722557478505634,1,left
6.785,0.4893549884324621,0.9650021637915295,0.254365622836393,0.7452216422419627,-2.1509635618927243,0.5862963802476397,0.05018102402201693,-0.5868591035496314,-0.8389585380351052,1,left
6.789,0.4913751772066404,0.9646446999706555,0.25453640813415185,0.7543285427651302,-2.0588707312016337,0.5973194686707777,0.03965092343473428,-0.5837910270200207,-0.8057881345982678,1,left
6.79,0.4934260988970348,0.964122068707005,0.2546888183721273,0.7631852047111183,-1.9675523427617834,0.6082756521922291,0.02938973053072613,-0.5804999707894251,-0.7727675152875063,1,left
6.794,0.49550857504164075,0.9634385576590829,0.25482236559366006,0.7717888207661691,-1.877042815095523,0.6191639040536379,0.019400711775188515,-0.5769900791668573,-0.7399194980777086,1,left
6.795,0.4976234693457396,0.962598755877565,0.2549364698118945,0.7801369019829786,-1.787375998073309,0.6299837089075186,0.009686905884797642,-0.5732657993352416,-0.7072667104721607,1,left
6.7989999999999995,0.4997716793138461,0.9616075389354685,0.25503045603280533,0.7882272871124799,-1.6985851926946678,0.6407350446951895,0.00025112648002448886,-0.569331877506682,-0.6748315569816155,1,left
6.8,0.5019541254498789,0.960470052669241,0.255103554666191,0.7960581523211402,-1.6107031703445218,0.6514183627565739,-0.00890403534865835,-0.5651933546055257,-0.6426361847618062,1,left
6.8,0.5041717382116968,0.9591916960486706,0.2551549052416602,0.803628021317747,-1.5237621912673678,0.6620345662029538,-0.017776208557228047,-0.5608555614494884,-0.6107024477635796,1,left
6.803,0.5064254429437969,0.9577781035726073,0.25518356318894314,0.8109357759129223,-1.4377940220043004,0.6725849865835606,-0.02636323969595027,-0.5563241133699538,-0.5790518704223475,1,left
6.803999999999999,0.5087161430290473,0.9562351275023366,0.25518850934858284,0.8179806670338571,-1.3528299515404916,0.6830713588766961,-0.03466319041040481,-0.5516049041960954,-0.5477056122875175,1,left
6.809,0.5110447015492199,0.9545688202310758,0.2551686617747229,0.8247623262160109,-1.2689008059134368,0.6934957948358841,-0.04267433484280908,-0.5467040995427731,-0.5166844346200393,1,left
6.81,0.513411921810174,0.9527854170933543,0.25512288929836113,0.8312807775927661,-1.1860369610350685,0.7038607547213652,-0.050395156926954905,-0.5416281293701567,-0.48600866931512177,1,left
6.81,0.515818527128939,0.9508913198782183,0.2550500262967009,0.8375364503925896,-1.1042683535033118,0.7141690174639309,-0.057824347595373526,-0.5363836797983608,-0.45569819013476814,1,left
6.815,0.5182651402765938,0.948893081225336,0.254948888172501,0.843530191899055,-1.0236244892795432,0.7244236493922606,-0.0649608019217396,-0.5309776841630243,-0.42577238616105983,1,left
6.816,0.5207522629384078,0.9467973899789751,0.2548182871472608,0.8492632807321443,-0.944134450287731,0.7346279718065674,-0.07180361622069108,-0.5254173132972684,-0.3962501373821069,1,left
6.819,0.5232802555573584,0.944611057455285,0.25465704803879624,0.8547374402550503,-0.865826899092101,0.7447855277655387,-0.07835208512640475,-0.5197099650249815,-0.36714979232363415,1,left
6.82,0.5258493180103226,0.9423410044352188,0.2544640236899228,0.8599548519633886,-0.7887300817154823,0.7549000483690629,-0.08460569867042668,-0.513863252849917,-0.33848914764027366,1,left
6.8229999999999995,0.5284594716616746,0.9399942485431777,0.25423810969793326,0.8649181688091686,-0.7128718284875429,0.7649754186672733,-0.09056413937841352,-0.5078849938246458,-0.31028542958179434,1,left
6.8229999999999995,0.5311105433555593,0.9375778915502806,0.253978258124718,0.8696305284645667,-0.6382795527176048,0.7750156432419668,-0.09622727940459565,-0.5017831955829848,-0.2825552772507093,1,left
6.827999999999999,0.5338021518321453,0.9350991060807766,0.2536834899316177,0.8740955665404947,-0.56498024697062,0.7850248114894617,-0.1015951777219263,-0.4955660425191214,-0.25531472756896356,1,left
6.829,0.5365336969215625,0.9325651212000613,0.2533529059484592,0.8783174297742284,-0.49300047672844394,0.7950070626338465,-0.10666807738503366,-0.4892418810962785,-0.2285792018727162,1,left
6.832999999999999,0.539304351715864,0.92998320641047,0.2529856962469644,0.8823007891996437,-0.4223663712221835,0.8049665504994709,-0.11144640288224446,-0.4828192042674073,-0.20236349405558993,1,left
6.834,0.5421130577632365,0.9273606536713725,0.25258114785267893,0.8860508533128937,-0.35310361122510603,0.8149074080714436,-0.11593075759210035,-0.4763066349900674,-0.17668176018216705,1,left
6.837999999999999,0.5449585231792129,0.9247047571956166,0.25213865080277814,0.8895733812456654,-0.2852374135993865,0.8248337118728202,-0.12012192135894102,-0.4697129088173428,-0.15154750949495907,1,left
6.8389999999999995,0.5478392234382574,0.9220227909538389,0.2516577026377339,0.8928746959574723,-0.21879251239383632,0.8347494461871018,-0.12402084820128208,-0.4630468555463635,-0.12697359673956976,1,left
6.843,0.5507534045163143,0.9193219840239698,0.2511379114878235,0.8959616974577647,-0.15379313629369395,0.844658467154611,-0.12762866416587193,-0.4563173799057425,-0.1029722157343045,1,left
6.843999999999999,0.5536990880201013,0.9166094941195697,0.25057899795889116,0.8988418760679958,-0.09026298222756905,0.8545644667712678,-0.13094666533946972,-0.4495334412630033,-0.07955489411204895,1,left
6.847,0.5566740779626907,0.913892379779246,0.24998079602408635,0.9015233257331361,-0.02822518494071423,0.8644709368182614,-0.1339763160295471,-0.4427040323328699,-0.0567324891638495,1,left
6.848,0.559675968905472,0.9111775717807837,0.2493432530955335,0.9040147573915256,0.0322977176520507,0.8743811327510895,-0.13671924712428146,-0.4358381568671048,-0.03451518471527042,1,left
6.852,0.5627021552534323,0.9084718443634539,0.2486664293968486,0.9063255124113523,0.09128382351621721,0.8842980375764321,-0.13917725464137498,-0.4289448063064262,-0.012912488968279593,1,left
6.853,0.5657498415414651,0.9057817868204873,0.24795049669928204,0.9084655761014798,0.14871191012843898,0.8942243257453232,-0.1413522984744065,-0.42203293537490527,0.008066766756878055,1,left
6.858,0.568816053578528,0.9031137759812108,0.2471957364347286,0.910445591303802,0.2045614828621741,0.9041623270910977,-0.14324650134460018,-0.4151114365971389,0.028414428443623265,1,left
6.859,0.5718976503310648,0.9004739500514067,0.24640253716756935,0.9122768720737822,0.2588128282975243,0.914113990840608,-0.14486214796507588,-0.40818911371841404,0.04812301902684103,1,left
6.862,0.5749913364361209,0.8978681842258197,0.2455713913969003,0.913971417455351,0.3114470726202027,0.9240808497272285,-0.1462016844238344,-0.4012746540080271,0.06718573732678537,1,left
6.8629999999999995,0.578093675243503,0.895302068428871,0.24470289166760323,0.9155419253558725,0.3624462452700287,0.9340639842342048,-0.1472677177909241,-0.39437659942589365,0.0855964563275276,1,left
6.867000000000001,0.5812011022979885,0.8927808874788818,0.24379772598605523,0.9170018065264659,0.41179334799475836,0.9440639869969375,-0.14806301595443513,-0.38750331663258114,0.1033497208565509,1,left
6.867999999999999,0.5843099391880759,0.8903096039089681,0.2428566725559731,0.9183651986525802,0.45947242946041683,0.9540809273928347,-0.14859050767974943,-0.38066296588144277,0.12044074471107429,1,left
6.87,0.5874164077072724,0.8878928436146666,0.24188059386394414,0.919646980559358,0.5054686655646027,0.9641143163474142,-0.14885328283855737,-0.3738634691241917,0.13686540722898857,1,left
6.872999999999999,0.5905166442953357,0.8855348844367233,0.24087043014950224,0.9208627865360182,0.5497684455944908,0.9741630713853834,-0.1488545926685401,-0.3671124781880331,0.15262024921790693,1,left
6.874,0.5936067147446475,0.883239647735731,0.23982719229803323,0.9220290207832009,0.5923594643664711,0.9842254819554694,-0.14859784987671623,-0.36041734417517945,0.16770246810810302,1,left
6.877000000000001,0.5966826291675459,0.8810106929773764,0.23875195420311907,0.9231628718887482,0.6332308202207774,0.9942991751261591,-0.14808662844582246,-0.35378508894307736,0.18210991223902553,1,left
6.877999999999999,0.5997403572260939,0.8788512153171053,0.23764584465180702,0.92428232674596,0.6723731174458242,1.0043810820912193,-0.1473246630871824,-0.34722237899710534,0.19584107426964786,1,left
6.879,0.602775843627682,0.8767640461456838,0.23651003878492985,0.9254061824440012,0.7097785693732959,1.0144674065389305,-0.1463158483299073,-0.3407355018350477,0.2088950837468094,1,left
6.882000000000001,0.6057850238840159,0.8747516565260101,0.2353457491847179,0.9265540541688073,0.7454410970863282,1.0245535962806658,-0.14506423724496859,-0.3343303447243064,0.22127169887293419,1,left
6.882999999999999,0.6087638403120288,0.8728161634098355,0.2341542166554329,0.9277463776440309,0.7793564199719243,1.034634319192798,-0.14357403980196118,-0.32801237589301047,0.2329712975125708,1,left
6.886,0.6117082582209835,0.8709593384776821,0.23293670078506726,0.9290044055258154,0.8115221366725338,1.0447034439109129,-0.14184962085566857,-0.32178662811640163,0.24399486747525384,1,left
6.8870000000000005,0.6146142821823345,0.8691826194096446,0.2316944703972517,0.9303501976564917,0.8419377962804803,1.0547540253736247,-0.13989549775884308,-0.31565768468010746,0.2543439961102424,1,left
6.891,0.6174779722222978,0.8674871233715847,0.23042879402175617,0.9318066051806659,0.870604959872664,1.0647782952449403,-0.1377163375969298,-0.30962966770216216,0.2640208592467474,1,left
6.891,0.6202954597177657,0.8658736624856613,0.2291409305322088,0.9333972485273627,0.8975272524779404,1.0747676572440859,-0.13531695403979024,-0.303706228795901,0.27302820951131945,1,left
6.896,0.623062962720783,0.8643427610424804,0.22783212011851603,0.9351464892621373,0.9227104055645554,1.0847126874116484,-0.13270230380482176,-0.29789054205613014,0.2813693640521316,1,left
6.898,0.6257768003911619,0.8628946742019593,0.22650357577313351,0.9370793958133915,0.9461622901299978,1.0946031393408113,-0.12987748272522331,-0.2921852993512625,0.2890481916979621,1,left
6.902,0.6284334061868135,0.8615294079195985,0.22515647547059534,0.9392217030775163,0.9678929404706205,1.104427954402362,-0.1268477214165253,-0.28659270790441,0.2960690995777605,1,left
6.903,0.631029339452233,0.860246739823364,0.22379195520764278,0.9415997659079395,0.9879145687033959,1.1141752769920181,-0.12361838053388333,-0.2811144901467321,0.3024370192247666,1,left
6.906000000000001,0.6335612950610873,0.859046240752431,0.22241110304680492,0.9442405064936872,1.0062415701071923,1.1238324748284607,-0.12019494561203209,-0.2757518858266546,0.30815739218725163,1,left
6.907,0.6360261108124386,0.8579272966518798,0.22101495426920814,0.9471713556336699,1.0228905193460294,1.133386164330274,-0.11658302147920731,-0.2705056563588963,0.313236155166061,1,left
6.9110000000000005,0.6384207723528632,0.8568891304996885,0.21960448769732888,0.9504201879135814,1.0378801576318575,1.1428222410997648,-0.11278832623577051,-0.26537609139756985,0.317679724697264,1,left
