time,gFx,gFy,gFz,ax,ay,az,wx,wy,wz,subject_number,foot
5.502999999999999,0.3241361198735234,0.9667289089378065,0.013530717087713633,3.0896675771080457,-0.15786398028177448,1.1626121634765503,0.5434846136046833,0.3883576691352017,-0.8392458534673228,3,left
5.504,0.3169462838770252,0.9664678210015618,0.01074615071054021,3.0635200963587996,-0.14738977952944007,1.1414903525893,0.5451268461797545,0.39306735144585303,-0.8441091379965212,3,left
5.507999999999999,0.3097815935794221,0.9661858810167425,0.00799430241547535,3.036611926370391,-0.13675353539095564,1.119889478499759,0.5465944990402648,0.39766787078452004,-0.8486195937721343,3,left
5.5089999999999995,0.3026457397698835,0.9658848752609762,0.005276085720808863,3.008944367568876,-0.1259782381995794,1.0978304049095258,0.5478889937251119,0.4021581496891035,-0.8527767352627127,3,left
5.51,0.2955424339935719,0.9655665970391898,0.0025924027890098797,2.980518691286982,-0.1150867810336812,1.0753341387665194,0.5490117633686933,0.40653701803670333,-0.8565802780668215,3,left
5.513999999999999,0.2884754068350058,0.9652328403238495,-5.585761057819037e-05,2.951336176703759,-0.10410191045472898,1.0524217614399847,0.5499642497334978,0.41080322248286677,-0.8600301384655901,3,left
5.513999999999999,0.2814484061100522,0.9648853935474516,-0.002667822215195875,2.9213981492712287,-0.09304617806816248,1.0291143594984662,0.5507479004485577,0.4149554356784139,-0.863126432740594,3,left
5.518,0.2744651949430702,0.9645260335951584,-0.005242635460609209,2.890706019700358,-0.08194189340647214,1.0054329574872947,0.55136416645699,0.4189922652764169,-0.8658694762679933,3,left
5.519,0.26752954971391335,0.9641565200386055,-0.0077794617440766255,2.8592613227880137,-0.07081107850089435,0.9813984544856545,0.5518144996753667,0.4229122627415867,-0.8682597823988385,3,left
5.523,0.2606452578676688,0.963778589649007,-0.010277487740212648,2.8270657557450884,-0.05967542426917796,0.9570315651146587,0.5521003508671668,0.42671393197399166,-0.8702980611344413,3,left
5.525,0.2538161155870329,0.9633939512190736,-0.012735924740605739,2.794121215895326,-0.04855624871409767,0.9323527650515018,0.5522231677320861,0.43039573775870127,-0.8719852176046887,3,left
5.529,0.2470459253323596,0.9630042807083793,-0.01515401097685615,2.7604298376545278,-0.03747445690078543,0.9073822409806918,0.5521843932124996,0.433956114052614,-0.8733223503561713,3,left
5.529,0.2403384932576001,0.9626112167101999,-0.017531013875564067,2.7259940286976456,-0.026450502680935666,0.8821398449124027,0.551985464017901,0.437393472119386,-0.8743107494559814,3,left
5.5329999999999995,0.2336976265106935,0.9622163562236508,-0.01986623218424504,2.6908165052191304,-0.015504352131987175,0.8566450527971006,0.5516278093676765,0.44070620852303555,-0.8749518944160308,3,left
5.534,0.2271271304239975,0.9618212507060052,-0.022158997901705873,2.6549003261897495,-0.0046554486794905415,0.830916927364746,0.5511128499521025,0.4438927129904463,-0.8752474519417316,3,left
5.537999999999999,0.22063080559550313,0.9614274023771431,-0.024408677946686618,2.618248926510963,0.006077320128964701,0.8049740851161056,0.5504419971110015,0.44695137615264113,-0.8751992735078834,3,left
5.537999999999999,0.21421244485615668,0.9610362607497073,-0.026614675504805865,2.580866148965799,0.016675654229666735,0.7788346673929707,0.5496166522290293,0.4498805971743406,-0.8748093927636115,3,left
5.542000000000001,0.20787583011240987,0.9606492193633056,-0.02877643100591576,2.5427562748630668,0.02712187105966726,0.7525163154534146,0.5486382063461186,0.45267879128095445,-0.8740800227672103,3,left
5.542999999999999,0.20162472904632847,0.9602676127093135,-0.03089342270098712,2.5039240532696208,0.037398934015429375,0.7260361494776006,0.5475080399811539,0.4553443971917917,-0.8730135530507578,3,left
5.5489999999999995,0.1954628916496664,0.9598927133446906,-0.03296516682695103,2.4643747287232967,0.0474904793836457,0.6994107514290863,0.5462275231665118,0.4578758844678998,-0.8716125465133829,3,left
5.5489999999999995,0.18939404656460307,0.9595257292060123,-0.03499121736703458,2.4241140673170496,0.0573808417741992,0.6726561516960552,0.5447980156906554,0.46027176078256704,-0.869879736141101,3,left
5.553999999999999,0.1834218972031083,0.9591678011451947,-0.03697116543263668,2.38314838104275,0.06705507808475476,0.6457878194364439,0.5432208675455428,0.4625305791221447,-0.8678180215501545,3,left
5.556,0.17755011761992937,0.9588200007156191,-0.03890463830966317,2.3414845502810397,0.07649899002593809,0.6188206565505067,0.5414974195751706,0.46465094492445536,-0.8654304653498418,3,left
5.557,0.17178234812101068,0.9584833282419054,-0.04079129822432269,2.2991300443215943,0.08569914523548212,0.5917689952039968,0.5396290043211525,0.46663152316166956,-0.8627202893198628,3,left
5.557,0.16612219059847083,0.9581587112070131,-0.042630840888917054,2.256092939796132,0.0946428970091019,0.5646465988248086,0.5376169470608005,0.4684710453741347,-0.8596908703962649,3,left
5.561,0.16057320359338348,0.9578470029863996,-0.04442299388849351,2.2123819369044915,0.10331840267519883,0.5374666664956415,0.5354625670327652,0.47016831666124576,-0.8563457364591375,3,left
5.562,0.15513889709775153,0.9575489819523703,-0.04616751496611105,2.1680063733121275,0.11171464063979648,0.5102418406650052,0.5331671788448675,0.47172222263504454,-0.852688561914276,3,left
5.567,0.14982272711778657,0.9572653509631559,-0.047864190257703706,2.1229762355954,0.11982142612737583,0.48298421809867725,0.5307320940583463,0.4731317363418291,-0.8487231630601221,3,left
5.568,0.14462809003087182,0.9569967372413148,-0.0495128325163186,2.0773021681091177,0.1276294256425082,0.45570536399355965,0.5281586229405338,0.47439592514919543,-0.8444534932393793,3,left
5.569,0.13955831677332342,0.956743692637454,-0.05111327935198458,2.03099547914887,0.1351301701763845,0.42841632917575256,0.5254480763685708,0.4755139575582672,-0.8398836378188356,3,left
5.572,0.13461666689345614,0.9565066942695969,-0.05266539150272313,1.9840681442788135,0.142316067181509,0.4011276703045649,0.5226017678501669,0.4764851098333919,-0.8350178091210696,3,left
5.572,0.12980632250331287,0.9562861455236514,-0.054169051147394,1.9365328066937326,0.14918041133696983,0.37384947300412114,0.5196210156180191,0.47730877230391194,-0.8298603414758713,3,left
5.5760000000000005,0.12513038217092318,0.956082377393604,-0.05562416027001776,1.8884027744823635,0.15571739412581764,0.3465913778441917,0.5165071447631041,0.47798445522945254,-0.824415686513319,3,left
5.577000000000001,0.12059185480650525,0.9558956501325347,-0.05703063908348596,1.8396920147400138,0.16192211222236938,0.3193626090374843,0.5132614893878725,0.47851179418680795,-0.8186884087385706,3,left
5.577999999999999,0.11619365359752486,0.9557261551817684,-0.05838842451605351,1.7904151448907855,0.1677905745722769,0.29217200544869193,0.5098853947689825,0.47889055497334077,-0.8126831813825669,3,left
5.582000000000001,0.11193859003767631,0.9555740173465629,-0.05969746875710407,1.7405874223232676,0.1733197078419588,0.265028053021112,0.5063802195206331,0.4791206380288339,-0.8064047825130137,3,left
5.582999999999999,0.10782936808666331,0.9554392971867979,-0.0609577378498544,1.6902247338559235,0.1785073597989859,0.2379389174547653,0.5027473377491741,0.4792020823773099,-0.7998580913892033,3,left
5.586,0.10386857850062745,0.9553219935852433,-0.06216921030964927,1.6393435861327497,0.18335230029810254,0.21091247624202186,0.4989881411892986,0.47913506908990566,-0.7930480850434305,3,left
5.587999999999999,0.10005869338022981,0.9552220464480715,-0.0633318757426423,1.5879610973029334,0.18785421975189465,0.18395634965641178,0.49510404131174923,0.47891992426946317,-0.7859798350709818,3,left
5.5920000000000005,0.09640206098347742,0.9551393394883166,-0.0644457334461207,1.5360949899226777,0.19201372507819395,0.15707793056242622,0.4910964713921083,0.47855712155707075,-0.7786585046098976,3,left
5.593,0.09290090084215424,0.9550737030438138,-0.06551079098752166,1.4837635849330557,0.19583233313813583,0.13028441296868465,0.48696688852987213,0.47804728416036346,-0.7710893454909568,3,left
5.597,0.08955729921003097,0.9550249168851336,-0.06652706277680108,1.4309857965663315,0.1993124616778042,0.10358281924704639,0.4827167756066569,0.477391186402965,-0.7632776955375886,3,left
5.598,0.0863732048632716,0.9549927129750736,-0.06749456865719593,1.3777811280317829,0.20245741778541665,0.07698002594046771,0.47834764317202605,0.4765897547940309,-0.7552289759946929,3,left
5.601,0.08335042526982099,0.9549767781484593,-0.06841333253912484,1.3241696678307378,0.20527138387502475,0.05048278808264865,0.4738610312450789,0.4756440686164288,-0.7469486890646343,3,left
5.602,0.08049062314293629,0.9549767566880587,-0.06928338109653873,1.2701720865492478,0.20775940120673367,0.02409776195277827,0.46925851101959426,0.47455536003167453,-0.7384424155279823,3,left
5.606,0.07779531339224753,0.9549922527782234,-0.07010474254255515,1.2158096339756004,0.20992735095248527,-0.0021684738110302995,0.4645416864601817,0.47332501369932334,-0.7297158124258859,3,left
5.606,0.07526586048240297,0.9550228328230912,-0.07087744550298142,1.1611041363886982,0.21178193281549879,-0.028309398815719772,0.4597121957765543,0.4719545659081016,-0.7207746107803095,3,left
5.611000000000001,0.07290347620435977,0.9550680276225338,-0.07160151800757512,1.1060779938622387,0.21333064121052983,-0.054318533310466856,0.45477171276270506,0.47044570321565576,-0.7116246133277043,3,left
5.612,0.07070921785930079,0.9551273344067538,-0.07227698661694551,1.0507541774285651,0.21458173901118952,-0.08018942245250024,0.44972194798743864,0.46880026059338636,-0.7022716922410597,3,left
5.6160000000000005,0.06868398685090726,0.9552002187385354,-0.07290387570028344,0.9951562259450861,0.2155442288696675,-0.10591562251664056,0.4445646498223914,0.46702021907243374,-0.6927217868146603,3,left
5.617000000000001,0.06682852767804537,0.9552861163001096,-0.07348220687873415,0.939308242505237,0.21622782211332642,-0.1314906891232656,0.43930160529334783,0.46510770288648545,-0.6829809010852775,3,left
5.621,0.0651434273172064,0.955384434588924,-0.07401199865078,0.8832348902351035,0.2166429052217804,-0.15690816755900708,0.4339346407403518,0.46306497610668307,-0.6730551013629376,3,left
5.622000000000001,0.06362911498206619,0.9554945545522487,-0.0744932662160714,0.8269613873160417,0.216800503887244,-0.1821615852640695,0.42846562227180096,0.460894438763518,-0.6629505136438469,3,left
5.626,0.06228586224479787,0.9556158321938324,-0.07492602151001022,0.7705135010729106,0.21671224466013778,-0.20724444655962793,0.42289645599740805,0.4585986224502282,-0.6526733208775036,3,left
5.627000000000001,0.061113783500271295,0.9557476001865699,-0.075310273453534,0.7139175409668869,0.2163903141811661,-0.23215022968830784,0.4172290880246168,0.456180185401832,-0.6422297600594937,3,left
5.631,0.06011283675184031,0.9558891695231906,-0.07564602841433966,0.6572003503312608,0.2158474160003457,-0.2568723862402798,0.4114655042027638,0.4536419070435701,-0.6316261191209593,3,left
5.632000000000001,0.059282824696711596,0.9560398312329875,-0.07593329087092397,0.6003892966881091,0.21509672498275698,-0.28140434303701106,0.4056077295989929,0.45098668200216496,-0.6208687335852271,3,left
5.635,0.05862339608893616,0.9561988581874533,-0.07617206427057067,0.5435122604833166,0.21415183930012077,-0.3057395065442078,0.3996578276985283,0.4482175135874237,-0.6099639829735588,3,left
5.636,0.05813404735883366,0.9563655070115464,-0.07636235207535438,0.48659762207707374,0.2130267300066699,-0.3298712698849537,0.39361789936605157,0.4453375068237007,-0.5989182870012673,3,left
5.636,0.0578141244687884,0.9565390201110165,-0.07650415899385335,0.42967424682670635,0.21173568819718763,-0.35379302252350536,0.3874900816846051,0.4423498612406014,-0.5877381017125421,3,left
5.64,0.05766282498378916,0.9567186278212069,-0.07659749239863771,0.37277146809850586,0.21029326974452858,-0.3774981626896371,0.38127654683259316,0.43925786370431674,-0.5764299157616466,3,left
5.641,0.057679200330165076,0.9569035506792183,-0.07664236393025482,0.3159190680451225,0.2087142376134213,-0.40098011261284666,0.3749795011147822,0.4360648814983274,-0.5650002469879996,3,left
5.645,0.05786215821273904,0.957093001818744,-0.07663879128755804,0.259147256043217,0.20701350183062384,-0.42423233655325066,0.3686011841829972,0.43277435573170137,-0.5534556393247339,3,left
5.646,0.05821046516316491,0.9572861894855157,-0.07658680020212888,0.20248664497692628,0.20520605760981556,-0.44724836120598893,0.36214386843755325,0.42938979508057684,-0.5418026600202056,3,left
5.647,0.05872274919797443,0.9574823196710179,-0.07648642659144547,0.14596822607627616,0.20330692288295807,-0.4700217973184208,0.35560985859133687,0.4259147698536664,-0.5300478971396358,3,left
5.65,0.05939750256750203,0.9576805988614421,-0.07633771887996946,0.08962334331070476,0.20133107690825544,-0.4925463609493491,0.34900149137821923,0.42235290637233625,-0.5181979573137332,3,left
5.651,0.06023308457416527,0.9578802368973736,-0.076140740468216,0.03348366804738391,0.19929340120579123,-0.5148158932082156,0.3423211353872558,0.41870788165554557,-0.5062594637008367,3,left
5.655,0.06122772443516744,0.9580804499386539,-0.07589557232009567,-0.022418825839000758,0.19720862331791375,-0.5368243780484125,0.3355711910039075,0.41498341839967107,-0.49423905412882435,3,left
5.656000000000001,0.06237952416457572,0.9582804635283727,-0.07560231563323781,-0.07805188650864667,0.19509126347247438,-0.558565958097526,0.32875409043930315,0.4111832802429924,-0.4821433793827593,3,left
5.6610000000000005,0.06368646145154135,0.958479515749333,-0.07526109455671824,-0.13338300851241386,0.19295558414309716,-0.5800349485884732,0.3218722978283594,0.40731126730437467,-0.4699791016039933,3,left
5.6610000000000005,0.06514639251276477,0.9586768604658195,-0.07487205892283229,-0.18837945712151064,0.19081554250052216,-0.601225849454745,0.3149283093773707,0.4033712119854579,-0.4577528927662088,3,left
5.665,0.0667570548984465,0.9588717706431658,-0.07443538696135082,-0.24300829279083425,0.1886847457489702,-0.6221333556522003,0.3079246535414919,0.3993669750254433,-0.4454714331936667,3,left
5.666,0.06851607023356884,0.9590635417368633,-0.0739512879654431,-0.2972363959148477,0.186576409341424,-0.6427523657690735,0.3008638912123492,0.3953024417973634,-0.4331414100867313,3,left
5.67,0.07042094688124152,0.9592514951409875,-0.07342000487996524,-0.35103049203391185,0.18450331806770745,-0.6630779889850603,0.2937486158958367,0.39118151883452346,-0.42076951601956064,3,left
5.67,0.07246908252150222,0.9594349816815944,-0.07284181678676058,-0.4043571776479357,0.18247779000927003,-0.6831055504395336,0.2865814538599841,0.3870081305756208,-0.40836244737469873,3,left
5.6739999999999995,0.07465776664647263,0.9596133851349239,-0.07221704126584988,-0.4571829467930555,0.18051164335464706,-0.7028305950681095,0.279365064232618,0.3827862163168735,-0.3959269026791613,3,left
5.675,0.07698418298044692,0.9597861257448007,-0.07154603661063856,-0.5094742185358077,0.1786161660696673,-0.7222488899659458,0.27210213902838115,0.37851972735932915,-0.3834695808064883,3,left
5.68,0.07944541184041005,0.9599526637094208,-0.07082920386703165,-0.5611973655379162,0.17680208841661416,-0.7413564253352949,0.26479540308452765,0.37421262433937275,-0.3709971790091369,3,left
5.681,0.08203843245737935,0.9601125026040441,-0.0700669886547225,-0.6123187438433768,0.17507955831671695,-0.7601494140739696,0.25744761388476745,0.3698688747303138,-0.35851639074550384,3,left
5.686,0.08476012528150438,0.9602651927028998,-0.0692598827219298,-0.6628047240379837,0.17345811955054957,-0.778624290060495,0.2500615612503028,0.36549245050280504,-0.346033903265805,3,left
5.687,0.08760727429483474,0.9604103341623185,-0.0684084251884921,-0.7126217239298145,0.17194669279114763,-0.7967777051908289,0.2426400668770717,0.3610873259317272,-0.3335563949209986,3,left
5.689,0.09057656935538418,0.9605475800297669,-0.06751320344621062,-0.7617362428974572,0.17055355946491607,-0.8146065252206304,0.23518598369809587,0.35665747553707156,-0.3210905321589101,3,left
5.69,0.09366460859381397,0.9606766390510225,-0.06657485370449956,-0.8101148980509425,0.1692863484356882,-0.8321078244661442,0.227702195049722,0.3522068721462546,-0.3086429661717156,3,left
5.694,0.09686790087897305,0.9607972782590516,-0.06559406118857647,-0.8577244623484163,0.16815202550761257,-0.8492788794158423,0.22019161362044182,0.34773948506522057,-0.2962203291589534,3,left
5.695,0.10018286836109196,0.9609093253406303,-0.06457156001265563,-0.9045319048095768,0.1671568857428816,-0.866117161304035,0.21265718016088375,0.3432592783456129,-0.2838292301702667,3,left
5.699,0.10360584909353976,0.9610126707876991,-0.06350813275885916,-0.9505044329647826,0.16630654859067673,-0.8826203276967216,0.20510186193348345,0.33877020913523914,-0.27147625049213353,3,left
5.7,0.1071330997283389,0.9611072698482952,-0.06240460979515466,-0.9956095376765289,0.16560595582408524,-0.8987862131390033,0.1975286508802636,0.3342762260990032,-0.2591679385429112,3,left
5.704,0.11076079827871277,0.9611931442959809,-0.061261868367801835,-1.0398150404676887,0.16505937228214185,-0.9146128189124256,0.18994056149687946,0.3297812678995622,-0.2469108042587016,3,left
5.705,0.11448504694348142,0.9612703840363205,-0.0600808315066315,-1.0830891434885137,0.16467038941456288,-0.9300983019496534,0.18234062844999738,0.3252892617375325,-0.234711313043101,3,left
5.705,0.11830187499163379,0.9613391485648525,-0.05886246678241972,-1.1254004822519021,0.16444193162716997,-0.945240962952916,0.17473190406317013,0.32080412197012237,-0.22257587951682833,3,left
5.707999999999999,0.12220724170922127,0.9613996682860104,-0.05760778495803466,-1.1667181812638563,0.16437626542644035,-0.9600392337616849,0.16711745584530205,0.31632974883766085,-0.21051086139381908,3,left
5.709,0.1261970394135312,0.9614522456987888,-0.05631783858251847,-1.2070119126733745,0.16447501136207296,-0.9744916640140615,0.15950036418679087,0.3118700273169051,-0.19852255372009142,3,left
5.712999999999999,0.13026709654106117,0.961497256452643,-0.054993720582087915,-1.2462519579448776,0.16473915872582964,-0.9885969071674797,0.15188372026026054,0.3074288261009629,-0.18661718354907225,3,left
5.715,0.1344131808165097,0.9615351502756687,-0.0536365628950612,-1.2844092719615008,0.16516908275993214,-1.0023537060538423,0.14427062411381184,0.30300999669510337,-0.1748009050368257,3,left
5.716,0.13863100250909602,0.9615664517765614,-0.052247535182203084,-1.3214555478991823,0.16576456375896453,-1.0157608783421372,0.13666418293491514,0.29861737261565274,-0.16307979492275865,3,left
5.72,0.1429162177779594,0.9615917611225686,-0.05082784363040754,-1.3573632806165448,0.16652480724425925,-1.0288173023910931,0.1290675094630719,0.2942547686792245,-0.15145984836161577,3,left
5.721,0.147264432099565,0.9616117545981514,-0.049378729860934854,-1.3921058268943698,0.16744846459566562,-1.0415219038629242,0.12148372052938079,0.289925980369599,-0.13994697507283185,3,left
5.724,0.1516712037595678,0.9616271850526179,-0.047901469949549386,-1.4256574619207287,0.1685336538958752,-1.0538736432692877,0.11391593570116397,0.28563478326964126,-0.12854699577358292,3,left
5.724,0.15613204738257688,0.9616388822469591,-0.046397373560079544,-1.4579934320064811,0.16977798094839605,-1.0658715045090636,0.10636727600983728,0.2813849325457326,-0.11726563886216755,3,left
5.728,0.1606424374667509,0.961647753108329,-0.044867783185731806,-1.489090003630897,0.1711785604718252,-1.0775144844344495,0.09884086274024441,0.27718016247228877,-0.10610853731865792,3,left
5.729,0.16519781188622581,0.9616547818959339,-0.043314073485986135,-1.5189245089137262,0.17273203747353183,-1.0888015834808533,0.091339816259722,0.2730241859840459,-0.09508122579008349,3,left
5.733,0.1697935753236871,0.9616610302769234,-0.041737650701338426,-1.5474753876065617,0.17443460880631942,-1.0997317973950456,0.08386725486521665,0.26892069424391224,-0.08418913782775125,3,left
5.734,0.17442510259853053,0.9616676373058279,-0.040139952124383545,-1.5747222256927793,0.17628204491208296,-1.1103041100950206,0.07642629362683961,0.264873356214316,-0.07343760324466315,3,left
5.7379999999999995,0.1790877418626929,0.9616758192954404,-0.03852244560552429,-1.6006457906817142,0.17826971175691636,-1.120517487693985,0.06902004320631708,0.26088581822011714,-0.06283184556136365,3,left
5.739,0.18377681764513967,0.9616868695613177,-0.036886629073936784,-1.625228063679048,0.18039259296255128,-1.1303708737198723,0.06165160862887614,0.2569617034913034,-0.05237697950893902,3,left
5.742999999999999,0.18848763373573496,0.9617021580182284,-0.03523403005504838,-1.6484522683116392,0.18264531213942517,-1.139863185560755,0.05432408798719752,0.25310461167385107,-0.04207800855829343,3,left
5.744,0.19321547590946325,0.9617231306059645,-0.0335662051617373,-1.6703028965812297,0.18502215542707745,-1.148993312165489,0.04704057105616505,0.24931811829730363,-0.03193982244524504,3,left
5.747999999999999,0.1979556145026184,0.9617513085228483,-0.03188473952878394,-1.690765731717608,0.18751709424796056,-1.1577601130278963,0.03980413779725151,0.24560577418780244,-0.021967194661419033,3,left
5.747999999999999,0.20270330686220722,0.9617882872462322,-0.030191246152492763,-1.7098278680979135,0.19012380828112566,-1.1661624184817514,0.03261785673149718,0.24197110481549755,-0.012164779881361859,3,left
5.752999999999999,0.2074537996972216,0.9618357353201463,-0.028487365094082916,-1.7274777282948248,0.1928357086625975,-1.174199031332798,0.025484783160164236,0.23841760956546815,-0.002537111296762688,3,left
5.754,0.21220233136578676,0.9618953928927527,-0.026774762509181885,-1.743705077312383,0.19564596141959237,-1.1818687298529764,0.018407957212285258,0.23494876092149575,0.0069114021708566314,3,left
5.757999999999999,0.21694413413607538,0.9619690699921204,-0.025055129476682945,-1.758501034064192,0.19854751114605326,-1.189170272161001,0.011390401698468175,0.23156800355225662,0.016176478807133035,3,left
5.757999999999999,0.22167443646195595,0.9620586445374005,-0.023330180615867516,-1.771858080144672,0.201533104927278,-1.1961024020123663,0.004435119750472707,0.22827875328973216,0.02525396721918339,3,left
5.763,0.22638846531692253,0.9621660600906203,-0.02160165249715065,-1.7837700659399647,0.20459531652169857,-1.2026638560208174,-0.0024549077737649715,0.2250843959898797,0.034139849654389126,3,left
5.763,0.23108144863158542,0.9622933233596399,-0.01987130186608417,-1.7942322141209825,0.2077265708081312,-1.2088533723322528,-0.009276725139812435,0.2219882862658593,0.042830245550251556,3,left
5.767,0.23574861788104584,0.9624425014661775,-0.018140903711202527,-1.8032411205569554,0.21091916850705794,-1.214669700770975,-0.016027404861100356,0.2189937460843745,0.051321415341386394,3,left
5.769,0.24038521086932912,0.9626157189957086,-0.016412249213324306,-1.8107947526836872,0.21416531118472065,-1.2201116144771331,-0.022704051117747835,0.21610406321595768,0.05960976454917592,3,left
5.772,0.2449864747577298,0.96281515484816,-0.014687143615896736,-1.8168924453565694,0.21745712654900567,-1.2251779230531359,-0.029303803479080386,0.21332248953380545,0.06769184816735638,3,left
5.772,0.24954766938050368,0.963043038908428,-0.012967404051562497,-1.8215348942142255,0.2207866940462743,-1.2298674872357418,-0.035823840887041526,0.21065223917352088,0.07556437529784917,3,left
5.773,0.254064070885478,0.9633016485538592,-0.01125485735005171,-1.824724146574487,0.22414607076844695,-1.2341792351094585,-0.04226138576420782,0.20809648659785165,0.0832242138854466,3,left
5.777,0.2585309757320073,0.9635933050149273,-0.009551337841384852,-1.8264635898802173,0.22752731767978104,-1.2381121798757988,-0.04861370805807486,0.205658364628283,0.09066839534097369,3,left
5.778,0.2629437050736512,0.9639203696086835,-0.007858685161179043,-1.8267579377083298,0.23092252617289005,-1.241665439191866,-0.05487812908487439,0.20334096248820419,0.09789411890034319,3,left
5.782,0.26729760954349896,0.9642852398705855,-0.0061787420621191875,-1.8256132133947816,0.23432384494706962,-1.2448382560480828,-0.06105202512922422,0.20114732387126627,0.1048987556714251,3,left
5.7829999999999995,0.2715880744468191,0.9646903456137336,-0.004513352234896032,-1.82303673154228,0.23772350711922174,-1.2476300209409386,-0.0671328308074895,0.19908044503142572,0.1116798523784307,3,left
5.7829999999999995,0.2758105253525605,0.9651381449431725,-0.0028643581415582747,-1.8190370780658682,0.24111385732859983,-1.250040294712402,-0.07311804221284567,0.19714327288802333,0.11823513482456262,3,left
5.787999999999999,0.27996043405909876,0.965631120251066,-0.0012335988647741434,-1.8136240896455316,0.24448737851377694,-1.2520688312137127,-0.07900521985977352,0.19533870313960316,0.12456251109304846,3,left
5.789,0.2840333248859964,0.9661717742209042,0.00037709202199255474,-1.8068088332327488,0.24783671812307312,-1.2537155991630105,-0.08479199144544944,0.19366957838054008,0.1306600745060332,3,left
5.792000000000001,0.2880247812171582,0.9667626258730878,0.001965888558398187,-1.7986035858612486,0.25115471366875985,-1.2549808029483054,-0.09047605444521965,0.19213868621491725,0.13652610636015744,3,left
5.792000000000001,0.29193045220007324,0.967406206684638,0.0035309744738659127,-1.78902181479006,0.2544344176181492,-1.2558649023390487,-0.09605517855906563,0.19074875736247596,0.14215907845699424,3,left
5.796,0.2957460594950351,0.9681050568100602,0.005070545241747913,-1.7780781579593095,0.2576691216311746,-1.2563686311110307,-0.10152720802567933,0.18950246375184807,0.1475576554458577,3,left
5.797000000000001,0.29946740396775395,0.9688617214196749,0.006582810121564828,-1.7657884047352177,0.2608523801539788,-1.2564930145882454,-0.10689006382047259,0.18840241659668,0.15272069699583113,3,left
5.8020000000000005,0.30309037222590435,0.9696787471592421,0.008065994203029787,-1.7521694769168068,0.2639780333779177,-1.2562393861042602,-0.1121417457535431,0.1874511644506606,0.1576472598131945,3,left
5.803,0.30661094291080493,0.9705586787237954,0.009518340466563916,-1.737239409972909,0.2670402295732575,-1.2556094023845437,-0.11728033448331228,0.18665119123787838,0.16233659951975707,3,left
5.806,0.3100251926679036,0.9715040555302146,0.010938111876745232,-1.7210173344742112,0.2700334468066976,-1.254605057850106,-0.1223039934612368,0.1860049142553535,0.16678817240692517,3,left
5.806,0.3133293017337427,0.9725174084667003,0.012323593529335984,-1.703523457681252,0.27295251405168464,-1.253228697841735,-0.12721097082267635,0.18551468214501704,0.17100163707965632,3,left
5.811,0.31651955909126406,0.9736012566928763,0.013673094878082666,-1.684779045245515,0.27579263170030344,-1.2514830307630136,-0.13199960123867535,0.18518277283284462,0.1749768560037699,3,left
5.812,0.3195923671585303,0.9747581044618464,0.014984952070922028,-1.6648064029770693,0.27854939148533236,-1.2493711391392435,-0.13666830774308664,0.18501139143329315,0.17871389696940151,3,left
5.816,0.32254424598759057,0.9759904379350245,0.016257530421882584,-1.6436288586285421,0.28121879582083853,-1.246896489588328,-0.14121560354912982,0.1850026681176369,0.18221303448270507,3,left
5.817,0.3253718369589901,0.977300721962029,0.01748922703217847,-1.621270743641625,0.2837972765694616,-1.2440629416986022,-0.14564009386913734,0.18515865594525469,0.1854747510972224,3,left
5.821000000000001,0.3280719059628278,0.9786913968011767,0.018678473553752822,-1.5977573747987885,0.28628171324429813,-1.240874755807552,-0.14994047775089728,0.1854813286573799,0.1884997386956569,3,left
5.822,0.3306413460618458,0.9801648747600074,0.019823739067228667,-1.573115035719421,0.2886694506530463,-1.237336599674325,-0.1541155499436527,0.18597257843329298,0.19128889973210364,3,left
5.827000000000001,0.3330771796396334,0.9817235367388638,0.02092353303200014,-1.5473709581362145,0.29095831599181177,-1.2334535540378986,-0.15816420280646548,0.1866342136094088,0.19384334844410803,3,left
5.827999999999999,0.33537656004987093,0.9833697286634946,0.02197640826301372,-1.5205533028843097,0.2931466353957069,-1.2292311170517558,-0.16208542827129557,0.1874679563621896,0.19616441204324478,3,left
5.831,0.337536772799972,0.9851057577951869,0.022980963893519626,-1.4926911405324659,0.2952332499530968,-1.2246752075849179,-0.16587831987278742,0.188475440356299,0.1982536318922321,3,left
5.832000000000001,0.3395552363212582,0.9869338889097993,0.023935848291983104,-1.463814431582361,0.29721753119006467,-1.2197921673781915,-0.16954207485639175,0.18965820835990144,0.20011276467592226,3,left
5.836,0.341429502394012,0.9888563403403792,0.024839761915031257,-1.4339540061590448,0.29909939603138036,-1.2145887620435092,-0.17307599637608567,0.19101770982950536,0.2017437835728394,3,left
5.837000000000001,0.34315725630718963,0.9908752798812996,0.02569146009599216,-1.4031415431125707,0.3008793212439647,-1.209072180893294,-0.1764794957925854,0.19255529846724825,0.20314887943327067,3,left
5.841,0.34473631683735956,0.9929928205548784,0.02648975578331148,-1.3714095484479119,0.3025583573685502,-1.2032500355858315,-0.17975209507686982,0.19427222975397448,0.20433046196546242,3,left
5.8420000000000005,0.3461646361262983,0.9952110162443222,0.027233522247846517,-1.3387913329974572,0.30413814214494456,-1.1971303575717176,-0.18289342929493513,0.1961696584617187,0.20529116091185418,3,left
5.8420000000000005,0.34744029952365235,0.9975318572005597,0.027921695773331975,-1.3053209892476336,0.3056209134360136,-1.190721594325552,-0.18590324909798148,0.198248636149273,0.20603382716249877,3,left
5.846,0.34856152545172026,0.9999572654370188,0.02855327833501483,-1.271033367228573,0.30700952165520984,-1.184032604346167,-0.18878142311332974,0.20051010864478633,0.20656153373321012,3,left
5.847,0.34952666535043353,1.0024890900355705,0.029127340257855953,-1.235964049373193,0.3083074417021895,-1.1770726509078309,-0.19152794015951677,0.2029549135201075,0.20687757655431166,3,left
5.852,0.3503342037632347,1.0051291023949085,0.029643022827141825,-1.2001493242848782,0.30951878439697733,-1.1698513945661013,-0.19414291125998487,0.20558377756255095,0.20698547504936735,3,left
5.852,0.35098275861830797,1.0078789914552582,0.03009954080889919,-1.163626159526915,0.3106483073338336,-1.1623788845315293,-0.1966265714579281,0.2083973142505332,0.20688897250162602,3,left
5.853,0.35147108174581554,1.0107403589310098,0.03049618483343509,-1.1264321738619567,0.31170142495145337,-1.1546655492222322,-0.1989792814401862,0.2113960212401058,0.20659203620909436,3,left
5.855,0.3517980596591729,1.013714714581294,0.030832323598012006,-1.0886056095439685,0.312684217546848,-1.146722186415939,-0.20120152897769844,0.2145802778699378,0.20609885742855633,3,left
5.856,0.3519627146222277,1.0168034715502123,0.03110740584870397,-1.0501853050867533,0.3136034390290583,-1.138559953311053,-0.20329393018965322,0.21795034269283067,0.20541385110827082,3,left
5.86,0.35196420602143447,1.0200079418084544,0.03132096211290627,-1.0112106686138693,0.31446652333289543,-1.130190356606998,-0.2052572306380931,0.22150635104238228,0.20454165540850308,3,left
5.861000000000001,0.35180183205731885,1.0233293317228425,0.03147260617541947,-0.9717216517166208,0.3152815894817409,-1.1216252426031144,-0.2070923062593605,0.22524831264394699,0.20348713100848279,3,left
5.865,0.351475031760776,1.0267687377733477,0.031562036313018335,-0.931758723709835,0.3160574453020619,-1.1128767872926872,-0.20880016413839664,0.22917610927957366,0.20225536019783108,3,left
5.8660000000000005,0.3509833873263502,1.0303271424321268,0.0315890363168546,-0.8913628461735482,0.31680358979213885,-1.1039574864280823,-0.21038194313153552,0.23328949251713746,0.20085164574996134,3,left
5.871,0.35032662673645143,1.034005410216244,0.0315534763383465,-0.8505754476672458,0.31753021414736565,-1.0948801455324166,-0.21183891434306718,0.23758808151441443,0.1992815095744353,3,left
5.872000000000001,0.3495046266300456,1.0378042839245798,0.03145531359237757,-0.8094383985019425,0.31824820144437255,-1.0856578698326558,-0.21317248146047837,0.24207136090938172,0.19755069114474721,3,left
5.874,0.3485174153501555,1.0417243810706425,0.03129459294095814,-0.7679939854541458,0.31896912498613583,-1.076304054088543,-0.21438418095291803,0.24673867880855999,0.19566514569751575,3,left
5.875,0.34736517608893436,1.0457661905265985,0.03107144736480621,-0.7262848863046191,0.31970524531018624,-1.0668323722913096,-0.2154756821370751,0.25158924488574486,0.19363104219858537,3,left
5.879,0.3460482500402836,1.0499300693979108,0.030786098317843673,-0.6843541440838635,0.32046950586200296,-1.057256767205708,-0.2164487871143044,0.2566221286040054,0.19145476107107737,3,left
5.88,0.3445671394715269,1.054216240149364,0.03043885595769633,-0.6422451409053487,0.32127552733569104,-1.047591439728519,-0.2173054305824835,0.2618362575743563,0.189142891679988,3,left
5.885,0.3429225106382264,1.0586247880000408,0.03003011925659788,-0.6000015712667667,0.3221376006840852,-1.0378508380363585,-0.21804767952574117,0.26723041606503584,0.18670222956750318,3,left
5.886,0.34111519648704147,1.0631556585976387,0.029560376017172336,-0.5576674146989484,0.32307067880050366,-1.0280496464953042,-0.2186777327848568,0.2728032436758453,0.18413977343279295,3,left
5.888999999999999,0.3391461991161131,1.0678086559729023,0.029030202835759234,-0.5152869076415655,0.3240903668744989,-1.0182027743046078,-0.2191979205107959,0.2785532341925264,0.18146272184965787,3,left
5.89,0.33701669198620376,1.072583440764198,0.028440265063283576,-0.47290451442436077,0.32521291142411485,-1.0083253438465425,-0.21961070350351874,0.2844787346366695,0.17867846971503218,3,left
5.895,0.3347280218947212,1.07747952869257,0.027791316808214235,-0.43056489723238706,0.3264551880073633,-0.9984326787142606,-0.2199186724378773,0.2905779445271581,0.1757946044209971,3,left
5.896,0.33228171073598156,1.0824962892613936,0.027084201011321158,-0.3883128849336014,0.3278346876158845,-0.9885402913894074,-0.2201245469781001,0.2968489153696663,0.17281890174263023,3,left
5.899,0.32967945707397467,1.087632944652616,0.026319849604430682,-0.346193440647158,0.3293695017540533,-0.978663870541149,-0.22023117478205648,0.3032895503912245,0.16975932143370878,3,left
5.9,0.32692313755040503,1.0928885687923136,0.02549928375087658,-0.3042516279308661,0.3310783062071364,-0.9688192679182281,-0.22024153039619065,0.30989760453737375,0.16662400252199897,3,left
5.904,0.32401480814429234,1.0982620865601735,0.024623614153570013,-0.26253257546653125,0.33298034350250383,-0.9590224848056645,-0.2201587140417231,0.3166706847499166,0.16342125829560022,3,left
5.905,0.3209567052926158,1.1037522731196623,0.023694041405562256,-0.2210814401222784,0.33509540406834254,-0.94928965801776,-0.21998595029243204,0.3236062505437635,0.16015957097157232,3,left
5.909,0.31775124687572853,1.109357753348956,0.022711856350927304,-0.179943368271467,0.3374438060948237,-0.9396370453991635,-0.2197265866447025,0.33070161489324257,0.15684758604271773,3,left
5.91,0.31440103306736594,1.115077001358747,0.02167844042554094,-0.13916345524844723,0.34004637410323013,-0.9300810108058858,-0.21938409198351708,0.3379539453956696,0.153494106322504,3,left
5.9110000000000005,0.31090884704714666,1.1209083400907518,0.02059526595592664,-0.09878670282217643,0.342924416229163,-0.9206380085383405,-0.2189620549536617,0.34536026560295824,0.15010808575169282,3,left
5.914,0.3072776555732449,1.1268499409954364,0.0194638964027161,-0.05885797456961478,0.34609970022661957,-0.9113245671987162,-0.21846418224842637,0.35291745636946265,0.1466986230544046,3,left
5.915,0.3035106094148308,1.1328998237861485,0.018285986541126533,-0.019421949031846703,0.3495944282004644,-0.9021572729452633,-0.2178942968245872,0.36062225710774193,0.14327495530692172,3,left
5.919,0.2996110436472528,1.139055856262384,0.01706328257856934,0.019476929462966718,0.3534312100756084,-0.8931527521164042,-0.21725633604637065,0.36847126692186044,0.13984645143869096,3,left
5.919,0.2955824778139626,1.145315754191819,0.015797622218626458,0.05779450242441271,0.35763303581206535,-0.884327653197949,-0.2165543497576285,0.37646094563131843,0.13642260566061098,3,left
5.92,0.2914286159540425,1.1516770812409929,0.014490934681233426,0.09548695129561638,0.36222324638649145,-0.8756986281247584,-0.21579249828059535,0.38458761470773806,0.1330130308107902,3,left
5.9239999999999995,0.2871533464839332,1.1581372489490807,0.013145240675672826,0.1325108535916078,0.36722550361438,-0.8672823129968952,-0.21497505033940442,0.39284745814684685,0.12962745160794603,3,left
5.925,0.28276074191027456,1.164693516747328,0.01176265230131756,0.16882323984015346,0.37266375898278636,-0.8590953084496188,-0.21410638090635398,0.40123652329870163,0.12627569780263087,3,left
5.928,0.278255058337854,1.1713429920346872,0.010345372825342524,0.20438164963311214,0.37856222171715825,-0.8511541600053683,-0.21319096896874493,0.40975072167949134,0.12296769721651023,3,left
5.928999999999999,0.27364073472254896,1.1780826303247545,0.008895696262627267,0.2391441855444874,0.38494532625444644,-0.8434753386482641,-0.21223339521395107,0.4183858297886379,0.11971346865998904,3,left
5.933,0.2689223918098742,1.1849092354804955,0.007416006677346673,0.2730695644793634,0.39183769920127287,-0.8360752217035148,-0.21123833963023575,0.42713748995528633,0.11652311471857853,3,left
5.934,0.2641048307018923,1.1918194600527325,0.005908777147744869,0.30611716646577697,0.39926412580466897,-0.8289700740165952,-0.21021057902069507,0.43600121123863306,0.11340681439852221,3,left
5.939,0.2591930310084669,1.1988098057358825,0.004376568370223274,0.3382470809893004,0.40724951595377556,-0.8221760294101743,-0.2091549844275875,0.44497237040689186,0.11037481562235418,3,left
5.94,0.2541921485569942,1.2058766239501402,0.002822026902797508,0.3694201509677065,0.4158188697323574,-0.8157090723975672,-0.20807651846420092,0.4540462130200256,0.10743742756524678,3,left
5.943,0.2491075126512394,1.213016116555575,0.001247883051633477,0.3995980144605664,0.42499724254351906,-0.8095850201323351,-0.20698023255131504,0.46321785464169984,0.10460501282321734,3,left
5.944,0.2439446228814702,1.2202243367028154,-0.00034305160657010776,0.4287431442059972,0.43480970982961786,-0.8038195045745516,-0.20587126405523842,0.47248228220621746,0.10188797940450599,3,left
5.949,0.2387091454945534,1.2274971898264717,-0.0019478870863613585,0.45681888507402735,0.44528133141204335,-0.79842795485519,-0.20475483332433184,0.4818343555664927,0.09929677253570855,3,left
5.95,0.23340690933454766,1.234830434789349,-0.003563658262324654,0.4837894895231936,0.45643711547728516,-0.793425579821073,-0.2036362406208801,0.49126880924939925,0.09684186627455035,3,left
5.954,0.22804390136159133,1.2422196851880813,-0.005187328558201356,0.5096201511440156,0.46830198223753206,-0.7888273507438553,-0.20252086294513777,0.5007802544450983,0.09453375492151783,3,left
5.955,0.22262626175021683,1.2496604108348668,-0.006815794054742365,0.5342770363699255,0.4809007272959381,-0.7846479841775835,-0.20141415074835314,0.5103631812571979,0.09238294422292694,3,left
5.956,0.21716027856078687,1.25714793943454,-0.008445888001280847,0.5577273144330575,0.49425798474865673,-0.7809019249504949,-0.20032162453156832,0.520011961240838,0.09039994235839847,3,left
5.961,0.21165238197453973,1.26467745848001,-0.010074385706910608,0.5799391856390284,0.5083981900577816,-0.777603329277878,-0.19924887132700309,0.5297208502560106,0.08859525070613253,3,left
5.961,0.20610913808723705,1.2722440173908762,-0.011698009784220162,0.600881908031471,0.5233455427314395,-0.7747660479840183,-0.19820154105885548,0.539483991663633,0.0869793543798257,3,left
5.965,0.2005372422689235,1.2798425299175356,-0.013313435721423333,0.6205258225136192,0.5391239688494593,-0.7724036098224992,-0.19718534278039204,0.5492954198920813,0.08556271253155742,3,left
5.966,0.1949435121149572,1.287467776824883,-0.014917297761070052,0.6388423764906862,0.5557570834752916,-0.7705292048854131,-0.1962060407842587,0.5591490644020599,0.08435574841548339,3,left
5.97,0.1893348800306012,1.2951144088575273,-0.016506195056796406,0.655804146093135,0.5732681529971687,-0.7691556680933578,-0.1952694505830154,0.5690387540778445,0.08336883920771655,3,left
5.97,0.1837183855022551,1.302776949975699,-0.018076698063614664,0.6713848570372131,0.591680057443884,-0.7682954627594633,-0.19438143475698802,0.578958222073068,0.08261230557834855,3,left
5.974,0.17810116711015278,1.310449800840322,-0.019625355103349767,0.6855594041753084,0.6110152528230233,-0.7679606642220905,-0.19354789866663658,0.5889011111393437,0.08209640101216675,3,left
5.975,0.17249045433089547,1.3181272425194825,-0.02114869904598221,0.6983038697847979,0.6312957335320017,-0.768162943542283,-0.1927747860274307,0.5988609794504597,0.08183130087930254,3,left
5.976,0.16689355916600196,1.325803440389732,-0.022643254058655506,0.7095955406400934,0.6525429948948474,-0.7689135512635269,-0.1920680743487068,0.6088313068566312,0.08182709127795235,3,left
5.98,0.16131786761863476,1.3334724482139704,-0.024105542385004758,0.719412923908554,0.6747779958803234,-0.7702233012328823,-0.1914337702441575,0.6188055013623819,0.08209375770844259,3,left
5.981,0.15577083103033193,1.3411282123860184,-0.025532091115702545,0.7277357619068254,0.6980211220596962,-0.772102554484091,-0.1908779046251213,0.6287769055433426,0.0826411736588739,3,left
5.986000000000001,0.1502599572846465,1.3487645763345175,-0.026919438896995003,0.7345450457500003,0.7222921488652314,-0.7745612031848403,-0.19040652778468742,0.6387388026956184,0.08347908916308543,3,left
5.986000000000001,0.14479280188059787,1.3563752850789679,-0.028264142513185042,0.7398230279217581,0.7476102052133374,-0.7776086546519675,-0.1900257043748196,0.6486844226523658,0.08461711935601904,3,left
5.989,0.13937695887361276,1.3639539899346107,-0.029562783283719765,0.7435532338064876,0.7739937375464495,-0.7812538154405791,-0.18974150827558342,0.658606947280549,0.08606473303212586,3,left
5.99,0.1340200516776877,1.371494253370415,-0.030811973231388266,0.7457204723057461,0.8014604742870952,-0.7855050755174784,-0.18956001735513642,0.6684995156864774,0.0878312412092429,3,left
5.9910000000000005,0.1287297237199336,1.3789895540309287,-0.03200836099327031,0.7463108458112424,0.8300273905860999,-0.7903702925359565,-0.18948730811939998,0.67835522915868,0.08992578570122949,3,left
5.994,0.1235136289355244,1.3864332919338407,-0.033148637451398066,0.7453117598877811,0.8597106731863478,-0.79585677623348,-0.1895294502506097,0.6881671558766083,0.092357327703542,3,left
5.995,0.11837942208770884,1.3938187938504967,-0.03422954105355002,0.7427119329294309,0.8905256852902255,-0.8019712729727859,-0.18969250103423602,0.6979283354135699,0.09513463639684165,3,left
5.999,0.11333474889429707,1.4011393188694028,-0.035247862783699055,0.7385014058934086,0.922486931436526,-0.8087199504436889,-0.18998249967407924,0.7076317830621922,0.09826627757467128,3,left
6.001,0.10838723593757468,1.4083880641359494,-0.03620045073771381,0.7326715521259246,0.9556080224593955,-0.8161083825419276,-0.19040546149567275,0.7172704940105868,0.10176060230220542,3,left
6.005,0.10354448032946821,1.4155581707560403,-0.03708421426885866,0.7252150872724974,0.989901640617877,-0.8241415344426312,-0.19096737203847644,0.7268374473972421,0.10562573561407057,3,left
6.005,0.09881403910101262,1.4226427298461672,-0.037896127688164055,0.7161260792606253,1.025379504987899,-0.8328237478878011,-0.19167418103770595,0.7363256102725029,0.10986956526024998,3,left
6.01,0.09420341828609774,1.429634788706673,-0.03863323353016232,0.70539995833805,1.0620523372118815,-0.8421587267090475,-0.19253179629702583,0.7457279414943138,0.11449973051012864,3,left
6.011,0.08972006167368496,1.4365273570886934,-0.03929264541338597,0.6930335271451797,1.099929827704502,-0.852149522608666,-0.19354607745373367,0.7550373955856918,0.11952361102579935,3,left
6.013999999999999,0.08537133921135247,1.443313413519839,-0.03987155052773656,0.6790249707955526,1.1390206024165652,-0.8627985212240037,-0.1947228296384782,0.7642469265811723,0.12494831581683703,3,left
6.013999999999999,0.0811645350567345,1.4499859116509863,-0.04036721176968779,0.6633738669335183,1.1793321902623453,-0.8741074285019361,-0.19606779703198812,0.7733494918892206,0.13078067228985896,3,left
6.02,0.07710683528874099,1.4565377865875504,-0.04077696953376896,0.6460811957336099,1.2208709913192326,-0.8860772574121661,-0.19758665632173728,0.7823380561973423,0.13702721540731833,3,left
6.021,0.07320531530273967,1.4629619611720397,-0.04109824316378592,0.6271493498013617,1.2636422459119994,-0.8987083150299356,-0.19928501006193983,0.7912055954463283,0.14369417697112968,3,left
6.023,0.06946692692111703,1.4692513521897455,-0.041328532068425,0.6065821439306138,1.3076500046975008,-0.912000190020641,-0.20116837994075054,0.7999451008997722,0.1507874750478947,3,left
6.024,0.06589848525292077,1.4753988764778132,-0.04146541650877642,0.5843848246676313,1.352897099869154,-0.9259517405607397,-0.20324219995904608,0.8085495833346654,0.15831270355368696,3,left
6.029,0.06250665533458073,1.4813974569307127,-0.04150655807104287,0.5605640796276599,1.399385117604075,-0.9405610827312324,-0.20551180952567843,0.8170120773785289,0.16627512201756062,3,left
6.03,0.059297938580492454,1.4872400284095182,-0.041449699851402254,0.5351280465048458,1.4471143718792978,-0.9558255794219019,-0.20798244647462144,0.825325646018174,0.1746796455441719,3,left
6.0329999999999995,0.05627865907153725,1.4929195435742708,-0.041292666401486,0.508086321711767,1.4960838797870677,-0.9717418297863858,-0.21065924000998068,0.8334833853047942,0.1835308349971431,3,left
6.035,0.053454949714890926,1.4984289786658447,-0.04103336350353202,0.47944996858016276,1.546291338482754,-0.9883056592900422,-0.21354720358539742,0.8414784292796829,0.1928328874260534,3,left
6.037999999999999,0.05083273832102406,1.503761339265696,-0.04066977785403086,0.44923152504981045,1.5977331039024913,-1.0055121103944558,-0.21665122772495504,0.8493039551444477,0.20258962676121048,3,left
6.037999999999999,0.04841773366225931,1.5089096660580628,-0.040199976729077165,0.4174450107678916,1.6504041713912294,-1.0233554339242952,-0.21997607279328876,0.8569531886991397,0.21280449480163896,3,left
6.042999999999999,0.046215411595960175,1.513867040610121,-0.03962210768585619,0.38410593351660777,1.7042981583854035,-1.0418290811640971,-0.22352636172037285,0.864419410062654,0.2234805425142316,3,left
6.044,0.044231001343715326,1.5186265911755836,-0.038934398331319335,0.349231294882268,1.7594072892980046,-1.0609256967343936,-0.2273065726729193,0.8716959596462942,0.23462042161939398,3,left
6.045,0.04246947201243139,1.5231814985210166,-0.03813515617135073,0.31283959507456643,1.815722382757339,-1.080637112298426,-0.231321031639463,0.8787762442735244,0.24622637636076947,3,left
6.0489999999999995,0.04093551943950345,1.5275250017705915,-0.0372227685451616,0.2749508368003128,1.8732328413542854,-1.1009543411525005,-0.23557390488269692,0.885653743295427,0.2583002353140341,3,left
6.05,0.03963355345435591,1.5316504042609298,-0.03619570264661852,0.2355865280914699,1.9319266440563443,-1.121867573754829,-0.2400691912274402,0.8923220145938205,0.27084340313500344,3,left
6.053999999999999,0.03856768565939006,1.5355510793948637,-0.03505250563383279,0.19476968398299804,1.9917903414502331,-1.143366174249459,-0.2448107141787864,0.898774700440786,0.28385685222769086,3,left
6.055,0.03774171782808931,1.5392204764843391,-0.033791804831900585,0.15252482693170769,2.0528090539782164,-1.165438678043638,-0.24980211387982634,0.9050055332257531,0.29734111435822136,3,left
6.059,0.03715913099868396,1.5426521265774513,-0.03241230804107474,0.1088779858800227,2.114966473254981,-1.188072790487075,-0.25504683892186675,0.9110083410692856,0.3112962722506354,3,left
6.06,0.0368230753179335,1.5458396482703571,-0.030912803968909462,0.06385669394906557,2.1782448661463807,-1.211255386645265,-0.2605481380207741,0.916777053342091,0.3257219512019686,3,left
6.06,0.03673636066797349,1.548776753510142,-0.029292162806915774,0.017489984893796478,2.2426250805587618,-1.2349725120563528,-0.2663090515737902,0.9223057061071388,0.34061731075534396,3,left
6.063,0.03690144809518527,1.5514572533987454,-0.027549336974792924,-0.03019161146640616,2.3080865514819933,-1.259209384304638,-0.2723324031118927,0.9275884475021224,0.3559810364711649,3,left
6.065,0.03732044205566903,1.5538750640103043,-0.02568336206271256,-0.07915607471696082,2.3746073062414057,-1.2839503953033837,-0.27862079066351114,0.9326195430788202,0.3718113318378492,3,left
6.067,0.037995083493464366,1.5560242122346777,-0.023693358008163155,-0.12936990024861292,2.4421639686529186,-1.3091791142854585,-0.2851765780461541,0.9373933811152262,0.3881059103648911,3,left
6.068,0.0389267437701134,1.5578988416592614,-0.021578530538879072,-0.1807981067092518,2.5107317621875933,-1.3348782915598143,-0.29200188610325684,0.9419044779156154,0.4048619879023838,3,left
6.0729999999999995,0.04011641946476421,1.5594932185009773,-0.019338172896852295,-0.2334042446476043,2.58028451233666,-1.3610298631048376,-0.29909858390431915,0.9461474831129837,0.42207627523247243,3,left
6.0729999999999995,0.04156472806107452,1.5608017376019763,-0.016971667838520936,-0.2871504064929801,2.650794648371036,-1.3876149560710116,-0.3064682799271706,0.9501171849875648,0.4397449709795426,3,left
6.077000000000001,0.043271904528895205,1.5618189285072432,-0.014478489892345748,-0.3419972380187308,2.722233204692251,-1.4146138952666776,-0.314112313241975,0.9538085158143708,0.45786375488727354,3,left
6.077999999999999,0.045237798794730846,1.5625394616502044,-0.011858207852246562,-0.39790395144046325,2.7945698219745383,-1.4420062107019835,-0.3220317447173648,0.9572165572519357,0.47642778151199866,3,left
6.082999999999999,0.047461874077829695,1.5629581546825575,-0.00911048749214977,-0.4548283403033221,2.8677727483005757,-1.4697706462673443,-0.33022734826987815,0.9603365457836541,0.49543167438312263,3,left
6.085,0.04994320605315476,1.563069978994736,-0.00623509449711405,-0.5127267963158122,2.941808840496035,-1.497885169623937,-0.3386996021786619,0.9631638782223089,0.5148695206826338,3,left
6.0889999999999995,0.052680482792435104,1.5628700664822195,-0.0032318976139872283,-0.5715543282906772,3.0166435658706843,-1.5263269833848698,-0.3474486804881913,0.9656941172875673,0.5347348664970313,3,left
6.09,0.055672005430851816,1.5623537166188597,-0.00010087202467952766,-0.6312645833562678,3.0922410045762563,-1.5550725376667418,-0.3564744445225516,0.9679229972653992,0.5550207126962454,3,left
6.0920000000000005,0.05891568950807791,1.5615164038986908,0.0031578970630203704,-0.691809870604629,3.168563852793695,-1.5840975440923075,-0.365776434535621,0.969846429757531,0.5757195114953794,3,left
6.093,0.062409066936061075,1.5603537857002,0.006544210623335607,-0.7531411873452034,3.2455734269646865,-1.6133769913259026,-0.3753538615222873,0.9714605095281921,0.5968231637563234,3,left
6.096,0.06614928855000762,1.5588617106123126,0.010057751842536659,-0.8152082481355796,3.323229669284566,-1.6428851622241536,-0.3852055992166275,0.9727615204545511,0.6183230170875013,3,left
6.097,0.07013312720288696,1.5570362272410754,0.013698081996512169,-0.8779595167631093,3.401491154675767,-1.6725956526853032,-0.39533017630376877,0.9737459415863564,0.6402098648011942,3,left
6.101,0.07435698136893615,1.5548735934917581,0.01746463620248421,-0.9413422413534751,3.480315099462956,-1.7024813922812043,-0.40572576887294287,0.974410453319411,0.6624739457890486,3,left
6.103,0.07881687923042308,1.5523702862950692,0.02135671907619176,-1.0053024927843979,3.5596573719728566,-1.7325146667566995,-0.41639019314003295,0.9747519436866117,0.6851049453775104,3,left
6.107,0.08350848323563827,1.5495230117200718,0.02537350033408084,-1.0697852065846403,3.639472505283485,-1.7626671424816716,-0.42732089846869226,0.9747675147693733,0.7080919972260418,3,left
6.107,0.08842709513383112,1.5463287153908636,0.029514010389944917,-1.1347342285002695,3.719713712349148,-1.792909892941564,-0.4385149607198957,0.9744544892313408,0.7314236863320541,3,left
6.111000000000001,0.09356766151207546,1.542784593100586,0.03377713600756627,-1.2000923639118037,3.8003329037290343,-1.823213427352588,-0.4499690759605537,0.9738104169753616,0.7550880532075502,3,left
6.112,0.09892477987725568,1.5388881014967057,0.038161616085294,-1.2658014312873598,3.8812807081485827,-1.85354772148817,-0.4616795545625822,0.9728330819237596,0.779072599293483,3,left
6.1129999999999995,0.1044927053400471,1.534636968698454,0.04266603765892196,-1.3318023198582645,3.96250649612404,-1.8838822508034594,-0.47364231572318133,0.9715205089061845,0.8033642936514216,3,left
6.1160000000000005,0.11026535796227431,1.5300292047076052,0.047288832206511665,-1.398035051704758,4.043958406881693,-1.9141860259448833,-0.4858528824308145,0.969870970564251,0.8279495808360043,3,left
6.117000000000001,0.11623633082444568,1.5250631114885496,0.05202827232272946,-1.4644388484404254,4.125583378804213,-1.9444276307318273,-0.49830637688951374,0.9678829940478358,0.8528143896058709,3,left
6.121,0.12239889886510433,1.5197372926053114,0.05688246881112629,-1.5309522026848328,4.207327183637343,-1.9745752626975164,-0.5109975164078592,0.9655553672028252,0.8779441419945828,3,left
6.122999999999999,0.12874602854482856,1.5140506622986505,0.06184936822615663,-1.597512954514506,4.289134464690794,-2.004596776276083,-0.5239206097666919,0.9628871440232496,0.9033237624009488,3,left
6.126,0.13527038839168648,1.5080024538807326,0.06692675087911767,-1.6640583730828762,4.37094877926773,-2.0344597287226303,-0.5370695540929221,0.9598776492731637,0.9289376866056783,3,left
6.127000000000001,0.1419643604859124,1.5015922273357,0.07211222930504932,-1.7305252436001397,4.452712645557537,-2.06413142885283,-0.550437832274479,0.9565264822567601,0.9547698707591119,3,left
6.127999999999999,0.1488200529396462,1.4948198760376028,0.0774032471787126,-1.7968499597285896,4.534367594101121,-2.0935789886004526,-0.5640185109535116,0.9528335197290517,0.9808038004129024,3,left
6.131,0.15582931342436973,1.4876856325211896,0.08279707866918044,-1.8629686207713825,4.6158542233096,-2.1227693769519287,-0.577804239135603,0.9487989179384745,1.0070224996691937,3,left
6.132000000000001,0.1629837437953585,1.4801900732609563,0.08829082822918306,-1.9288171318128575,4.697112257386143,-2.1516694750265364,-0.5917872474533827,0.9444231137917858,1.0334085405214728,3,left
6.135,0.17027471586301607,1.4723341224287532,0.09388143082091743,-1.99433130429056,4.778080604372018,-2.180246130631325,-0.6059593481235387,0.9397068251306471,1.0599440524618453,3,left
6.1370000000000005,0.17769338836696122,1.46411905461221,0.09956565258237746,-2.05944695515609,4.858697412665782,-2.208466211057997,-0.6203119356368131,0.9346510501083043,1.0866107324300163,3,left
6.141,0.18523072521285228,1.4555464964893998,0.10534009193997057,-2.124100004000728,4.938900125494901,-2.2362966536780617,-0.6348359882211339,0.929257065653794,1.1133898551797379,3,left
6.141,0.19287751502468617,1.44661842747176,0.1112011811753045,-2.1882265681983943,5.018625533446604,-2.2637045143305277,-0.6495220701185762,0.9235264250101313,1.1402622841389154,3,left
6.146,0.20062439204411192,1.4373371793459748,0.11714518845228614,-2.251763056252864,5.097809825289414,-2.290657013583116,-0.6643603347173658,0.9174609543319578,1.1672084828399363,3,left
6.147,0.20846185837553088,1.4277054349636757,0.12316822030152022,-2.3146462595348276,5.176388637315636,-2.317121580946886,-0.6793405285806274,0.911062748327157,1.1942085269971094,3,left
6.15,0.2163803075340158,1.417726226042596,0.12926622454527997,-2.376813442592879,5.254297101433682,-2.3430658971229272,-0.6944519964140462,0.9043341649259767,1.221242117308373,3,left
6.151,0.22437004920563622,1.4074029301514341,0.1354349936339827,-2.4382024322208258,5.331469892237585,-2.3684579343584846,-0.7096836870150468,0.897277818960243,1.248288593058633,3,left
6.156000000000001,0.23242133508227797,1.3967392669523195,0.14167016835817048,-2.498751705461822,5.407841273279279,-2.393265994988465,-0.7250241602465008,0.8898965748342852,1.2753269466022559,3,left
6.157,0.24052438559211642,1.3857392937712727,0.14796724190060134,-2.558400476727788,5.483345142767324,-2.4174587482367897,-0.7404615950783506,0.8821935381682543,1.30233583880233,3,left
6.16,0.24866941731692146,1.3744074005603015,0.15432156420060353,-2.6170887842103374,5.557915078913643,-2.441005265350473,-0.7559837987408804,0.8741720463935628,1.3292936155043484,3,left
6.1610000000000005,0.25684667086847274,1.3627483043055308,0.16072834661189073,-2.6747575757570154,5.631484385147499,-2.463875053137618,-0.7715782170336797,0.8658356582792536,1.3561783251219388,3,left
6.165,0.265046438985604,1.3507670429248966,0.16718266683882876,-2.7313487943840853,5.7039861354134915,-2.4860380859787763,-0.787231945834619,0.8571881423671737,1.3829677374121876,3,left
6.166,0.2732590946076769,1.3384689686877165,0.17367947413304768,-2.7868054635943236,5.77535321976763,-2.5074648363792305,-0.8029317438534034,0.8482334642929192,1.4096393635179487,3,left
6.171,0.28147511867730785,1.325859741177727,0.18021359472749418,-2.841071772665369,5.845518390482714,-2.5281263041278503,-0.8186640466744731,0.8389757729686096,1.4361704773543262,3,left
6.172000000000001,0.28968512742358715,1.3129453198112446,0.18677973748535232,-2.894093162071072,5.914414308871124,-2.547994044126116,-0.8344149821341926,0.8294193856026569,1.4625381384162366,3,left
6.176,0.29787989887788535,1.2997319559141423,0.1933724997496505,-2.9458164091950416,5.98197359302991,-2.567040192948804,-0.8501703870774004,0.8195687715308175,1.4887192160836253,3,left
6.1770000000000005,0.30605039838063985,1.286226184357829,0.19998637339545924,-2.99618971449216,6.04812886670959,-2.58523749419563,-0.8659158255384837,0.8094285348319372,1.5146904155005052,3,left
6.181,0.314187802851646,1.2724348147565248,0.20661575110801503,-3.0451627882502663,6.112812809504457,-2.6025593226908628,-0.8816366083921968,0.7990033957009495,1.540428305103512,3,left
6.182,0.3222835236210343,1.2583649222329303,0.21325493292990066,-3.092686938100491,6.175958208558298,-2.618979707585561,-0.8973178144810657,0.7882981706051272,1.5659093458245983,3,left
6.182,0.33032922765769573,1.2440238377608273,0.21989813312938666,-3.138715157420834,6.237498011975447,-2.63447335441466,-0.9129443130342568,0.7773177515202084,1.59110992173917,3,left
6.184,0.33831685708154074,1.2294191380887427,0.2265394874391525,-3.1832022147735732,6.297365384122843,-2.6490156661586055,-0.9285007868472386,0.7660670850308126,1.6160063714754174,3,left
6.185,0.34623864688480444,1.214558635246292,0.23317306070860555,-3.226104744512924,6.355493763004339,-2.662582763356653,-0.9439717554995112,0.7545511523502054,1.640575019447154,3,left
6.19,0.35408714080398385,1.199450365643252,0.23979285500897352,-3.26738133869508,6.41181691988391,-2.6751515033162954,-0.9593415980794595,0.7427749510422335,1.664792206224366,3,left
6.191,0.3618552052927826,1.1841025787876642,0.24639281822390968,-3.3069926404183456,6.466269021329612,-2.6866994984605332,-0.9745945752306636,0.73074347873886,1.6886343178096945,3,left
6.194,0.3695360415623683,1.168523725662388,0.25296685314689354,-3.34490143855241,6.5187846937773175,-2.6972051338674543,-0.9897148505256909,0.7184617188745214,1.7120778138408372,3,left
6.195,0.377123195674784,1.1527224468014114,0.25950882709522477,-3.381072762990653,6.569299090369057,-2.7066475841313915,-1.0046865112114889,0.7059346284034809,1.7350992547883868,3,left
6.196000000000001,0.3846105666922348,1.136707560099275,0.26601258204275197,-3.415473978077699,6.617747959205168,-2.7150068298118137,-1.0194935883701626,0.6931671274656351,1.7576753282175441,3,left
6.2,0.39199241289871706,1.120488048383999,0.2724719452660373,-3.4480748710390294,6.664067711804873,-2.72226367381079,-1.0341200765385379,0.6801640909654935,1.779782874181007,3,left
6.2010000000000005,0.39926335612160785,1.1040730467975333,0.27888074048717276,-3.4788477330549847,6.708195490903176,-2.7283997579391346,-1.0485499528294875,0.6669303420283583,1.8013989098091179,3,left
6.205,0.4064183841905884,1.0874718300484882,0.2852327994828849,-3.5077674320933183,6.750069237316286,-2.7333975797884187,-1.0627671955975209,0.6534706472970399,1.822500653162075,3,left
6.206,0.41345285158132744,1.0706937996147643,0.2915219741176542,-3.5348114774297996,6.789627755940685,-2.7372405099451953,-1.0767558026906214,0.6397897140317588,1.8430655464076666,3,left
6.209,0.4203624783015406,1.053748470976784,0.29774214874821353,-3.559960075945207,6.826810781012495,-2.739912809565019,-1.090499809329751,0.6258921889752317,1.8630712783865764,3,left
6.21,0.4271433470867821,1.0366454609599303,0.3038872529359308,-3.583196180281745,6.861559040747285,-2.7413996483205874,-1.1039833056568291,0.6117826589442829,1.8824958066258317,3,left
6.215,0.43379189898369463,1.019394475260147,0.30995127439348996,-3.6045055289365333,6.893814321473836,-2.741687122735011,-1.1171904539913353,0.5974656531086903,1.901317378859423,3,left
6.216,0.44030492740978755,1.0020052962218966,0.3159282720871348,-3.6238766783643697,6.923519531368548,-2.740762274907852,-1.1301055058349876,0.5829456469173534,1.9195145541135186,3,left
6.22,0.4466795707887658,0.9844877709344277,0.3218123894162559,-3.6413010271565005,6.950618763890201,-2.738613111638178,-1.1427128186631947,0.568227067631258,1.9370662234120282,3,left
6.222,0.45291330386678474,0.9668517997089067,0.3275978673943653,-3.6567728323565816,6.97505736100759,-2.7352286239454204,-1.154996872541189,0.5533143014221188,1.953951630156542,3,left
6.224,0.4590039278187306,0.9491073249926286,0.3332790577568546,-3.670289217969456,6.996781976305253,-2.7305988069853697,-1.1669422866019088,0.5382117019949988,1.970150390232872,3,left
6.225,0.4649495592577823,0.9312643207667358,0.338850435922282,-3.681850175712803,7.01574063804504,-2.7247146803550955,-1.1785338354218138,0.5229236006926307,1.9856425118945735,3,left
6.228,0.47074861826670406,0.9133327824617479,0.3443066137356933,-3.6914585580560813,7.031882812253582,-2.717568308777054,-1.1897564653298887,0.5074543180386101,2.0004084154719077,3,left
6.229,0.47639981557200384,0.8953227174113979,0.3496423519233593,-3.6991200635856143,7.045159465897991,-2.7091528231490623,-1.2005953106841185,0.4918081766760836,2.014428952952743,3,left
6.234,0.48190213898023615,0.877244135851116,0.3548525721899328,-3.704843214729024,7.0555231302041195,-2.699462441943215,-1.2110357101487028,0.47598951565802283,2.0276854274798524,3,left
6.235,0.48725483919182516,0.8591070424556589,0.35993236889626146,-3.708639327866626,7.062927964163663,-2.6884924929332055,-1.2210632230042164,0.46000270604465443,2.040159612806983,3,left
6.2379999999999995,0.4924574151036096,0.8409214284022906,0.36487702027068536,-3.7105224758518256,7.067329818268136,-2.676239435225861,-1.2306636455218223,0.4438521677631085,2.051833772753942,3,left
6.239,0.49750959870685657,0.8226972639400397,0.3696819991248112,-3.7105094429569676,7.06868629849939,-2.662700881569042,-1.2398230274314976,0.4275423876838519,2.0626906806987346,3,left
6.245,0.502411339684738,0.8044444914395782,0.37434298306115765,-3.70861967225558,7.066956830597859,-2.647875620904385,-1.2485276885130487,0.4110779388679899,2.072713639142552,3,left
6.246,0.5071627898145578,0.7861730188916394,0.378855864171264,-3.7048752054464638,7.062102724621084,-2.6317636411296874,-1.2567642353374653,0.3944635009390502,2.0818864993811137,3,left
6.247999999999999,0.5117642872827332,0.7678927138157285,0.3832167582273423,-3.6993006151196206,7.054087239796335,-2.614366152032032,-1.2645195781713399,0.37770388149395095,2.0901936812943793,3,left
6.249,0.5162163410163759,0.7496133975359399,0.3874220133693313,-3.69192292945865,7.042875649662249,-2.59568560834907,-1.2717809479879956,0.3608040382751386,2.0976201931685745,3,left
6.25,0.5205196151217802,0.731344839777188,0.3914682182846742,-3.6827715493689004,7.028435307485498,-2.575725732912176,-1.2785359134056216,0.34376910147936535,2.1041516512898277,3,left
6.254,0.5246749135096542,0.7130967535337792,0.39535220986932623,-3.671878158015427,7.01073571192936,-2.5544915398215005,-1.28477239730355,0.32660439538588526,2.1097742989505437,3,left
6.255,0.5286831647891943,0.6948787901637237,0.39907108034325994,-3.659276622749619,6.989748572941925,-2.5319893575992656,-1.290478692934178,0.3093154586787183,2.114475024602793,3,left
6.2589999999999995,0.5325454075188433,0.6767005346660612,0.4026221837757176,-3.645002889398283,6.965447877822387,-2.5082268522639763,-1.2956434794685714,0.2919080631833309,2.1182413790626384,3,left
6.26,0.5362627758996398,0.6585715011032355,0.40600314195996523,-3.6290948688839517,6.9378099574145145,-2.4832130502645575,-1.300255836980093,0.27438823092998216,2.1210615917623943,3,left
6.263,0.5398364859890268,0.6405011281346806,0.40921184956513623,-3.6115923161403045,6.906813552366945,-2.4569583612097956,-1.3043052608824186,0.25676224949408033,2.122924586064281,3,left
6.265,0.5432678225033529,0.6224987746302197,0.41224647848596635,-3.5925367014688705,6.87243987933762,-2.429474600285776,-1.3077816758367558,0.23903668556355678,2.1238199936462845,3,left
6.266,0.5465581262660535,0.6045737153317886,0.415105481316485,-3.5719710754140404,6.834672696745898,-2.4007750100551193,-1.310675449141492,0.22121839668294097,2.123738167968291,3,left
6.269,0.5497087823462432,0.586735136530027,0.417787593891267,-3.5499399299127594,6.793498369190719,-2.37087428097672,-1.3129774036158872,0.2033145411235158,2.1226701968238273,3,left
6.27,0.5527212089241186,0.5689921317225664,0.42029183685532584,-3.5264890594063485,6.748905929379328,-2.339788569785857,-1.3146788299877707,0.18533258582864687,2.1206079139799576,3,left
6.272,0.5555968469179537,0.5513536972269725,0.4226175162324528,-3.5016654246620376,6.700887136665491,-2.307535515066361,-1.3157714987935414,0.16728031238311442,2.1175439099050872,3,left
6.273,0.5583371504079762,0.5338287277304803,0.4247642229684527,-3.475517020363659,6.649436531761886,-2.274134249694603,-1.316247671797061,0.14916582095503098,2.1134715415815797,3,left
6.278,0.5609435778898386,0.5164260117658547,0.4267318314376986,-3.4480927465913265,6.594551487445703,-2.239605410026999,-1.3161001129323133,0.13099753215870377,2.1083849413972544,3,left
6.279,0.563417584385502,0.49915422710761825,0.4285204969154828,-3.4194422841188983,6.536232255119514,-2.203971141738409,-1.315322098772951,0.11278418678660036,2.1022790251069448,3,left
6.2829999999999995,0.5657606144354991,0.4820219360877435,0.43013065202902107,-3.389615973454215,6.474482007079576,-2.1672551022155164,-1.3139074285300807,0.0945348433583972,2.095149498852405,3,left
6.284,0.5679740959955265,0.4650375808345374,0.4315630022056698,-3.358664697543426,6.409306874333943,-2.1294824594060526,-1.3118504335778507,0.07625887343493751,2.0869928652259424,3,left
6.289,0.5700594352618339,0.44820947844129977,0.43281852014084615,-3.326639768057214,6.3407159798028045,-2.0906798870215466,-1.309145986504591,0.05796595464479602,2.077806428360228,3,left
6.29,0.572018012451342,0.43154581607294,0.43389843931475236,-3.2935928151733505,6.268721466723708,-2.050875555988175,-1.3057895096854293,0.03966606137104497,2.0675882980237925,3,left
6.292999999999999,0.5738511785598539,0.4150546460212345,0.4348042465989841,-3.2595756807667637,6.193338522074437,-2.010099122037264,-1.301776983370465,0.021369453045740287,2.0563373926987767,3,left
6.292999999999999,0.5755602531132816,0.39874388072394534,0.4355376740089383,-3.2246403149152436,6.11458539481654,-1.9683817093240334,-1.2971049532807184,0.003086659999598887,2.0440534416145297,3,left
6.297999999999999,0.5771465229141324,0.38262128776891285,0.43610068966878923,-3.188838675625959,6.032483408752715,-1.9257558899602971,-1.2917705377022086,-0.015171533185681646,2.030736985707714,3,left
6.3,0.5786112417715977,0.3666944849094249,0.4364954880594887,-3.1522226316851634,5.947056969781528,-1.8822556593440507,-1.2857714340666218,-0.03339410687499955,2.016389377476585,3,left
6.3020000000000005,0.5799556311910393,0.3509709351198694,0.43672447962138966,-3.1148438685308597,5.8583335673232915,-1.8379164071661716,-1.279105925005146,-0.05156982817981995,2.0010127796941584,3,left
6.303,0.581180881988412,0.3354579417215562,0.4367902797868243,-3.076753797045676,5.7663437696812805,-1.792774883971849,-1.2717728838601392,-0.06968727541296763,1.9846101629420227,3,left
6.307,0.5822881567863392,0.32016264360947944,0.4366956975239608,-3.0380034651648793,5.671121213092954,-1.7468691631518622,-1.2637717796373948,-0.087734865250566,1.967185301923573,3,left
6.308,0.5832785933403383,0.3050920106115913,0.43644372347870386,-2.9986434721922532,5.572702584216347,-1.7002385982364063,-1.2551026813798551,-0.10570088265331162,1.948742770512508,3,left
6.311,0.5841533086356853,0.2902528390121878,0.43603751780445776,-2.958723885714538,5.47112759578747,-1.652923775361869,-1.2457662619417051,-0.123573513599106,1.9292879354894727,3,left
6.312,0.5849134036867665,0.27565174727113806,0.43548039776970504,-2.9182941610032107,5.366438955175226,-1.6049664607787688,-1.2357638011398597,-0.14134088067886524,1.908826948916803,3,left
6.316,0.585559968963224,0.2612951719705084,0.4347758252295966,-2.8774030627906497,5.258682325551213,-1.5564095432669853,-1.225097188267012,-0.1589910815243591,1.8873667391339788,3,left
6.317,0.5860940903671865,0.24718936401541458,0.4339273940371549,-2.83609858930611,5.1479062793826955,-1.5072969713224496,-1.2137689239938239,-0.1765122296229887,1.864915000531372,3,left
6.317,0.5865168556945467,0.2333403851057526,0.43293881745355506,-2.794427898455467,5.034162243948105,-1.457673684977612,-1.2017821217675364,-0.1938924963294975,1.841480182577184,3,left
6.322,0.5868293615174242,0.2197541044890771,0.43181391560629745,-2.7524372360273697,4.917504438565617,-1.407585542116301,-1.189140508857705,-0.21112015247059923,1.8170714787474749,3,left
6.3229999999999995,0.5870327204126605,0.2064361960096736,0.4305566030466485,-2.7101718658072445,4.797989803216693,-1.3570792391419755,-1.175848427152526,-0.22818360835181056,1.7916988158284621,3,left
6.327000000000001,0.5871280684396502,0.19339213547755485,0.42917087646617397,-2.667676001479539,4.675677918237939,-1.306202225856916,-1.1619108337257338,-0.2450714517199835,1.7653728437372491,3,left
6.327999999999999,0.587116572754816,0.1806271983836183,0.42766080263621603,-2.624992740197677,4.550630914746273,-1.2550026144085664,-1.147333301146825,-0.26177248364826833,1.738104925826463,3,left
6.332000000000001,0.586999439244152,0.16814645798375535,0.4260305066328333,-2.582163997700404,4.422913375454213,-1.20352908215804,-1.1321220174964408,-0.27827575239250113,1.7099071295999326,3,left
6.332999999999999,0.586777920055915,0.15595478376948216,0.42428416040654315,-2.5392304448525307,4.292592225524028,-1.1518307683247293,-1.1162837860468744,-0.2945705852675067,1.6807922177638062,3,left
6.332999999999999,0.5864533209209307,0.14405684033589955,0.4224259717519905,-2.496231445589027,4.1597366134007405,-1.0999571644446957,-1.099826024565845,-0.3106466185912697,1.6507736395348007,3,left
6.337000000000001,0.5860270081612646,0.13245708664811262,0.4204601737254521,-2.453204996748332,4.024417783051549,-1.047957999602939,-1.0827567641998523,-0.32649382574436214,1.6198655221246072,3,left
6.337999999999999,0.5855004153093256,0.12115977569630854,0.4183910145485788,-2.41018767119369,3.8867089417232847,-0.9958831230608137,-1.0650846478916278,-0.3421025433914139,1.5880826623168363,3,left
6.341,0.5848750492781237,0.11016895452157201,0.41622274803101644,-2.3672145661284723,3.7466851288175254,-0.9437823878225813,-1.0468189282844247,-0.3574634959107881,1.5554405180503068,3,left
6.3420000000000005,0.5841524960308967,0.09948846459041755,0.4139596245448649,-2.324319258004012,3.604423089980618,-0.8917055377614951,-1.0279694650641251,-0.3725678180779648,1.5219551999199117,3,left
6.346,0.5833344257013702,0.08912194249323761,0.4116058825833102,-2.281533764505282,3.4600011578075196,-0.839702099263804,-1.008546721688421,-0.38740707604745267,1.4876434625037946,3,left
6.347,0.5824225971225554,0.07907282093897028,0.4091657409287527,-2.2388885135924976,3.313499139056418,-0.7878212774257503,-0.9885617614506161,-0.40197328667733834,1.452522695423101,3,left
6.351,0.581418861729371,0.06934433001635783,0.40664339144575257,-2.196412319475495,3.1649982079656236,-0.7361118566540683,-0.9680262428239209,-0.41625893523984453,1.4166109140381378,3,left
6.351,0.5803251668047957,0.05993949869110338,0.40404299250614034,-2.1541323653980324,3.0145808052580225,-0.684622105520697,-0.9469524140304701,-0.4302569915605096,1.3799267496824201,3,left
6.356,0.5791435580438469,0.05086115650598834,0.40136866304810576,-2.112074193109572,2.8623305424123924,-0.6333996857227715,-0.9253531067776748,-0.44396092462781817,1.342489439333747,3,left
6.357,0.5778761814184613,0.04211193544631877,0.3986244772653016,-2.0702616989025793,2.7083321107751677,-0.5824915649994499,-0.9032417291029434,-0.45736471571430487,1.3043188146191795,3,left
6.361000000000001,0.576525284338018,0.033694271927673776,0.3958144599138048,-2.0287171360939302,2.552671195080716,-0.5319439338577634,-0.8806322572662594,-0.4704628700493312,1.2654352900485821,3,left
6.362,0.5750932161106882,0.025610408859786316,0.3929425822148218,-1.987461123829661,2.3954343909429445,-0.48180212596044014,-0.8575392266285938,-0.48325042708288934,1.225859850369221,3,left
6.367000000000001,0.5735824277189167,0.017862397740029984,0.3900127583223036,-1.9465126620929907,2.236709125876012,-0.432110542029558,-0.8339777214526669,-0.49572296937892757,1.1856140369318091,3,left
6.367999999999999,0.5719954709292808,0.010452100731206932,0.38702884231921364,-1.9058891527963155,2.076583583397167,-0.38291257712091453,-0.8099633635611346,-0.5078766301758125,1.14471993295634,3,left
6.37,0.5703349967625566,0.0033811926810500673,0.3839946257031725,-1.8656064268386945,1.9151466297601996,-0.3342505511251644,-0.785512299785895,-0.5197080996506562,1.1032001475840731,3,left
6.371,0.5686037533536525,-0.0033488369543272626,0.380913835320492,-1.8256787770112355,1.7524877428637282,-0.2861656423530677,-0.7606411881408615,-0.5312146299233279,1.0610777986000945,3,left
6.377000000000001,0.5668045832347204,-0.009736682314184284,0.377790131708233,-1.7861189966337125,1.5886969428745004,-0.23869782406360865,-0.7353671826492499,-0.5423940388350585,1.0183764937090274,3,left
6.377999999999999,0.5649404200794241,-0.0157812194872505,0.3746271078079288,-1.7469384238067207,1.4238647241021496,-0.19188580379527825,-0.709707916755177,-0.5532447125356216,0.9751203102446688,3,left
6.381,0.5630142849513825,-0.021481505029510965,0.3714282880204468,-1.7081469911647,1.2580819876583167,-0.1457669653624734,-0.6836814852481546,-0.5637656069121384,0.9313337731925951,3,left
6.382000000000001,0.5610292821045717,-0.02683677464781884,0.3681971275755482,-1.6697532810162048,1.0914399744298084,-0.10037731338073329,-0.6573064246279166,-0.5739562478916224,0.8870418314031184,3,left
6.385,0.5589885943877677,-0.031846442041435385,0.3649370121907771,-1.631764585758886,0.9240301978924673,-0.055751420186414345,-0.6306016918359012,-0.5838167306484294,0.8422698318703828,3,left
6.386,0.5568954783068953,-0.03651009788781516,0.36165125799507514,-1.594186973457766,0.7559443762897023,-0.011922375018395036,-0.6035866413246834,-0.593347717740056,0.7970434920231719,3,left
6.386,0.5547532587950714,-0.04082750895871762,0.35834311169458205,-1.5570253584765288,0.5872743636971566,0.031078264668508,-0.5762810006657313,-0.602550436159865,0.7513888703280535,3,left
6.388999999999999,0.5525653237317485,-0.044798617356060784,0.3550157509588709,-1.520283577052706,0.4181120794927878,0.07322051988653921,-0.5487048453090798,-0.6114266732333326,0.7053323361458315,3,left
6.39,0.5503351182487815,-0.0484235398584752,0.35167228500281167,-1.4839644677088182,0.2485494357496925,0.11447603492026019,-0.520878573337707,-0.6199787712495516,0.6589005401374824,3,left
6.395,0.5480661388672992,-0.051702567365240856,0.3483157553348941,-1.4480699563927277,0.07867826206732914,0.15481812037752712,-0.4928228808284799,-0.6282096207526978,0.6121203861580103,3,left
6.396,0.5457619275169849,-0.0546361644159609,0.34494913664263976,-1.4126011462416534,-0.0914097726446209,0.19422179460719222,-0.464558738016599,-0.6361226524782687,0.5650190049337822,3,left
6.4,0.5434260654892515,-0.05722496875680528,0.34157533779049426,-1.3775584117235882,-0.26162324171238666,0.23266382352910098,-0.43610736622966767,-0.6437218279518861,0.5176237294613186,3,left
6.401,0.5410621673668311,-0.059469790921813204,0.3381972029110224,-1.3429414962013884,-0.43187104483636213,0.2701227585549041,-0.40749021551083364,-0.6510116287743158,0.46996207199321105,3,left
6.402,0.538673874959386,-0.061371613801060265,0.3348175125733212,-1.3087496106886138,-0.602062492245729,0.30657897161952974,-0.3787289428498545,-0.657997044615444,0.4220617024759146,3,left
6.405,0.5362648512652134,-0.06293159217007908,0.33143898501251473,-1.2749815308577397,-0.772107385272663,0.3420146859759722,-0.34984539094039857,-0.664683559939051,0.37395042830332176,3,left
6.406000000000001,0.5338387744764715,-0.06415105215146126,0.3280642774008027,-1.2416356900722596,-0.9419160907708302,0.37641400176766343,-0.32086156738141997,-0.6710771394793357,0.3256561752492568,3,left
6.4110000000000005,0.5313993320457949,-0.06503149057432356,0.3246959871355916,-1.2087102674928412,-1.111399608641226,0.4097629160457997,-0.29179962424002953,-0.6771842124892663,0.27720696944134676,3,left
6.412000000000001,0.5289502148325304,-0.06557457419647901,0.321336653116556,-1.1762032710185895,-1.2804696327493774,0.4420493372604984,-0.26268183789293653,-0.6830116557799846,0.22863092023811776,3,left
6.414,0.5264951113485777,-0.06578213875769101,0.31798875698213197,-1.1441126149676186,-1.449038605721531,0.4732630943245756,-0.23353058906324395,-0.688566775569638,0.17995620387064046,3,left
6.415,0.5240377021272596,-0.0656561878376995,0.3146547242763148,-1.1124361924023434,-1.61701976810652,0.5033959403457212,-0.20436834296915957,-0.693857288159203,0.1312110477096037,3,left
6.421,0.521581654240991,-0.06519889149831476,0.31133692551792647,-1.081171942006102,-1.784327202388814,0.5324415511197993,-0.17521762950102257,-0.6988912994520551,0.08242371501833115,3,left
6.422000000000001,0.5191306159917515,-0.06441258469424502,0.3080376771467932,-1.0503179094189152,-1.9508758723368163,0.5603955184749253,-0.1461010233429507,-0.7036772833332593,0.03362249005197181,3,left
6.4239999999999995,0.5166882117915701,-0.06329976544291946,0.30475924232567075,-1.0198723029413843,-2.1165816581687915,0.58725533855287,-0.11704112395538116,-0.7082240589237978,-0.015164336637106288,3,left
6.425,0.514258037240231,-0.06186309275026071,0.3015038315848314,-0.989833543516905,-2.2813613880168697,0.6130203951112208,-0.08806053533481137,-0.7125407667242142,-0.06390848282781127,3,left
6.428999999999999,0.5118436543966225,-0.060105384297074876,0.2982736033082155,-0.9602003089035613,-2.445132866167392,0.6376919379265986,-0.059181845467144285,-0.716636843661442,-0.11258168933284352,3,left
6.43,0.5094485872301221,-0.05802961389864567,0.29507066407366156,-0.9309715719482322,-2.607814898553454,0.6612730563760928,-0.0304276053912055,-0.720521997051899,-0.1611557349153233,3,left
6.434,0.5070763172308252,-0.055638908758107994,0.29189706887115524,-0.9021466328766147,-2.769327315972833,0.6837686482709288,-0.0018203077892271365,-0.7242061774932684,-0.20960245155949808,3,left
6.436,0.5047302791536441,-0.052936546542411325,0.28875482122935403,-0.8737251455140341,-2.9295909955015924,0.7051853840132537,0.026617634978613355,-0.7276995506967547,-0.2578937402352936,3,left
6.439,0.5024138568709282,-0.049925952316979695,0.2856458732816643,-0.8457071373530737,-3.0885278805705445,0.7255316661437904,0.05486391347815461,-0.7310124682709968,-0.30600158729618865,3,left
6.44,0.5001303793101249,-0.046610695379607436,0.28257212580112784,-0.8180930233852143,-3.246061000168373,0.744817584344999,0.08289634452584568,-0.7341554374682429,-0.35389808164952746,3,left
6.444,0.4978831164565813,-0.04299448603496327,0.2795354282308375,-0.7908836136148392,-3.402114487631646,0.7630548659612879,0.1106928953156199,-0.7371390899028472,-0.40155543283793704,3,left
6.445,0.4956752754069765,-0.03908117234881184,0.276537578734549,-0.7640801141751158,-3.556613599478131,0.7802568220947461,0.13823170842914462,-0.739974149251626,-0.44894599016999104,3,left
6.449,0.4935099964663792,-0.03487473691682976,0.2735803242899698,-0.7376841219664273,-3.7094847347358173,0.7964382893318264,0.16549112780992883,-0.7426713979451257,-0.49604226303765336,3,left
6.449,0.49139034929141673,-0.03037929367824467,0.2706653608438634,-0.7116976127391924,-3.8606554552157553,0.8116155671533962,0.19244972578109407,-0.7452416428583973,-0.5428169425573495,3,left
6.454,0.4893193290921221,-0.02559908479986199,0.2677943335424341,-0.6861229225440777,-4.010054507172418,0.8258063510776072,0.21908633118587315,-0.7476956800094446,-0.589242924670746,3,left
6.455,0.4872998529125725,-0.020538477649725998,0.2649688370419234,-0.660962722473777,-4.157611844790572,0.839029661582102,0.2453800586781405,-0.7500442583145354,-0.6352933347763463,3,left
6.455,0.48533475601192994,-0.015201961870779282,0.2621904158958853,-0.6362199866217103,-4.3032586559327735,0.851305768849198,0.27131033893461526,-0.7522980426562822,-0.6809415536414379,3,left
6.457999999999999,0.4834267883635246,-0.009594146555785353,0.2594605650118386,-0.6118979531841806,-4.446927390576536,0.8626561133748544,0.2968569491008186,-0.7544675768928166,-0.726161243765766,3,left
6.459,0.4815786112860758,-0.0037197575189780005,0.25678073017058434,-0.5880000786337144,-4.588551792364906,0.8731032224794535,0.3220000425270836,-0.7565632476431619,-0.7709263750465787,3,left
6.462999999999999,0.4797927942217388,0.0024163653419371958,0.25415230860167654,-0.5645299848925149,-4.728066933688696,0.8826706227557081,0.3467201771046702,-0.7585952494765512,-0.8152112489141841,3,left
6.4639999999999995,0.47807181167761814,0.008809270599864708,0.25157664960651216,-0.5414913994361635,-4.865409254712982,0.8913827484863497,0.3709983419695748,-0.7605735517604502,-0.8589905206830906,3,left
6.468,0.47641804034744345,0.015453897774944698,0.24905505521892954,-0.5188880884519337,-5.000516606578009,0.8992648461834701,0.39481598259526146,-0.7625078672147381,-0.902239220183145,3,left
6.468999999999999,0.4748337564280546,0.02234507974093906,0.24658878089403502,-0.49672378414234514,-5.133328298115976,0.9063428760079023,0.41815502434528823,-0.76440762217791,-0.9449327707978314,3,left
6.47,0.473321133142235,0.029477545070548273,0.24417903621797374,-0.4750021090028911,-5.263785143830094,0.9126434119208485,0.4409978945555342,-0.766281928591002,-0.9870470070354452,3,left
6.473,0.47188223847742167,0.03684592033071052,0.2418269856327678,-0.45372650086916105,-5.39182950999324,0.9181935430266225,0.46332754321440833,-0.7681395577048167,-1.0285581907573291,3,left
6.474,0.4705190331497722,0.04444473233911734,0.23953374917054437,-0.4329001415648034,-5.517405356599594,0.9230207779540238,0.48512746230805137,-0.7699889155159291,-1.0694430261857681,3,left
6.477,0.46923336880169936,0.0522684103930247,0.23730040319014853,-0.4125258902459784,-5.640458274484714,0.92715295302535,0.5063817038961133,-0.7718380199368707,-1.1096786738124735,3,left
6.479,0.4680269864343674,0.060311288483570175,0.2351279811063656,-0.39260622157419633,-5.760935517805215,0.9306181443508604,0.5270748969822189,-0.7736944797058519,-1.149242763326857,3,left
6.483,0.4669015150646999,0.06856760751399774,0.23301747409852838,-0.37314316865771924,-5.878786032238687,0.9334445838626191,0.5471922632417138,-0.7755654750413481,-1.188113405681498,3,left
6.484,0.4658584705829188,0.07703151754777236,0.23096983178189825,-0.35413827070300025,-5.9939604792572485,0.9356605792996449,0.5667196316677133,-0.777457740046881,-1.226269204410341,3,left
6.4879999999999995,0.4648992547760699,0.08569708012071925,0.22898596282259948,-0.3355925253189423,-6.106411256820697,0.9372944381543875,0.5856434521948696,-0.7793775468713435,-1.2636892663132333,3,left
6.489,0.4640251544776094,0.09455827065737986,0.22706673547539996,-0.31750634541806694,-6.216092516827732,0.9383743955887093,0.6039508083586176,-0.7813306916302551,-1.3003532116184227,3,left
6.492999999999999,0.4632373408031491,0.10360898103434409,0.22521297802217288,-0.2998795206599993,-6.322960179656009,0.9389285463257977,0.6216294290459694,-0.7833224820933994,-1.33624118373258,3,left
6.492999999999999,0.46253686843797903,0.11284302233282381,0.22342547908627908,-0.28271118338399276,-6.426971946113942,0.9389847805227659,0.6386676993921896,-0.7853577271443709,-1.371333858685801,3,left
6.497999999999999,0.4619246749524313,0.1222541278198299,0.22170498779576328,-0.2659997789785369,-6.528087307119271,0.9385707236271016,0.6550546708759194,-0.7874407280176536,-1.4056124543768727,3,left
6.499,0.4614015801341161,0.13183595619157026,0.22005221376959044,-0.24974304063740888,-6.6262675514112965,0.9377136802186179,0.67078007066351,-0.7895752713189622,-1.4390587397218548,3,left
6.502999999999999,0.46096828533915324,0.1415820951031764,0.21846782690831382,-0.23393796845284517,-6.721475771595494,0.9364405818371265,0.6858343102514872,-0.7917646238347045,-1.471655043806753,3,left
6.505,0.4606253728773805,0.15148606499585482,0.2169524569823712,-0.21858081279782135,-6.813676868810892,0.9347779387947037,0.7002084934542019,-0.794011529136554,-1.5033842651427112,3,left
6.507999999999999,0.46037330545919214,0.1615413232171329,0.21550669302480266,-0.20366706195073198,-6.902837556302197,0.9327517959701427,0.7138944237818188,-0.7963182059872741,-1.5342298811197757,3,left
6.507999999999999,0.4602124257424557,0.17174126841294754,0.2141310825490395,-0.189191433917059,-6.988926362170089,0.9303876925819942,0.7268846112518732,-0.7986863485540879,-1.5641759577528282,3,left
6.5120000000000005,0.46014295602477134,0.18207924515377497,0.21282613062568656,-0.17514787240390195,-7.07191363156448,0.9277106259354747,0.7391722786756704,-0.8011171284360543,-1.593207159810804,3,left
6.513,0.4601649981285702,0.19254854874370828,0.21159229886279385,-0.16152954690451513,-7.15177152857681,0.9247450191374763,0.7507513674588268,-0.8036111985120791,-1.6213087614177704,3,left
6.517,0.46027853352501713,0.20314243015302955,0.21043000434010542,-0.148328856851254,-7.228474038078622,0.9215146927729397,0.7616165429532568,-0.8061686986163672,-1.648466657211864,3,left
6.517,0.4604834237383794,0.2138541010109916,0.2093396185488646,-0.13553743979657287,-7.301996967744764,0.918042840534955,0.7717631993958912,-0.8087892630483016,-1.674667374145449,3,left
6.521,0.4607794110655321,0.22467673859634568,0.20832146638450577,-0.12314618358293576,-7.37231795049057,0.9143520088001199,0.7811874644546759,-0.8114720298998981,-1.6998980839716862,3,left
6.523,0.46116611963556847,0.23560349077160736,0.20737582522985884,-0.11114524246370017,-7.4394164475433024,0.9104640801399274,0.7898862033368361,-0.8142156520640973,-1.7241466162824457,3,left
6.523,0.4616430568239512,0.24662748082255714,0.20650292415469945,-0.0995240571382079,-7.5032737523590285,0.9064002607582547,0.7978570222980058,-0.8170183095712064,-1.7474014716401551,3,left
6.526,0.4622096150268429,0.25774181217647674,0.2057029432491397,-0.08827137866546497,-7.563872995586905,0.9021810718444019,0.8050982713252279,-0.8198777227809092,-1.7696518341658467,3,left
6.527,0.46286507379401504,0.26893957297366405,0.20497601310438726,-0.07737529622191226,-7.62119915127358,0.897826344830553,0.8116090458282709,-0.8227911660775097,-1.7908875831203905,3,left
6.532,0.46360860231058576,0.28021384046461834,0.2043222144498841,-0.06682326866987807,-7.675239044491117,0.8933552205420324,0.8173891872859338,-0.8257554819323679,-1.8110993033326401,3,left
6.5329999999999995,0.46443926220801207,0.29155768520914455,0.20374157794765066,-0.05660215990436128,-7.7259813605625025,0.8887861522282766,0.8224392828554414,-0.8287670953177233,-1.8302782945028755,3,left
6.5360000000000005,0.46535601067613996,0.3029641750626066,0.20323408413535574,-0.04669827787664974,-7.7734166559766695,0.8841369124005605,0.8267606639636301,-0.8318220284802682,-1.8484165794425316,3,left
6.537000000000001,0.4663577038449832,0.3144263789455058,0.20279966350322587,-0.03709741684343357,-7.8175373707118885,0.8794246030947042,0.8303554038965321,-0.8349159160829809,-1.8655069113082512,3,left
6.537000000000001,0.4674431004071716,0.32593737040406334,0.20243819668681876,-0.027784901759523334,-7.858337841022414,0.8746656686232575,0.8332263144018681,-0.838044020723858,-1.8815427798853472,3,left
6.541,0.46861086545305186,0.3374902309782481,0.20214951475344275,-0.018745633382361272,-7.895814311370133,0.8698759095739538,0.8353769413168672,-0.8412012488403167,-1.89651841697276,3,left
6.542000000000001,0.46985957448635796,0.3490780533974415,0.20193339955093187,-0.009964133008215182,-7.929964944537071,0.8650704971185167,0.8368115592317451,-0.8443821670081405,-1.9104288009185952,3,left
6.546,0.47118771758448375,0.36069394462546406,0.20178958407632053,-0.00142458639227118,-7.960789829599617,0.8602639872492102,0.8375351651970985,-0.847581018643947,-1.9232696603522963,3,left
6.547000000000001,0.4725937036685156,0.37233102877903707,0.20171775281380488,0.006889113243542013,-7.988290987799387,0.8554703348679168,0.8375534714814008,-0.8507917411202343,-1.9350374771564585,3,left
6.551,0.47407586485195696,0.38398244994557157,0.20171754198847058,0.014993323140258186,-8.012472376408834,0.8507029077139674,0.8368728973827325,-0.8540079833021325,-1.9457294887182384,3,left
6.551,0.4756324608407728,0.3956413749252295,0.20178853968535143,0.022904609893674696,-8.033339890680164,0.8459745001169452,0.8355005600968364,-0.8572231235150358,-1.9553436894972414,3,left
6.556,0.4772616833620345,0.40730099591896785,0.20193028579267572,0.030639709332167697,-8.050901363956575,0.8412973465607224,0.8334442646415647,-0.8604302879523251,-1.9638788319436846,3,left
6.557,0.47896166060509815,0.41895453318068,0.20214227174151836,0.03821548740383852,-8.065166566015282,0.8366831350450611,0.8307124928357776,-0.863622369532407,-1.9713344267975457,3,left
6.561,0.48073046166672195,0.43059523764877794,0.20242394002751843,0.045648902095754174,-8.076147199702314,0.832143020231221,0.8273143913287684,-0.8667920472142899,-1.9777107427963152,3,left
6.562,0.48256610099837177,0.4422163935702683,0.2027746835111499,0.05295696640753925,-8.08385689590952,0.8276876363581641,0.8232597586743253,-0.8699318057808961,-1.9830088058158728,3,left
6.567,0.48446654286028407,0.45381132112784833,0.203193844501323,0.060156712401118806,-8.088311206934835,0.8233271099161247,0.818559031441604,-0.8730339560992625,-1.9872303974659007,3,left
6.568,0.48642970579318534,0.4653733790779516,0.20368071363452553,0.06726515634800327,-8.089527598257344,0.8190710720645237,0.8132232693530675,-0.8760906558667214,-1.9903780531581583,3,left
6.57,0.4884534671244367,0.476895967405824,0.20423452856976182,0.07429926499514601,-8.087525438749344,0.8149286707814511,0.8072641394378705,-0.8790939308520633,-1.9924550596628399,3,left
6.571000000000001,0.4905356675294057,0.4883725300030221,0.20485447252728042,0.08127592297009331,-8.082325989338207,0.8109085827322113,0.8006938991872053,-0.882035696640576,-1.993465452165147,3,left
6.5760000000000005,0.49267411566985014,0.49979655737258005,0.20553967270292048,0.08821190134588378,-8.073952390121637,0.8070190248447225,0.793525378696309,-0.8849077808917256,-1.9934140108311305,3,left
6.577000000000001,0.49486659292993984,0.5111615893667606,0.20628919858814157,0.09512382738594073,-8.062429645930557,0.8032677655798927,0.7857719617760377,-0.8877019461180881,-1.9923062568887708,3,left
6.582000000000001,0.49711085826912144,0.5224612179622473,0.20710206022183633,0.10202815548903592,-8.047784610324776,0.7996621358854353,0.7774475660151612,-0.8904099129939659,-1.9901484482272138,3,left
6.582000000000001,0.49940465320843336,0.5336890900786719,0.20797720639819575,0.10894113935428532,-8.030045967997411,0.7962090398219741,0.768566621772814,-0.8930233842019213,-1.9869475745140226,3,left
6.587000000000001,0.5017457069614998,0.5448389104481062,0.20891352285551323,0.11587880538606889,-8.00924421555505,0.7929149648506719,0.7591440500788592,-0.8955340688252367,-1.9827113518272834,3,left
6.587999999999999,0.504131741714834,0.5559044445444715,0.209909830472046,0.1228569273587432,-7.985411640631613,0.7897859917720422,0.7491952394182817,-0.8979337072940623,-1.977448216796372,3,left
6.59,0.5065604780552695,0.5668795215831087,0.21096488349696751,0.12989100236104112,-7.9585822992850375,0.7868278043060383,0.7387360213741302,-0.9002140968927428,-1.9711673202422113,3,left
6.591,0.5090296405340107,0.5777580376034747,0.21207736784774475,0.13699622804012204,-7.928791991617101,0.7840456983039682,0.7277826451322873,-0.9023671178078922,-1.9638785203157156,3,left
6.5920000000000005,0.5115369633491386,0.5885339586522386,0.21324589950751136,0.14418748116535268,-7.896078235547978,0.7814445905832599,0.7163517510013884,-0.9043847595583571,-1.9555923751844462,3,left
6.595,0.5140801961252197,0.599201324088432,0.21446902305452864,0.15147929753205822,-7.860480238668544,0.7790290273765907,0.7044603433725567,-0.9062591473992504,-1.946320135412259,3,left
6.595,0.5166571097658211,0.6097542500350489,0.21574521035418653,0.15888585322568685,-7.822038868084931,0.7768031923873995,0.6921257636937632,-0.9079825681537657,-1.936073736228098,3,left
6.6,0.5192655023449366,0.6201869330025822,0.21707285944734972,0.1664209472670781,-7.780796618161421,0.7747709144443158,0.6793656638806832,-0.9095474950642013,-1.9248657898229597,3,left
6.601,0.521903204989034,0.6304936537112137,0.2184502936749621,0.17409798565981266,-7.73679757605953,0.7729356747475807,0.6661979803118004,-0.9109466115018244,-1.9127095777135388,3,left
6.605,0.524568087691722,0.6406687811401023,0.21987576108151075,0.18192996685039758,-7.690087385032194,0.7713006137058102,0.6526409084026739,-0.9121728335128865,-1.8996190431539979,3,left
6.606,0.5272580650033503,0.6507067768329302,0.22134743413671082,0.18992946855964546,-7.640713205770368,0.7698685373857107,0.6387128777227482,-0.9132193312052698,-1.8856087835636965,3,left
6.607,0.5299711015456999,0.6606021994886436,0.22286340980840982,0.19810863584903743,-7.5887236767148805,0.7686419236405829,0.6244325276169206,-0.9140795489797702,-1.8706940429359853,3,left
6.609,0.5327052173066621,0.6703497098662466,0.22442171001648226,0.20647917023354015,-7.534168874585028,0.767622928007722,0.6098186832929591,-0.9147472246095217,-1.8548907041904914,3,left
6.61,0.5354584926642518,0.6799440760320736,0.22602028249981695,0.21505231970559108,-7.477100276021322,0.7668133894417055,0.5948903323347986,-0.9152164071705575,-1.8382152814286798,3,left
6.614,0.538229073080472,0.6893801789764795,0.22765700213079976,0.22383886963045727,-7.417570720608854,0.7662148359084903,0.5796666016007336,-0.9154814738259638,-1.8206849120498796,3,left
6.615,0.541015173402579,0.6986530186249537,0.2293296727084439,0.2328491345264855,-7.355634375193899,0.7658284898421356,0.5641667344645657,-0.9155371454655331,-1.8023173486824116,3,left
6.621,0.5438150817119022,0.7077577202671949,0.23103602925271027,0.2420929507548948,-7.291346699329956,0.7656552734618294,0.5484100683568617,-0.9153785012022504,-1.7831309508819522,3,left
6.622000000000001,0.5466271626658182,0.7166895414273345,0.232773740811044,0.25157967014437554,-7.224764411682311,0.7656958139475019,0.5324160125626312,-0.9150009917263634,-1.7631446765468082,3,left
6.624,0.5494498602865105,0.7254438791994853,0.23454041377686874,0.26131815457640023,-7.155945457213351,0.7659504484729169,0.5162040262309374,-0.9144004515171875,-1.7423780729973801,3,left
6.625,0.5522817001596629,0.7340162780749586,0.23633359571094878,0.2713167715578207,-7.084948974964011,0.7664192290957468,0.49979359655121847,-0.913573109912177,-1.720851267664733,3,left
6.63,0.5551212910163208,0.7424024382904986,0.2381507796485356,0.2815833908080245,-7.011835266240267,0.7671019275047459,0.48320421705041466,-0.9125156010321728,-1.6985849583309078,3,left
6.63,0.5579673256828778,0.750598224729478,0.23998940886684084,0.29212538188864423,-6.936665763007065,0.7679980396247564,0.46645536596437104,-0.9112249725610898,-1.6756004028613551,3,left
6.6339999999999995,0.560818581397926,0.7585996764086448,0.2418468820826027,0.30294961290455935,-6.859502996285868,0.7691067900808908,0.44956648463641347,-0.909698693377663,-1.651919408367696,3,left
6.636,0.5636739195089799,0.7664030165812495,0.24372055905216608,0.3140624503057011,-6.780410564345933,0.7704271365238523,0.43255695589548504,-0.9079346600362059,-1.627564319736891,3,left
6.638999999999999,0.5665322845757602,0.774004663483192,0.24560776655429303,0.3254697598199584,-6.699453100473503,0.771957773818966,0.4154460823657678,-0.9059312020926685,-1.6025580074608374,3,left
6.638999999999999,0.5693927029202276,0.781401241741628,0.2475058047434513,0.33717690854829346,-6.616696240097361,0.7736971381021023,0.3982530646593165,-0.9036870862716061,-1.5769238546984106,3,left
6.644,0.572254280678305,0.7885895944545048,0.2494119538625163,0.3491887682540056,-6.532206587043707,0.7756434107062841,0.38099697940287924,-0.9012015194689876,-1.5506857435000354,3,left
6.645,0.5751162014270124,0.7955667959337085,0.2513234812883698,0.3615097198789233,-6.4460516786879225,0.7777945219633711,0.3636967570497941,-0.8984741505850863,-1.5238680401230003,3,left
6.65,0.5779777234866054,0.8023301650825096,0.25323764884228667,0.3741436593201672,-6.3582999497656045,0.7801481548858138,0.34637115942761015,-0.8955050711810024,-1.4964955793639263,3,left
6.65,0.580838177028561,0.808877279347872,0.2551517202370155,0.3870940045020004,-6.269020694600325,0.782701748734065,0.329038756971903,-0.8922948149516792,-1.4685936478330677,3,left
6.654,0.5836969611464388,0.8152059891480719,0.25706296848215604,0.4003637037781688,-6.178284027500752,0.7854525024758208,0.3117179055966245,-0.8888443560075738,-1.4401879660934571,3,left
6.655,0.5865535410545173,0.821314432625707,0.2589686830559124,0.41395524570103354,-6.08616084107519,0.7883973781438502,0.294426723151256,-0.8851551059564593,-1.411304669586317,3,left
6.6579999999999995,0.5894074455652588,0.8272010505242405,0.2608661766782485,0.4278706701947044,-5.992722762207235,0.7915331040997408,0.27718306545151944,-0.8812289097838771,-1.38197028829308,3,left
6.659,0.5922582649677944,0.8328646009569746,0.2627527915657156,0.44211158117029953,-5.898042105431994,0.7948561782114563,0.26000450205296344,-0.8770680405687902,-1.3522117252351247,3,left
6.66,0.5951056493927402,0.8383041738361569,0.26462590507462996,0.456679160622381,-5.802191823448433,0.79836287095316,0.2429082922653832,-0.8726751931399849,-1.3220562341849378,3,left
6.666,0.5979493077074515,0.8435192047037221,0.2664829346095855,0.4715741842465456,-5.705245454499539,0.8020492284363038,0.2259113620886977,-0.8680534768168073,-1.2915313971133326,3,left
6.667000000000001,0.6007890069376818,0.8485094876047256,0.2683213415784582,0.48679703861908297,-5.607277066348488,0.8059110753815201,0.2090302825685652,-0.863206407338429,-1.260665101743925,3,left
6.669,0.6036245721477153,0.8532751865058303,0.2701386340606631,0.5023477399805514,-5.508361196575609,0.8099440180413852,0.19228124974169775,-0.858137898015488,-1.2294855193109477,3,left
6.67,0.6064558866276613,0.8578168446578143,0.27193236781945146,0.5182259546660624,-5.408572788917814,0.8141434470846317,0.17568006615858772,-0.8528522500985785,-1.1980210824632165,3,left
6.672999999999999,0.609282892147835,0.8621353912741497,0.27370014540183213,0.5344310211758803,-5.30798712550792,0.8185045404590543,0.15924212393518758,-0.8473541423496727,-1.1663004632256353,3,left
6.672999999999999,0.6121055889806123,0.8662321449676835,0.27543961328899413,0.5509619736302599,-5.2066797555620825,0.8230222662816349,0.1429823892854611,-0.8416486198019244,-1.1343525509287362,3,left
6.6739999999999995,0.6149240353689758,0.8701088135485634,0.2771484572898836,0.5678175659022654,-5.104726422309389,0.8276913858603168,0.12691538848714812,-0.835741081692679,-1.1022064300159236,3,left
6.678,0.6177383460743282,0.8737674899907968,0.2788243966080693,0.5849962954726267,-5.0022029906489065,0.8325064569831139,0.11105519523355346,-0.8296372685539071,-1.069891357637359,3,left
6.678999999999999,0.6205486895177503,0.8772106445899188,0.28046517729026016,0.6024964263022478,-4.899185377323858,0.8374618375798993,0.09541541932468144,-0.8233432484436818,-1.0374367409387752,3,left
6.683,0.6233552829195799,0.8804411135640013,0.28206856599219293,0.620316010470039,-4.79574948415243,0.842551689807223,0.08000919665158995,-0.816865402301744,-1.0048721139529315,3,left
6.684,0.6261583848645264,0.8834620845636533,0.28363234503777435,0.6384529085752935,-4.691971134159568,0.8477699845761385,0.0648491804284316,-0.8102104084116307,-0.9722271140009425,3,left
6.69,0.6289582849039663,0.8862770796923695,0.28515430958648064,0.6569048089548765,-4.587926010313965,0.8531105065372623,0.049947533627280855,-0.8033852259513017,-0.9395314575103118,3,left
6.691,0.6317552900942477,0.8888899366825211,0.2866322674495338,0.6756692457664153,-4.483689596573277,0.8585668595376736,0.035315922571516854,-0.7963970776136676,-0.9068149151561816,3,left
6.692,0.6345497086704864,0.8913047888573424,0.2880640417988204,0.694743615989586,-4.379337120939585,0.8641324725646324,0.020965511644237284,-0.7892534312779179,-0.8741072862320862,3,left
6.693,0.637341831291472,0.8935260444658316,0.2894474767546464,0.7141251953985,-4.274943500226391,0.8698006061914432,0.006906959068919872,-0.7819619807120568,-0.8414383721563442,3,left
6.6979999999999995,0.6401319104245407,0.8955583659208666,0.2907804456471387,0.7338111535590889,-4.170583286237854,0.875564359541126,-0.006849586279677005,-0.7745306252865889,-0.808837949020169,3,left
6.699,0.6429201384764641,0.8974066494086077,0.29206086162085343,0.7537985679062791,-4.066330613060648,0.8814166777838673,-0.020294487075576618,-0.7669674486788483,-0.7763357390836008,3,left
6.704,0.6457066252496523,0.8990760052722561,0.29328669017699033,0.7740844369566261,-3.9622591451687263,0.8873503601845208,-0.0334186187929737,-0.7592806965470413,-0.7439613811254764,3,left
6.705,0.648491375247136,0.90057173950646,0.29445596320412853,0.7946656927129571,-3.858442026041321,0.8933580687166991,-0.04621337004844989,-0.7514787531526743,-0.7117443995538477,3,left
6.707000000000001,0.6512742652934166,0.9018993366297675,0.2955667940214156,0.8155392123184312,-3.754951826994879,0.8994323372602535,-0.05867064207261881,-0.7435701169096539,-0.6797141721835419,3,left
6.707999999999999,0.6540550229020621,0.9030644441262142,0.29661739293697414,0.8367018290182885,-3.6518604959301024,0.9055655813991721,-0.07078284734888425,-0.735563374838,-0.647899896587926,3,left
6.712000000000001,0.6568332058141949,0.9040728585531055,0.2976060828042424,0.858150342488406,-3.549239305696017,0.9117501088371383,-0.08254290745605003,-0.7274671758997722,-0.6163305549323858,3,left
6.712999999999999,0.6596081831500094,0.9049305132941111,0.2985313140456244,0.879881528590617,-3.4471588017739254,0.9179781304481834,-0.09394425015055152,-0.7192902031945125,-0.5850348771975694,3,left
6.7170000000000005,0.6623791186409698,0.9056434678049109,0.29939167862246807,0.901892148615579,-3.345688748985239,0.924241771980036,-0.1049808057230889,-0.7110411449912206,-0.5540413027010634,3,left
6.7170000000000005,0.6651449564171411,0.9062178980765295,0.3001859224771371,0.9241789580748042,-3.244898076928546,0.9305330864279168,-0.11564700266343125,-0.70272866457362,-0.5233779398268733,3,left
6.722,0.6679044097853825,0.9066600879471528,0.3009129560541261,0.9467387151042704,-3.1448548238528042,0.936844067096656,-0.12593776266613158,-0.694361368875247,-0.4930725238728651,3,left
6.723,0.6706559533359041,0.9069764208271069,0.30157186260691693,0.9695681885428354,-3.045626078675323,0.9431666613691068,-0.13584849500884574,-0.6859477758806816,-0.4631523729271928,3,left
6.727,0.6733978185605736,0.9071733713562709,0.30216190410334587,0.9926641657494737,-2.9472779208551274,0.9494927851989124,-0.14537509033388563,-0.6774962807690597,-0.43364434168568317,3,left
6.728,0.6761279929813883,0.9072574964938038,0.30268252464955997,1.0160234602241356,-2.849875357834454,0.9558143383457405,-0.1545139138643457,-0.6690151208422438,-0.4045747732129729,3,left
6.729,0.6788442226270968,0.9072354255726558,0.3031333514485257,1.039642919097806,-2.7534822597634663,0.9621232203711271,-0.16326179809398392,-0.6605123396118777,-0.37596944910027624,3,left
6.733,0.6815440175995756,0.9071138489400137,0.30351419338165736,1.0635194305581033,-2.658161291225795,0.9684113474130908,-0.17161603500501346,-0.6519957510170036,-0.34785353928200013,3,left
6.734,0.6842246603968462,0.9068995048988083,0.3038250373696983,1.087649931277516,-2.5639738396852327,0.9746706697576543,-0.17957436787578193,-0.6434729050758161,-0.3202515532236622,3,left
6.736000000000001,0.6868832165534596,0.9065991647352087,0.3040660427560203,1.1120314139121268,-2.4709799403768087,0.9808931902253843,-0.18713498273025933,-0.6349510559430854,-0.29318729374591984,3,left
6.737,0.6895165470641401,0.9062196157127193,0.3042375340454377,1.1366609347394026,-2.3792381973685424,0.9870709833909944,-0.19429649946404876,-0.6264371327471755,-0.2666838139427664,3,left
6.742000000000001,0.692121322045461,0.9057676420750759,0.3043399923883083,1.16153562150437,-2.288805700523426,0.9931962156539741,-0.20105796267156403,-0.617937713248585,-0.2407633772044477,3,left
6.742000000000001,0.6946940351666229,0.9052500042908967,0.3043740462092637,1.1866526815442058,-2.199737938094621,0.9992611661781059,-0.20741883219609153,-0.6094590002955459,-0.21544742026739966,3,left
6.742999999999999,0.6972310185048762,0.9046734169264177,0.30434046134511966,1.2120094102000343,-2.1120887048844685,1.0052582486817379,-0.21337897342330675,-0.6010068010522339,-0.19075651921511858,3,left
6.746,0.6997284576161393,0.9040445255942603,0.3042401309826272,1.2376031992156133,-2.0259100068718343,1.0111800338812336,-0.2189386473376686,-0.59258650897519,-0.16671035835554704,3,left
6.747000000000001,0.7021824067250089,0.9033698833970608,0.3040740655914033,1.2634315442656399,-1.9412519649624882,1.0170192720671083,-0.224098500359964,-0.5842030885136057,-0.14332770190229374,3,left
6.752000000000001,0.7045888040117215,0.9026559272522212,0.3038433829627566,1.2894920504472853,-1.858162721491461,1.02276891511287,-0.2288595539831256,-0.575861062509205,-0.12062636838879966,3,left
6.752000000000001,0.7069434870079524,0.9019089545174277,0.3035492984069179,1.3157824348790625,-1.776688352140371,1.028422137395662,-0.23322319422229507,-0.5675645022715439,-0.09862320774641227,3,left
6.756,0.7092422081202973,0.9011351003900308,0.3031931151137408,1.3423005261094494,-1.6968727841908122,1.033972355430307,-0.2371911608939573,-0.5593170203046521,-0.07733408097923448,3,left
6.757000000000001,0.7114806502916461,0.9003403165573411,0.30277621463161153,1.3690442603481658,-1.618757721069242,1.0394132461974002,-0.2407655367378256,-0.5511217656610644,-0.0567738423705694,3,left
6.76,0.7136544427988767,0.8995303515286118,0.3023000473740801,1.3960116745956261,-1.542382572949405,1.04473876418167,-0.2439487363940174,-0.5429814218994121,-0.03695632415778596,3,left
6.761,0.7157591771823886,0.8987107330086852,0.30176612303485784,1.4232008967467433,-1.467784393183096,1.049943157136545,-0.24674349524692335,-0.534898207621893,-0.01789432361447954,3,left
6.766,0.7177904233138049,0.8978867525890556,0.3011760007825623,1.4506101327459038,-1.3949978203349451,1.0550209805905368,-0.24915285814604424,-0.5268738795680776,0.0004004075191068677,3,left
6.767,0.7197437456292908,0.8970634529392855,0.300531279115261,1.478237650870583,-1.3240550256018941,1.0599671111107332,-0.25118016801294485,-0.5189097382416761,0.017917171314303794,3,left
6.772,0.7216147195806856,0.8962456175850935,0.29983358527738224,1.5060817632217058,-1.2549856654031444,1.0647767583383323,-0.25282905434236075,-0.5110066360470455,0.03464632969561342,3,left
6.773,0.7233989483759492,0.8954377632639465,0.2990845641746715,1.5341408044994862,-1.1878168389315442,1.0694454758108007,-0.2541034216043863,-0.5031649879123903,0.050579308298217586,3,left
6.776,0.725092080081645,0.8946441347615245,0.2982858667658958,1.5624131081441044,-1.1225730504626825,1.0739691705848504,-0.25500743755357624,-0.4953847843767777,0.0657085981916959,3,left
6.777,0.7266898251336084,0.8938687020599715,0.2974391379630314,1.5908969799212147,-1.0592761762233267,1.0783441116740426,-0.2555455214497048,-0.48766560711826684,0.08002775551799385,3,left
6.78,0.7281879742487561,0.8931151595756839,0.2965460041344548,1.6195906690328832,-0.9979454356263034,1.0825669373144233,-0.25572233219385404,-0.4800066469006235,0.093531399089396,3,left
6.781000000000001,0.729582416661483,0.8923869272327475,0.2956080603757017,1.648492336835166,-0.9385973666844379,1.0866346610711743,-0.25554275638243584,-0.4724067239162697,0.10621520598995277,3,left
6.7860000000000005,0.730869158533936,0.8916871531098504,0.2946268577815675,1.6776000232441595,-0.8812458054217586,1.0905446767988454,-0.2550118962807052,-0.46486431050329075,0.1180759052214844,3,left
6.7860000000000005,0.7320443413189042,0.8910187174129509,0.2936038910089773,1.706911610912941,-0.8259018691058165,1.094294762467287,-0.25413505771628186,-0.4573775562144956,0.12911126943294493,3,left
6.79,0.7331042597917711,0.8903842375580792,0.2925405864494563,1.7364247872624252,-0.7725739431306594,1.0978830828649677,-0.25291773789217675,-0.44994431521669453,0.13932010476957674,3,left
6.791,0.7340453794189402,0.8897860741907085,0.2914382913235234,1.7661370044497486,-0.7212676713857253,1.1013081911909017,-0.2513656131178083,-0.4425621759985227,0.14870223887592304,3,left
6.795,0.7348643527060359,0.889226338013195,0.2902982639637738,1.7960454373583834,-0.6719859499516893,1.1045690295459563,-0.24948452646601937,-0.43522849330745694,0.15725850710013034,3,left
6.795,0.7355580341886566,0.8887068973346616,0.2891216654777541,1.8261469396947583,-0.624728923970075,1.1076649283338433,-0.24728047541571097,-0.4279404219476225,0.16499073702326406,3,left
6.796,0.7361234937879827,0.8882293862929938,0.28790955289725,1.856437998276736,-0.5794939875392503,1.1105956045816334,-0.24475959963340002,-0.42069495154956693,0.17190173157658184,3,left
6.8,0.7365580283067747,0.8877952137200569,0.28666287384839184,1.8869146855998573,-0.5362757864952332,1.1133611591891581,-0.24192816909864828,-0.4134889411341135,0.17799525108600261,3,left
6.801,0.7368591708578962,0.8874055726264488,0.28538246272355206,1.9175726107678175,-0.49506622394154565,1.1159620731161928,-0.23879257272479756,-0.4063191525817402,0.1832759945019805,3,left
6.806,0.737024698032456,0.8870614502743613,0.2840690382975617,1.9484068688741911,-0.4558544683981563,1.1183992025158414,-0.2353593075308838,-0.39918228263961925,0.1877495799290415,3,left
6.807,0.7370526346685695,0.886763638789979,0.2827232027076133,1.9794119889229382,-0.41862696444533964,1.1206737728220644,-0.2316349683671275,-0.39207499338776935,0.19142252448823074,3,left
6.811,0.736941256167514,0.8865127462414999,0.2813454417114405,2.010581880375761,-0.3833674457440443,1.1227873717988297,-0.22762623818500605,-0.3849939411437147,0.1943022235276527,3,left
6.812,0.7366890883929346,0.88630920808043,0.2799361261482458,2.0419097785068545,-0.3500569504023646,1.1247419415561617,-0.2233398788420598,-0.3779358037851429,0.19639692919396945,3,left
6.813,0.736294905253697,0.8861532988261308,0.27849551454294397,2.0733881892060353,-0.31867383907474284,1.1265397695292858,-0.21878272243074715,-0.3708973064701367,0.19771572837542506,3,left
6.814,0.735757724102063,0.8860451438727145,0.2770237568085827,2.105008834699552,-0.289193816926589,1.1281834784010913,-0.21396166311984677,-0.3638752457346311,0.19826852002468523,3,left
6.815,0.7350767991029822,0.8859847312921891,0.27552089900637894,2.13676260211828,-0.2615899610139373,1.1296760149390577,-0.20888364949610866,-0.35686651194681124,0.1980659918675305,3,left
6.819,0.7342516127753657,0.8859719234785447,0.2739868891136632,2.1686394963834994,-0.2358327542219497,1.1310206377259608,-0.2035556773930772,-0.3498681100982255,0.19711959650121225,3,left
6.82,0.7332818659558525,0.8860064684410588,0.2724215837322374,2.2006285980529863,-0.21189012617112932,1.132220903778746,-0.1979847831932514,-0.3428771789114348,0.19544152688408295,3,left
6.825,0.7321674664615637,0.8860880105382603,0.2708247556523778,2.232718026310606,-0.18972750109414785,1.133280654058138,-0.19217803758900998,-0.33589100824405654,0.19304469121594298,3,left
6.8260000000000005,0.7309085167314495,0.886216100449395,0.26919610217730716,2.264894907190956,-0.16930785260922523,1.1342039978728584,-0.18614253978700984,-0.32890705476909315,0.18994268720641183,3,left
6.829,0.7295053007196453,0.8863902041992404,0.2675352541108989,2.2971453471309267,-0.15059176532120638,1.134995296181909,-0.17988541214007073,-0.3219229559114562,0.18614977572653077,3,left
6.83,0.7279582703043742,0.8866097110822518,0.26584178531284275,2.329454411940341,-0.13353750318658722,1.1356591437979702,-0.1734137951898787,-0.3149365420206108,0.18168085383674126,3,left
6.834,0.7262680314627878,0.8868739403738531,0.26411522272315235,2.3618061112840767,-0.11810108458374571,1.1362003504945812,-0.1667348431031867,-0.3079458467592728,0.17655142718235767,3,left
6.836,0.7244353304458022,0.8871821467676118,0.2623550567499791,2.3941833887682855,-0.10423636403452109,1.1366239210193794,-0.15985571948355146,-0.3009491156880904,0.1707775817456711,3,left
6.84,0.7224610401673063,0.8875335245317855,0.2605607519049743,2.4265681177234937,-0.09189512052805462,1.136935034015321,-0.15278359354003143,-0.2939448130262357,0.16437595494187937,3,left
6.841,0.7203461469986098,0.8879272104324302,0.25873175756161126,2.4589411027774757,-0.08102715240244741,1.1371390198514488,-0.14552563659367468,-0.28693162656782,0.15736370604414254,3,left
6.843999999999999,0.718091738132689,0.8883622855198406,0.25686751870467756,2.4912820873108847,-0.07158037874430219,1.1372413373644297,-0.13808901890204933,-0.2799084707340301,0.1497584859212127,3,left
6.845,0.7156989896559702,0.8888377759181336,0.25496748653562473,2.5235697668886243,-0.06350094727058747,1.137247549511773,-0.1304809067815167,-0.27287448774086076,0.1415784060692852,3,left
6.85,0.7131691554393871,0.88935265279175,0.2530311288004091,2.555781808759918,-0.05673334866149153,1.1371632979373247,-0.12270846000641168,-0.26582904686229486,0.1328420069179649,3,left
6.851,0.7105035569347474,0.8899058316854044,0.2510579397119002,2.587894877519939,-0.051220537317011816,1.1369942764493421,-0.11477882946378283,-0.25877174176875245,0.12356822538853868,3,left
6.854,0.7077035739359316,0.8904961714452183,0.2490474493446565,2.619884667025707,-0.04690405851395046,1.1367462034111824,-0.10669915504185112,-0.2517023859206019,0.11377636168109462,3,left
6.856,0.7047706363378149,0.8911224729299109,0.24699923238683882,2.651725938658731,-0.04372418194375148,1.1364247930443736,-0.0984765637298749,-0.24462100599649172,0.10348604526543198,3,left
6.86,0.7017062169028074,0.891783477713095,0.244912916147413,2.6833925660266096,-0.041620041615216846,1.1360357256435927,-0.09011816790665668,-0.2375278333362292,0.09271720004916174,3,left
6.86,0.6985118250288513,0.8924778669608101,0.2427881877403155,2.7148575861954223,-0.04052978210957282,1.1355846167028536,-0.08163106379449614,-0.2304232933778977,0.08149000869491106,3,left
6.8629999999999995,0.6951890015017177,0.8932042606434086,0.24062480039893153,2.7460932575443344,-0.040390711178620635,1.1350769849519928,-0.07302233005498363,-0.22330799306886945,0.06982487605711285,3,left
6.864,0.6917393142051002,0.8939612172105702,0.23842257890691518,2.7770711243333226,-0.04113945867979343,1.1345182193023466,-0.06429902650454555,-0.21618270628169395,0.05774239175083948,3,left
6.865,0.6881643547556602,0.8947472338248667,0.23618142415568882,2.8077620880743543,-0.042712141844852745,1.133913544700337,-0.05546819293682177,-0.20904835752257975,0.04526329208057982,3,left
6.869,0.6844657360275965,0.8955607472169642,0.23390131685042956,2.8381364857956903,-0.045044536881688406,1.133267986887518,-0.046536848055774696,-0.20190600468235115,0.03240842194576342,3,left
6.87,0.6806450905258158,0.8964001352019517,0.23158232039189436,2.8681641752882387,-0.04807225691123525,1.1325863360654884,-0.03751198853263908,-0.19475682183650458,0.01919869755539352,3,left
6.872999999999999,0.6767040695540553,0.8972637188834421,0.22922458297084863,2.8978146274220657,-0.051730936243886375,1.1318731094639485,-0.0284005881899741,-0.1876020828441903,0.005655070566254814,3,left
6.874,0.6726443431100523,0.898149765560814,0.2268283389256396,2.9270570256202535,-0.05595642100196454,1.13113251281005,-0.019209597298621466,-0.18044314603373207,-0.008201506132079452,3,left
6.877999999999999,0.6684676004308621,0.8990564923386417,0.22439390942518053,2.955860372353987,-0.06068496582402256,1.1303684007673933,-0.00994594196356624,-0.1732814400055043,-0.02235011097999259,3,left
6.877999999999999,0.6641755511102708,0.8999820704222258,0.22192170254179425,2.9841936014101043,-0.06585343502461398,1.1295842367644096,-0.0006165235725406912,-0.16611845053161559,-0.03676988469718395,3,left
6.877999999999999,0.6597699267149424,0.9009246300755747,0.21941221276853215,3.0120256926803344,-0.07139950412970798,1.1287830532644587,0.008771781719017106,-0.15895570853183655,-0.05144005965840397,3,left
6.882999999999999,0.6552524828266363,0.9018822662119155,0.21686602002319386,3.0393257851086375,-0.07726185634542655,1.1279674138813898,0.018212123493247103,-0.15179477910520095,-0.06633998773616494,3,left
6.882999999999999,0.6506250014281921,0.9028530445724117,0.21428378817660446,3.066063284543261,-0.08338036988298983,1.1271393783927686,0.027697677592179674,-0.14463725159670662,-0.0814491666518071,3,left
6.888,0.645889293540915,0.9038350084281499,0.21166626314350537,3.092207965239524,-0.08969629451893915,1.1263004710702555,0.03722164668403189,-0.1374847306785422,-0.0967472648770189,3,left
6.888999999999999,0.6410472020221368,0.904826185721817,0.2090142705761368,3.1177300648693698,-0.09615241713456073,1.1254516523950928,0.04677726090059256,-0.1303388284252723,-0.11221414512857088,3,left
6.892,0.6361006044425775,0.9058245965520897,0.20632871320450444,3.142600373114438,-0.10269321625196026,1.1245932941563233,0.0563577785729309,-0.12320115736242257,-0.12782988649962412,3,left
6.893,0.6310514159770867,0.9068282608945855,0.20361056787362575,3.1667903139176934,-0.10926500558480948,1.1237251579293366,0.06595648709277402,-0.11607332446792064,-0.14357480527151706,3,left
6.899,0.6259015922559845,0.9078352064478714,0.200860882335553,3.1902720214668707,-0.11581606662219153,1.122846376932301,0.07556670392698944,-0.10895692610586877,-0.15942947445042013,3,left
6.899,0.6206531321357467,0.9088434764924164,0.19808077186243706,3.2130184099811143,-0.12229677026421981,1.1219554412580177,0.08518177781268053,-0.10185354387214642,-0.1753747420736756,3,left
6.903,0.615308080355887,0.9098511376553197,0.195271415753846,3.23500323737025,-0.1286596875281977,1.1210501864787008,0.09479509016045486,-0.09476474133137001,-0.1913917483310118,3,left
6.903,0.6098685300533826,0.9108562874836897,0.1924340538137017,3.256201162834085,-0.13485968934403192,1.120127785621154,0.10440005669345888,-0.08769206162477007,-0.20746194154613662,3,left
6.9079999999999995,0.6043366251073944,0.9118570617424084,0.18956998286869917,3.2765877984670206,-0.14085403545741482,1.1191847445097824,0.11399012934978618,-0.08063702592858249,-0.22356709306447642,3,left
6.909,0.5987145622863351,0.9128516413652362,0.18668055339038317,3.2961397549310867,-0.14660245245895687,1.1182169004748295,0.12355879847586147,-0.07360113274259335,-0.23968931109303263,3,left
6.912999999999999,0.5930045931684683,0.9138382590007881,0.18376716626613576,3.3148346812582345,-0.15206720095698892,1.1172194244231852,0.13309959533837892,-0.06658585798852239,-0.2558110535384822,3,left
6.912999999999999,0.5872090258079897,0.9148152051067173,0.18083126974122887,3.332651298840407,-0.1572131319111672,1.1161868262690455,0.14260609498233034,-0.0595926558979815,-0.27191513988974975,3,left
6.917999999999999,0.5813302261207605,0.9157808335561779,0.1778743565287571,3.349569429663503,-0.16200773214331357,1.1151129637216315,0.15207191946259768,-0.05262296066979878,-0.28798476219132724,3,left
6.917999999999999,0.5753706189666704,0.9167335667301733,0.1748979610623866,3.3655700188389024,-0.16642115904111426,1.1139910544270932,0.16149074147650422,-0.045678188876558445,-0.304003495153619,3,left
