time,gFx,gFy,gFz,ax,ay,az,wx,wy,wz,subject_number,foot
4.363,0.051173782498118284,1.4025626757059746,-0.07532129782379737,0.7974528362239959,1.2333533486026607,-0.7210646787876837,-0.08166563517287077,0.7083741017156419,-0.08007513447691636,1,left
4.364,0.04693593341424707,1.4074386252452546,-0.07592780854978809,0.7659757551672356,1.2758630752299684,-0.7467442694940778,-0.08482478783594344,0.7112260049969107,-0.07353023172410476,1,left
4.368,0.042869012780828,1.4121900540142471,-0.07642120606551826,0.7331375331528854,1.3193207413920487,-0.7729750913571758,-0.08817501762599265,0.7139922154042129,-0.06651888560924776,1,left
4.368,0.03897979370645256,1.4168122854693321,-0.07679818450409968,0.6989368461245684,1.3637245461622771,-0.7997465623636548,-0.0917205254843489,0.7166714445788923,-0.0590344646228242,1,left
4.371,0.03527487999947985,1.4213006773031016,-0.07705549505451684,0.6633735115174582,1.409071693990984,-0.82704764507392,-0.09546545481505665,0.7192623629194144,-0.051070636017587025,1,left
4.372,0.03176068893905457,1.425650622135376,-0.07718995286596927,0.6264485375176856,1.4553583680633022,-0.8548668483563023,-0.0994138844800527,0.7217636012788463,-0.042621379486588486,1,left
4.377,0.02844343452072544,1.4298575479440576,-0.07719844380970124,0.5881641714045241,1.5025797051713232,-0.8831922280133678,-0.10356982159173088,0.7241737530082332,-0.03368100071846782,1,left
4.378,0.025329111270583994,1.4339169182756748,-0.0770779310481946,0.5485239468731933,1.5507297722308262,-0.9120113863787443,-0.10793719411366028,0.7264913763533032,-0.02424414480711032,1,left
4.382,0.02242347871335139,1.4378242322813188,-0.07682546136845249,0.5075327302322088,1.5998015445755358,-0.941311470964354,-0.11251984328080786,0.728714997211689,-0.014305809491393094,1,left
4.383,0.01973204657036022,1.4415750246261023,-0.0764381712399454,0.4651967653653067,1.6497868861645537,-0.971079172239399,-0.11732151585121348,0.7308431122575831,-0.0038613581993227615,1,left
4.387,0.017260060750764417,1.445164865321661,-0.07591329256014087,0.42152371734407595,1.7006765318412653,-1.0013007206238618,-0.1223458562016713,0.7328741924404854,0.007093467130555394,1,left
4.388,0.015012490185240233,1.4485893595321542,-0.0752481580542665,0.37652271457355624,1.752460071784682,-1.0319618827806607,-0.12759639828059072,0.7348066868644215,0.018562533479036903,1,left
4.3919999999999995,0.012994014539286022,1.4518441474019441,-0.0744402063033609,0.3302043893491975,1.805125938296789,-1.0630479572919496,-0.13307655743183863,0.736639027053749,0.030549304457439544,1,left
4.393,0.01120901283503353,1.4549249039454517,-0.07348698638592953,0.2825809166997398,1.8586613950720672,-1.0945437698063443,-0.1387896221040038,0.738369631611377,0.043056828331565336,1,left
4.396,0.009661553005911747,1.4578273390279692,-0.07238616213259055,0.23366605138676066,1.9130525290979277,-1.1264336677451312,-0.14473874546017473,0.7399969112749538,0.05608772639139813,1,left
4.397,0.008355382404915578,1.4605471974537911,-0.07113551600771893,0.1834751629278559,1.968284245337326,-1.1587015146567223,-0.15092693690398074,0.7415192743762754,0.06964418170097816,1,left
4.402,0.007293919280989088,1.4630802591682364,-0.06973295264360561,0.13202526850667404,2.0243402643473165,-1.1913306843098055,-0.157357053538315,0.7429351327088896,0.08372792826439002,1,left
4.4030000000000005,0.00648024522696354,1.4654223395751116,-0.0681765020585229,0.079335063629318,2.0812031229897707,-1.2243040546167656,-0.1640317915738369,0.7442429078085626,0.09834024064530295,1,left
4.407,0.005917098587723983,1.4675692899712676,-0.0664643225910482,0.025424950382965918,2.1388541783928834,-1.2576040014800351,-0.17095367770503622,0.7454410376509806,0.11348192407901135,1,left
4.408,0.005606868801848199,1.4695169981057326,-0.06459470358264319,-0.029682936851050785,2.19727361532447,-1.291212392655076,-0.1781250604723374,0.7465279837707482,0.129153305117437,1,left
4.409,0.005551591636951141,1.4712613888817294,-0.06256606784257941,-0.08596470838103283,2.2564404571403625,-1.3251105817246764,-0.18554810162706273,0.7475022387884376,0.14535422283691704,1,left
4.4110000000000005,0.005752945272653199,1.4727984252305688,-0.060376973932360405,-0.14339469904038363,2.3163325804734787,-1.3592794022801846,-0.19322476750497825,0.748362334247105,0.1620840205793444,1,left
4.412,0.006212247186803979,1.4741241091929649,-0.058026118305565644,-0.20194545103302403,2.3769267338313447,-1.393699162406189,-0.20115682039361305,0.7491068485063522,0.17934153808935174,1,left
4.416,0.006930451802379699,1.4752344832507291,-0.05551233733413766,-0.2615876999503781,2.438198560271991,-1.4283496395659852,-0.20934580986746013,0.7497344143566671,0.19712510385097312,1,left
4.417,0.007908148847162611,1.47612563196568,-0.052834609248211616,-0.32229036412485207,2.5001226243302255,-1.463210075985941,-0.21779306407770024,0.7502437261014648,0.21543252748951203,1,left
4.418,0.009145562372353998,1.4767936839968028,-0.04999205601343842,-0.3840205374725573,2.5626724432449204,-1.4982591746323153,-0.22649968100507226,0.7506335460069521,0.23426109221525745,1,left
4.42,0.010642550380152823,1.4772348145692573,-0.04698394516574738,-0.44674348590422347,2.625820521922974,-1.5334750958483265,-0.23546651969705684,0.7509027101046066,0.2536075473479752,1,left
4.421,0.01239860502289991,1.4774452484585003,-0.04380969162161021,-0.510422647247808,2.689538389967017,-1.5688354546723253,-0.24469419151364272,0.7510501333477348,0.27346810097476054,1,left
4.425,0.014412853347339964,1.4774212635422816,-0.04046885948687059,-0.575019634552319,2.75379663847882,-1.6043173188320448,-0.25418305140668895,0.7510748141232257,0.2938384127953355,1,left
4.426,0.01668405856267067,1.47715919497145,-0.03696116389923865,-0.6404942427221546,2.8185649549689895,-1.6398972074368006,-0.2639331892586439,0.7509758381192682,0.31471358721035925,1,left
4.43,0.01921062181768052,1.4766554400101977,-0.03328647295196826,-0.7068044585724843,2.8838121558156264,-1.6755510904374757,-0.2739444213071302,0.750752381549458,0.336088166709796,1,left
4.431,0.021990584487305502,1.4759064635872474,-0.029444809751798723,-0.7739064744757707,2.9495062163330985,-1.7112543889508833,-0.2842162816826552,0.7504037137333596,0.3579561256198495,1,left
4.436,0.025021630990310743,1.4749088045812755,-0.02543635466020827,-0.8417547057874317,3.0156142986369234,-1.7469819765506671,-0.2947480140874555,0.7499291990332383,0.38031086426841987,1,left
4.437,0.02830109218239595,1.4736590828405407,-0.021261447754001756,-0.910301812241041,3.0821027774921217,-1.7827081816271122,-0.30553856364423443,0.74932829814632,0.4031452036304739,1,left
4.44,0.03182594939016481,1.4721540069104866,-0.01692059152256056,-0.9794987235057317,3.1489372643337044,-1.8184067909183776,-0.31658656894429993,0.7486005687515733,0.42645138051613535,1,left
4.441,0.03559283916914018,1.4703903824157862,-0.012414453800034494,-1.0492946691006155,3.2160826296491183,-1.8540510543157331,-0.3278903543253539,0.7477456655096519,0.450221043365699,1,left
4.446000000000001,0.03959805887928943,1.468365121017631,-0.007743870916192253,-1.1196372128630252,3.283503023913595,-1.8896136910453718,-0.3394479224099296,0.7467633394142678,0.4744452487171492,1,left
4.447,0.04383757317029847,1.4660752498458074,-0.002909851041800167,-1.1904722921692588,3.351161897270311,-1.925066897329295,-0.351256946936211,0.745653436492906,0.49911445841311636,1,left
4.45,0.048307021456106505,1.4635179212904939,0.0020864222980368392,-1.261744262108216,3.419022018148185,-1.9603823556276083,-0.3633147659137029,0.744415895854425,0.524218537615536,1,left
4.4510000000000005,0.05300172643616247,1.460690423033047,0.007243586569659727,-1.3333959448098855,3.4870454910108992,-1.9955312455643281,-0.3756183751369481,0.7430507470807165,0.5497467536975813,1,left
4.455,0.057916703690681554,1.4575901881989621,0.012560096465202696,-1.4053686841320545,3.5551937734314456,-2.030484256638491,-0.38816442209121077,0.741558106959241,0.5756877760837126,1,left
4.455,0.06304667234260417,1.454214805527036,0.018034220061906147,-1.4776024059098611,3.623427692687055,-2.065211602821949,-0.40094920028475706,0.7399381755528802,0.6020296771099406,1,left
4.459,0.06838606674783101,1.4505620294624653,0.02366403495519512,-1.5500356839739022,3.691707462069831,-2.099683039144766,-0.41396864404307265,0.7381912316031878,0.6287599339776134,1,left
4.46,0.07392904915254088,1.4466297900949578,0.029447424431069725,-1.622605812143522,3.759992697108785,-2.1338678803685593,-0.4272183238010492,0.7363176272627481,0.6558654318752228,1,left
4.4639999999999995,0.0796695232403976,1.4424162028738325,0.0353820737623535,-1.6952488824026615,3.8282424318992043,-2.167735021847483,-0.440693441929859,0.7343177821519927,0.6833324683438775,1,left
4.465,0.0856011484808043,1.4379195780397591,0.04146546673150027,-1.7678998694662138,3.896415135735414,-2.2012529626758135,-0.45438882913590933,0.7321921767354548,0.7111467589632028,1,left
4.47,0.09171735518250061,1.4331384297176857,0.047694882493334825,-1.8404927219452194,3.964468730243008,-2.2343898312202812,-0.46829894146992845,0.7299413450120805,0.7392934444355047,1,left
4.471,0.0980113601550089,1.4280714846181246,0.05406739288237562,-1.9129604603194483,4.032360607206524,-2.267113413134363,-0.48241785798488407,0.7275658665138539,0.7677570991470729,1,left
4.475,0.1044761828816169,1.4227176902957714,0.0605798602321458,-1.9852352819259347,4.1000476472883145,-2.299391181950759,-0.4967392790820642,0.7250663576066296,0.7965217412864936,1,left
4.476,0.11110466211067732,1.4170762229184988,0.06722893571787551,-2.0572486731718564,4.167486239834025,-2.3311903323471785,-0.5112565255744995,0.7224434621092068,0.8255708445655977,1,left
4.477,0.11788947278098484,1.411146494507908,0.07401105818895273,-2.1289315291798006,4.234632303959611,-2.3624778161793696,-0.5259625384436644,0.7196978413588017,0.8548873514135776,1,left
4.479,0.1248231432126221,1.4049281596235466,0.08092245344453214,-2.200214281072883,4.301441311114263,-2.393220381374044,-0.54084987916906,0.7168301640531979,0.8844536871988709,1,left
4.48,0.13189807250458846,1.3984211214736508,0.08795913391544885,-2.271027031106456,4.367868309312864,-2.4233846137729835,-0.5559107304570028,0.7138410963119841,0.9142517748582246,1,left
4.485,0.13910654807534603,1.3916255374434314,0.09511689873054031,-2.3412996958521823,4.433867949230779,-2.452936982018135,-0.5711368972493247,0.7107312922864467,0.9442630494891239,1,left
4.485,0.14644076327272249,1.384541824036598,0.10239133416518743,-2.4109621576390903,4.49939451235281,-2.481843885565932,-0.5865198079901273,0.7075013854448655,0.9744684727792795,1,left
4.486000000000001,0.15389283497976006,1.3771706612270034,0.1097778144960242,-2.4799444241901725,4.564401941295177,-2.5100717058349327,-0.6020505161830676,0.7041519805471227,1.004848547323538,1,left
4.49,0.1614548211551088,1.369512996214824,0.11727150330777417,-2.5481767950678806,4.6288438720588525,-2.5375868600766163,-0.6177197022829004,0.7006836462996932,1.035383330914387,1,left
4.4910000000000005,0.16911873826344678,1.3615700465763834,0.12486735530885347,-2.615590031157586,4.692673667324431,-2.5643558568148537,-0.6335176759654461,0.6970969086817405,1.066052450892786,1,left
4.495,0.17687657856064348,1.3533433027916295,0.13256011871888243,-2.682115522092488,4.755844449537933,-2.590345351285133,-0.6494343788205814,0.6933922449326962,1.0968351186465548,1,left
4.496,0.18472032719285583,1.3448345301316222,0.1403443382997871,-2.7476854478449284,4.818309132894602,-2.6155221997150644,-0.6654593875132457,0.6895700781913595,1.1277101443439916,1,left
4.499,0.19264197905731312,1.3360457698910597,0.14821435910612382,-2.812232933089266,4.8800204539728025,-2.6398535120280058,-0.6815819174578233,0.6856307727762154,1.158655951990781,1,left
4.5,0.20063355536639463,1.3269793399573144,0.15616433102273633,-2.875692194262545,4.940931001127499,-2.663306702961906,-0.6977908270516039,0.681574630096331,1.1896505948985792,1,left
4.503,0.20868711985595698,1.3176378347166515,0.16418821414182816,-2.937998679511182,5.000993242822685,-2.6858495416756183,-0.7140746225133354,0.6774018851818473,1.2206717716539215,1,left
4.505,0.21679479458075274,1.3080241243083641,0.17227978501141805,-2.9990892017089563,5.060159555079927,-2.707450199912514,-0.7304214633731578,0.6731127038227543,1.2516968426763078,1,left
4.508,0.22494877524465584,1.2981413532461061,0.18043264376335327,-3.058902064728462,5.1183822482179036,-2.728077298788699,-0.7468191686604598,0.6687071803042954,1.2827028474544535,1,left
4.5089999999999995,0.2331413460220261,1.287992938432463,0.1886402221032052,-3.1173771831448804,5.175613593055375,-2.747699954270527,-0.7632552238364102,0.6641853357270144,1.3136665225497761,1,left
4.513,0.24136489383796209,1.2775825665993,0.19689579212172414,-3.174456195547438,5.231805846747452,-2.7662878214033917,-0.779716788518099,0.6595471168991252,1.3445643204561941,1,left
4.513999999999999,0.24961192208748603,1.2669141912126038,0.20519247587264153,-3.230082571630242,5.28691127842233,-2.78381113735099,-0.7961907050413671,0.6547923957885454,1.3753724294052563,1,left
4.519,0.2578750637842323,1.2559920288841195,0.21352325565428998,-3.284201713230355,5.340882194782777,-2.80024076330136,-0.8126635079095125,0.6499209695216078,1.4060667942055067,1,left
4.52,0.26614709413502335,1.2448205553312497,0.2218809849294694,-3.336761049476958,5.393670965833714,-2.8155482252930284,-0.8291214341751344,0.6449325609151214,1.4366231382047936,1,left
4.523,0.27442094253696087,1.2334045009215668,0.23025839981748736,-3.387710126211282,5.445230050894083,-2.8297057540115484,-0.8455504348024148,0.6398268195281238,1.4670169864639686,1,left
4.524,0.28268970399078364,1.22174884583012,0.23864813109465896,-3.4370006898326704,5.4955120250479395,-2.8426863236035524,-0.8619361870571239,0.6346033232193309,1.49722369023011,1,left
4.5280000000000005,0.2909466499205296,1.2098588148269929,0.24704271664385213,-3.4845867657216494,5.544469606186315,-2.854463689552247,-0.8782641079716039,0.6292615801959511,1.5272184527969896,1,left
4.529,0.2991852383841744,1.1977398716988945,0.2554346142971901,-3.530424731386264,5.5920556827878825,-2.8650124256549594,-0.8945193689318925,0.6238010315391975,1.5569763568400485,1,left
4.534,0.30739912365071864,1.18539771329424,0.2638162150165163,-3.5744733844731824,5.638223342582737,-2.874307960139967,-0.9106869114340295,0.6182210541914895,1.586472393312599,1,left
4.535,0.31558216510568915,1.172838263170254,0.27217985635381164,-3.616694005780171,5.682925902239861,-2.8823266109563854,-0.9267514640564175,0.6125209643899989,1.6156814919893718,1,left
4.538,0.3237284354315602,1.1600676648147557,0.28051783613110315,-3.6570504174015412,5.72611693821485,-2.8890456202673698,-0.9426975606949044,0.6067000215308512,1.6445785537428372,1,left
4.539,0.3318322279959458,1.147092274415082,0.28882242627962396,-3.6955090361330187,5.767750318890463,-2.894443188173282,-0.9585095601069968,0.6007574324479517,1.6731384846369843,1,left
4.543,0.3398880633709957,1.1339186531536827,0.29708588678183906,-3.732038922257245,5.807780238138261,-2.8984985056878125,-0.974171666811323,0.5946923560900587,1.701336231922409,1,left
4.543,0.347890694904125,1.120553559022796,0.30530047966656837,-3.766611823825774,5.846161250425368,-2.9011917869863035,-0.9896679533508896,0.5885039085848357,1.7291468219463597,1,left
4.544,0.35583511326753453,1.1070039381619265,0.3134584830179382,-3.7992022165479797,5.882848307585812,-2.902504300941743,-1.00498238374215,0.5821911687055302,1.7565453996438491,1,left
4.548,0.36371654993305386,1.0932769157272275,0.3215522049736921,-3.8297873393917494,5.917796797371376,-2.9024184019600314,-1.02009883759641,0.5757531838046589,1.7835072686510816,1,left
4.5489999999999995,0.37153047953986085,1.0793797863100885,0.3295739977012697,-3.8583472259952334,5.9509625838921005,-2.9009175601222204,-1.0350011342134764,0.5691889763059954,1.8100079307347516,1,left
4.552,0.37927262113775606,1.06532000394049,0.3375162713451262,-3.884864731942051,5.982302050007671,-2.8979863906411922,-1.0496730561330774,0.5624975508185281,1.8360231235761766,1,left
4.553,0.38693893830299314,1.051105171725641,0.3453715079402816,-3.9093255577407566,6.011772141505577,-2.893610682654899,-1.0640983719640675,0.5556779018866136,1.861528856571772,1,left
4.553,0.394525638141828,1.0367430311732355,0.3531322752903221,-3.9317182669730206,6.039330412500183,-2.887777427407844,-1.0782608584969695,0.5487290223629199,1.8865014446566395,1,left
4.5569999999999995,0.40202916921586845,1.0222414512451659,0.3607912408078651,-3.952034298863279,6.06493507126125,-2.8804748458870324,-1.0921443221419636,0.5416499123849359,1.91091754022595,1,left
4.558,0.4094462184402227,1.0076084171973616,0.3683411853054275,-3.9702679747225527,6.088545025895444,-2.871692415955826,-1.1057326197337305,0.5344395889354517,1.9347541632273388,1,left
4.563,0.41677370701946426,0.992852019274206,0.3757750167082699,-3.986416498083719,6.110119929695475,-2.861420898991321,-1.1190096787437962,0.527097095967048,1.9579887294960059,1,left
4.564,0.4240087854966543,0.9779804413267387,0.38308578364556917,-4.000479948545417,6.129620226186293,-2.8496523660079713,-1.13195951694023,0.5196215150702534,1.9805990774026083,1,left
4.5680000000000005,0.431148827996745,0.963001949414632,0.39026668886463667,-4.012461269376967,6.1470071939360444,-2.836380223242228,-1.1445662615336947,0.5120119766646566,2.0025634928823783,1,left
4.569,0.43819142574701364,0.9479248804412668,0.39731110240436146,-4.022366248930691,6.1622429911937076,-2.821599237168654,-1.1568141678479582,0.5042676716918761,2.0238607329121594,1,left
4.572,0.445134379953228,0.9327576308633392,0.404212574458966,-4.0302034959020405,6.175290700409337,-2.805305558913699,-1.16868763755203,0.4963878637889131,2.0444700475002717,1,left
4.573,0.45197569410251515,0.9175086455125927,0.41096484786263915,-4.035984408471962,6.186114372686781,-2.7874967480289987,-1.1801712364901087,0.48837190192002233,2.0643712002522605,1,left
4.577,0.45871356575578015,0.9021864065672134,0.41756187013026547,-4.039723137359975,6.194679072212557,-2.7681717955817216,-1.1912497121444896,0.4802192334448548,2.083544487573657,1,left
4.577,0.4653463778866602,0.8867994227118956,0.42399780499866124,-4.041436542810505,6.20095092069829,-2.747331146515154,-1.2019080107655091,0.47192941760023255,2.101970756568921,1,left
4.581,0.47187268982095726,0.8713562185258734,0.43026704342411803,-4.041144145529101,6.204897141867754,-2.724976721228362,-1.2121312942014808,0.4635021393725279,2.119631421693688,1,left
4.582,0.47829122782962874,0.8558653241369149,0.43636421400175657,-4.0388680715793255,6.2064861060130125,-2.701111936319413,-1.2219049564604196,0.45493722373722495,2.1365084802153627,1,left
4.586,0.48460087542872227,0.8403352651777375,0.4422841927770529,-4.0346329912452665,6.2056873746376375,-2.6757417244322954,-1.2312146400341373,0.446234650241848,2.152584526534949,1,left
4.587,0.4908006634407284,0.8247745530800009,0.44802211242113654,-4.0284660518588895,6.202471745198244,-2.6488725531433213,-1.240046252014048,0.43739456790804787,2.167842765420817,1,left
4.592,0.4968897598740816,0.8091916757392419,0.4535733707436499,-4.020396804585742,6.196811295948872,-2.6205124428184683,-1.2483859800267314,0.42841731042824127,2.182267024202853,1,left
4.593999999999999,0.5028674596798681,0.7935950885804831,0.45893363852255536,-4.010457125156898,6.188679430885831,-2.5906709833687906,-1.256220308015963,0.41930341163180307,2.1958417639731262,1,left
4.595,0.508733174445372,0.77799320604749,0.464098866637567,-3.9986811285295043,6.178050924783724,-2.5593593498267344,-1.2635360318965587,0.41005362119541744,2.208552089836888,1,left
4.599,0.5144864220838412,0.762394393529683,0.4690652925003924,-3.985105077452797,6.164901968306331,-2.5265903166618977,-1.2703202751039566,0.40066892057179937,2.2203837602552987,1,left
4.6,0.5201268165807764,0.7468069597324591,0.4738294457798845,-3.9697672849111214,6.149210213168933,-2.492378270750538,-1.2765605040620185,0.391150539110606,2.231323195518842,1,left
4.603,0.5256540578582284,0.7312391494902832,0.47838815342335944,-3.952708010410198,6.1309548173214985,-2.456739222908907,-1.2822445435900351,0.3814999703449683,2.241357485387919,1,left
4.604,0.5310679218186143,0.7156991370160785,0.48273854397637367,-3.9339693500677173,6.110116490114895,-2.4196908178963046,-1.2873605922684002,0.3717189884166867,2.2504743959345737,1,left
4.6080000000000005,0.5363682506295779,0.7001950195743003,0.48687805120248473,-3.913595120464293,6.086677537405032,-2.381252342789599,-1.2918972377808537,0.36180966461274866,2.258662375616754,1,left
4.609,0.5415549433115117,0.6847348115588605,0.49080441700323385,-3.891630736205853,6.060621906542422,-2.3414447336268776,-1.2958434722398142,0.35177438395730054,2.265910560616169,1,left
4.61,0.5466279466857457,0.6693264389510502,0.4945156936381219,-3.868123081143729,6.031935231187268,-2.30029058021384,-1.2991887074507915,0.3416158616620914,2.2722087794794783,1,left
4.614,0.5515872467326625,0.6539777341277108,0.49801024524427906,-3.8431203731940227,6.000604875882721,-2.257814128982547,-1.3019227899821755,0.33133715898470134,2.2775475571202475,1,left
4.615,0.5564328604004708,0.6386964309885312,0.501286748653143,-3.816672022693241,5.9666199803114,-2.214041283788225,-1.3040360158560982,0.32094169790276555,2.2819181182477175,1,left
4.619,0.5611648279003884,0.6234901603746691,0.5043441934957998,-3.7888284842227806,5.929971503152775,-2.1689996045259488,-1.3055191447232495,0.31043327415279437,2.285312390274396,1,left
4.62,0.5657832055182128,0.6083664457561301,0.5071818815828731,-3.759641101830533,5.8906522654513465,-2.1227183034452395,-1.3063634134707922,0.29981606843517805,2.287723005731357,1,left
4.625,0.5702880589632577,0.593332699168571,0.509799425541922,-3.72916194781568,5.848656993374351,-2.075228239040973,-1.3065605492596464,0.2890946557273732,2.2891433042060507,1,left
4.626,0.5746794572676365,0.5783962173799412,0.5121967466958525,-3.6974436564483697,5.803982360111767,-2.0265619074158074,-1.3061027819953872,0.27827401267509183,2.289567333812364,1,left
4.627,0.5789574672445261,0.5635641782650677,0.5143740721700618,-3.6645392561694754,5.756627026450925,-1.976753431042581,-1.304982856235162,0.2673595230310028,2.2889898521998346,1,left
4.628,0.5831221485098046,0.5488436373655126,0.5163319312227648,-3.630502005021574,5.706591679432043,-1.9258385448721003,-1.3031940425311765,0.2563569811101557,2.287406327106094,1,left
4.629,0.5871735490631099,0.5342415246144356,0.5180711508004454,-3.5953852328490754,5.653879068601574,-1.8738545797079338,-1.3007301482094198,0.24527259323105516,2.2848129364537364,1,left
4.632,0.5911117014136252,0.5197646412092486,0.5195928503287636,-3.559242191624661,5.598494039585453,-1.8208404427297291,-1.2975855275803954,0.23411297711104292,2.2812065679899542,1,left
4.633,0.594936619229118,0.5054196566164811,0.5208984357588327,-3.522125914046309,5.54044356481483,-1.766836595022962,-1.2937550915767084,0.22288515918439367,2.2765848184643778,1,left
4.638,0.5986482944872843,0.4912131056942477,0.521989592899274,-3.484089080304127,5.4797367712529015,-1.711885025965863,-1.289234316810415,0.21159656981129657,2.2709459923376616,1,left
4.638999999999999,0.6022466951140985,0.4771513859187959,0.5228682800749823,-3.4451838929132776,5.416384964963719,-1.6560292243213122,-1.2840192540410944,0.20025503634567912,2.264289100010457,1,left
4.643,0.6057317631006743,0.46324075470221504,0.523536720159828,-3.405461959506495,5.350401652356252,-1.5993141458786617,-1.2781065360436248,0.18886877402963473,2.256613855559488,1,left
4.644,0.6091034130949801,0.44948732678787356,0.5239973920283245,-3.3649741834770253,5.281802557929328,-1.5417861774877064,-1.2714933848626717,0.17744637468204155,2.2479206739645243,1,left
4.648,0.6123615314669218,0.4358970717104681,0.5242530214642132,-3.3237706623603387,5.210605638335474,-1.4834930973244507,-1.2641776184388962,0.1659967931488094,2.2382106678071354,1,left
4.649,0.6155059758460953,0.4224758113115769,0.524306571559249,-3.2819005938406223,5.136831092574169,-1.424484031225838,-1.2561576565898966,0.15452933148206333,2.2274856434191728,1,left
4.652,0.6185365751313284,0.4092292173082478,0.5241612326349293,-3.239412189265838,5.0605013681174515,-1.3648094049282886,-1.2474325263268753,0.14305362081546957,2.21574809645601,1,left
4.6530000000000005,0.6214531299697537,0.39616280891764083,0.5238204117213395,-3.1963525945530913,4.981641162763412,-1.304520892042684,-1.2380018664860155,0.13157960090283277,2.2030012068666527,1,left
4.658,0.6242554137010126,0.3832819505437016,0.5232877216298575,-3.152767818364133,4.9002774220056775,-1.2436713575963967,-1.2278659316515244,0.12011749728704152,2.189248833229912,1,left
4.659,0.6269431737597674,0.3705918495333638,0.5225669696605414,-3.108702667429035,4.816439331699662,-1.1823147969710428,-1.2170255953452764,0.10867779606641768,2.1744955064229265,1,left
4.663,0.629516133526302,0.35809755401107163,0.5216621459908373,-3.064200688894445,4.730158305799113,-1.12050627006288,-1.2054823524559677,0.09727121622552917,2.158746422585431,1,left
4.664,0.6319739946100357,0.3458039508020915,0.5205774117985497,-3.0193041195713053,4.641467968929261,-1.058301830491162,-1.193238320878664,0.08590867949756159,2.1420074353402634,1,left
4.667,0.6343164395458842,0.3337157634572791,0.519317087176267,-2.9740538419555413,4.550404133555812,-0.9957584496783063,-1.1802962423336052,0.07460127772540828,2.124285047227748,1,left
4.667,0.6365431348807463,0.32183755039431816,0.5178856388962904,-2.9284893468939734,4.45700477150198,-0.9329339356244387,-1.166659482331108,0.06336023768873444,2.1055864003087224,1,left
4.672,0.6386537346264296,0.3101737031722842,0.5162876680875861,-2.8826487027665584,4.361309979558863,-0.8698868461977397,-1.152332029247402,0.05219688336439753,2.085919265888132,1,left
4.673,0.6406478840542708,0.2987284449172204,0.51452789788994,-2.8365685310550597,4.263361938927629,-0.806676396761045,-1.1373184924742228,0.041122595587765,2.0652920333083,1,left
4.677,0.6425252238057239,0.2875058289163238,0.5126111611505103,-2.7902839881673263,4.163204868225302,-0.7433623619543518,-1.1216240996030031,0.03014876908266134,2.04371369775817,1,left
4.678,0.6442853942938063,0.27650973739724455,0.5105423882195954,-2.7438287533855785,4.060884969779325,-0.6800049714522373,-1.1052546926233555,0.019286766910517405,2.0211938470762703,1,left
4.678999999999999,0.6459280403733949,0.26574388050526615,0.5083265948859244,-2.6972350228063977,3.9564503689296204,-0.6166647995147329,-1.0882167232178293,0.008547872802641422,1.9977426476935158,1,left
4.681,0.6474528162618535,0.2552117954845022,0.5059688704728798,-2.650533509139528,3.849951046050513,-0.5534026481498998,-1.0705172474206164,-0.002056757416618617,1.9733708301672686,1,left
4.6819999999999995,0.6488593906893403,0.24491684606461256,0.5034743661036896,-2.603753447232105,3.7414387609986965,-0.490279423706227,-1.0521639200101887,-0.012516143694639922,1.9480896749265035,1,left
4.686,0.6501474522468976,0.23486222205614515,0.5008482831397545,-2.556922605184528,3.630966969687329,-0.42735600671302265,-1.0331649888996814,-0.022819527694772922,1.9219109986741245,1,left
4.687,0.651316714884873,0.22505093916189897,0.49809586180079407,-2.510067300923881,3.518590732480423,-0.3646931147871962,-1.0135292895992964,-0.032956416354804834,1.8948471415817947,1,left
4.692,0.652366923503122,0.2154858390129808,0.49522236998556085,-2.4632124240581397,3.4043666143545432,-0.30235115867654405,-0.9932662397188636,-0.042916623007044644,1.8669109552389063,1,left
4.6930000000000005,0.6532978595743746,0.20616958943467423,0.49223309232190327,-2.4163814626221,3.2883525780622773,-0.24039009276682388,-0.9723858334560037,-0.0526903060896058,1.838115791280516,1,left
4.6930000000000005,0.6541093467526335,0.19710468493985034,0.4891333194801072,-2.3695965339440206,3.170607873854042,-0.17886926364252284,-0.9508986360135029,-0.06226800547798526,1.808475490616521,1,left
4.696000000000001,0.6548012564289515,0.18829344743968462,0.48592833778806077,-2.3228784186497937,3.0511929306025705,-0.11784726154874342,-0.9288157778877129,-0.07164067646553063,1.7780043731818527,1,left
4.697,0.6553735131986524,0.17973802715571724,0.48262341919574975,-2.2762465970337002,2.9301692518762037,-0.057381778346126754,-0.906148948968012,-0.08079972142085243,1.746717228124999,1,left
4.7010000000000005,0.6558261002017113,0.17144040371281796,0.4792238116433485,-2.229719287406798,2.807599318174566,0.002470526709878221,-0.8829103923856269,-0.08973701914967604,1.7146293043497378,1,left
4.703,0.6561590642990077,0.16340238738807134,0.47573472988507026,-2.1833134862463566,2.6835464952423314,0.06165415328925543,-0.8591128980484004,-0.09844495198804004,1.6817563013225725,1,left
4.707,0.6563725210510147,0.15562562048668618,0.4721613468134103,-2.1370450100124025,2.558074948113551,0.12011487858075195,-0.8347697957964182,-0.10691643065313503,1.6481143600560324,1,left
4.708,0.6564666594692602,0.14811157881313414,0.46850878532062284,-2.090928538497767,2.4312495605345594,0.17779986833011788,-0.80989494811176,-0.11514491687744074,1.613720054175682,1,left
4.71,0.65644174651297,0.1408615732045449,0.4647821107272561,-2.0449776595783464,2.3031358594092315,0.23465778049315775,-0.784502742314044,-0.12312444385116217,1.5785903809764446,1,left
4.711,0.6562981313016523,0.13387675109585204,0.46098632380037613,-1.9992049152306937,2.1737999439062863,0.29063886167142206,-0.7586080821718612,-0.13084963449728657,1.5427427523716286,1,left
4.716,0.6560362490093355,0.12715809809278555,0.45712635437486643,-1.953621848684493,2.043308418864435,0.3456950364961416,-0.7322263788586713,-0.13831571760288697,1.5061949856358907,1,left
4.717,0.6556566244014466,0.12070643953838577,0.4532070555782783,-1.9082390525779362,1.9117283321274867,0.39977999012363535,-0.7053735411802496,-0.14551854182958357,1.4689652938412512,1,left
4.721,0.6551598749732679,0.11452244207032833,0.4492331986445384,-1.8630662179845343,1.7791271154380066,0.4528492440029069,-0.6780659649993261,-0.15245458762534508,1.431072275883222,1,left
4.721,0.6545467136487932,0.10860661517894193,0.4452094682894264,-1.818112184180439,1.6455725285147984,0.504860225073492,-0.6503205217816673,-0.15912097705906947,1.3925349059920935,1,left
4.725,0.6538179510002586,0.10295931278777085,0.4411404586164906,-1.7733849890219235,1.511132605936366,0.555772328548832,-0.6221545461864916,-0.1655154815986278,1.3533725226224689,1,left
4.726,0.6529744969537749,0.09758073488815824,0.43703066952784303,-1.7288919198032686,1.3758756064495727,0.6055469744375362,-0.5935858226228101,-0.171636527852291,1.313604816612233,1,left
4.731,0.6520173619579411,0.09247092926460866,0.4328845036258842,-1.684639564465936,1.2398699643199798,0.6541476579518599,-0.5646325706920229,-0.17748320129268488,1.2732518185002848,1,left
4.732,0.6509476576100288,0.08762979334718762,0.4287062636009697,-1.6406338630305484,1.1031842423377924,0.7015399939495692,-0.5353134294358958,-0.18305524798164027,1.2323338848905792,1,left
4.735,0.6497665967548943,0.08305707622149369,0.42450015010009423,-1.5968801591238824,0.9658870860910131,0.7476917555521072,-0.5056474403078882,-0.18835307431352008,1.1908716837482725,1,left
4.736000000000001,0.648475493090496,0.0787523808182454,0.4202702600625374,-1.5533832514737527,0.8280471791152365,0.7925729070786007,-0.47565402878469604,-0.19337774479381892,1.1488861785120976,1,left
4.74,0.6470757603265251,0.07471516629620695,0.41602058549403464,-1.510147445245389,0.6897331985275743,0.8361556314317871,-0.445352984533824,-0.19813097786904302,1.1063986109054635,1,left
4.7410000000000005,0.645568910946443,0.07094475062592331,0.41175501263713293,-1.4671766030936182,0.55101377075044,0.8784143520683744,-0.41476444005200835,-0.2026151398230919,1.063430482327216,1,left
4.747,0.6439565546185246,0.0674403133778364,0.4074773214863799,-1.4244741958059148,0.41195742692936255,0.9193257496827096,-0.38390884768836786,-0.20683323675458026,1.0200035337014923,1,left
4.748,0.6422403962921,0.06420089871594865,0.4031911855943744,-1.3820433524121123,0.2726325576476384,0.9588687737289003,-0.3528069550181703,-0.21078890466580755,0.976139723729552,1,left
4.749,0.6404222340050961,0.06122541859592785,0.39890017211926376,-1.3398869096373438,0.13310736653946567,0.997024648902737,-0.32147977879672385,-0.21448639777855122,0.9318612058095503,1,left
4.75,0.6385039564209755,0.05851265616389928,0.3946077420749187,-1.298007460575549,-0.006550177597764123,1.033776876700899,-0.2899485781981444,-0.21793057534452662,0.8871903044729312,1,left
4.751,0.6364875401105147,0.05606126935004176,0.3903172507559226,-1.2564074024616572,-0.14627239059211286,1.0691112321710003,-0.25823482830749,-0.22112688730284402,0.8421494925093269,1,left
4.754,0.6343750465985963,0.053869794649352945,0.38603194831577853,-1.2150889834213487,-0.2859919249873537,1.1030157559620506,-0.22636019456966033,-0.2240813590508134,0.7967613696261958,1,left
4.755,0.6321686192045696,0.0519366510783808,0.3817549804797077,-1.1740543480780925,-0.4256418248358932,1.1354807417808812,-0.19434650842186416,-0.22680057544029036,0.7510486429042762,1,left
4.7589999999999995,0.6298704797099671,0.05026014429105962,0.3774893893753172,-1.1333055818953444,-0.5651555834237182,1.1664987193739922,-0.16221574407148687,-0.2292916640258057,0.7050341089844041,1,left
4.761,0.6274829248856787,0.04883847083280359,0.3732381144648391,-1.0928447541195416,-0.7044672032973238,1.1960644332400627,-0.12998999632783703,-0.2315622775729805,0.6587406378553569,1,left
4.761,0.6250083229039995,0.04766972251223729,0.3690039935617462,-1.0526739591668293,-0.8435112564154693,1.224174817436023,-0.09769145939585303,-0.23362057583505388,0.6121911581114516,1,left
4.765,0.6224491096558115,0.046751890871518334,0.36478976391298173,-1.0127953562842162,-0.9822229413888187,1.250828966925328,-0.06534240653951404,-0.23547520660469579,0.5654086435477598,1,left
4.766,0.6198077849935011,0.04608287173583528,0.3605980633259045,-0.9732112073297455,-1.1205381356293438,1.2760281058230143,-0.03296517052242717,-0.23713528604764542,0.5184161009599991,1,left
4.77,0.6170869089223833,0.045660469821199895,0.35643143131742966,-0.9339239125406085,-1.2583934417775096,1.2997755527261523,-0.0005821247328537672,-0.23861037832410684,0.4712365590154277,1,left
4.771,0.6142890977627459,0.0454824033789324,0.3522923102632253,-0.8949360441720352,-1.3957262286337067,1.3220766832242483,0.03178433509970745,-0.23991047450324912,0.4238930580603957,1,left
4.774,0.611417020301453,0.045546308855858746,0.3481830465278307,-0.8562503778932529,-1.532474666991138,1.3429388896619885,0.06411180868934314,-0.24104597077560075,0.3764086407296077,1,left
4.775,0.6084733939484537,0.04584974555143309,0.3441058915618618,-0.8178699218276538,-1.6685777607660455,1.3623715382225596,0.09637790857293381,-0.24202764596759738,0.3288063432216114,1,left
4.779,0.605460980910861,0.04639020025555854,0.34006300295827147,-0.7797979431251796,-1.8039753738196609,1.3803859233956273,0.1285602771766798,-0.24286663836204025,0.2811091871045556,1,left
4.781000000000001,0.6023825843954859,0.04716509185170436,0.3360564454645173,-0.7420379919557909,-1.9386082528645991,1.3969952198899225,0.16063660366276494,-0.2435744218277499,0.23334017151585995,1,left
4.785,0.5992410448487088,0.04817177586880596,0.332088191951885,-0.7045939228137763,-2.072418046846544,1.4122144320462868,0.1925846406488015,-0.24416278126125981,0.18552226561909357,1,left
4.785,0.5960392362405381,0.049407548963681686,0.3281601243473851,-0.6674699130235372,-2.205347323190066,1.4260603408029544,0.22438222089245968,-0.24464378734298492,0.1376784011810939,1,left
4.791,0.592780062399474,0.050869653313936725,0.3242740345368078,-0.6306704783383792,-2.337339581295208,1.4385514482608166,0.2560072740333808,-0.24502977060992298,0.089831465132146,1,left
4.792,0.5894664534072251,0.05255528089939099,0.32043162524954305,-0.5942004855247566,-2.4683392636691153,1.4497079198924279,0.2874378434841041,-0.24533329484660593,0.042004291971904216,1,left
4.795,0.5861013620668678,0.05446157764786212,0.31663451093665773,-0.5580651618253297,-2.598291765074456,1.4595515244345667,0.3186521035613062,-0.24556712979570888,-0.005780344116337448,1,left
4.796,0.5826877604635149,0.056585647419150197,0.312884218653063,-0.5222701011951312,-2.7271434400737005,1.4681055715002795,0.3496283769481557,-0.245744223189453,-0.05349973758042819,1,left
4.7989999999999995,0.5792286366411604,0.05892455580067569,0.30918218895247446,-0.4868212672060837,-2.8548416093454567,1.4753948469425027,0.38034515257802815,-0.24587767210270137,-0.10113126038054258,1,left
4.8,0.5757269914212596,0.06147533369075029,0.3055297768005225,-0.45172499251607473,-2.981334565146072,1.481445545997594,0.41078110402920426,-0.24598069362844793,-0.14865237157398542,1,left
4.803999999999999,0.5721858353876421,0.06423498065059688,0.30192825250753164,-0.4169879747997705,-3.1065715762865413,1.4862852042333958,0.44091510851949206,-0.24606659487623592,-0.19604062774065564,1,left
4.805,0.5686081860601858,0.06720046801231014,0.2983788026796695,-0.38261726903934895,-3.2305028929914608,1.4899426263228306,0.47072626658896793,-0.24614874229391814,-0.24327369438595353,1,left
4.809,0.5649970652776712,0.07036874173593086,0.2948825311857857,-0.3486202760743432,-3.353079752003286,1.4924478126604674,0.5001939225582258,-0.24624053031308327,-0.29032935845759805,1,left
4.81,0.5613554968081054,0.07373672501446121,0.2914404601367883,-0.31500472731081985,-3.474254382291566,1.4938318838360263,0.5292976858486563,-0.24635534931842384,-0.3371855421124405,1,left
4.813,0.5576865042017738,0.07730132063023881,0.28805353087525337,-0.2817786654911713,-3.5939800117230756,1.494127002975391,0.5580174532503501,-0.24650655294131113,-0.3838203178689143,1,left
4.814,0.5539931088982185,0.08105941306908927,0.28472260497494056,-0.2489504214268742,-3.7122108750448644,1.493366295956395,0.5863334322222354,-0.24670742467786883,-0.4302119252802518,1,left
4.815,0.5502783285938178,0.08500787040092489,0.2814484652509619,-0.21652858659766222,-3.82890222352823,1.4915837695034238,0.6142261652585171,-0.24697114386442479,-0.4763387891968056,1,left
4.8180000000000005,0.546545175872176,0.08914354593767838,0.27823181678019865,-0.18452198152168192,-3.94401033661745,1.4888142271617553,0.641676555106901,-0.2473107512059249,-0.5221795393540701,1,left
4.819,0.5427966570944741,0.09346327968090049,0.2750732879289885,-0.15293961980234355,-4.057492535922831,1.485093183149522,0.6686658901774607,-0.24773911434571882,-0.5677130304263129,1,left
4.823,0.5390357715405444,0.09796389957143459,0.27197343138324837,-0.12179066775874613,-4.169307201893201,1.4804567740822554,0.6951758692323092,-0.24826889412790717,-0.6129183613538604,1,left
4.824,0.5352655107836978,0.10264222255317726,0.26893272517679384,-0.09108439954774995,-4.279413793498417,1.474941668562127,0.7211886246924475,-0.24891251204105794,-0.6577748930823649,1,left
4.828,0.5314888582731284,0.1074950554628737,0.26595157371604117,-0.06083014768698843,-4.387772871247825,1.4685849746212798,0.7466867443423055,-0.24968211903967086,-0.7022622644474894,1,left
4.828,0.5277087890883881,0.11251919575832278,0.2630303088017259,-0.03103724903224359,-4.4943461237119156,1.4614241451093997,0.7716532914585986,-0.2505895657774589,-0.7463604062686038,1,left
4.829,0.5239282698255797,0.11771143209814154,0.2601691906500493,-0.0017149869783171612,-4.599096396940231,1.4534968816301435,0.7960718234381879,-0.25164637425432185,-0.7900495537803145,1,left
4.833,0.5201502585764022,0.12306854478663269,0.25736840891719454,0.02712746806018928,-4.701987724778815,1.4448410385591826,0.8199264089981583,-0.25286371087924836,-0.8333102575295808,1,left
4.834,0.5163777049628003,0.12858730609643076,0.2546280837343297,0.05548111711601055,-4.802985357316022,1.435494529191289,0.8432016440198002,-0.25425236095177844,-0.8761233928650585,1,left
4.838,0.512613550186346,0.13426448047950412,0.25194826676657195,0.08333718802517966,-4.902055785449628,1.425495235544713,0.8658826661066096,-0.25582270456508616,-0.918470168144137,1,left
4.8389999999999995,0.5088607270461225,0.14009682467477652,0.24932894231607433,0.11068718689733,-4.999166760947547,1.4148809224184469,0.8879551679247993,-0.2575846939342026,-0.960332131781904,1,left
4.842,0.5051221598763593,0.14608108771910328,0.24677002849160753,0.1375229456388847,-5.094287312138384,1.403689155778995,0.9094054093931577,-0.2595478321533909,-1.0016911782649895,1,left
4.843,0.5014007643548843,0.15221401086796166,0.24427137846389685,0.1638366656091376,-5.1873877555163395,1.3919572254480161,0.930220228787373,-0.26172115338720636,-1.0425295532518997,1,left
4.8469999999999995,0.4976994471349283,0.15849232743309175,0.2418327818205509,0.18962095748777769,-5.278439703539387,1.379722072060418,0.9503870528222089,-0.26411320450032283,-1.082829857880059,1,left
4.848,0.4940211052572259,0.16491276254630485,0.23945396603041777,0.2148688774309323,-5.367416068893911,1.3670202182608377,0.9698939057731203,-0.26673202813178554,-1.1225750523983367,1,left
4.852,0.490368625306884,0.17147203286145055,0.2371345980269781,0.23957395959130545,-5.454291065493181,1.353887704104885,0.9887294176970778,-0.2695851472199514,-1.1617484592423382,1,left
4.853,0.48674488228864354,0.1781668462097662,0.23487428592287682,0.2637302450764675,-5.539040206471202,1.3403600266300755,1.006882831810512,-0.2726795509850059,-1.2003337656681967,1,left
4.857,0.48315273820361065,0.1849939012266328,0.23267258086942944,0.287332307417813,-5.6216402994274635,1.326472083560048,1.024344011080387,-0.27602168237659613,-1.2383150260590061,1,left
4.8580000000000005,0.4795950403198074,0.19194988696898635,0.23052897907415346,0.31037527462114534,-5.702069439172125,1.3122581211044102,1.04110344408249,-0.2796174269947914,-1.2756766640163941,1,left
4.863,0.47607461913749743,0.19903148254198133,0.22844292398711158,0.33285484786827035,-5.780306998215025,1.2977516858154299,1.0571522501790687,-0.28347210349327456,-1.3124034743480466,1,left
4.863,0.4725942860570245,0.20623535675182283,0.22641380866432023,0.3547673169373914,-5.8563336152357754,1.2829855804617494,1.072482184065954,-0.28759045547437717,-1.3484806250602628,1,left
4.869,0.46915683076088854,0.2135581678000123,0.22444097831367596,0.3761095724084928,-5.930131181765947,1.2679918238783607,1.0870856397372948,-0.29197664488630115,-1.383893659462834,1,left
4.87,0.46576501832218425,0.22099656303306264,0.22252373302578202,0.3968791147182815,-6.001682827308041,1.2528016147512386,1.1009556539139906,-0.29663424693360885,-1.4186284984917232,1,left
4.872,0.46242158604687755,0.22854717876164307,0.22066133068939645,0.41707406012762877,-6.070972903109651,1.237445299294285,1.1140859089798483,-0.30156624651282227,-1.4526714433531538,1,left
4.873,0.4591292400479752,0.2362066401643647,0.21885299008889908,0.43669314366281736,-6.137986964804712,1.221952342775574,1.1264707354673933,-0.3067750361857394,-1.486009178590807,1,left
4.876,0.455890651539616,0.24397156129243788,0.21709789417802525,0.45573571909025584,-6.202711754127427,1.2063513048493304,1.1381051141331713,-0.3122624157038544,-1.5186287756758883,1,left
4.877,0.4527084528331225,0.2518385451902826,0.21539519352036263,0.47420175598267106,-6.2651351798978485,1.1906698186495863,1.1489846776602468,-0.3180295930980542,-1.5505176972178232,1,left
4.882,0.4495852330168105,0.25980418414357953,0.21374400988484774,0.4920918339331384,-6.325246298471605,1.1749345736010723,1.1591057120234645,-0.32407718734856056,-1.58166380189133,1,left
4.883,0.4465235333059521,0.2678650600612751,0.2121434399846019,0.509407133971654,-6.383035293839696,1.159171301902585,1.168465157543071,-0.3304052326235061,-1.6120553501380304,1,left
4.883,0.44352584205629886,0.27601774499414894,0.21059255934831522,0.5261494272372984,-6.438493457557648,1.1434047686378404,1.1770606096110228,-0.33701318393845564,-1.6416810105210662,1,left
4.886,0.44059458944243,0.28425880179103225,0.20909042631351762,0.5423210609573863,-6.491613168676688,1.1276587654686623,1.1848903190017648,-0.3438999238436039,-1.670529866289395,1,left
4.887,0.43773214181197406,0.2925847848907568,0.2076360861315614,0.5579249417833511,-6.542387873842944,1.1119561078652802,1.191953191637974,-0.35106376960930047,-1.6985914215286695,1,left
4.8919999999999995,0.43494079573823136,0.3009922412403594,0.20622857517723728,0.5729645165314619,-6.590812067723959,1.0963186358284898,1.1982487877186705,-0.3585024805182394,-1.725855606451005,1,left
4.893,0.43222277180324653,0.3094777113225423,0.2048669252593345,0.5874437503748396,-6.636881273915113,1.080767218058496,1.2037773201852717,-0.36621326511983593,-1.7523127816933812,1,left
4.896,0.4295802081493827,0.3180377302727058,0.20355016802568526,0.601367102583348,-6.680592026450211,1.065321759480898,1.208539652538055,-0.3741927884399895,-1.7779537416697424,1,left
4.897,0.4270151538402147,0.32666882906775224,0.202277339447601,0.6147395001650438,-6.721941851925825,1.0500012118181008,1.2125372960211191,-0.3824371791675958,-1.8027697170551047,1,left
4.897,0.4245295620715226,0.33536753577351797,0.20104748436205244,0.6275663102269685,-6.760929252047934,1.0348235864944195,1.2157724061917279,-0.3909420368399517,-1.826752376477653,1,left
4.901,0.4221252832763918,0.3441303768406935,0.19985966104866432,0.6398533121301926,-6.79755368629471,1.0198059689410717,1.2182477788877177,-0.39970243904996866,-1.8498938274924663,1,left
4.902,0.41980405818015626,0.3529538784362462,0.1987129458194946,0.6516066702537132,-6.8318155544904515,1.0049645335899873,1.21996684560446,-0.40871294869886826,-1.8721866169081456,1,left
4.906000000000001,0.4175675108752212,0.361834567792376,0.1976064376002337,0.6628329077145401,-6.863716179273141,0.9903145592460283,1.2209336682906762,-0.4179676213187816,-1.8936237305352228,1,left
4.907,0.4154171419953416,0.37076897455387975,0.19653926248092984,0.6735388811310233,-6.893257788539261,0.9758704447500365,1.2211529335702278,-0.4274600124904076,-1.9141985924228142,1,left
4.912,0.41335432207354034,0.3797536321071663,0.1955105782126159,0.6837317564632016,-6.920443497964274,0.9616457248901095,1.220629946394823,-0.437183185381601,-1.9339050636475414,1,left
4.912,0.4113802851681365,0.38878507887706903,0.19451957862454952,0.6934189859624359,-6.945277293690455,0.9476530865190494,1.2193706231304309,-0.44712971843346405,-1.952737440716294,1,left
4.916,0.4094961228366477,0.3978598595805284,0.1935654979361166,0.7026082862610992,-6.967764015266907,0.9339043848365195,1.2173814840780466,-0.457291713221195,-1.9706904536419227,1,left
4.917,0.40770277852892467,0.4069745264298254,0.1926476149370015,0.7113076176316195,-6.987909338919888,0.9204106597950709,1.2146696454273107,-0.46766080251760916,-1.9877592637484627,1,left
4.921,0.406001042460901,0.41612564028188564,0.1917652570073873,0.7195251644427225,-7.0057197612248,0.9071821525898698,1.211242810639387,-0.47822815858789103,-2.0039394612599772,1,left
4.922,0.4043915470203021,0.4253097717328412,0.19091780394713453,0.7272693168392877,-7.021202583244438,0.8942283221926511,1.207109261253396,-0.48898450174474944,-2.0192270627245867,1,left
4.926,0.40287476274713674,0.43452350215746866,0.19010469158075377,0.7345486536708296,-7.034365895191404,0.8815578618911585,1.2022778471086284,-0.49992010919374735,-2.033618508322704,1,left
4.927,0.40145099492543934,0.44376342469122776,0.18932541510281609,0.7413719266922247,-7.045218561665835,0.8691787157960871,1.1967579759727174,-0.5110248241991407,-2.047110659105953,1,left
4.9319999999999995,0.4001203808172615,0.45302614514912853,0.188579532125182,0.7477480460589537,-7.053770207512981,0.8570980952783359,1.1905596025639085,-0.5222880656011079,-2.0597007942106744,1,left
4.933,0.3988828875645127,0.4623082828714677,0.18786666538489014,0.7536860671377857,-7.060031204338441,0.8453224953001884,1.1836932169535717,-0.533698837715761,-2.0713866080873626,1,left
4.937,0.3977383107792449,0.47160647148254164,0.18718650507125276,0.759195178652528,-7.064012657712257,0.8338577106048738,1.1761698323331182,-0.5452457406498188,-2.0821662077847796,1,left
4.938,0.3966862738380201,0.4809173595454747,0.18653881073159204,0.7642846921831761,-7.065726395086465,0.8227088517298202,1.1680009721275404,-0.5569169810622718,-2.0920381103249137,1,left
4.941,0.3957262278906668,0.4902376110942331,0.18592341271633966,0.7689640330355436,-7.065184954444091,0.811880360809782,1.1591986564358703,-0.568700383405798,-2.1010012402023475,1,left
4.942,0.3948574525885482,0.4995639060228028,0.18534021312692442,0.7732427324972162,-7.0624015736910914,0.8013760271369191,1.1497753877769705,-0.5805834016810719,-2.1090549270389998,1,left
4.946000000000001,0.39407905753303024,0.5088929403125317,0.1847891862348407,0.7771304214944724,-7.057390180796148,0.7911990024458091,1.1397441361172185,-0.592553131737472,-2.116198903422597,1,left
4.947,0.3933899844407538,0.5182214260820938,0.18427037834722806,0.7806368256636338,-7.0501653846768235,0.7813518158922917,1.1291183231548194,-0.604596324154007,-2.1224333029546223,1,left
4.9510000000000005,0.39278901001803707,0.5275460914485135,0.18378390710236242,0.7837717618491573,-7.04074246682409,0.7718363886959791,1.1179118058337096,-0.6166993977345723,-2.127758658530877,1,left
4.952,0.3922747495337132,0.5368636801916203,0.1833299601865679,0.7865451360396578,-7.0291373736508795,0.7626540484172003,1.1061388590778034,-0.628848453652419,-2.1321759008722845,1,left
4.952,0.39184566108004115,0.546170951220805,0.18290879347124253,0.7889669427519556,-7.015366709543918,0.7538055428400944,1.0938141578323506,-0.6410292902815524,-2.1356863573064735,1,left
4.956,0.39150005051402986,0.5554646778519188,0.18252072857495316,0.7910472658721764,-6.999447730591828,0.745291053434521,1.0809527586733956,-0.6532274187576774,-2.1382917507720163,1,left
4.957,0.39123607707367947,0.5647416469086359,0.18216614986177807,0.7927962809618928,-6.98139833895618,0.7371102083704123,1.067570081342418,-0.665428079314066,-2.1399941990001077,1,left
4.96,0.39105175966458416,0.5739986576646021,0.1818455008932806,0.7942242590362849,-6.961237077845982,0.7292620950591456,1.0536818904639405,-0.6776162584351835,-2.140796213840349,1,left
4.961,0.3909449838133832,0.5832325206439553,0.18155928035660124,0.7953415718203187,-6.938983127049912,0.7217452721974768,1.0393042775264443,-0.6897767068662355,-2.140700700720749,1,left
4.965,0.39091350928570806,0.5924400563007509,0.18130803749496316,0.7961586984323529,-6.914656298984575,0.7145577813190748,1.024453643107732,-0.7018939585141784,-2.1397109582439517,1,left
4.965,0.39095497836613413,0.6016180936010029,0.18109236706893805,0.7966862331654775,-6.8882770352614635,0.7076971580023685,1.0091466793048685,-0.7139523502751725,-2.1378306779219947,1,left
4.966,0.3910669247951581,0.6107634685330681,0.18091290387613987,0.7969348935352646,-6.8598664038602015,0.7011604431412567,0.9934003523274376,-0.7259360428233796,-2.1350639440493295,1,left
4.97,0.3912467833527044,0.6198730225730513,0.1807703168561151,0.7969155274835665,-6.829446097040084,0.6949441948288939,0.9772318852114855,-0.7378290423958805,-2.131415233711276,1,left
4.971,0.3914919000691765,0.6289436011316069,0.18066530280953913,0.7966391189053478,-6.797038430065627,0.6890445012629886,0.9606587406102164,-0.7496152236083174,-2.1268894169225123,1,left
4.975,0.3917995430350032,0.6379720520067541,0.18059857976530505,0.79611679116547,-6.762666340725115,0.6834569948250844,0.943698603616241,-0.7612783533356555,-2.121491756887661,1,left
4.976,0.3921669137689506,0.6469552238648744,0.18057088003335378,0.7953598085497576,-6.726353389564914,0.6781768673445054,0.9263693645689686,-0.7728021156921923,-2.1152279103735045,1,left
4.979,0.39259115909438247,0.6558899647693399,0.1805829429853626,0.7943795756495781,-6.688123760746488,0.6731988865300054,0.9086891017995705,-0.7841701381446387,-2.108103928179839,1,left
4.98,0.39306938346194964,0.6647731207723709,0.180635507610251,0.7931876346784563,-6.648002263427436,0.668517413553059,0.8906760642648313,-0.7953660187917426,-2.100126255693468,1,left
4.985,0.39359866164784846,0.6736015345796321,0.1807293048969072,0.7917956607185784,-6.606014333562286,0.6641264217676179,0.8723486540201439,-0.8063733548435233,-2.0913017335073616,1,left
4.986000000000001,0.3941760517499796,0.6823720442895506,0.18086505010296838,0.7902154548943875,-6.562186036013261,0.6600195165520154,0.8537254084808997,-0.8171757723327393,-2.0816375980845216,1,left
4.99,0.3947986084005927,0.691081482202987,0.18104343497494144,0.7884589354698772,-6.516544066855833,0.6561899562595626,0.8348249824205629,-0.8277569570907165,-2.0711414824436587,1,left
4.9910000000000005,0.3954633961115413,0.6997266736953445,0.18126511998869302,0.7865381268656088,-6.4691157557584855,0.652630674265203,0.8156661296528225,-0.8381006870191241,-2.059821416841339,1,left
4.994,0.3961675026655201,0.7083044361421312,0.1815307266795064,0.7844651465909359,-6.419929068310839,0.6493343020964176,0.7962676843443596,-0.8481908656886938,-2.0476858294228584,1,left
4.995,0.39690805246448274,0.7168115778897981,0.1818408301294363,0.78225219008642,-6.369012608169096,0.6462931936373615,0.7766485419039775,-0.8580115572952446,-2.0347435468117077,1,left
5.001,0.39768221974484735,0.7252448972656613,0.18219595167755576,0.7799115134709409,-6.316395618882586,0.6434994503959915,0.7568276393930943,-0.8675470230026945,-2.021003794605129,1,left
5.001,0.3984872415666527,0.7336011816230478,0.1825965519150117,0.7774554141875767,-6.262107985260208,0.6409449478246996,0.7368239354019146,-0.8767817587020096,-2.006476197740918,1,left
5.008,0.39932043048121624,0.7418772064204728,0.18304302402171946,0.7748962095419213,-6.206180234130535,0.6386213626856974,0.7166563893349583,-0.8857005342142705,-1.9911707806983117,1,left
5.0089999999999995,0.4001791867812875,0.7500697343373408,0.18353568749616478,0.7722462131261415,-6.148643534344507,0.6365202014531102,0.6963439400490483,-0.894288433965214,-1.9750979674935156,1,left
5.0089999999999995,0.4010610102398203,0.7581755144338599,0.18407478232410512,0.7695177091217444,-6.089529695864813,0.6346328297444233,0.6759054837863318,-0.9025308991577476,-1.9582685814281526,1,left
5.01,0.40196351124790564,0.766191281369657,0.1846604636256872,0.7667229244737302,-6.028871167781375,0.632950502774587,0.6553598513444417,-0.9104137714680252,-1.9406938445466915,1,left
5.015,0.4028844212689295,0.7741137547030268,0.18529279681467,0.7638739989285435,-5.96670103508771,0.6314643968267267,0.6347257844254852,-0.9179233382897216,-1.9223853767567054,1,left
5.016,0.4038216025339527,0.7819396382998512,0.18597175329902046,0.760982952928012,-5.903053014048412,0.6301656417340167,0.6140219111051848,-0.9250463795501592,-1.9033551945636378,1,left
5.019,0.404773056912205,0.7896656198877748,0.186697206748654,0.7580616533512692,-5.837961445983591,0.6290453543678649,0.5932667204077476,-0.9317702160397637,-1.8836157093835377,1,left
5.019,0.40573693390208226,0.7972883707959345,0.18746892995176134,0.7551217770965031,-5.7714612892917225,0.6280946731281227,0.5724785361945495,-0.9380827587896043,-1.8631797254647706,1,left
5.02,0.4067115377018979,0.8048045459225432,0.18828659227524971,0.7521747724942527,-5.703588109528146,0.6273047934315669,0.5516754909755132,-0.9439725583004687,-1.8420604375729832,1,left
5.025,0.4076953333299287,0.8122107839753182,0.189149757739529,0.7492318185438818,-5.634378067352301,0.626667004195418,0.5308755004746817,-0.9494288520201144,-1.8202714286612116,1,left
5.026,0.40868695176665387,0.8195037080362287,0.19005788371455387,0.746303781964813,-5.563867904152738,0.6261727253131457,0.5100962395586207,-0.9544416088698254,-1.7978266676753725,1,left
5.0280000000000005,0.40968519409450743,0.8266799265090232,0.19101032024009454,0.7434011720540782,-5.492094925154991,0.6258135461202715,0.4893551197352548,-0.9590015703503748,-1.7747405075180736,1,left
5.0280000000000005,0.4106890346181277,0.8337360345106369,0.19200630996610665,0.7405340933417548,-5.419096979813583,0.625581264848319,0.4686692682079751,-0.9631002881619145,-1.7510276831221034,1,left
5.035,0.41169762296000134,0.8406686157657274,0.19304498870034895,0.7377121960358971,-5.344912439285679,0.625467929065474,0.448055508425363,-0.9667301583521736,-1.7267033095691537,1,left
5.0360000000000005,0.4127102851391421,0.847474245059314,0.19412538654394418,0.7349446243664639,-5.269580170895838,0.6254658770303461,0.4275303420669839,-0.9698844520060454,-1.7017828801874848,1,left
5.0360000000000005,0.4137265236510433,0.8541494912960654,0.19524642959389413,0.7322399635269043,-5.193139510075548,0.6255677795227921,0.40710993240586135,-0.9725573424883208,-1.6762822645604507,1,left
5.038,0.4147460165736584,0.8606909212063558,0.19640694219322663,0.7296061869725186,-5.115630231297783,0.6257666810630772,0.3868100889884498,-0.9747439292499821,-1.6502177063760342,1,left
5.038,0.4157686157299463,0.8670951037314799,0.19760564970925318,0.7270506064239313,-5.0370925201012895,0.6260560390681703,0.3666462535731777,-0.9764402582071082,-1.6236058210458397,1,left
5.043,0.41679434394844317,0.8733586151154599,0.19884118181515903,0.7245798263351267,-4.9575669477183535,0.6264297598570686,0.34663348726893184,-0.9776433387000544,-1.5964635930203221,1,left
5.043,0.41782339147940356,0.8794780447269849,0.20011207624313834,0.7221997035253779,-4.877094448776787,0.6268822310703545,0.3267864588152007,-0.9783511570391836,-1.568808372725409,1,left
5.047,0.4188561116403727,0.885450001630023,0.2014167829725701,0.7199153120855541,-4.795716301966136,0.6274083504322429,0.30711943394598396,-0.9785626866420148,-1.5406578730441056,1,left
5.048,0.4198930157777701,0.8912711219159207,0.20275366881401746,0.7177309135517239,-4.713474113439771,0.6280035508561831,0.28764626578000774,-0.978277894765239,-1.512030165265148,1,left
5.052,0.4209347676384127,0.8969380768050176,0.20412102234817148,0.7156499323392235,-4.630409802721749,0.6286638218953008,0.268380386180262,-0.9774977458336358,-1.4829436744192939,1,left
5.052,0.4219821772467517,0.9024475815231429,0.20551705917882107,0.7136749364306406,-4.54656559088477,0.6293857275391834,0.24933479802639125,-0.976224201366497,-1.453417173922424,1,left
5.0569999999999995,0.4230361943816418,0.9077964049573227,0.20693992746078824,0.7118076233114456,-4.4619839907630565,0.6301664203587111,0.23052206834402664,-0.9744602165007421,-1.423469779443253,1,left
5.058,0.42409790174286816,0.9129813800933849,0.20838771366710948,0.7100488111472941,-4.3767077989616245,0.6310036520008198,0.2119543222357414,-0.9722097331084878,-1.393120941912133,1,left
5.062,0.4251685078939265,0.9179994152336877,0.20985844856228048,0.7083984351973349,-4.290780089421178,0.6318957800352678,0.19364323755894366,-0.9694776695054202,-1.3623904395861677,1,left
5.062,0.4262493400660637,0.922847505983794,0.21135011334783155,0.7068555494581591,-4.204244208295731,0.6328417711556411,0.17560004029668944,-0.9662699067449099,-1.3312983690846483,1,left
5.0680000000000005,0.4273418369145809,0.9275227479796604,0.21286064594808873,0.7054183335333372,-4.117143769898089,0.6338412007369996,0.15783550056809995,-0.9625932714914152,-1.2998651353076727,1,left
5.069,0.42844754133862334,0.9320223502993225,0.21438794741377706,0.7040841047238017,-4.029522653466416,0.6348942487527247,0.14035992922580545,-0.9584555154653402,-1.2681114401497064,1,left
5.072,0.42956809351270475,0.9363436494646006,0.21592988842745836,0.7028493353346388,-3.9414250005034055,0.6360016920532859,0.12318317498860487,-0.9538652914501439,-1.2360582699188134,1,left
5.072,0.4307052243233592,0.9404841238911248,0.21748431587306194,0.7017096751941548,-3.8528952124379217,0.637164893009797,0.10631462205833057,-0.9488321258511562,-1.2037268813712987,1,left
5.0760000000000005,0.43186074943663516,0.9444414085946867,0.21904905936735725,0.7006599793813777,-3.763977948357499,0.6383857845253886,0.08976318817073745,-0.9433663877942361,-1.1711387862705926,1,left
5.0760000000000005,0.43303656421675124,0.948213309916619,0.2206219375482414,0.6996943411584344,-3.6747181225587107,0.6396668514175831,0.07353732303109166,-0.9374792547511003,-1.138315734378339,1,left
5.082,0.4342346396559814,0.9517978199956121,0.22220076379465578,0.6988061301045224,-3.5851609016611863,0.6410111081750136,0.05764500708601992,-0.931182674676889,-1.1052796947848529,1,left
5.083,0.43545701936097797,0.9551931306865896,0.22378335095325647,0.697988035448445,-3.495351701029933,0.6424220730920048,0.04209375058408921,-0.9244893246442915,-1.072052835485382,1,left
5.087,0.4367058174990182,0.9583976466116575,0.22536751461246404,0.6972321145969229,-3.40533618024964,0.6439037387846984,0.026890592891251584,-0.9174125660292619,-1.038657501161433,1,left
5.087,0.43798321749340174,0.961409997042954,0.2269510745268332,0.6965298468561152,-3.315160237393792,0.645460539092594,0.012042102091894638,-0.9099663966617654,-1.0051161893933633,1,left
5.088,0.43929147119771517,0.9642290463707278,0.22853185394818765,0.6958721923439813,-3.224870001830691,0.6470973123695672,-0.0024456249782148524,-0.9021654010011122,-0.9714515260114718,1,left
5.091,0.4406328982216395,0.96685390297218,0.23010767683144376,0.6952496560912942,-3.1345118253078925,0.6488192611686309,-0.016566962056158565,-0.894024699753923,-0.9376862405598819,1,left
5.091,0.44200988497213767,0.9692839263518899,0.23167636313136905,0.6946523573292692,-3.0441322710561107,0.650631908324922,-0.030316751984961116,-0.8855598999921213,-0.9038431425795515,1,left
5.096,0.4434248828563045,0.9715187325091842,0.233235722675058,0.6940701039618985,-2.953778100653302,0.6525410494416276,-0.04369030442077989,-0.8767870461800772,-0.8699450989348001,1,left
5.096,0.4448804050464045,0.9735581976189308,0.2347835483302442,0.6934924722211799,-2.8634962583894623,0.6545527017838079,-0.056683392742016114,-0.8677225721594695,-0.8360150121399167,1,left
5.102,0.44637902126053625,0.9754024602399135,0.2363176093144861,0.6929088913655679,-2.773333852950773,0.6566730496845273,-0.06929225019983658,-0.8583832540675801,-0.8020757995886713,1,left
5.102,0.4479233501448839,0.9770519223254015,0.23783564545384223,0.6923087325923346,-2.683338136632678,0.6589083870639315,-0.08151356534851548,-0.8487861641638588,-0.768150373589403,1,left
5.103,0.4495160490131001,0.9785072492994161,0.2393353630334845,0.6916814000931176,-2.593556482995252,0.6612650585549117,-0.09334447679291405,-0.8389486255387486,-0.734261622108259,1,left
5.106,0.45115980085595664,0.9797693694444171,0.24081443270572062,0.6910164214922316,-2.504036364265435,0.6637494012252662,-0.10478256728931266,-0.8288881676779852,-0.7004323901231388,1,left
5.107,0.45285729866428054,0.9808394728715849,0.24227048980142674,0.6903035355969583,-2.4148253294003093,0.6663676883906442,-0.11582585723469786,-0.8186224828548335,-0.6666854614909312,1,left
5.111000000000001,0.45461122722855246,0.9817190103843362,0.24370113726209855,0.6895327766303699,-2.3259709830226645,0.6691260761201977,-0.12647279757848615,-0.8081693833220401,-0.6330435412307401,1,left
5.111000000000001,0.45642424269505677,0.9824096925525282,0.2451039512130044,0.6886945548068215,-2.2375209650499386,0.6720305525412795,-0.13672226218953876,-0.7975467592746389,-0.5995292381259688,1,left
5.1160000000000005,0.45829895025275197,0.9829134892880756,0.2464764889821211,0.6877797332480403,-2.149522930760377,0.6750868899507242,-0.14657353971018866,-0.7867725375541578,-0.5661650475483626,1,left
5.1160000000000005,0.460237880384401,0.983232630170484,0.24781629920318968,0.6867797012375771,-2.062024531041243,0.6783005997406483,-0.15602632492786306,-0.7758646410642347,-0.5329733344074152,1,left
5.121,0.4622434641453216,0.9833696057189641,0.24912093354584744,0.685686443811194,-1.9750733925650985,0.6816768901471268,-0.1650807096937439,-0.7648409488671667,-0.4999763161289102,1,left
5.122000000000001,0.4643180079447374,0.9833271697445914,0.2503879595851992,0.6844926076805397,-1.8887170976414558,0.6852206268305366,-0.1737371734167659,-0.7537192569304794,-0.4671960455667987,1,left
5.126,0.4664636683046149,0.9831083428382156,0.25161497434387564,0.6831915634872235,-1.803003163492551,0.6889362962968101,-0.18199657316010734,-0.7425172394922193,-0.4346543937531112,1,left
5.127000000000001,0.4686824270595856,0.9827164169529881,0.25279961809382856,0.6817774643841336,-1.7179790207035452,0.6928279721693107,-0.1898601333661859,-0.7312524110133387,-0.4023730323911569,1,left
5.132000000000001,0.47097606743831555,0.9821549609221649,0.25393958807349337,0.6802453009405494,-1.6336919905991856,0.6968992843215173,-0.19732943523502858,-0.719942088685263,-0.3703734159978919,1,left
5.132999999999999,0.4733461514321774,0.9814278266193519,0.2550326518439082,0.6785909523673059,-1.550189261300789,0.7011533908812024,-0.2044064057797459,-0.7086033554604964,-0.3386767636020175,1,left
5.135,0.47579399881141166,0.9805391553359758,0.2560766600687843,0.6768112340579316,-1.4675178622194018,0.7055929531172915,-0.2110933065817034,-0.697253023573943,-0.3073040399051188,1,left
5.136,0.4783206680907528,0.9794933838407763,0.25706955855760716,0.674903941441351,-1.3857246367431029,0.7102201132211049,-0.21739272226685186,-0.685907598522489,-0.2762759358139649,1,left
5.141,0.4809269396771206,0.9782952495152014,0.25800939945643503,0.6728678901413927,-1.3048562128786692,0.7150364749942099,-0.22330754872355177,-0.6745832434703068,-0.2456128482529575,1,left
5.142,0.48361330135920816,0.9769497939329321,0.2588943515040157,0.6707029524379856,-1.2249589716102118,0.7200430874556415,-0.2288409810811066,-0.6632957440473144,-0.21533485916664835,1,left
5.146,0.48637993623352743,0.9754623642695535,0.2597227092873259,0.6684100900245615,-1.146079012739915,0.7252404313817872,-0.23399650146710832,-0.652060473508227,-0.18546171362323374,1,left
5.147,0.48922671311051064,0.9738386119843112,0.26049290143320153,0.6659913830558143,-1.0682621179786598,0.7306284087927744,-0.2387778665605936,-0.6408923582197089,-0.15601279693098227,1,left
5.15,0.49215317940608316,0.9720844883035271,0.2612034976725063,0.6634500554795997,-0.9915537110571145,0.7362063353997446,-0.24318909495691365,-0.629805843443227,-0.1270071106806578,1,left
5.152,0.4951585564907322,0.9702062361516034,0.26185321472333095,0.6607904966463923,-0.9159988146307853,0.7419729360279433,-0.24723445435913727,-0.6188148593813663,-0.09846324762816205,1,left
5.156000000000001,0.4982417374306169,0.968210378324056,0.26244092096499605,0.6580182791893583,-0.8416420037555762,0.7479263430311051,-0.2509184486097305,-0.6079327874555533,-0.07039936533283869,1,left
5.156000000000001,0.5014012870124024,0.966103701870388,0.2629656399083973,0.6551401731677534,-0.7685273557135993,0.7540640977131509,-0.254245804581811,-0.5971724268326736,-0.04283315852909569,1,left
5.157,0.5046354439103173,0.9638932388114649,0.2634265524966738,0.6521641564660187,-0.6966983959722737,0.7603831547737644,-0.2572214589813056,-0.5865459614648564,-0.015781830515040108,1,left
5.16,0.5079421248436533,0.9615862434229429,0.26382299828603106,0.6490994214406232,-0.6261980400632058,0.766879889794941,-0.2598505451698483,-0.5760649283507432,0.010737935608321073,1,left
5.1610000000000005,0.5113189305679016,0.9591901664128836,0.26415447556850147,0.6459563778064034,-0.5570685311709069,0.7735501097861359,-0.26213838015031315,-0.5657401879734191,0.0367100047076207,1,left
5.165,0.5147631535246624,0.9567126264541088,0.26442064051474007,0.6427466517538706,-0.48935137322509115,0.7803890668061569,-0.2640904518227854,-0.5555818976240559,0.06211881556095166,1,left
5.165,0.5182717869651119,0.9541613796557707,0.2646213054265175,0.639483081288703,-0.42308725929411806,0.7873914746804563,-0.26571240655823275,-0.5455994878769991,0.08694940468546299,1,left
5.171,0.5218415353821626,0.9515442876003339,0.2647564361837996,0.6361797077788095,-0.35831599521919894,0.7945515287781577,-0.26701003710307686,-0.5358016422359659,0.11118742806236688,1,left
5.172000000000001,0.5254688261276014,0.9488692845129074,0.26482614895218237,0.6328517636661052,-0.2950764191236414,0.8018629285395611,-0.26798927082028534,-0.5261962799221903,0.13481918083231714,1,left
5.172000000000001,0.5291498221299116,0.9461443440118502,0.26483070619227606,0.6295156562494938,-0.23340631867866105,0.8093189019519994,-0.2686561582716558,-0.5167905417758581,0.15783161503245954,1,left
5.176,0.5328804356484255,0.9433774458019213,0.26477051199165247,0.6261889474173821,-0.17334234870217563,0.8169122308982953,-0.2690168621450324,-0.5075907792427032,0.1802123554447546,1,left
5.1770000000000005,0.5366563429965252,0.9405765426634567,0.26464610672615957,0.6228903292360387,-0.11491995098079498,0.8246352765765753,-0.2690776465292818,-0.49860254641818447,0.2019497136234317,1,left
5.18,0.5404730001571545,0.9377495281073042,0.2644581610510206,0.6196395953505898,-0.05817327696664443,0.8324800046839551,-0.2688448665389568,-0.489830595122239,0.22303270016765686,1,left
5.181,0.5443256592136293,0.9349042050402925,0.2642074692248279,0.6164576081835198,-0.003135113314670331,0.8404380103310772,-0.26832495828969766,-0.48127887297819444,0.243451035303683,1,left
5.184,0.5482093855279111,0.9320482557267409,0.2638949417834953,0.6133662619212478,0.050163189907330416,0.848500542709669,-0.26752442922455905,-0.4729505244700302,0.26319515783890446,1,left
5.185,0.5521190756116569,0.9291892132678887,0.2635215976038272,0.6103884412794833,0.1016917884989047,0.8566585295356395,-0.26644984879060835,-0.46484789495279566,0.28225623254835913,1,left
5.193,0.5560494756484341,0.9263344347631645,0.26308855542138093,0.6075479760382696,0.15142241105540358,0.8649026012905575,-0.2651078394643156,-0.45697253759162565,0.30062615605231485,1,left
5.195,0.5599952006346396,0.9234910762661173,0.26259702488886477,0.6048695913378813,0.19932842369775639,0.8732231152846524,-0.2635050681234491,-0.44932522320543394,0.31829756124163977,1,left
5.195,0.563950754109657,0.9206660696056994,0.2620482972754228,0.6023788537270746,0.24538489275152567,0.8816101795647533,-0.2616482377624041,-0.44190595299201046,0.33526382030569707,1,left
5.196000000000001,0.5679105484422782,0.9178661011117115,0.2614437359125517,0.6001021129555821,0.28956864551804834,0.8900536766908309,-0.2595440795471245,-0.4347139741119006,0.35151904641552023,1,left
5.2,0.5718689256295698,0.9150975922614201,0.260784766489723,0.5980664395032154,0.33185832927523057,0.8985432874050189,-0.2571993452050264,-0.4277477981090978,0.3670580941130194,1,left
5.2010000000000005,0.5758201785448895,0.9123666822517419,0.2600728672935113,0.5962995578384737,0.3722344686402547,0.9070685142171903,-0.25462079974460505,-0.4210052221472343,0.38187655845494595,1,left
5.204,0.5797585725433287,0.9096792124954844,0.2593095594711675,0.5948297754001787,0.41067952142108033,0.9156187049313225,-0.25181521449869393,-0.41448335304060585,0.3959707729583014,1,left
5.205,0.5836783672967304,0.9070407130375573,0.2584963973866482,0.5936859072963467,0.4471779330781836,0.9241830761370154,-0.2487893604846554,-0.408178634060014,0.4093378063918192,1,left
5.209,0.587573838689993,0.9044563908856116,0.25763495912601375,0.5928971967152834,0.48171618991248893,0.9327507366906311,-0.24555000207410996,-0.4020868744940502,0.4219754584560834,1,left
5.209,0.5914393005712281,0.9019311202475552,0.2567268372009873,0.5924932310447397,0.5142828710899,0.9413107112105942,-0.24210389096415888,-0.39620328194707843,0.43388225439276523,1,left
5.2139999999999995,0.5952691261172055,0.8994694346644262,0.25577362949615134,0.5925038536959081,0.5448686996072525,0.9498519636114321,-0.2384577604414224,-0.3905224973557954,0.44505743856137275,1,left
5.215,0.5990577685574707,0.8970755210217807,0.2547769305074296,0.5929590716300548,0.5734665922988821,0.9583634207011453,-0.2346183199296022,-0.385038632706858,0.4555009670198157,1,left
5.218999999999999,0.6027997809963515,0.8947532154182538,0.2537383229250938,0.5938889585866937,0.600071708977345,0.9668339958664735,-0.2305922498106827,-0.3797453114386642,0.46521349914298815,1,left
5.22,0.6064898350799746,0.8925060008676806,0.25265936962102703,0.5953235540133959,0.6246815007961378,0.9752526128705702,-0.22638619650931166,-0.3746357115109567,0.47419638831147354,1,left
5.223,0.6101227382741672,0.8903370068114753,0.2515416061064298,0.597292757698607,0.6472957579165636,0.9836082297875144,-0.2220067678293446,-0.36970261112648,0.4824516717003732,1,left
5.224,0.6136934495498839,0.8882490104212413,0.2503865335301257,0.5998262201102098,0.6679166565551657,0.9918898630979671,-0.21746052853231637,-0.3649384370122218,0.4899820592008322,1,left
5.225,0.6171970933177756,0.8862444396771487,0.24919561228379217,0.6029532284440161,0.6865488054824284,1.0000866119701362,-0.21275399615366272,-0.3603353147820465,0.49679092152808146,1,left
5.229,0.6206289715063961,0.8843253782128268,0.2479702562686725,0.6067025883879101,0.7031992920377109,1.0081876827500256,-0.20789363706385278,-0.3558851202077889,0.5028822776097392,1,left
5.23,0.6239845737220993,0.8824935719184905,0.24671182786812848,0.6111025016089825,0.7178777277196666,1.016182413684741,-0.20288586278768933,-0.3515795298401128,0.508260781369377,1,left
5.236000000000001,0.6272595854568002,0.8807504372867468,0.24542163366652317,0.6161804389727017,0.7305962934056847,1.024060299902372,-0.19773702658799802,-0.34741006980715045,0.5129317079949403,1,left
5.237,0.6304498943385648,0.87909707146722,0.24410092094700062,0.6219630095049542,0.7413697842482093,1.0318110186717018,-0.19245342030764798,-0.34336816231462186,0.5169009397375434,1,left
5.2379999999999995,0.6335515944602534,0.8775342639695479,0.2427508749795069,0.6284758253181534,0.7502156541274976,1.0394244549289267,-0.1870412714568465,-0.3394451697577981,0.5201749512607678,1,left
5.239,0.6365609888590776,0.8760625099311405,0.24137261708355245,0.6357433637670759,0.757154058721587,1.046890726879428,-0.18150674053093027,-0.3356324364333119,0.5227607945538958,1,left
5.239,0.639474590241179,0.874682024854048,0.23996720342953826,0.643788829978623,0.7622078947849729,1.0542002111604265,-0.17585591854348806,-0.33192132783918593,0.524666083420495,1,left
5.244,0.6422891200634613,0.8733927607001892,0.23853562452544433,0.6526340239443121,0.7654028324087963,1.0613435668711457,-0.1700948247592805,-0.3283032675517902,0.5258989775517758,1,left
5.244,0.6450015061162769,0.872194423200387,0.2370788053155563,0.6622992153239572,0.7667673378430359,1.0683117579554988,-0.1642294046110709,-0.3247697716687575,0.5264681661921647,1,left
5.249,0.6476088787831369,0.8710864901932246,0.23559760580146172,0.6728030272347092,0.7663326859194807,1.075096073743709,-0.1582655277841466,-0.32131248080717695,0.526382851402586,1,left
5.25,0.6501085661676379,0.8700682307854539,0.23409282209276475,0.684162329259414,0.7641329619220911,1.0816881476376037,-0.15220898645199388,-0.3179231896466538,0.5256527309250116,1,left
5.252999999999999,0.6524980882738449,0.8691387251147449,0.23256518780381202,0.6963921397020927,0.7602050529087352,1.0880799739595852,-0.14606549364628904,-0.3145938740070664,0.5242879806499344,1,left
5.252999999999999,0.6547751504152638,0.8682968844853524,0.23101537572617004,0.7095055371207546,0.7545886284831252,1.0942639229847446,-0.13984068174408543,-0.3113167154510717,0.5222992366865401,1,left
5.257999999999999,0.6569376360152415,0.8675414716325142,0.22944399972227772,0.7235135811702077,0.747326111010714,1.100232754175041,-0.13354010105481018,-0.3080841234016044,0.5196975770335033,1,left
5.2589999999999995,0.6589835989495195,0.8668711208530415,0.2278516168040766,0.7384252427900284,0.7384626352673543,1.1059796276338925,-0.127169218489434,-0.3048887547647893,0.5164945028465084,1,left
5.263999999999999,0.6609112555701472,0.8662843577210534,0.22623872938146214,0.7542473437753847,0.728045997504677,1.1114981137989262,-0.12073341629394371,-0.301723531048836,0.5127019192968084,1,left
5.265,0.6627189765389739,0.8657796180941965,0.2246057876883602,0.7709845057709741,0.7161265939114215,1.1167822013900215,-0.11423799082902963,-0.2985816529696133,0.5083321160133698,1,left
5.269,0.664405278588354,0.8653552661122346,0.22295319241721628,0.7886391087309278,0.7027573484453604,1.1218263036291412,-0.10768815137769717,-0.29545661253371,0.5033977470994304,1,left
5.27,0.6659688163174872,0.8650096109012209,0.2212812976117446,0.8072112588901443,0.6879936300060008,1.1266252627477895,-0.10108901896232614,-0.2923422025898724,0.497911810712599,1,left
5.272,0.6674083741261758,0.8647409217255358,0.21959041387733075,0.8266987662951393,0.671893158913937,1.1311743527972662,-0.094445625152529,-0.28923252383978104,0.49188762819597237,1,left
5.273,0.6687228583842375,0.8645474413765329,0.2178808119638608,0.8470971319451267,0.6545159026585664,1.1354692807761941,-0.08776291084500337,-0.28612198929917376,0.48533882274612195,1,left
5.277,0.6699112899348532,0.864427397647375,0.2161527267575238,0.8683995445966819,0.6359239608718807,1.139506186089101,-0.08104572499643219,-0.2830053262003576,0.47827929760221927,1,left
5.278,0.6709727970321481,0.864379012814136,0.21440636169278735,0.8905968872879579,0.6161814394822095,1.143281638349107,-0.07429882329035697,-0.27987757532716273,0.4707232137390239,1,left
5.2829999999999995,0.671906608812137,0.8644005111174119,0.21264189356903707,0.9136777536410399,0.5953543139981294,1.1467926335370553,-0.06752686671883759,-0.27673408777339137,0.46268496704495055,1,left
5.284,0.6727120493866322,0.8644901243108358,0.2108594777281392,0.937628474003614,0.5735102818692676,1.1500365885286692,-0.06073442005961163,-0.2735705191157987,0.4541791649649653,1,left
5.287000000000001,0.6733885326307467,0.8646460954080052,0.20905925351798982,0.9624331514936937,0.550718603867426,1.1530113340005803,-0.0539259502293816,-0.27038282099260935,0.4452206025866369,1,left
5.287000000000001,0.6739355577092824,0.8648666808120364,0.207241349936778,0.988073708013678,0.5270499344283426,1.1557151057253048,-0.047105824493785704,-0.2671672300785308,0.43582423814628074,1,left
5.292999999999999,0.6743527053608077,0.8651501510444995,0.20540589133216086,1.0145299403025125,0.5025761408914854,1.158146534264483,-0.04027830852464842,-0.2639202545048317,0.4260051679614199,1,left
5.294,0.6746396349365592,0.8654947902912054,0.20355300302844717,1.041779586097173,0.4773701115725569,1.1603046330689248,-0.03344756434555799,-0.26063865806131314,0.4157786009476165,1,left
5.294,0.6747960821769903,0.8658988949543632,0.20168281677155087,1.0697984004770822,0.4515055526008709,1.162188784993226,-0.02661764829767951,-0.2573194430359139,0.4051598331521011,1,left
5.297000000000001,0.6748218576966972,0.8663607713782329,0.19979547589635524,1.0985602424674186,0.4250567734514516,1.1637987272319346,-0.019792509208187998,-0.25395983283592616,0.3941642228885479,1,left
5.297000000000001,0.6747168461324063,0.8668787329235017,0.19789114012136083,1.1280371719795423,0.39809846109960284,1.1651345346834696,-0.012975986893199076,-0.25055725524637334,0.3828071669030409,1,left
5.3020000000000005,0.6744810058917301,0.8674510965823791,0.19596998987553876,1.158199557168974,0.37070544272380634,1.1661966017472019,-0.0061718110361819855,-0.24710932666200278,0.37110407772451354,1,left
5.303,0.6741143694296403,0.868076179323231,0.19403223007963843,1.1890161922934923,0.34295243688112903,1.166985622558323,0.000616399567644144,-0.24361383734090172,0.3590703621987361,1,left
5.307,0.6736170439775858,0.8687522943317808,0.1920780933351924,1.2204544258850105,0.3149137935199609,1.1675025697042984,0.007385137420504804,-0.24006873766995696,0.34672140117325667,1,left
5.308,0.6729892126566587,0.8694777472852029,0.1901078425046313,1.2524802976961011,0.2866632254041802,1.1677486716657042,0.014131006404394165,-0.23647212543224852,0.3340725302997091,1,left
5.308,0.672231135917527,0.8702508327621734,0.18812177268650773,1.2850586804453334,0.25827353750074983,1.167725389583087,0.020850721556021874,-0.23282223406633085,0.32113902191895216,1,left
5.312,0.671343153254994,0.8710698308699174,0.18612021260383524,1.3181534210326133,0.22981636309245024,1.167434394150491,0.027541108553820023,-0.2291174219072139,0.3079360679935966,1,left
5.313,0.6703256851366675,0.8719330041666247,0.18410352543866051,1.351727477252162,0.20136191316632018,1.1668775432357321,0.034199102936382314,-0.22535616239870776,0.2944787640516172,1,left
5.317,0.6691792350707172,0.8728385949614293,0.18207210916243247,1.3857430484709283,0.17297874164903201,1.1660568604671047,0.04082174907163253,-0.22153703526664256,0.28078209410392746,1,left
5.318,0.6679043917271528,0.8737848230693467,0.18002639642462004,1.4201617000964757,0.14473352684970694,1.1649745148256434,0.04740619889593542,-0.2176587186423168,0.26686091649802085,1,left
5.321000000000001,0.6665018310206987,0.8747698840851701,0.17796685407064938,1.4549444819307098,0.11669086902857673,1.1636328012413488,0.05394971044227019,-0.21371998212536644,0.2527299506690522,1,left
5.322,0.6649723180577138,0.8757919482241824,0.17589398236619957,1.4900520405070832,0.08891310401009711,1.1620341221910215,0.06044964617648573,-0.2097196807750803,0.23840376474904332,1,left
5.3260000000000005,0.6633167088447876,0.8768491597607859,0.17380831400689725,1.5254447255100707,0.06146013275951166,1.1601809702946022,0.06690347116054689,-0.20565675001901815,0.22389676399425387,1,left
5.327000000000001,0.6615359516545758,0.8779396370795429,0.17171041298867668,1.5610826903767472,0.03438926684244097,1.1580759119061654,0.07330875106156394,-0.2015302014676134,0.20922317999015344,1,left
5.331,0.6596310879460703,0.8790614733385558,0.16960087340637514,1.5969259871812413,0.007755089687828175,1.1557215716949825,0.07966315002527231,-0.19733911962326672,0.19439706059287115,1,left
5.332000000000001,0.6576032527425166,0.8802127377340224,0.1674803182405746,1.6329346559036526,-0.01839066642450106,1.1531206182113352,0.08596442843249757,-0.19308265947225695,0.17943226056547845,1,left
5.336,0.6554536743822751,0.8813914773460922,0.16534939818702332,1.6690688081857237,-0.043999227729313715,1.1502757504310377,0.09221044055700113,-0.18876004494761234,0.16434243286698214,1,left
5.337000000000001,0.6531836735771857,0.882595719538464,0.16320879057722734,1.705288705676148,-0.06902487077088143,1.14718968527191,0.0983991321429565,-0.18437056825090078,0.14914102055146575,1,left
5.341,0.6507946617382948,0.8838234748782483,0.16105919843021563,1.741554833068875,-0.09342499870233399,1.1438651460747342,0.10452853792015315,-0.17991359002070972,0.13384124923441929,1,left
5.341,0.6482881385575651,0.8850727405392412,0.15890134966314035,1.7778279659381253,-0.11716020216292249,1.140304852040532,0.11059677907486704,-0.17538854033539605,0.11845612008293654,1,left
5.346,0.6456656888639607,0.886341504150009,0.15673599647333597,1.8140692334740858,-0.1401943048049923,1.1365115086152975,0.11660206069417153,-0.17079492053749543,0.10299840328613967,1,left
5.346,0.6429289788009946,0.8876277480466829,0.1545639148888816,1.85024017622338,-0.16249439354067605,1.1324877988126478,0.12254266920129338,-0.16613230586698585,0.0874806319619063,1,left
5.351,0.6400797513984056,0.888929453888472,0.15238590447071487,1.8863027989384349,-0.18403083357641387,1.128236375464162,0.1284169697994418,-0.1614003488904048,0.0719150964557294,1,left
5.352,0.6371198216315294,0.8902446075913317,0.1502027881379987,1.9222196186397726,-0.2047772683014004,1.1237598543865235,0.13422340394135895,-0.1565987837126232,0.05631383898733127,1,left
5.355,0.6340510710773003,0.8915712045319617,0.14801541208022231,1.957953707995052,-0.22471060409395735,1.1190608084539078,0.13996048684165371,-0.1517274309578809,0.04068864860047929,1,left
5.356,0.6308754422848275,0.8929072549699304,0.14582464571478362,1.9934687341183817,-0.24381098010764304,1.1141417625634114,0.1456268050487911,-0.14678620350648947,0.02505105637131409,1,left
5.36,0.6275949329807612,0.8942507896290576,0.1436313816469631,2.028728992893002,-0.26206172309664794,1.1090051894806647,0.1512210140934142,-0.1417751129734083,0.00941233083039709,1,left
5.361000000000001,0.6242115902248717,0.8955998653717071,0.14143653559008423,2.063699438919913,-0.2794492873376969,1.1036535065521373,0.15674183622655447,-0.13669427689437957,-0.006216526432891744,1,left
5.362,0.620727504616363,0.8969525708978817,0.13924104620891173,2.0983457111943955,-0.29596317970329267,1.0980890732700082,0.16218805824647295,-0.13154392648350652,-0.02182478494754721,1,left
5.365,0.6171448046272984,0.8983070324069855,0.13704587485768932,2.1326341546116456,-0.31159586993869964,1.0923141896748518,0.16755852938636856,-0.12632441464307867,-0.0374019891622323,1,left
5.3660000000000005,0.6134656511192705,0.8996614191626753,0.1348520051892102,2.166531837401907,-0.3263426861925971,1.0863310955807706,0.17285215922036856,-0.12103622380464626,-0.05293796164568877,1,left
5.37,0.6096922320930068,0.9010139488916526,0.13266044260955603,2.200006564594557,-0.3402016958488238,1.0801419706069921,0.17806791555961246,-0.11567997328174758,-0.06842280552868768,1,left
5.371,0.6058267577193241,0.9023628929349717,0.13047221354938496,2.2330268876095847,-0.3531735717041135,1.07374893499935,0.1832048223363225,-0.11025642599737535,-0.08384690615128981,1,left
5.375,0.6018714556925072,0.9037065810678039,0.12828836452318226,2.2655621100737573,-0.3652614435341804,1.0671540512244606,0.1882619574881435,-0.10476649455067202,-0.09920093194653262,1,left
5.375,0.597828566934568,0.9050434059106959,0.12610996095372487,2.2975822900081972,-0.37647073543152065,1.0603593263146167,0.19323845085773356,-0.09921124660746823,-0.11447583460500665,1,left
5.376,0.5937003416659131,0.9063718268685236,0.12393808574653388,2.3290582387858425,-0.3868089910135148,1.053366714919804,0.19813348212236026,-0.09359190959908638,-0.12966284856461086,1,left
5.38,0.5894890358480429,0.9076903735504396,0.1217738376046509,2.3599615177113957,-0.39628569168884664,1.046178122984807,0.2029462787680287,-0.0879098747136401,-0.14475348986957517,1,left
5.381,0.5851969080005461,0.9089976486389298,0.11961832907731165,2.3902644333279714,-0.40491207488549685,1.0387954119477762,0.2076761141224354,-0.08216670016387388,-0.1597395544426124,1,left
5.385,0.580826216399214,0.9102923301832464,0.117472684339144,2.419940032300006,-0.4127009574233102,1.0312204033770813,0.2123223054608086,-0.0763641137154027,-0.17461311581380903,1,left
5.386,0.5763792166712067,0.9115731732959462,0.11533803670084365,2.4489620962648364,-0.41966656611969755,1.0234548840005715,0.21688421219845957,-0.07050401445903225,-0.18936652234958912,1,left
5.39,0.5718581598116524,0.9128390112375945,0.11321552585728405,2.477305136790548,-0.4258243759968321,1.0155006111018299,0.22136123418363066,-0.06458847381066475,-0.20399239402478464,1,left
5.391,0.5672652906504612,0.9140887558845007,0.11110629488326927,2.504944390525296,-0.43119095611274727,1.0073593182616658,0.22575281010398615,-0.05861973572212528,-0.21848361878052427,1,left
5.394,0.562602846797527,0.9153213975849602,0.10901148698979145,2.531855814621409,-0.43578382303637864,0.9990327214225422,0.23005841601984964,-0.05260021608607846,-0.23283334851030651,1,left
5.395,0.557873058089401,0.916536004419485,0.10693224205491003,2.558016082515646,-0.4396213019842762,0.9905225252530877,0.23427756403704803,-0.046532501318046586,-0.24703499471625867,1,left
5.399,0.5530781465523386,0.9177317208904235,0.10486969294423473,2.5834025801449587,-0.4427223956344407,0.9818304297893128,0.23840980113197718,-0.04041934609838786,-0.2610822238771962,1,left
5.4,0.5482203268864494,0.9189077660768251,0.10282496163767761,2.6079934026750133,-0.44510666063051807,0.9729581373286114,0.24245470814125664,-0.034263670256947806,-0.27496895256969084,1,left
5.404,0.543301807463393,0.9200634313010392,0.10079915518272639,2.631767351816579,-0.4467940917874158,0.9639073595521056,0.24641189892809284,-0.028068554782958825,-0.288689342382932,1,left
5.405,0.5383247918156184,0.9211980773635859,0.09879336150033369,2.654703933802657,-0.44780501400729406,0.9546798248503654,0.2502810197372212,-0.021837236942632753,-0.30223779466772177,1,left
5.41,0.533291480579905,0.9223111314115532,0.09680864507621145,2.6767833580969604,-0.4481599819128217,0.945277285827021,0.2540617487500459,-0.01557310448676945,-0.31560894515948423,1,left
5.4110000000000005,0.5282040738432295,0.9234020835123912,0.09484604257555833,2.6979865369019835,-0.4478796872025898,0.9357015269542706,0.2577537958513443,-0.009279688930591461,-0.32879765851469167,1,left
5.414,0.5230647738252401,0.9244704830089023,0.09290655842266277,2.718295085532516,-0.446984873731631,0.9259543723537784,0.26135690261865085,-0.0029606578879111103,-0.3417990227996174,1,left
5.415,0.5178757878195539,0.9255159347318934,0.0909911603899643,2.7376913237179874,-0.445496260318107,0.9160376936759564,0.26487084254518056,0.003380193558357513,-0.35460834396981583,1,left
5.419,0.5126393313069451,0.9265380951442341,0.08910077524415463,2.7561582778945115,-0.44343447127540736,0.905953418050125,0.2682954215068977,0.009738952467413126,-0.3672211403782069,1,left
5.419,0.5073576311485234,0.9275366684846744,0.08723628449831286,2.7736796845449403,-0.44081997466712997,0.895703536077556,0.2716304784840798,0.016111598651653073,-0.3796331373491043,1,left
5.4239999999999995,0.5020329287668688,0.9285114029729677,0.0853985203189724,2.7902399946426018,-0.4376730282807134,0.8852901098389134,0.2748758865474714,0.022494016305837562,-0.3918402618549752,1,left
5.425,0.4966674832272594,0.929462087130375,0.08358826163716056,2.8058243792517445,-0.43401363331384124,0.8747152808871275,0.2780315541188661,0.028882006672590672,-0.40383863733215647,1,left
5.428999999999999,0.4912635741388886,0.9303885462616256,0.08180623051276414,2.8204187363349855,-0.42986149576615207,0.8639812781962605,0.28109742650617003,0.03527130173155556,-0.41562457866418895,1,left
5.43,0.48582350430767735,0.9312906391359748,0.08005308879849521,2.8340096988153043,-0.4252359955272567,0.8530904260364555,0.28407348766512297,0.041657578744645964,-0.4271945873259249,1,left
5.431,0.48034960208639843,0.9321682548963577,0.07832943514214383,2.8465846439373244,-0.420156163150594,0.842045151744591,0.28695976205386686,0.04803647521102634,-0.438545346618103,1,left
5.434,0.47484422337835475,0.9330213102185743,0.07663580236018044,2.8581317039697747,-0.41464066430123797,0.8308479933598163,0.2897563163986719,0.054403603630553236,-0.4496737168865541,1,left
5.436,0.46930975325475977,0.9338497467395824,0.07497265521671935,2.868639778288151,-0.4087077918644099,0.8195016070926787,0.2924632612364955,0.06075456562930517,-0.4605767306545047,1,left
5.439,0.4637486071488145,0.9346535287750625,0.07334038864296757,2.8780985468736784,-0.40237546570014204,0.8080087745961246,0.2950807521855172,0.06708496527963245,-0.47125158765867176,1,left
5.44,0.4581632315969352,0.9354326413485541,0.07173932642551087,2.8864984852617104,-0.3956612400282886,0.7963724100062098,0.2976089909421575,0.07339042160202808,-0.481695649814127,1,left
5.444,0.45255610450775513,0.936187088554788,0.0701697203786072,2.8938308809161777,-0.38858231828396034,0.7845955667182399,0.30004822601235825,0.07966658026705471,-0.49190643613924667,1,left
5.444,0.4469297349474855,0.9369168922764646,0.06863175000330023,2.9000878507358254,-0.3811555745677174,0.7726814438551759,0.3023987531846444,0.08590912451550402,-0.501881617671407,1,left
5.445,0.4412866624352025,0.9376220912676861,0.06712552262823732,2.905262358912835,-0.37339757952749414,0.7606333923695013,0.30466091575222914,0.09211378531489273,-0.5116190124034224,1,left
5.4479999999999995,0.43562945574777,0.9383027406115511,0.06565107402141307,2.9093482340935366,-0.365324627793584,0.7484549207108823,0.3068351044911725,0.09827635077031589,-0.521116580270055,1,left
5.45,0.4299607112442442,0.9389589115546672,0.06420836945601817,2.912340185055655,-0.3569527648016097,0.7361497000000162,0.3089217574013444,0.1043926748075815,-0.5303724182132467,1,left
5.455,0.42428305073087674,0.9395906917153467,0.06279730520807167,2.91423381459553,-0.348297812123715,0.7237215686639152,0.3109213592166936,0.11045868514644142,-0.5393847553540418,1,left
5.455,0.4185991188966512,0.9401981856533177,0.061417710461083325,2.915025631583476,-0.3393753911419033,0.7111745364959514,0.31283444069106797,0.11647039058161329,-0.5481519482984815,1,left
5.46,0.4129115803560419,0.9407815157774463,0.06006934959413852,2.9147130611958687,-0.33020094503950626,0.6985127881053261,0.31466157766558206,0.12242388758915529,-0.5566724766040528,1,left
5.461,0.40722311634161507,0.9413408235565273,0.058751924832267974,2.9132944533293847,-0.32078975908595375,0.6857406857202663,0.3164033899232775,0.12831536627561096,-0.5649449384325828,1,left
5.462999999999999,0.40153642109263415,0.9418762709888818,0.05746507923873703,2.9107690891996687,-0.31115697918924623,0.672862771308913,0.31806053983657273,0.13414111568718587,-0.5729680464147573,1,left
5.4639999999999995,0.3958541979848553,0.9423880422795747,0.05620840002638444,2.9071371861235216,-0.3013176286898065,0.6598837679815402,0.31963373081275315,0.13989752849605072,-0.5807406237507396,1,left
5.468,0.3901791554422843,0.9428763456687826,0.054981422159986554,2.902399900480538,-0.2912866233687079,0.646808580637419,0.32112370554250586,0.1455811050806875,-0.5882616005706504,1,left
5.468999999999999,0.3845140026668494,0.9433414153515964,0.053783632215924776,2.8965593288469353,-0.28107878464263925,0.6336422958193455,0.32253124405626166,0.15118845701700667,-0.595530010577955,1,left
5.472,0.3788614452178355,0.9437835134291198,0.05261447246121149,2.889618507291141,-0.270708850917372,0.620390180738557,0.32385716159286565,0.1567163099967648,-0.6025449879980852,1,left
5.473,0.37322418046990213,0.9442029318325037,0.05147334511183339,2.8815814088175484,-0.2601914870709461,0.607057681432485,0.32510230628485753,0.16216150618960243,-0.609305764853897,1,left
5.478,0.36760489297836163,0.9445999941644908,0.05035961672971893,2.8724529389416427,-0.24954129203728093,0.5936504200175332,0.32626755666440727,0.16752100606480344,-0.6158116685888444,1,left
5.48,0.362006249783778,0.9449750574071033,0.04927262271744914,2.862238929376593,-0.23877280446045393,0.5801741909988251,0.32735381899371696,0.17279188968864967,-0.6220621200580194,1,left
5.483,0.35643089569274533,0.9453285134496803,0.048211671869427125,2.8509461298082193,-0.22790050638946388,0.5666349565986286,0.32836202442346796,0.17797135751300647,-0.628056631906478,1,left
5.484,0.3508814485756018,0.9456607903984253,0.047176050937002605,2.8385821977321193,-0.21693882498291525,0.5530388410649576,0.32929312598266186,0.18305673067052902,-0.6337948073535417,1,left
5.4879999999999995,0.34536049472402286,0.9459723536363958,0.04616502916227914,2.825155686323642,-0.20590213219272036,0.5393921239216478,0.33014809540297907,0.18804545079162627,-0.6392763394010287,1,left
5.489,0.33987058431204814,0.9462637066105698,0.045177862731056735,2.8106760303082674,-0.19480474239561646,0.5257012321210278,0.3309279197805525,0.19293507935805457,-0.644501010482635,1,left
5.492999999999999,0.3344142270037188,0.9465353913292877,0.044213799092230284,2.795153529796906,-0.183660907941039,0.5119727310601373,0.33163359807783344,0.1977232966077456,-0.6494686925709479,1,left
5.494,0.3289938877492059,0.946787988559433,0.043272081092682595,2.7785993320475564,-0.17248481258367676,0.4982133144213065,0.33226613746800787,0.20240790000519374,-0.6541793477578394,1,left
5.497000000000001,0.3236119828075353,0.9470221177194458,0.0423519508835434,2.7610254111117554,-0.16129056276885897,0.4844297927977786,0.332826549529911,0.2069868022973521,-0.6586330293108245,1,left
5.497999999999999,0.31827087602567883,0.9472384364709661,0.04145265356253631,2.7424445453212485,-0.15009217673879263,0.47062908106495205,0.3333158463296991,0.21145802920423018,-0.6628298831451053,1,left
5.497999999999999,0.3129728753921064,0.94743764001673,0.04057344052454814,2.7228702925673494,-0.1389035714275736,0.4568181844577297,0.3337350364766746,0.21581971684625134,-0.6667701495384674,1,left
5.502999999999999,0.3077202298740529,0.9476204601157813,0.03971357249584851,2.702316963322536,-0.12773854711284413,0.44300418331439373,0.33408512126897794,0.22007010903966198,-0.67045416485333,1,left
5.504,0.30251512654596385,0.9477876638307883,0.03887232222798626,2.680799591350931,-0.11661076979195671,0.42919421644737593,0.33436709101612944,0.224207554561438,-0.6738823630916393,1,left
5.507999999999999,0.2973596880188033,0.9479400520254051,0.038048976831554164,2.6583339020514622,-0.10553375125053185,0.4153954631012626,0.33458192157385824,0.22823050443165796,-0.6770552772193769,1,left
5.5089999999999995,0.2922559701818512,0.9480784576304142,0.03724283974156871,2.6349362783747026,-0.09452082679136539,0.4016151234583662,0.334730571097932,0.232137509231456,-0.6799735402588426,1,left
5.5120000000000005,0.28720596026924766,0.9482037436962364,0.03645323232222708,2.610623724327013,-0.08358513065574179,0.3878603977001325,0.3348139770177978,0.23592721646843728,-0.6826378861585628,1,left
5.513,0.28221157526191565,0.9483168012474563,0.03567949513205581,2.5854138264500066,-0.07273956948932847,0.37413846387230904,0.3348330532306556,0.23959836800110929,-0.6850491504499383,1,left
5.513,0.2772746606309956,0.9484185469532368,0.03492098887548427,2.559324714339426,-0.0619967947809619,0.3604564552331838,0.33478868751639096,0.24314979753355095,-0.6872082706990184,1,left
5.517,0.2723969894242825,0.9485099206272459,0.03417709506689199,2.5323750216419905,-0.0513691755228304,0.3468214380038998,0.33468173917361077,0.2465804281912022,-0.6891162867610555,1,left
5.518,0.26758026169511095,0.9485918825717475,0.03344721643555876,2.5045838485891037,-0.04086877202084394,0.33324039020032187,0.3345130368768371,0.24988927018831875,-0.6907743408447716,1,left
5.522,0.2628261042722971,0.9486654107803225,0.03273077710521031,2.475970726445031,-0.030507311208324207,0.31972018179471706,0.33428337675473424,0.25307541859729143,-0.692183677392538,1,left
5.522,0.258136070867408,0.9487314980118293,0.0320272225849964,2.4465555838675797,-0.02029616349650524,0.30626755621602,0.333993520689064,0.25613805122968414,-0.6933456427819554,1,left
5.527,0.2535116425107013,0.9487911487470182,0.03133601960676712,2.416358715101488,-0.010246321131705025,0.29288911314968197,0.33364419483388497,0.2590764266384928,-0.6942616848535978,1,left
5.528,0.24895422829942673,0.9488453760401148,0.03065665583760025,2.3854007499223715,-0.0003683780294268248,0.27959129259827953,0.3332360883543388,0.26188988225077703,-0.694933352268973,1,left
5.531000000000001,0.2444651664328919,0.948895198279855,0.0299886394902539,2.353702625246768,0.009327488943920043,0.2663803601642501,0.3327698523841922,0.26457783263946144,-0.6953622937020397,1,left
5.532,0.240045725499977,0.9489416358763628,0.029331498850434373,2.3212855583215743,0.018831537270527613,0.2532623935163365,0.3322460992011318,0.2671397679427455,-0.6955502568669176,1,left
5.537000000000001,0.23569710597865487,0.9489857078907964,0.028684781737949434,2.2881710214039894,0.02813447469027969,0.24024327000155243,0.33166540161864266,0.2695752524392035,-0.6954990873837226,1,left
5.537999999999999,0.23142044190502536,0.9490284286234715,0.02804805491499414,2.254380717840949,0.03722747374725793,0.22732865536473026,0.3310282925931301,0.27188392328629507,-0.6952107274837627,1,left
5.541,0.22721680267235542,0.9490708041734975,0.027420903446467224,2.2199365594549727,0.04610218500094616,0.21452399353797985,0.3303352650447832,0.2740654894296455,-0.6946872145546401,1,left
5.542000000000001,0.2230871949285717,0.9491138289794286,0.02680293000829574,2.1848606451413364,0.05475074892883877,0.2018344974626698,0.3295867718905122,0.2761197306900909,-0.6939306795251143,1,left
5.547000000000001,0.2190325645519148,0.9491584823465823,0.0261937541370094,2.149175240579555,0.06316580654655703,0.18926514090684268,0.328783226287131,0.2780464970351203,-0.6929433450889052,1,left
5.547999999999999,0.2150537986960292,0.9492057249630854,0.025593011419152628,2.1129027589602654,0.07134050877095095,0.1768206512412913,0.3279250020827943,0.27984570804098136,-0.6917275237659343,1,left
5.551,0.21115172790499015,0.9492564954038761,0.02500035262887566,2.076065742626802,0.07926852455101609,0.16450550313785273,0.3270124344745406,0.28151735255134963,-0.6902856157988365,1,left
5.5520000000000005,0.20732712830396532,0.94931170662048,0.02441544283175778,2.038686845528991,0.08694404779078446,0.15232391315382257,0.3260458208696334,0.2830614885380979,-0.688620106881912,1,left
5.556,0.2035807238709558,0.949372242416266,0.02383796048027452,2.0007888163850147,0.09436180308765989,0.14027983516674827,0.3250254219482352,0.2844782431693332,-0.6867335657190282,1,left
5.558,0.19991318878924003,0.9494389539138717,0.023267596530949283,1.9623944824455737,0.10151705030896029,0.12837695662423373,0.32395146292479465,0.2857678130895035,-0.684628641406338,1,left
5.56,0.19632514987106064,0.9495126560316465,0.02270405361493535,1.923526733753011,0.10840558802870526,0.11661869557376835,0.32282413500536905,0.28693046491601143,-0.6823080606350327,1,left
5.561,0.19281718903421274,0.9495941239947292,0.02214704529140762,1.8842085077865816,0.11502375584594811,0.1050081984379893,0.32164359703795287,0.287966535956404,-0.6797746247087175,1,left
5.566,0.18938984580739313,0.9496840899114112,0.0215962954062649,1.8444627743836162,0.1213684356051981,0.09354833850119065,0.3204099773527265,0.2888764351498448,-0.6770312063693674,1,left
5.566,0.186043619838461,0.9497832394470046,0.021051537568913804,1.8043125208249737,0.12743705153871412,0.08224171507330784,0.3191233757861372,0.2896606442300279,-0.6740807464322285,1,left
5.567,0.18277897338113797,0.9498922086255089,0.020512514750201737,1.7637807369718816,0.1332275693496756,0.07109065329802958,0.31778386586831886,0.29031971907542503,-0.6709262502645416,1,left
5.571000000000001,0.1795963337386999,0.9500115807850493,0.01997897899770781,1.722890400340033,0.13873849425445123,0.06009720457212175,0.31639149712755343,0.2908542911567689,-0.6675707842055834,1,left
5.572,0.1764960956462869,0.9501418837105863,0.019450691261592393,1.681664460995652,0.1439688680013947,0.04926314754348751,0.31494629745107194,0.2912650689604091,-0.6640174720600509,1,left
5.5760000000000005,0.17347862357519578,0.9502835869686628,0.01892742132373783,1.6401258261571345,0.14891826488279922,0.038589989655933965,0.31344827545559234,0.29155283929672166,-0.6602694917611059,1,left
5.577000000000001,0.17054425394354464,0.9504370994705194,0.01840894782331454,1.5982973443848534,0.15358678675583967,0.02807896920906782,0.311897422846493,0.29171846845802507,-0.6563300722355927,1,left
5.582000000000001,0.16769329721950274,0.9506027672891287,0.01789505837263557,1.5562017892407405,0.15797505708752727,0.017731057902200087,0.31029371675862033,0.2917629032210034,-0.652202490468255,1,left
5.582999999999999,0.1649260399056214,0.9507808717531716,0.01738554975855961,1.5138618423450292,0.1620842140429807,0.007546963833342894,0.3086371220744263,0.2916871716944651,-0.6478900687541913,1,left
5.584,0.16224274639439643,0.9509716278370088,0.01688022822656556,1.4713000759899981,0.16591590266094058,-0.0024728650664452814,0.30692759371498096,0.2914923840129151,-0.6433961721282391,1,left
5.585,0.15964366068569635,0.9511751828615953,0.01637890984556409,1.428538935889729,0.16947226620542025,-0.012328237166967316,0.3051650788992532,0.29117973287606996,-0.638724205959437,1,left
5.586,0.15712900795702572,0.9513916155200076,0.015881420950707416,1.3856007248774864,0.17275593680701387,-0.022019212835471386,0.3033495193669,0.2907504939341018,-0.6338776136981843,1,left
5.5920000000000005,0.15469899597882156,0.9516209352424918,0.01538759865973319,1.3425075881283905,0.17577002548115836,-0.03154609969857117,0.30148085355965387,0.2902060260180528,-0.6288598747631952,1,left
5.593,0.15235381636927786,0.9518630819156049,0.014897291456864123,1.2992815000645437,0.17851811156408492,-0.04090944748736459,0.299559018756244,0.2895477712145262,-0.6236745025548344,1,left
5.596,0.15009364568610345,0.9521179259658649,0.014410359837209445,1.255944252865974,0.18100423158098605,-0.05011004249184995,0.29758395315563674,0.288777254783422,-0.6183250425809176,1,left
5.596,0.14791864635610516,0.9523852688111929,0.013926677003466986,1.212517446463644,0.1832328675550642,-0.059148901652008715,0.2955555979032259,0.2878960849171575,-0.6128150706805706,1,left
5.599,0.1458289674475258,0.9526648436745521,0.013446129605302793,1.1690224798903923,0.18520893476536504,-0.06802726631245505,0.29347389905445254,0.28690595233948507,-0.6071481913312581,1,left
5.6,0.1438247452933987,0.9529563167445102,0.012968618510708725,1.1254805438653652,0.1869377689605471,-0.0767465956670852,0.29133880947018015,0.28580862974169663,-0.6013280360236216,1,left
5.605,0.14190610397547992,0.9532592886586736,0.012494059598293198,1.0819126144872224,0.188425113035001,-0.08530855991969558,0.2891502906379979,0.284605971053687,-0.5953582616883079,1,left
5.606,0.14007315567762166,0.9535732962801456,0.012022384559819443,1.038339447911221,0.18967710317300598,-0.09371503318607793,0.2869083144134719,0.28329991054703596,-0.5892425491585135,1,left
5.61,0.138326000915685,0.9538978147350238,0.011553541703620548,0.9947815758851314,0.1907002544659027,-0.10196808616264338,0.284612864675211,0.2818924617669607,-0.5829846016515354,1,left
5.61,0.13666472864967988,0.9542322596793931,0.011087496751288633,0.9512593020188774,0.19150144600656863,-0.11006997858617582,0.28226393888745976,0.2803857162896872,-0.5765881432521855,1,left
5.615,0.13508941628339707,0.9545759897663618,0.010624233620932608,0.9077926986627652,0.19208790546480617,-0.11802315150886838,0.27986154956377796,0.27878184230149433,-0.5700569173805079,1,left
5.617000000000001,0.13360012955596198,0.9549283092867678,0.010163755190060218,0.8644016042692177,0.1924671931465977,-0.12583021941235703,0.27740572562521265,0.27708308299539014,-0.5633946852258302,1,left
5.619,0.13219692232798447,0.9552884709602821,0.009706084030214541,0.8211056211130296,0.19264718553954496,-0.13349396218403067,0.27489651364621526,0.2752917547810983,-0.5566052241287807,1,left
5.62,0.13087983626447228,0.9556556788564988,0.009251263103896202,0.7779241132453157,0.19263605834619374,-0.14101731697847122,0.27233397898140077,0.27341024530375085,-0.5496923258925178,1,left
5.625,0.12964890041817914,0.9560290914283649,0.00879935641292361,0.7348762045565475,0.19244226900635014,-0.14840336998645695,0.26971820676609637,0.27144101126641246,-0.5426597950040412,1,left
5.626,0.12850413071875558,0.9564078246422653,0.008350449588046985,0.691980776824337,0.19207453870892358,-0.15565534813355122,0.2670493027834701,0.2693865760512954,-0.5355114467460873,1,left
5.631,0.12744552937396936,0.9567909551904364,0.00790465041225255,0.6492564676219656,0.19154183389328205,-0.16277661072989638,0.26432739419087853,0.2672495271342655,-0.5282511051797604,1,left
5.631,0.12647308418892575,0.9571775237740588,0.0074620892724549985,0.606721667964028,0.19085334723958255,-0.16977064109243722,0.26155263009791896,0.26503251328698735,-0.5208826009777022,1,left
5.6339999999999995,0.12558676780709113,0.9575665384498688,0.007022919534994217,0.5643945195660085,0.19001847814703873,-0.1766410381604148,0.25872518199322847,0.262738241566244,-0.5134097690972098,1,left
5.635,0.12478653687440118,0.9579569780375817,0.006587317840549736,0.522292911595091,0.18904681269861617,-0.18339150812459515,0.25584524404046194,0.26036947411688444,-0.5058364463320498,1,left
5.635,0.12407233112670356,0.9583477955886206,0.0061554843135750515,0.4804344767900521,0.18794810311019702,-0.19002585609033334,0.2529130333061076,0.2579290248635059,-0.49816646887081256,1,left
5.638999999999999,0.12344407240100086,0.9587379219193344,0.005727642677157892,0.4388365868286812,0.18673224666183635,-0.19654797779421682,0.24992879000518903,0.2554197561929099,-0.49040367003901303,1,left
5.64,0.1229016635719155,0.9591262692148472,0.005304040255043531,0.3975163468218173,0.1854092641083403,-0.2029618513936887,0.2468927778272104,0.25284457570200436,-0.48255187835219193,1,left
5.644,0.12244498741766749,0.9595117347119235,0.004884947832061186,0.3564905888137943,0.1839892775660305,-0.2092715293487191,0.24380528436217316,0.2502064330367324,-0.4746149159175919,1,left
5.644,0.12207390542553358,0.9598932044688552,0.004470659337229732,0.31577586416982945,0.18248248787222393,-0.2154811304142679,0.24066662162280056,0.24750831682025828,-0.466596597172049,1,left
5.649,0.121788256553579,0.9602695572270092,0.00406149131293341,0.27538843473169117,0.1808991514136491,-0.22159483176197411,0.23747712665424872,0.24475325166301842,-0.4585007279335526,1,left
5.65,0.1215878559706411,0.9606396683636148,0.003657782140061858,0.23534426262382496,0.17924955641974152,-0.2276168612492063,0.23423716222243568,0.24194429524706587,-0.45033110474368115,1,left
5.651,0.12147249379882358,0.9610024139300063,0.003259891002582805,0.19565899865645656,0.1775439987349917,-0.2335514898470957,0.23094711757197256,0.23908453547696323,-0.44209151447788597,1,left
5.654,0.1214419338816989,0.9613566747653575,0.002868196590888908,0.15634796959036726,0.1757927571766977,-0.23940302420777032,0.2276074092445348,0.23617708768931617,-0.4337857342003763,1,left
5.654,0.12149591259711014,0.9617013406739614,0.002483095555682589,0.11742616510004343,0.17400606875060193,-0.24517579929471173,0.22421848194836702,0.23322509191288487,-0.4254175312401423,1,left
5.6579999999999995,0.12163413772832572,0.9620353146526232,0.002105000734413561,0.07890822559016897,0.17219410408912994,-0.250874170968778,0.22078080946947087,0.2302317101710648,-0.41699066346445657,1,left
5.659,0.12185628740317199,0.9623575171513001,0.0017343391851211674,0.040808431704267394,0.17036694338441888,-0.2565025084533256,0.21729489561488255,0.22720012381839136,-0.4085088797259993,1,left
5.662999999999999,0.12216200910526168,0.9626668903459714,0.0013715500753093673,0.0031406957943958622,0.16853455292190297,-0.2620651866576685,0.21376127517830612,0.2241335309025946,-0.3999759204595774,1,left
5.664,0.12255091875217106,0.9629624024009314,0.0010170824788842349,-0.03408144469528331,0.16670676222775255,-0.26756657836902836,0.21018051491822742,0.22103514354361195,-0.39139551840423714,1,left
5.67,0.12302259982422258,0.9632430516986209,0.0006713931298826609,-0.07084483204047402,0.164893241824939,-0.2730110463291543,0.20655321453849645,0.21790818532085662,-0.3827713994264115,1,left
5.671,0.12357660251796708,0.963507871017542,0.00033494417011798014,-0.10713669135244086,0.16310348159268298,-0.2784029352116005,0.20288000766122738,0.2147558886599397,-0.37410728341959826,1,left
5.672999999999999,0.12421244289269179,0.9637559316423862,8.200912734024426e-06,-0.14294463210432776,0.16134676972405562,-0.2837465635154764,0.19916156278173158,0.2115814922099512,-0.3654068852559286,1,left
5.6739999999999995,0.1249296019763689,0.9639863473942497,-0.0003083703701855991,-0.1782566481736846,0.15963217227654372,-0.28904621539131886,0.19539858419506478,0.20838823820232483,-0.3566739157648569,1,left
5.6770000000000005,0.12572752479870095,0.9641982785710631,-0.0006143046372462004,-0.21306111650543205,0.1579685133104573,-0.29430613241458453,0.1915918128836371,0.20517936978223714,-0.34791208271409246,1,left
5.678,0.12660561932360695,0.9643909357891235,-0.000909140251794509,-0.24734679449810504,0.15636435561015258,-0.2995305053221235,0.1877420273552059,0.20195812830342955,-0.3391250917677857,1,left
5.683,0.1275632552612051,0.9645635837176333,-0.0011924211513130907,-0.2811028162147925,0.15482798198316355,-0.3047234657268667,0.18385004442044275,0.19872775057728612,-0.3303166473968901,1,left
5.684,0.12859976274710236,0.9647155447003336,-0.0014636990233225314,-0.31431868751873243,0.15336737713248164,-0.3098890778258476,0.17991671989914057,0.19549146606695658,-0.321490453716537,1,left
5.688,0.12971443088236467,0.9648462022605305,-0.001722535493992344,-0.34698428023203315,0.1519902100973926,-0.3150313301165745,0.17594294924400292,0.1922524940172771,-0.3126502152251893,1,left
5.689,0.13090650613179536,0.9649550044865834,-0.00196850432687552,-0.3790898254144698,0.1507038172584749,-0.3201541271366803,0.1719296680708371,0.18901404051121615,-0.30379963742027627,1,left
5.693,0.1321751905822054,0.9650414672947031,-0.002201193620344952,-0.4106259058577543,0.14951518590257937,-0.32526128124169795,0.16787785258385327,0.18577929544355534,-0.2949424272649638,1,left
5.694,0.13351964006613393,0.9651051775662344,-0.002420207985976666,-0.44158344788909815,0.1484309383438503,-0.3303565044357426,0.16378851988465615,0.18255142940250743,-0.28608229348067177,1,left
5.697,0.13493896216019124,0.9651457961582006,-0.002625170686640586,-0.4719537125762775,0.14745731659710717,-0.3354434002698242,0.15966272815340224,0.17933359044997513,-0.27722294663992075,1,left
5.6979999999999995,0.1364322140710668,0.965163060788208,-0.0028157257123975266,-0.5017282864247764,0.146600167600187,-0.3405254558224708,0.15550157669048525,0.17612890079116508,-0.2683680990340718,1,left
5.702000000000001,0.13799840042572484,0.9651567887961653,-0.002991539774295213,-0.5308990716559218,0.14586492898214548,-0.34560603377730703,0.15130620580700405,0.17294045332429087,-0.2595214642905152,1,left
5.702999999999999,0.13963647098469342,0.9651268797842538,-0.0031523041996753074,-0.5594582761532377,0.1452566153745334,-0.3506883646122093,0.14707779655655773,0.16977130806864169,-0.25068675672242474,1,left
5.704,0.14134531829817076,0.9650733181342046,-0.003297736716494128,-0.5873984031625366,0.14477980526329662,-0.35577553891464364,0.1428175703227829,0.16662448850690137,-0.24186769043700726,1,left
5.706,0.14312377532473883,0.9649961753995856,-0.003427583117681448,-0.6147122408295287,0.14443862837919907,-0.36087049983778857,0.13852678831649892,0.16350297794527435,-0.23306797830523907,1,left
5.707000000000001,0.14497061303400005,0.9648956125711711,-0.0035416187984307463,-0.6413928516569789,0.144236753625031,-0.3659760357120495,0.13420675105820482,0.16040971603260135,-0.22429133093891462,1,left
5.7139999999999995,0.1468845380171878,0.9647718822146659,-0.0036396501593555634,-0.6674335619616584,0.14417737753824106,-0.37109477282658565,0.12985879789960733,0.15734759554214064,-0.21554145577807815,1,left
5.7139999999999995,0.14886419012963265,0.9646253304818474,-0.0037215158699101256,-0.692827951409542,0.14426321328802086,-0.37622916839549164,0.12548430659822332,0.15431945945213812,-0.20682205631492617,1,left
5.7170000000000005,0.15090814018357537,0.9644563989990547,-0.003787087992773956,-0.7175698427058841,0.1444964802062681,-0.3813815037233063,0.12108469293704338,0.15132809832382033,-0.19813683143753588,1,left
5.718,0.15301488770217167,0.9642656266402351,-0.0038362729796979104,-0.7416532915113964,0.1448788938716237,-0.38655387758858545,0.11666141037676904,0.14837624796801982,-0.18948947486829112,1,left
5.718999999999999,0.15518285874003207,0.9640536511933377,-0.0038690125575666966,-0.7650725766360569,0.1454116568629912,-0.3917481998844501,0.11221594972805987,0.14546658739173984,-0.18088367467196564,1,left
5.722,0.15741040377353935,0.9638212109276911,-0.0038852845271880798,-0.7878221905280859,0.1460954504736052,-0.3969661855913116,0.10774983883115488,0.142601737016071,-0.17232311280852095,1,left
5.722,0.1596957956635314,0.9635691460670771,-0.0038851034988026134,-0.809896830055893,0.14693042777394075,-0.4022093491771633,0.10326464223016427,0.1397842571569856,-0.1638114647057854,1,left
5.727,0.1620372276916861,0.963298400169035,-0.003868521590015632,-0.8312913875967344,0.14791620831538851,-0.40747899950075783,0.09876196082926439,0.1370166467606566,-0.15535239882730018,1,left
5.728,0.16443281167018062,0.9630100214054661,-0.0038356291117251982,-0.8520009424760102,0.14905187459281755,-0.4127762352568217,0.09424343151796913,0.1343013423850773,-0.146949576210748,1,left
5.731,0.16688057612327756,0.9627051637338877,-0.0037865552632858927,-0.8720207528170368,0.15033597028778314,-0.41810194098239917,0.08971072675259663,0.13164071741989214,-0.13860664995252048,1,left
5.732,0.1693784645406614,0.9623850879434813,-0.0037214688503807887,-0.8913462478627461,0.1517665002952097,-0.4234567836394651,0.08516555408099961,0.12903708153649465,-0.13032726461413174,1,left
5.7379999999999995,0.17192433370629215,0.9620511625556498,-0.0036405790291342372,-0.9099730208287928,0.1533409325368076,-0.4288412097890267,0.08060965559758267,0.1264926803605961,-0.12211505552634674,1,left
5.739,0.1745159521125997,0.9617048645556349,-0.003544136068671705,-0.9278968223455739,0.15505620156490948,-0.43425544337201427,0.07604480731558878,0.12400969535962729,-0.11397364796706543,1,left
5.7410000000000005,0.1771509984764686,0.961347779929636,-0.0034324321128364637,-0.9451135545446638,0.15690871396082864,-0.43969948411234683,0.07147281844360172,0.12159024393749845,-0.10590665618918597,1,left
5.742000000000001,0.17982706038031876,0.9609816039804195,-0.003305801911785261,-0.96161926584317,0.15889435553225745,-0.44517310655763837,0.0668955305531803,0.11923637972941276,-0.09791768227486328,1,left
5.749,0.18254163306900564,0.9606081413942948,-0.00316462348744346,-0.9774101464774871,0.1610085003146244,-0.45067585977310093,0.06231481662451487,0.11695009308960501,-0.09001031479278283,1,left
5.75,0.18529211843942384,0.9602293060337791,-0.003009318693942007,-0.992482524835903,0.16324602138172312,-0.45620706770428127,0.05773257995697581,0.1147333117650593,-0.08218812723528297,1,left
5.751,0.18807582426172825,0.9598471204322178,-0.002840353634187612,-1.0068328646374638,0.16560130347130758,-0.4617658302243561,0.053150752931408723,0.11258790174844813,-0.07445467621238319,1,left
5.751,0.19088996366874697,0.9594637149688615,-0.0026582388951570755,-1.0204577630024516,0.168068257431716,-0.4673510248817911,0.04857129561102139,0.11051566830372908,-0.06681349938001048,1,left
5.756,0.19373165494550443,0.9590813267062275,-0.0024635295665848727,-1.0333539494577693,0.1706403364959387,-0.47296130936425235,0.0439961941677029,0.10851835715803507,-0.05926811307996031,1,left
5.757999999999999,0.19659792164576992,0.9587022978754457,-0.002256825010524223,-1.0455182859184469,0.1733105543898834,-0.4785951246947361,0.039427459120617056,0.10659765585369857,-0.05182200966938378,1,left
5.761,0.19948569305899794,0.9583290739977658,-0.002038768353573709,-1.0569477676844052,0.1760715052819104,-0.4842506991759585,0.0348671233739185,0.10475519525446088,-0.04447865451785719,1,left
5.7620000000000005,0.20239180505005974,0.9579642016312998,-0.0018100456800923049,-1.0676395254895157,0.17891538558101175,-0.4899260530991196,0.030317240040453088,0.10299255120013227,-0.03724148265036599,1,left
5.767,0.20531300129551072,0.9576103257335531,-0.0015713849133274704,-1.077590828637895,0.1818340175912893,-0.49561900423322197,0.02577988003832199,0.10131124630418863,-0.030113895014819713,1,left
5.768,0.2082459349435622,0.9572701866339032,-0.0013235543823186962,-1.0867990892602648,0.18481887503064592,-0.5013271741111862,0.021257129447213342,0.09971275188901528,-0.023099254353009864,1,left
5.771,0.21118717072923293,0.9569466166154637,-0.001067361086071768,-1.0952618677210806,0.18786111042184234,-0.5070479951290626,0.016751086618015682,0.09819849004959028,-0.016200880665054197,1,left
5.772,0.2141331875775152,0.9566425361111471,-0.0008036486789130948,-1.1029768792050159,0.19095158436428575,-0.5127787184746884,0.012263859062165133,0.09676983581589513,-0.00942204631181866,1,left
5.773,0.21708038172451896,0.956360949523381,-0.0005332952074920203,-1.1099420015092478,0.19408089669510575,-0.5185164229021831,0.007797560206443568,0.0954281193472514,-0.002765970897572211,1,left
5.775,0.2200250703839505,0.9561049406826002,-0.0002572106349786872,-1.116155284065849,0.19723941954823726,-0.5242580243687109,0.00335430613189472,0.09417462807128589,0.003764183870403379,1,left
5.776,0.2229634959864092,0.9558776679685387,2.3665801831763514e-05,-1.1216149582164472,0.20041733232036876,-0.5300002865499644,-0.0010637876173225185,0.09301060870121068,0.010165319202316342,1,left
5.7829999999999995,0.22589183101782082,0.9556823591286212,0.0003083683462461256,-1.126319448759154,0.20360465855272403,-0.5357398322508492,-0.0054546091284873414,0.09193726910268099,0.016434404080634988,1,left
5.784,0.22880618347715126,0.9555223058347954,0.0005959075276958512,-1.1302673867856101,0.20679130473773072,-0.5414731557278543,-0.00981605312445624,0.09095578000248528,0.02256847995705116,1,left
5.785,0.23170260296346362,0.955400858020987,0.0008852729682983216,-1.133457623809265,0.20996710101413235,-0.547196635919704,-0.014146023890075621,0.0900672765357263,0.028564665310019263,1,left
5.785,0.23457708739214,0.9553214180376632,0.0011754361507291947,-1.1358892471110016,0.21312184348637353,-0.5529065504834099,-0.018442438133476947,0.08927285962841232,0.034420160080873945,1,left
