time,gFx,gFy,gFz,ax,ay,az,wx,wy,wz,subject_number,foot
0.955,-0.10610877611408095,0.9937719713345664,-0.13018559399068388,0.04899371068949037,0.05422128768240328,-0.10232558944958804,-0.046739286873323974,-0.05424026788623207,-0.13627084091694405,1,right
0.955,-0.10585565640201879,0.9937927678789766,-0.13027641430886416,0.050165198997888245,0.05455728160475035,-0.10456680628194684,-0.04809019008702564,-0.05477559750153052,-0.13724457107209714,1,right
0.9590000000000001,-0.1055994263706487,0.9938139982302466,-0.130363727200707,0.05144433089347698,0.054877637971039804,-0.1068016047521321,-0.04945188315214235,-0.05528929786449076,-0.1382450252236124,1,right
0.96,-0.10534029763550705,0.9938357342253327,-0.13044715936311138,0.05283186290195389,0.055182425599946815,-0.1090293110020924,-0.050824299388012514,-0.055781406027514656,-0.13927287738608343,1,right
0.965,-0.10507850513908001,0.9938580355677867,-0.1305263300653273,0.05432847299473745,0.055471760473881394,-0.1112493058694558,-0.052207378214840894,-0.05625196206918304,-0.14032880870800804,1,right
0.965,-0.10481430848931828,0.993880949156064,-0.130600851591928,0.05593475998164837,0.05574580643101559,-0.11346102589725156,-0.05360106522768146,-0.05670101034811782,-0.14141350699500893,1,right
0.9690000000000001,-0.10454799328657328,0.9939045084338701,-0.13067032977429907,0.0576512430280193,0.056004775655560946,-0.11566396403057123,-0.05500531225500027,-0.057128600863897316,-0.1425276662022987,1,right
0.9690000000000001,-0.10427987243561361,0.9939287327648578,-0.1307343645988951,0.05947836130053385,0.056248928967127826,-0.11785767000654587,-0.056420077405791455,-0.057534790726376475,-0.14367198589942404,1,right
0.9740000000000001,-0.104010287442798,0.9939536268377197,-0.13079255087677594,0.06141647374641027,0.056478575909954414,-0.12004175044399155,-0.05784532510924993,-0.057919645734702284,-0.14484717071040673,1,right
0.9740000000000001,-0.10373960970055843,0.9939791801112583,-0.13084447895957527,0.06346585901086205,0.05669407464274979,-0.12221586863905093,-0.059281026151034734,-0.058283242067252675,-0.14605392973248357,1,right
0.98,-0.10346824176207288,0.9940053663103388,-0.13088973549225882,0.06562671549808467,0.05689583162985317,-0.12437974407313188,-0.060727157710187225,-0.058625668083666135,-0.14729297593673418,1,right
0.98,-0.10319661860789016,0.9940321429826962,-0.13092790420034317,0.06789916158133717,0.05708430113436982,-0.12653315163941672,-0.062183703400798346,-0.05894702624006751,-0.148565025553974,1,right
0.9840000000000001,-0.10292520890345638,0.9940594511246846,-0.13095856671521972,0.070283235968006,0.05725998451390351,-0.1286759205941871,-0.06365065332254934,-0.059247435118534975,-0.14987079744938103,1,right
0.9840000000000001,-0.10265451624287282,0.9940872148814636,-0.13098130344376374,0.07277889822585906,0.057423429319466236,-0.1308079332391803,-0.06512800412428023,-0.05952703157179192,-0.15121101248941707,1,right
0.99,-0.10238508037150741,0.9941153413238416,-0.13099569448612144,0.07538602947701825,0.05757522819810752,-0.1329291233411629,-0.0666157590847703,-0.059785972984047274,-0.15258639290469914,1,right
0.99,-0.10211747838002029,0.9941437203009434,-0.1310013205978746,0.07810443326649906,0.05771601759976933,-0.13503947429487678,-0.06811392821494466,-0.0600244396488475,-0.15399766165257409,1,right
0.993,-0.10185232586446183,0.9941722243659378,-0.13099776418296152,0.08093383661248651,0.057846476288837274,-0.1371390170354823,-0.06962252838362355,-0.06024263726039889,-0.15544554178157813,1,right
0.9940000000000001,-0.10159027804880225,0.9942007087714921,-0.13098461029790087,0.08387389124583654,0.0579673236608257,-0.13922782770659242,-0.07114158345832232,-0.06044079949303418,-0.1569307557917152,1,right
0.9940000000000001,-0.10133203086531897,0.9942290115313634,-0.13096144764736292,0.08692417504661143,0.058079317864602416,-0.14130602508995982,-0.07267112443349194,-0.060619190604333996,-0.15845402496956346,1,right
0.9990000000000001,-0.10107832198367879,0.9942569535430719,-0.13092786955105407,0.09008419368577678,0.058183253730529495,-0.14337376780284888,-0.07421118950798128,-0.06077810797563028,-0.16001606866897505,1,right
1.0,-0.10082993177190283,0.994284338765027,-0.13088347486089083,0.09335338248050491,0.05827996050486888,-0.1454312512690935,-0.07576182408417102,-0.060917884525286244,-0.16161760351659105,1,right
1.0,-0.10058768416463083,0.994310954442587,-0.1308278688106484,0.09673110846388382,0.05837029939325852,-0.14747870447262534,-0.07732308068040748,-0.06103889096919604,-0.16325934253652977,1,right
1.003,-0.10035244741050002,0.9943365713810606,-0.1307606637893634,0.10021667263033054,0.05845516092845265,-0.14951638651629934,-0.07889501875903289,-0.06114153792461642,-0.1649419941970685,1,right
1.004,-0.10012513467273251,0.9943609442668881,-0.13068148004061575,0.10380931224665699,0.058535462199839274,-0.1515445830341433,-0.08047770447446695,-0.06122627785773249,-0.16666626138392007,1,right
1.008,-0.09990670446065986,0.994383812040607,-0.13058994629963938,0.10750820307923217,0.05861214399464069,-0.15356360251920176,-0.08207121034582482,-0.061293606875306335,-0.16843284030482253,1,right
1.0090000000000001,-0.0996981608690097,0.9944048983278488,-0.13048570038766577,0.11131246142781005,0.058686167888276096,-0.15557377261504363,-0.08367561485858745,-0.061344066360704205,-0.17024241933027726,1,right
1.014,-0.09950055359725915,0.9944239119365821,-0.1303683897841571,0.11522114592856425,0.05875851329901239,-0.15757543639364777,-0.08529100199987096,-0.06137824445454684,-0.17209567777539014,1,right
1.014,-0.09931497771851758,0.9944405474280616,-0.13023767219012727,0.11923325912899102,0.05883017450960766,-0.15956894862828108,-0.08691746073187312,-0.06139677738017751,-0.1739932846278924,1,right
1.0170000000000001,-0.09914257316821938,0.9944544857656432,-0.13009321608319283,0.12334774884560701,0.05890215765616223,-0.16155467206714488,-0.08855508440810601,-0.061400350614093886,-0.17593589722754094,1,right
1.018,-0.09898452392565937,0.9944653950413243,-0.1299347012545632,0.1275635093156684,0.05897547768438715,-0.1635329737135402,-0.09020397013705561,-0.061389699901443516,-0.1779241599022234,1,right
1.024,-0.09884205686461568,0.9944729312757403,-0.12976181931480552,0.13187938215443476,0.05905115527349813,-0.16550422111828006,-0.09186421809794104,-0.06136561211663741,-0.17995870256622096,1,right
1.025,-0.09871644025316324,0.9944767392842753,-0.12957427415824638,0.13629415712979515,0.059130213727944005,-0.1674687786900537,-0.09353593081327802,-0.061328925969093666,-0.18204013928621077,1,right
1.028,-0.09860898188859883,0.9944764536004892,-0.12937178238140662,0.1408065727663646,0.05921367583718244,-0.16942700402942684,-0.09521921238298346,-0.06128053255408236,-0.18416906682072093,1,right
1.028,-0.09852102686254663,0.9944716994480182,-0.1291540736567452,0.1454153167914468,0.059302560703722536,-0.17137924429214138,-0.09691416768479116,-0.06122137574860406,-0.18634606313888427,1,right
1.033,-0.09845395496276714,0.9944620937527794,-0.12892089106836324,0.15011902643554292,0.059397880539663696,-0.17332583258735917,-0.09862090154578097,-0.06115245245219866,-0.18857168592447132,1,right
1.034,-0.09840917772864533,0.9944472461883352,-0.1286719914189389,0.15491628860036621,0.05950063743197261,-0.17526708441647615,-0.10033951788985726,-0.061074812672547565,-0.19084647107132013,1,right
1.037,-0.09838813518477302,0.9944267602490559,-0.1284071455158625,0.15980563990759986,0.05961182007675593,-0.17720329415811545,-0.10207011886604629,-0.06098955945570135,-0.19317093117641734,1,right
1.038,-0.09839229228162141,0.9944002343481482,-0.12812613844077642,0.16478556664190697,0.059732400482804655,-0.17913473160489246,-0.10381280396251552,-0.060897848660737164,-0.1955455540370259,1,right
1.042,-0.09842313507500247,0.9943672629393076,-0.12782876980200175,0.169854504601971,0.05986333064470754,-0.18106163855752924,-0.1055676691112521,-0.06080088857862527,-0.19797080115839502,1,right
1.042,-0.09848216667806585,0.9943274376607499,-0.12751485396549933,0.17501083887360908,0.060005539185854904,-0.18298422548188087,-0.10733480578837265,-0.060699939395062255,-0.20044710627873136,1,right
1.047,-0.0985709030217873,0.9942803484994762,-0.12718422026019108,0.18025290353926096,0.06015992797168151,-0.18490266823442275,-0.10911430011507055,-0.060596312497010134,-0.20297487391825322,1,right
1.047,-0.09869086846315422,0.9942255849725278,-0.1268367131590179,0.185578981338412,0.06032736869352632,-0.18681710486173525,-0.11090623196424211,-0.06049136962266536,-0.20555447795929707,1,right
1.052,-0.09884359128498578,0.9941627373203756,-0.12647219244493585,0.19098730329375896,0.060508699423519996,-0.18872763247950847,-0.1127106740778687,-0.060386521854570725,-0.20818626026458983,1,right
1.052,-0.09903059913504556,0.9940913977054526,-0.12609053337558268,0.19647604831817425,0.06070472114094513,-0.1906343042365791,-0.11452769120026655,-0.06028322845557533,-0.21087052934095019,1,right
1.0590000000000002,-0.09925341445102355,0.9940111614072583,-0.12569162685861998,0.202043342817765,0.060916194230552355,-0.19253712636949885,-0.11635733923235263,-0.06018299554734418,-0.2136075590558295,1,right
1.06,-0.09951354991180975,0.9939216280053862,-0.12527537964394797,0.20768726030656004,0.061143834953354737,-0.19443605535312367,-0.11819966441210981,-0.060087374631119336,-0.2163975874142541,1,right
1.062,-0.09981250394728951,0.99382240254355,-0.12484171453320012,0.21340582104858816,0.06138831189046536,-0.19633099515270022,-0.12005470252531389,-0.05999796095025067,-0.21924081540104742,1,right
1.063,-0.10015175633094167,0.9937130966707716,-0.12439057060336042,0.21919699174333684,0.06165024236058709,-0.19822179458291656,-0.12192247814482952,-0.05991639169308046,-0.2221374058792025,1,right
1.064,-0.10053276387327072,0.9935933297592057,-0.1239219034407491,0.22505868527080106,0.06193018881180987,-0.20010824477937159,-0.12380300388639719,-0.059844344033082635,-0.2250874825099344,1,right
1.069,-0.1009569562319543,0.993462730000883,-0.12343568538403622,0.23098876051254505,0.062228655188419274,-0.2019900767879067,-0.12569627966307845,-0.05978353300223302,-0.22809112864593406,1,right
1.07,-0.10142573185663764,0.9933209354877454,-0.12293190577870826,0.23698502225557047,0.062546083277393,-0.2038669592785146,-0.12760229192635436,-0.05973570919455197,-0.2311483861636599,1,right
1.07,-0.10194045408827491,0.993167595280523,-0.12241057124805574,0.24304522113679053,0.06288284905892909,-0.20573849639694664,-0.12952101289233064,-0.05970265629848486,-0.2342592542261489,1,right
1.072,-0.10250244743215824,0.9930023704729617,-0.12187170598659243,0.24916705349755405,0.06323925912071036,-0.20760422577867996,-0.13145239975733042,-0.0596861884577611,-0.23742368798214247,1,right
1.072,-0.10311299402280252,0.9928249352604114,-0.12131535208172604,0.25534816096865837,0.06361554721527933,-0.20946361675631098,-0.13339639390835012,-0.059688147460598126,-0.24064159721031048,1,right
1.077,-0.10377333029887044,0.9926349780254119,-0.12074156986748386,0.26158612965566846,0.06401187102033778,-0.21131606878500622,-0.13535292013389028,-0.05971039975715929,-0.24391284491750984,1,right
1.077,-0.10448464390393823,0.9924322024534987,-0.12015043830794206,0.26787848888308924,0.06442830912653401,-0.21316091009907212,-0.13732188584070956,-0.05975483330522236,-0.24723724590016813,1,right
1.081,-0.10524807082269659,0.9922163286877413,-0.1195420553996172,0.2742227095053028,0.06486485825774184,-0.21499739660626793,-0.1393031802820861,-0.059823354244068164,-0.2506145652780361,1,right
1.082,-0.10606469275533875,0.9919870945239861,-0.11891653857688417,0.2806162018021859,0.06532143072497042,-0.2168247110251814,-0.14129667380320715,-0.05991788339665748,-0.25404451700970626,1,right
1.087,-0.10693553472837104,0.9917442566449487,-0.11827402510478116,0.28705631297747847,0.06579785211510084,-0.21864196227096533,-0.14330221710934232,-0.0600403526002279,-0.25752676239944655,1,right
1.087,-0.10786156293873546,0.9914875918907962,-0.11761467244629084,0.29354032427812243,0.06629385921570365,-0.22044818509470973,-0.1453196405624926,-0.0601927008655116,-0.26106090860505127,1,right
1.09,-0.10884368282939115,0.9912168985643725,-0.11693865859124544,0.30006544775293215,0.06680909817724853,-0.22224233998169607,-0.14734875351224128,-0.06037687036484977,-0.2646465071565618,1,right
1.091,-0.10988273739564039,0.9909319977690018,-0.11624618232820053,0.3066288226690915,0.06734312291407403,-0.2240233133137528,-0.1493893436665677,-0.060594802249559716,-0.26828305249585943,1,right
1.0959999999999999,-0.11097950571962718,0.990632734775787,-0.11553746343052783,0.31322751160509826,0.06789539374554149,-0.22578991780089835,-0.15144117650841923,-0.06084843229699645,-0.2719699805472826,1,right
1.097,-0.11213470172549916,0.990318980416082,-0.11481274272024139,0.31985849623889395,0.0684652762788526,-0.22754089318742338,-0.15350399476386967,-0.06113968638784203,-0.27570666732956695,1,right
1.103,-0.11334897314097808,0.9899906324937797,-0.11407228197524058,0.3265186728500293,0.06905204053506325,-0.22927490723752555,-0.15557751792772617,-0.06147047581425277,-0.27949242761955473,1,right
1.104,-0.1146229006435571,0.9896476172115533,-0.11331636365895206,0.33320484755481333,0.06965486031987893,-0.23099055700557025,-0.1576614418524782,-0.06184269241959734,-0.2833265136782637,1,right
1.1059999999999999,-0.11595699716292773,0.9892898906053634,-0.11254529046833718,0.33991373129348934,0.07027281284086724,-0.23268637039600315,-0.15975543840651393,-0.06225820357062625,-0.2872081140500483,1,right
1.1059999999999999,-0.11735170730657984,0.9889174399824886,-0.11175938470808466,0.3466419345885636,0.07090487857277147,-0.23436080801789402,-0.1618591552075599,-0.06271884696302728,-0.2911363524457264,1,right
1.11,-0.1188074068715679,0.9885302853595519,-0.11095898750328922,0.35338596209348755,0.07154994137265477,-0.2360122653390364,-0.16397221543733012,-0.0632264252614401,-0.2951102867206851,1,right
1.112,-0.12032440240187095,0.988128480897171,-0.1101444578633624,0.3601422069509579,0.07220678884664805,-0.23763907514447205,-0.16609421774339908,-0.06378270057512771,-0.29912890795911473,1,right
1.115,-0.12190293075036863,0.9877121163267175,-0.10931617160965036,0.3669069449801578,0.07287411297011497,-0.23923951030424637,-0.16822473623434153,-0.06438938877063177,-0.3031911396756522,1,right
1.1159999999999999,-0.12354315860943763,0.9872813183639528,-0.10847452017928624,0.37367632871230244,0.07355051096308447,-0.24081178685513588,-0.17036332057420817,-0.06504815362287387,-0.3072958371458494,1,right
1.12,-0.12524518198371715,0.9868362521049835,-0.10761990931754369,0.38044638129389113,0.07423448642283499,-0.24235406740101734,-0.1725094961824324,-0.06576060080630448,-0.31144178687700774,1,right
1.121,-0.12700902559057348,0.9863771224001289,-0.10675275766935716,0.38721299027709144,0.07492445071554438,-0.24386446483647203,-0.1746627645452875,-0.06652827172784591,-0.3156277062310459,1,right
1.126,-0.12883464218571747,0.9859041751986215,-0.10587349527852655,0.3939719013166925,0.0756187246289454,-0.2453410463981382,-0.17682260364503702,-0.06735263720352526,-0.31985224321119105,1,right
1.127,-0.1307219118207185,0.9854176988527144,-0.10498256200291993,0.4007187117930677,0.07631554028794825,-0.246781838048238,-0.1789884685129423,-0.06823509098084735,-0.3241139764243994,1,right
1.13,-0.13267064104473986,0.9849180253672313,-0.10408040585620593,0.4074488643805757,0.07701304333520868,-0.24818482919461426,-0.18115979190907605,-0.06917694311755027,-0.3284114152271666,1,right
1.131,-0.13468056206504944,0.9844055315816104,-0.10316748128889704,0.41415764058080806,0.0777092953786322,-0.2495479777515137,-0.18333598511572674,-0.07017941326971971,-0.3327430000406826,1,right
1.131,-0.13675133188083854,0.983880640274508,-0.1022442474232652,0.4208401542400535,0.07840227670781225,-0.2508692155452522,-0.1855164388020708,-0.07124362401831248,-0.3371071027821256,1,right
1.137,-0.1388825314052832,0.9833438211835956,-0.10131116626068493,0.4274913450703046,0.0790898892814019,-0.2521464540687877,-0.1877005239016217,-0.07237059440548073,-0.34150202733717866,1,right
1.137,-0.1410736645933498,0.9827955919348216,-0.10036870088522057,0.4341059722066995,0.0797699599859292,-0.2533775905811042,-0.18988759246016249,-0.07356123381009183,-0.34592601002076456,1,right
1.138,-0.14332415759507308,0.9822365188772592,-0.0994173136878639,0.4406786079023773,0.08044024415912765,-0.25456051450715234,-0.19207697844100555,-0.07481633621610809,-0.35037722001235283,1,right
1.14,-0.1456333579538937,0.981667217821849,-0.0984574646306562,0.44720363158432397,0.08109842935746672,-0.25569311402189415,-0.19426799849061685,-0.07613657488550002,-0.3548537597740998,1,right
1.14,-0.14800053386993156,0.9810883546842935,-0.09748960956546275,0.45367522456183873,0.08174213934011615,-0.25677328266182975,-0.19645995267088553,-0.07752249743911531,-0.35935366546452496,1,right
1.146,-0.15042487355045378,0.9805006460347656,-0.09651419862234391,0.46008736561097,0.08236893824897852,-0.2577989258472834,-0.1986521251643277,-0.07897452134911034,-0.36387490736050815,1,right
1.147,-0.1529054846719582,0.9799048595602168,-0.09553167468448938,0.46643382753544643,0.0829763349777615,-0.2587679672706516,-0.20084378495851593,-0.08049292984673831,-0.3684153903004619,1,right
1.149,-0.15544139398017381,0.9793018144475825,-0.09454247196795217,0.4727081747363124,0.08356178773044758,-0.2596783551457034,-0.2030341865160309,-0.08207786824947609,-0.37297295416160176,1,right
1.15,-0.15803154705910347,0.9786923816966305,-0.09354701472583762,0.4789037618086753,0.08412270877095693,-0.2605280683208761,-0.20522257043623074,-0.08372934071166183,-0.3775453743842995,1,right
1.155,-0.16067480830845204,0.9780774843689298,-0.09254571609778596,0.4850137331837818,0.08465646936574268,-0.26131512225934456,-0.2074081641151326,-0.08544720740300558,-0.3821303625565572,1,right
1.157,-0.163369961175267,0.9774580977742973,-0.09153897712328217,0.4910310238344348,0.08516040492099487,-0.26203757488847546,-0.20959018240969687,-0.08723118211952588,-0.3867255670716901,1,right
1.16,-0.1661157086838614,0.9768352495885667,-0.09052718592999277,0.4969483610615318,0.0856318203160588,-0.26269353232110365,-0.21176782831279947,-0.08908083033165648,-0.39132857387234904,1,right
1.161,-0.16891067429702508,0.9762100198883142,-0.08951071709693849,0.5027582673792651,0.0860679954345954,-0.2632811544508871,-0.2139402936451691,-0.09099556767445752,-0.39593690729404907,1,right
1.165,-0.171753403125694,0.9755835410817161,-0.08848993117817865,0.5084530645162525,0.08646619089492542,-0.26379866042381117,-0.216106759770556,-0.09297465888505488,-0.40054803102139874,1,right
1.166,-0.17464236348799195,0.9749569977110893,-0.08746517435967445,0.5140248785495807,0.08682365398090604,-0.26424433398772346,-0.2182663983403862,-0.0950172171926203,-0.40515934917024876,1,right
1.169,-0.17757594880429112,0.9743316261016113,-0.08643677821613123,0.5194656461884364,0.08713762477458668,-0.2646165287215837,-0.22041837207414064,-0.09712220416639103,-0.40976820750899334,1,right
1.169,-0.18055247980497152,0.9737087138325508,-0.08540505953752105,0.5247671222236673,0.08740534249178243,-0.2649136731459105,-0.22256183558168052,-0.09928843002741258,-0.4143718948322647,1,right
1.1740000000000002,-0.18357020702298274,0.9730895990126023,-0.08437032020269546,0.5299208881592616,0.08762405202158562,-0.2651342757157028,-0.2246959362337219,-0.1015145544298699,-0.4189676445002619,1,right
1.175,-0.18662731354186887,0.9724756693482937,-0.08333284708638003,0.5349183620413595,0.08779101067071181,-0.26527692969690103,-0.2268198150866394,-0.10379908771805174,-0.4235526361569486,1,right
1.18,-0.18972191796815124,0.971868361001714,-0.08229291199480998,0.539750809500006,0.08790349511344324,-0.2653403179272393,-0.22893260786775457,-0.10614039266516817,-0.4281239976403392,1,right
1.18,-0.1928520775940648,0.9712691572400968,-0.08125077163304974,0.5444093560184345,0.08795880854779213,-0.26532321746211834,-0.23103344602723808,-0.10853668670041304,-0.4326788070980689,1,right
1.1840000000000002,-0.19601579171414046,0.9706795868854369,-0.0802066676117042,0.5488850004442168,0.08795428805835773,-0.2652245041059072,-0.23312145786272517,-0.11098604463083077,-0.43721409532141325,1,right
1.185,-0.19921100505772948,0.9701012225767319,-0.07916082650175012,0.5531686297561434,0.08788731218619412,-0.26504315682885193,-0.23519576972271164,-0.11348640186470972,-0.4417268483108835,1,right
1.189,-0.2024356112979221,0.9695356788593608,-0.07811345994489445,0.5572510351001981,0.08775530870584247,-0.2647782620695409,-0.2372555072947643,-0.11603555814338168,-0.4462140100864759,1,right
1.19,-0.20568745659423995,0.9689846101159202,-0.07706476482464356,0.5611229291074632,0.08755576260950848,-0.26442901792264023,-0.23929979698454162,-0.11863118178845944,-0.450672485755597,1,right
1.193,-0.2089643431239636,0.9684497083523915,-0.07601492350067676,0.5647749645062424,0.0872862242981877,-0.26399473821137676,-0.24132776739158224,-0.12127081447169076,-0.4550991448516223,1,right
1.194,-0.21226403255843765,0.967932700853355,-0.07496410410743425,0.5681977540401093,0.08694431797935359,-0.2634748564440055,-0.24333855088777595,-0.12395187651474641,-0.45949082495597243,1,right
1.199,-0.21558424944666754,0.9674353477186228,-0.07391246091944172,0.5713818917029826,0.08652775027063003,-0.2628689296532573,-0.2453312853003081,-0.12667167271630342,-0.4638443356085446,1,right
1.2,-0.21892268447732358,0.9669594392901312,-0.07286013478994859,0.5743179753017013,0.08603431900866892,-0.26217664211751773,-0.24730511568042068,-0.12942739865345781,-0.4681564624714328,1,right
1.202,-0.2222769976003846,0.9665067934738308,-0.07180725367080888,0.5769966303559096,0.08546192226224554,-0.26139780896224224,-0.24925919610256128,-0.132216147313806,-0.47242397163910255,1,right
1.205,-0.22564482099764285,0.9660792529592056,-0.0707539332175281,0.5794085353096138,0.08480856754408371,-0.2605323796338613,-0.2511926914180392,-0.13503491586419242,-0.47664361394826243,1,right
1.206,-0.22902376189420334,0.9656786823390253,-0.06970027747716259,0.5815444478542053,0.08407238119426881,-0.2595804412081511,-0.2531047789076549,-0.13788061241267655,-0.48081212918037075,1,right
1.206,-0.23241140520368708,0.9653069651322955,-0.06864637965184109,0.5833952318490949,0.08325161786930006,-0.25854222144074507,-0.2549946498144336,-0.14075006271118123,-0.48492625012125173,1,right
1.208,-0.2358053160017167,0.964966000713913,-0.06759232292738206,0.5849518841514816,0.08234467004916815,-0.2574180914371843,-0.2568615107579344,-0.14364001679682276,-0.48898270648197445,1,right
1.209,-0.23920304182555827,0.9646577011564884,-0.06653818135451837,0.5862055608398391,0.0813500774960394,-0.25620856784968554,-0.2587045850356276,-0.1465471555800908,-0.49297822869296154,1,right
1.214,-0.24260211480332639,0.9643839879930355,-0.06548402077032497,0.5871476026278021,0.08026653663646564,-0.2549143145616099,-0.2605231138167662,-0.14946809738811456,-0.4969095515831397,1,right
1.215,-0.24600005362468724,0.9641467889122356,-0.0644298997492089,0.5877695594381359,0.07909290986022438,-0.2535361438503986,-0.2623163572341138,-0.15239940447130962,-0.5007734179557783,1,right
1.218,-0.24939436537397372,0.9639480343997111,-0.06337587057459855,0.5880632141403727,0.07782823473292916,-0.25207501702550245,-0.2640835953788218,-0.15533758948175005,-0.504566582072487,1,right
1.219,-0.25278254725373184,0.9637896543386774,-0.06232198022277356,0.5880206054548018,0.0764717331192951,-0.2505320445375891,-0.26582412920367837,-0.15827912193164934,-0.5082858130566579,1,right
1.2229999999999999,-0.25616208823228914,0.9636735745804774,-0.06126827134834757,0.5876340500245847,0.07502282021368603,-0.24890848555506997,-0.2675372813398788,-0.16122043464036342,-0.5119278982274478,1,right
1.224,-0.2595304706539032,0.9636017134897256,-0.06021478325800228,0.5868961636568183,0.0734811134743083,-0.24720574700375283,-0.26922239683239296,-0.16415793017834895,-0.5154896463751877,1,right
1.227,-0.26288517185417426,0.9635759784625889,-0.0591615528581029,0.5857998817324109,0.07184644145715333,-0.2454253820651901,-0.2708788437989285,-0.16708798731651905,-0.5189678909888978,1,right
1.228,-0.2662236658250946,0.9635982624132151,-0.05810861556381354,0.5843384787836416,0.0701188525455257,-0.24356908812906133,-0.2725060140174098,-0.17000696748943891,-0.5223594934463649,1,right
1.2329999999999999,-0.26954342497249656,0.963670440223309,-0.05705600616006551,0.5825055872372703,0.06829862357072741,-0.24163870419470218,-0.2741033234468116,-0.17291122128079184,-0.5256613461770054,1,right
1.234,-0.2728419220054385,0.9637943651520817,-0.056003759606087784,0.5802952153200328,0.06638626831920257,-0.2396362077166686,-0.27567021268610564,-0.17579709493952492,-0.528870375807501,1,right
1.238,-0.2761166319941536,0.9639718652070581,-0.05495191177596827,0.5777017641223102,0.06438254592118015,-0.2375637108890081,-0.27720614737599225,-0.17866093693505225,-0.5319835462999423,1,right
1.239,-0.2793650346302107,0.9642047394800567,-0.053900500129618785,0.5747200438146942,0.0622884691155868,-0.2354234563626963,-0.2787106185480053,-0.18149910455985124,-0.5349978620919603,1,right
1.242,-0.2825846167181873,0.96449475445583,-0.05284956431159212,0.5713452890110853,0.06010531238573788,-0.23321781239049114,-0.2801831429254903,-0.1843079705877337,-0.5379103712480567,1,right
1.2429999999999999,-0.28577287492199765,0.964843640302344,-0.05179914667870668,0.5675731732708643,0.057834619960052444,-0.2309492673932557,-0.28162326318086667,-0.1870839299960115,-0.5407181686310706,1,right
1.247,-0.2889273187814986,0.9652530871523559,-0.05074929276055933,0.5633998227315599,0.05547821367177957,-0.22862042394160587,-0.2830305481534952,-0.18982340675970225,-0.5434183991024341,1,right
1.248,-0.2920454740065529,0.965724741386778,-0.04970005165803202,0.5588218288623084,0.05303820067146737,-0.22623399214655282,-0.28440459303237997,-0.19252286072583602,-0.546008260759578,1,right
1.253,-0.29512488604544973,0.9662602019306012,-0.04865147638334137,0.5538362603272611,0.05051698098565581,-0.22379278245262854,-0.285745019507841,-0.19517879457583062,-0.5484850082185466,1,right
1.253,-0.29816312391064603,0.9668610165711842,-0.04760362414429832,0.5484406739469434,0.047917254915028316,-0.22129969782681005,-0.2870514758961992,-0.1977877608837968,-0.5508459559495738,1,right
1.2570000000000001,-0.301157784227227,0.9675286783073553,-0.04655655657908193,0.5426331247444073,0.04524203026501807,-0.21875772533639284,-0.28832363724142035,-0.20034636927852123,-0.5530884816730532,1,right
1.258,-0.3041064954514165,0.9682646217374931,-0.04551033995497528,0.5364121750618497,0.04249462940163185,-0.21616992710880698,-0.2895612053975676,-0.2028512937167496,-0.5552100298230137,1,right
1.262,-0.307006922191645,0.9690702194960126,-0.044465045349082494,0.5297769027321938,0.03967869612502961,-0.21353943066622005,-0.2907639090958158,-0.20529927987525712,-0.5572081150848732,1,right
1.263,-0.3098567695545075,0.9699467787493008,-0.043420748825857024,0.5227269082889451,0.03679820235318182,-0.21086941862763145,-0.29193150399968043,-0.20768715266904955,-0.5590803260139124,1,right
1.2670000000000001,-0.31265378743300215,0.9708955377623101,-0.042377531616309,0.5152623211964495,0.03385745460771979,-0.20816311777103044,-0.29306377275100653,-0.210011823893579,-0.5608243287361008,1,right
1.2690000000000001,-0.3153957746584527,0.9719176625453468,-0.041335480293002776,0.5073838050814925,0.030861100293898193,-0.20542378744806827,-0.29416052500411255,-0.21227029994217003,-0.5624378707102956,1,right
1.2690000000000001,-0.3180805829512422,0.9730142435885613,-0.04029468692856219,0.4990925619459843,0.02781413376640406,-0.20265470734358115,-0.2952215974362933,-0.2144596894659348,-0.5639187844903956,1,right
1.272,-0.3207061206182694,0.9741862926913376,-0.0392552492239232,0.4903903353392916,0.024721902172574438,-0.19985916457219607,-0.2962468537177355,-0.2165772107967495,-0.565264991403399,1,right
1.273,-0.3232703559487004,0.9754347398958577,-0.038217270594439516,0.48127941248082956,0.021590111053055885,-0.1970404401295728,-0.2972361844288473,-0.21862019900019972,-0.5664745050812067,1,right
1.273,-0.32577132026332745,0.9767604305365443,-0.037180860206542495,0.471762625388576,0.01842482962294577,-0.1942017948428217,-0.2981895069219895,-0.22058611250894844,-0.5675454348237029,1,right
1.2770000000000001,-0.3282071105863634,0.9781641224177985,-0.036146132964227126,0.4618433511872033,0.015232495553998483,-0.19134645519329502,-0.2991067651295439,-0.2224725393332986,-0.5684759887925251,1,right
1.278,-0.3305758919256004,0.9796464831330866,-0.03511320945197039,0.451525511834581,0.012019919021517896,-0.1884775995119547,-0.2999879293211607,-0.22427720285481417,-0.5692644770389913,1,right
1.281,-0.3328758991588209,0.9812080875422375,-0.034082215846842075,0.44081357343800653,0.008794285836310922,-0.18559834492039057,-0.3008329958129236,-0.22599796720864215,-0.56990931436926,1,right
1.281,-0.3351054385320107,0.9828494154300286,-0.03305328381357842,0.4297125452111541,0.005563159584327631,-0.18271173516178102,-0.30164198663106706,-0.2276328422599497,-0.5704090230493902,1,right
1.286,-0.3372628887818967,0.9845708493727807,-0.032026550390321123,0.4182279780553562,0.00233448275340478,-0.179820729338976,-0.30241494913277756,-0.2291799881796556,-0.570762235352565,1,right
1.287,-0.33934670190193716,0.9863726728372142,-0.03100215786420572,0.40636596273445585,-0.0008834231621372948,-0.17692819155143788,-0.30315195558650654,-0.23063771962439572,-0.5709676959503263,1,right
1.291,-0.3413554035759498,0.9882550685284985,-0.029980253631945147,0.3941331276113512,-0.004081858588309505,-0.17403688142275375,-0.3038531027141186,-0.23200450952541485,-0.5710242641492543,1,right
1.2919999999999998,-0.34328759330621966,0.990218116995471,-0.028960990042786926,0.3815366359132547,-0.007251747838937748,-0.1711494455104205,-0.30451851119709644,-0.23327899249082598,-0.5709309159741042,1,right
1.296,-0.34514194426344025,0.9922617954921675,-0.027944524225583092,0.3685841824916027,-0.010383642133040997,-0.16826840958959896,-0.3051483251489194,-0.23445996782542103,-0.5706867460979856,1,right
1.297,-0.34691720288547806,0.9943859770873185,-0.026931017903617967,0.35528399004149136,-0.013467723671272448,-0.16539617180253707,-0.30574271155563,-0.2355464021719566,-0.5702909696197489,1,right
1.301,-0.34861218825120094,0.9965904300078786,-0.025920637199944092,0.34164480474446735,-0.016493810780509616,-0.16253499666537233,-0.306301859686501,-0.2365374317775738,-0.5697429236883039,1,right
1.301,-0.3502257912545246,0.9988748171982975,-0.024913552435814276,0.3276758912974831,-0.019451364135569308,-0.15968700992404236,-0.30682598047661164,-0.2374323643887422,-0.5690420689731714,1,right
1.305,-0.3517569736038579,1.001238696074643,-0.02390993792811425,0.31338702728982765,-0.022329494066885315,-0.1568541942510577,-0.30731530588304207,-0.23823068077784734,-0.5681879909801267,1,right
1.306,-0.35320476667489864,1.0036815184543537,-0.022909971795466465,0.2987884968888702,-0.025116968962819262,-0.15403838577492135,-0.30777008821629165,-0.23893203590426665,-0.5671804012103615,1,right
1.311,-0.35456827024992904,1.0062026306484932,-0.021913835780162344,0.28389108379450967,-0.02780222477507737,-0.15124127143401825,-0.3081905994484282,-0.2395362597125046,-0.5660191381611479,1,right
1.3119999999999998,-0.35584665118197273,1.0088012737098593,-0.020921715083098688,0.2687060634213035,-0.030373375635477113,-0.14846438714684074,-0.30857713049937385,-0.24004335756967887,-0.5647041681655521,1,right
1.315,-0.3570391420238493,1.0114765838330446,-0.019933798199276116,0.2532451942663618,-0.03281822559204646,-0.14570911679046417,-0.3089299905026346,-0.24045351034437182,-0.5632355860683025,1,right
1.3159999999999998,-0.35814503965792416,1.0142275929021467,-0.01895027674083606,0.23752070842023454,-0.03512428147214418,-0.14297669197924112,-0.3092495060516825,-0.24076707412858414,-0.5616136157344747,1,right
1.32,-0.35916370395339414,1.017053229182207,-0.017971345243897863,0.22154530117719456,-0.03727876687996113,-0.1402681926357397,-0.30953602042810163,-0.24098457960424663,-0.5598386103872183,1,right
1.321,-0.3600945564678513,1.0199523181537946,-0.016997200968123103,0.20533211970052787,-0.039268637335399065,-0.13758454834601325,-0.30978989281251135,-0.2411067310554699,-0.5579110527703062,1,right
1.324,-0.36093707920157964,1.0229235834957402,-0.016028043706592048,0.18889475069768635,-0.0410805965609241,-0.13492654049135477,-0.31001149747918655,-0.2411344050274335,-0.5558315551308464,1,right
1.325,-0.3616908134075579,1.0259656482277877,-0.01506407562481124,0.17224720705943844,-0.04270111392255596,-0.13229480514875674,-0.3102012229751982,-0.24106864863254096,-0.5536008590170601,1,right
1.33,-0.3623553584565978,1.0290770360310912,-0.014105501142267175,0.15540391341647003,-0.04411644303068086,-0.12968983675236875,-0.3103594712848048,-0.24091067750419382,-0.5512198348855892,1,right
1.331,-0.36293037075413814,1.032256172766949,-0.013152526861031943,0.13837969056624633,-0.04531264150586402,-0.12711199250831887,-0.3104866569797309,-0.240661873398266,-0.548689481512361,1,right
1.335,-0.36341556270308856,1.0355013882113662,-0.012205361537992208,0.1211897387223416,-0.04627559191428758,-0.12456149755533924,-0.3105832063564099,-0.24032378144653588,-0.5460109252061693,1,right
1.3359999999999999,-0.36381070170642243,1.038810918017043,-0.011264216093661615,0.10384961953788228,-0.04699102387684977,-0.12203845086371334,-0.31064955656382354,-0.23989810708828851,-0.5431854188515313,1,right
1.3359999999999999,-0.36411560920253483,1.042182905908642,-0.010329303649848007,0.08637523685423042,-0.04744453735533124,-0.11954283186514,-0.31068615473024946,-0.23938671274603215,-0.5402143408570393,1,right
1.34,-0.3643301597230735,1.0456154061126368,-0.00940083958567617,0.06878281612555841,-0.047621627118364124,-0.11707450780618747,-0.31069345709978874,-0.23879161433323726,-0.5370991941128376,1,right
1.341,-0.3644542799576171,1.0491063860182832,-0.00847904159454464,0.05108888246953617,-0.047507708389228194,-0.11463324181808954,-0.3106719281868093,-0.23811497765953532,-0.533841605032595,1,right
1.341,-0.3644879478067398,1.0526537290610756,-0.007564129718674488,0.03331023733173358,-0.047088143655393,-0.11221870168015188,-0.31062203995158943,-0.23735911475857532,-0.5304433227048411,1,right
1.347,-0.3644311914073312,1.0562552378167904,-0.00665632634005872,0.015463933939840491,-0.046348270512168506,-0.10983046917630467,-0.31054427099771387,-0.2365264801412766,-0.5269062181502826,1,right
1.348,-0.3642840881183367,1.0599086372940203,-0.005755856117448678,-0.00243274793657757,-0.04527343021981802,-0.10746804980435519,-0.3104391057911598,-0.23561966697253958,-0.5232322836757485,1,right
1.35,-0.3640467634565749,1.06361157841296,-0.00486294587335693,-0.02036232721647513,-0.043848996545846855,-0.10513088251976119,-0.3103070339009326,-0.23464140316924795,-0.5194236323150042,1,right
1.35,-0.36371938997140446,1.067361641656432,-0.003977824446818823,-0.038307146212592354,-0.04206040457002223,-0.10281834927363026,-0.31014854926102775,-0.23359454741717622,-0.5154824973462776,1,right
1.357,-0.36330218604847675,1.071156340879556,-0.003100722531060422,-0.05624939463636045,-0.03989317932089025,-0.10052978424478544,-0.3099641494534175,-0.2324820851042032,-0.5114112318759485,1,right
1.357,-0.3627954146391689,1.0749931272688813,-0.0022318725069292666,-0.07417113291614826,-0.037332964218314134,-0.09826448274361888,-0.30975433501168526,-0.2313071241670275,-0.5072123084774643,1,right
1.36,-0.36219938192172346,1.0788693934451208,-0.0013715082649673161,-0.09205431488036232,-0.03436554931686439,-0.09602170978108925,-0.3095196087448522,-0.23007289084838403,-0.5028883188741644,1,right
1.361,-0.36151443590849464,1.0827824777006376,-0.0005198649892111131,-0.10988080985690524,-0.030976899343804088,-0.09380070829628674,-0.30926047508086835,-0.22878272536157257,-0.498441973654324,1,right
1.365,-0.3607409650177668,1.0867296683539094,0.00032282113437480023,-0.1276324242404376,-0.027153181524283865,-0.09160070703605645,-0.3089774394291659,-0.22744007745892963,-0.4938761020063613,1,right
1.3659999999999999,-0.359879396629795,1.0907082081928954,0.0011563133152845157,-0.14529092257877832,-0.02288079318519186,-0.08942092808023579,-0.3086710075616019,-0.2260485019007055,-0.4891936514617901,1,right
1.37,-0.3589301956500797,1.0947152989727156,0.001980374673495775,-0.16283804822961467,-0.01814638912789403,-0.08726059400612383,-0.3083416850110469,-0.2246116538206475,-0.4843976876331524,1,right
1.371,-0.3578938631110112,1.0987481059329776,0.0027947688667927994,-0.1802555436384787,-0.012936908758851113,-0.08511893468586093,-0.3079899764868075,-0.22313328398444016,-0.4794913939338199,1,right
1.375,-0.3567709348527991,1.1028037623049096,0.003599260818807674,-0.1975251702886785,-0.0072396029658100105,-0.08299519371045488,-0.3076163853060032,-0.22161723393701244,-0.47447807126622055,1,right
1.375,-0.3555619803296292,1.1068793737835865,0.004393617537996313,-0.21462872837355346,-0.001042060725940802,-0.08088863443424611,-0.30722141283995374,-0.22006743103459217,-0.46936113766471826,1,right
1.379,-0.3542676015827418,1.1109720229425009,0.005177609017503868,-0.2315480762410503,0.0056677645690735145,-0.07879854563365772,-0.30680555797456593,-0.2184878833572694,-0.46414412787905945,1,right
1.38,-0.35288843241054824,1.115078773566698,0.0059510091975823924,-0.24826514966019114,0.012901529087388109,-0.07672424677412795,-0.30636931658364963,-0.2168826744977219,-0.45883069288399136,1,right
1.385,-0.3514251377547224,1.1191966748791737,0.0067135969580821705,-0.2647619809585287,0.020670472848618077,-0.0746650928791718,-0.30591318101402815,-0.21525595822165863,-0.4534245993003603,1,right
1.386,-0.3498784133178853,1.1233227656368068,0.007465157095890759,-0.2810207180791551,0.028985394352031527,-0.07262047899556624,-0.3054376395812494,-0.2136119529954536,-0.4479297287127099,1,right
1.389,-0.3482489854343796,1.1274540780791142,0.008205481240354461,-0.29702364360524797,0.03785662556211883,-0.0705898442486986,-0.30494317607464716,-0.21195493637636642,-0.4423500768681255,1,right
1.39,-0.346537611224834,1.1315876417234878,0.008934368674911361,-0.31275319379950833,0.04729400727387941,-0.06857267548216153,-0.3044302692704406,-0.21028923926068635,-0.43668975274079985,1,right
1.3940000000000001,-0.344745079069289,1.1357204870091018,0.009651627062318608,-0.32819197770515646,0.05730686488173497,-0.06656851047571963,-0.30389939245150954,-0.20861923998508597,-0.4309529774465459,1,right
1.3940000000000001,-0.3428722094291536,1.1398496487951522,0.010357073101535655,-0.34332279635442264,0.06790398457757482,-0.0645769407358131,-0.3033510129324246,-0.2069493582764333,-0.42514408299123513,1,right
1.3980000000000001,-0.34091985603911223,1.1439721697169682,0.011050533159948746,-0.35812866212968064,0.07909359000506466,-0.06259761385280284,-0.3027855915882599,-0.2052840490452877,-0.4192675108369105,1,right
1.399,-0.33888890748033007,1.1480851033972435,0.011731843912734019,-0.37259281832153923,0.09088331939900193,-0.06063023541919847,-0.3022035823856647,-0.20362779601829034,-0.41332781026910376,1,right
1.403,-0.33678028913526986,1.1521855175035316,0.012400852986542144,-0.38669875892732075,0.10328020324017817,-0.05867457050314748,-0.3016054319157372,-0.20198510521013444,-0.4073296365559043,1,right
1.4040000000000001,-0.33459496551217993,1.1562704966430644,0.013057419571850061,-0.4004302487324256,0.11629064245790952,-0.05673044467149846,-0.3009915789337828,-0.2003604982631701,-0.40127774892527013,1,right
1.405,-0.3323339429159426,1.160337145093626,0.013701414958558969,-0.4137713437160976,0.12992038721411928,-0.05479774455678659,-0.3003624539210516,-0.19875850573197104,-0.395177008451926,1,right
1.409,-0.32999827243039215,1.164382589380838,0.014332722960469484,-0.42670641178906354,0.14417451631029543,-0.052876417970763714,-0.2997184786890905,-0.19718366041758656,-0.38903237598116447,1,right
1.41,-0.32758905316625064,1.1684039807218913,0.014951240212394695,-0.439220153704377,0.15905741728888748,-0.050966473608334874,-0.29906006604171315,-0.19564049082889673,-0.38284891018057476,1,right
1.41,-0.3251074357244645,1.172398497360089,0.015556876342775278,-0.4512976236845472,0.17457276735374946,-0.04906798045996636,-0.29838761949948633,-0.19413351479930827,-0.3766317657455447,1,right
1.4140000000000001,-0.322554625825583,1.1763633468140695,0.01614955404306386,-0.4629242491417989,0.19072351526450904,-0.04718106709186893,-0.29770153308600306,-0.1926672332597484,-0.370386191748121,1,right
1.415,-0.31993188805403366,1.1802957680618287,0.016729209065868358,-0.47408584903217116,0.2075118643330662,-0.045305920912086864,-0.2970021911740501,-0.19124612416353334,-0.36411753011147663,1,right
1.4180000000000001,-0.31724054966161536,1.184193033673276,0.01729579017919265,-0.48476865068003316,0.22493925660097625,-0.04344278746648623,-0.2962899683897401,-0.18987463655879194,-0.3578312141921353,1,right
1.419,-0.31448200437079926,1.1880524518976852,0.017849259087692325,-0.4949593050733738,0.24300635824981448,-0.04159196976746329,-0.29556522957263787,-0.18855718480424183,-0.351532767452023,1,right
1.4240000000000002,-0.31165771611439674,1.1918713687059062,0.018389590317165767,-0.5046449006619008,0.2617130462927542,-0.039753827649986834,-0.2948283297898724,-0.1872981429242455,-0.3452278022023509,1,right
1.4240000000000002,-0.308769222644023,1.195647169782045,0.018916771052556403,-0.5138129756886071,0.28105839659742377,-0.03792877714962274,-0.2940796144021897,-0.18610183909921554,-0.3389220184012814,1,right
1.429,-0.305818138940849,1.1993772824573805,0.01943080091761252,-0.522451529084053,0.30104067329194434,-0.03611728989722466,-0.2933194191798652,-0.18497255028759402,-0.33262120248729626,1,right
1.43,-0.3028061603734858,1.2030591775847468,0.019931691683168776,-0.5305490299511615,0.321657319607886,-0.03431989252501125,-0.2925480704663592,-0.18391449697579806,-0.326331226230167,1,right
1.433,-0.2997350655695529,1.2066903713647106,0.020419466896797474,-0.5380944256668381,0.3429049502157115,-0.032537166078788086,-0.29176588538756565,-0.1829318380527046,-0.3200580455814242,1,right
1.435,-0.2966067189943286,1.2102684271482465,0.02089416144203032,-0.5450771486252067,0.3647793451101071,-0.0307697454311114,-0.2909731721044707,-0.1820286658054391,-0.31380769950623844,1,right
1.4380000000000002,-0.2934230732529555,1.2137909572451822,0.02135582105262635,-0.5514871216456996,0.38727544510441897,-0.029018318690231543,-0.29017023010700677,-0.18120900103343757,-0.30758630877865684,1,right
1.439,-0.2901861711422388,1.217255624760821,0.02180450181758508,-0.557314762067654,0.41038734899522405,-0.02728362659969617,-0.28935735054685424,-0.18047678827796804,-0.30140007472218544,1,right
1.442,-0.2868981474706577,1.2206601454703199,0.022240269713728934,-0.5625509845514544,0.4341083124598649,-0.025566461923537374,-0.28853481660691566,-0.17983589116452534,-0.29525527787777645,1,right
1.443,-0.2835612306481561,1.2240022897290257,0.022663200195159102,-0.5671872026046132,0.4584307487515606,-0.02386766881201291,-0.2877029039051555,-0.17929008785575298,-0.28915827658136106,1,right
1.4469999999999998,-0.28017774403229595,1.2272798844106017,0.023073377853307354,-0.5712153288495118,0.48334623125847376,-0.022188142142919927,-0.28686188093047127,-0.17884306661279722,-0.2831155054331691,1,right
1.4480000000000002,-0.2767501070112349,1.2304908148638507,0.023470896145092353,-0.5746277740478251,0.5088454979948607,-0.020528826833550104,-0.28601200950823363,-0.17849842146326006,-0.27713347364119817,1,right
1.452,-0.2732808358059868,1.233633026882832,0.02385585718142731,-0.5774174448949319,0.534918458094159,-0.018890717118407917,-0.2851535452931063,-0.17825964797419164,-0.2712187632213299,1,right
1.452,-0.2697725439797474,1.2367045286901472,0.024228371573662047,-0.5795777405958651,0.5615542003755686,-0.017274855787869227,-0.28428673828673,-0.178130139128845,-0.26537802703674873,1,right
1.4569999999999999,-0.26622794264648125,1.2397033929364334,0.024588558338293782,-0.5811025482325911,0.588741004057355,-0.015682333383015563,-0.28341183337782955,-0.1781131813062113,-0.2596179866594928,1,right
1.4580000000000002,-0.2626498403731983,1.2426277587178887,0.02493654485519501,-0.5819862369306162,0.6164663516917561,-0.014114287341940517,-0.2825290709022791,-0.17821195036265577,-0.25394543003715897,1,right
1.463,-0.2590411427718997,1.2454758336076222,0.02527246687246154,-0.5822236508311145,0.6447169443979797,-0.012571901092888645,-0.28163868722063495,-0.1784295078152911,-0.2483672089479983,1,right
1.464,-0.2554048517798668,1.2482458956879015,0.025596468560289225,-0.5818101008729448,0.673478719471368,-0.011056403089654415,-0.2807409153106242,-0.17876879712704485,-0.24289023622786982,1,right
1.4669999999999999,-0.25174406462970483,1.2509362955630914,0.025908702629988126,-0.5807413553870849,0.7027368704483482,-0.009569065784739204,-0.2798359853720529,-0.1792326400937121,-0.23752148275277069,1,right
1.4680000000000002,-0.2480619725100162,1.253545458329327,0.026209330540779598,-0.5790136295041528,0.732475869708295,-0.00811120453583811,-0.27892412544157696,-0.1798237333336242,-0.23226797416093375,1,right
1.472,-0.244361858912503,1.2560718854762107,0.026498522814056482,-0.5766235733738204,0.7626794936948961,-0.00668417644130569,-0.2780055620147566,-0.1805446448809148,-0.22713678729877307,1,right
1.473,-0.24064709765407355,1.258514156697791,0.026776459467992855,-0.5735682591930402,0.7933308508410416,-0.005289379100330741,-0.27708052067213174,-0.18139781088571852,-0.2221350463784208,1,right
1.474,-0.23692115055699486,1.2608709315948472,0.02704333058030231,-0.5698451670381136,0.8244124122826317,-0.003928249293635019,-0.27614922670271247,-0.18238553243499103,-0.2172699188506848,1,right
1.4769999999999999,-0.23318756476801714,1.2631409512551361,0.02729933698250756,-0.56545216949373,0.8559060454480342,-0.0026022615805994026,-0.2752119057122827,-0.18350997252598758,-0.21254861102596778,1,right
1.4780000000000002,-0.22944996969642453,1.2653230396979465,0.027544691079697398,-0.5603875151191375,0.887793050530367,-0.0013129268113004449,-0.27426878420057205,-0.1847731532348059,-0.2079783634918143,1,right
1.4780000000000002,-0.2257120735487221,1.2674161051651063,0.027779617776648974,-0.554649811034411,0.9200541994468129,-6.179056447057883e-05,-0.27332009009465763,-0.18617695311279642,-0.20356644636039165,1,right
1.4809999999999999,-0.2219776594354341,1.2694191412396458,0.02800435548373333,-0.5482380053483558,0.9526697761627904,0.0011495684551233241,-0.27236605323191754,-0.1877231048260598,-0.19932015435126182,1,right
1.482,-0.21825058102535208,1.271331227777593,0.02821915717750882,-0.5411513703923793,0.985619616855732,0.0023195400138494304,-0.27140690578916205,-0.1894131930436615,-0.19524680169948375,1,right
1.486,-0.2145347577262907,1.2731515316432662,0.02842429149454873,-0.5333894874780089,1.018883148798498,0.0034464839072185856,-0.2704428826552184,-0.1912486525785999,-0.191353716876386,1,right
1.4869999999999999,-0.2108341693820178,1.2748793072409503,0.02862004383689911,-0.5249522334532986,1.0524394275710334,0.004528731467286302,-0.2694742217442286,-0.19323076678597376,-0.18764823711082812,1,right
1.4909999999999999,-0.20715285049196458,1.276513896835499,0.0288067174644909,-0.5158397690867118,1.0862671726140423,0.005564587020319872,-0.26850116424690557,-0.19536066622320591,-0.18413770269926413,1,right
1.492,-0.20349488397658344,1.2780547306511874,0.0289846345490531,-0.5060525292561803,1.1203448012201884,0.006552329297964412,-0.26752395481697866,-0.19763932757760022,-0.18082945109344042,1,right
1.496,-0.1998643945207426,1.2795013267341822,0.029154137169581422,-0.4955912149191023,1.1546504610591766,0.007490212805013205,-0.26654284169004655,-0.2000675728669275,-0.17773081075509903,1,right
1.4969999999999999,-0.1962655415312634,1.2808532905621501,0.029315588238507207,-0.4844567868371041,1.1891620613338463,0.008376469146754365,-0.26555807673204257,-0.20264606891916107,-0.17484909476761734,1,right
1.5019999999999998,-0.19270251174673084,1.2821103143852597,0.02946937235324315,-0.47265046102744895,1.2238573026651258,0.00920930831872758,-0.26456991541450553,-0.20537532713791024,-0.17219159419509605,1,right
1.5030000000000001,-0.18917951153851809,1.283272176284735,0.029615896566474592,-0.46017370591104445,1.2587137058043507,0.009986919961581422,-0.2635786167138385,-0.20825570356052844,-0.16976557118000976,1,right
1.508,-0.1857007589392973,1.2843387389368206,0.029755591063411486,-0.447028241125062,1.29370863927204,0.010707474583573334,-0.2625844429317266,-0.21128739921630457,-0.16757825177115723,1,right
1.508,-0.18227047543074265,1.2853099480711885,0.029888909729651685,-0.4332160379662586,1.328819346022754,0.011369124753100934,-0.26158765943387674,-0.2144704607925787,-0.16563681847429332,1,right
1.51,-0.17889287752065802,1.286185830614303,0.030016330592634515,-0.41873932142915926,1.3640229692361163,0.011970006263494561,-0.2605885343042305,-0.21780478161705724,-0.16394840251848794,1,right
1.511,-0.17557216814263166,1.2869664925111428,0.03013835612547035,-0.40360057380134295,1.399296577334484,0.01250823927213704,-0.25958733791179617,-0.2212901029650368,-0.16252007583194464,1,right
1.515,-0.17231252791504068,1.2876521162241346,0.030255513412618895,-0.38780253977615686,1.4346171883280787,0.012981929415807388,-0.2585843423872361,-0.22492601570068038,-0.16135884272171655,1,right
1.516,-0.16911810629819818,1.288242957917791,0.030368354184013648,-0.37134823304127684,1.4699617935886589,0.013389168903970622,-0.2575798210063404,-0.2287119622619249,-0.1604716312524847,1,right
1.521,-0.16599301269022795,1.288739344351791,0.030477454719550736,-0.3542409442996313,1.5053073811530198,0.013728037591555728,-0.2565740474775108,-0.23264723899903014,-0.1598652843203107,1,right
1.521,-0.1629413075071317,1.2891416695211886,0.030583415610257333,-0.3364842506773099,1.5406309586577343,0.013996604032578516,-0.2555672951303742,-0.23673099887721427,-0.1595465504180424,1,right
1.525,-0.15996699330008893,1.2894503910956596,0.030686861345197155,-0.31808202647119616,1.5759095760066208,0.014192926515775079,-0.25455983600264137,-0.24096225455424938,-0.15952207408983923,1,right
1.526,-0.15707400596830104,1.289666026717514,0.030788439685403485,-0.29903845518718764,1.6111203478724299,0.014315054083215225,-0.2535519398223207,-0.2453398818443211,-0.15979838607308913,1,right
1.5319999999999998,-0.15426620612467631,1.289789150220613,0.03088882079476624,-0.2793580428180006,1.646240476134173,0.01436102753266316,-0.25254387288239666,-0.24986262357988095,-0.1603818931268161,1,right
1.5330000000000001,-0.1515473706654248,1.2898203878301373,0.030988696120918098,-0.25904563230770394,1.681247272351391,0.014328880404245233,-0.2515358968050788,-0.2545290938836449,-0.16127886754652246,1,right
1.535,-0.1489211845871089,1.289760414397312,0.031088777046611733,-0.23810641914828548,1.7161181803764642,0.014216639951771366,-0.25052826719272697,-0.25933778286331094,-0.16249543636627256,1,right
1.536,-0.14639123308935154,1.2896099497150084,0.031189793352150223,-0.21654596805172366,1.7508307992058065,0.014022328098837984,-0.24952123216255645,-0.26428706174198485,-0.1640375702497085,1,right
1.541,-0.14396099399925377,1.2893697549506768,0.03129249153553572,-0.1943702306392243,1.7853629061704595,0.013743962379615867,-0.248515030764747,-0.2693751884224651,-0.1659110720778031,1,right
1.5419999999999998,-0.14163383055145543,1.2890406292224754,0.031397633029344625,-0.17158556408748143,1.819692480566213,0.013379556863996209,-0.24750989129617024,-0.2746003134076818,-0.16812156526815317,1,right
1.5419999999999998,-0.13941298455304904,1.2886234063340347,0.03150599233662876,-0.14819875067003768,1.853797727822924,0.012927123066532396,-0.24650602954461445,-0.2799604858627187,-0.17067448190849235,1,right
1.547,-0.13730156996024404,1.288118951675167,0.03161835508848236,-0.12421701813005279,1.887657104312191,0.012384670838373597,-0.24550364701098,-0.28545365952798124,-0.17357505081413407,1,right
1.547,-0.13530256689839965,1.2875281592895331,0.03173551600931367,-0.0996480607920548,1.921249342845516,0.011750209247773206,-0.24450292914432964,-0.29107769826973207,-0.17682828559394365,1,right
1.548,-0.13341881616139992,1.286851949103953,0.03185827676789289,-0.07450006118359145,1.9545534786822798,0.011021747487673489,-0.24350404360201997,-0.29683038119187294,-0.1804389727634794,1,right
1.551,-0.13165301422153555,1.2860912643071531,0.031987443695006716,-0.04878171169311849,1.9875488754482225,0.010197295908317106,-0.24250713853455166,-0.3027094073094956,-0.18441165991886171,1,right
1.5519999999999998,-0.13000770877013643,1.285247068857132,0.032123825359125426,-0.022502235653848048,2.020215250132184,0.009274867305742918,-0.24151234089226556,-0.3087123998003542,-0.18875064398072658,1,right
1.555,-0.12848529479712295,1.2843203450856275,0.032268230006685134,0.004328592623453921,2.0525326965602155,0.008252478563582466,-0.24051975475101425,-0.3148369098507803,-0.1934599595186454,1,right
1.557,-0.12708801120255953,1.283312091359484,0.0324214628905687,0.03170042910449762,2.0844817071631856,0.007128152685589685,-0.23952945965394606,-0.32108042011292304,-0.19854336716743326,1,right
1.56,-0.1258179379160844,1.2822233197567088,0.03258432352262129,0.05960234267478551,2.1160431930852535,0.005899921222883928,-0.23854150896654408,-0.32744034779055575,-0.2040043421478185,1,right
1.561,-0.12467699348772662,1.2810550537207253,0.032757602887248924,0.08802279924926991,2.147198502726001,0.004565827092964979,-0.23755592824206836,-0.33391404737103625,-0.20984606290501098,1,right
1.564,-0.12366693311009265,1.2798083256683683,0.03294208064381491,0.11694964742696073,2.177929438807964,0.0031239277872659368,-0.23657271359455703,-0.34049881302135226,-0.2160713998797792,1,right
1.565,-0.12278934703518744,1.2784841745427473,0.03313852233172487,0.14637010577061302,2.2082182740601928,0.0015722989637113665,-0.23559183007654821,-0.3471918806665164,-0.2226829044277315,1,right
1.57,-0.12204565935504082,1.2770836433176904,0.03334767658017212,0.1762707517931126,2.2380477656073032,-9.096157955596242e-05,-0.23461321005869104,-0.3539904297689013,-0.22968279790358875,1,right
1.57,-0.12143712712032627,1.275607776473716,0.03357027231807894,0.2066375127336317,2.267401168152258,-0.0018677295534260808,-0.23363675160842196,-0.36089158482742667,-0.23707296092833818,1,right
1.575,-0.12096483977384231,1.2740576174759635,0.033807015979871444,0.23745565820804218,2.2962622460398587,-0.003759849454512085,-0.23266231686488736,-0.36789241661581773,-0.24485492285826624,1,right
1.575,-0.12062971887653703,1.2724342062912797,0.03405858870899632,0.26870979481945323,2.3246152842866024,-0.005769129474061808,-0.2316897304073017,-0.37498994317946144,-0.253029851475983,1,right
1.579,-0.12043251810365124,1.2707385769829294,0.03432564357082686,0.30038386281607693,2.352445098661189,-0.00789733604419904,-0.23071877761393564,-0.3821811306106774,-0.26159854292467155,1,right
1.58,-0.1203738234883803,1.2689717554176536,0.03460880279509799,0.3324611348849211,2.3797370448985604,-0.010146188026933756,-0.22974920300893434,-0.38946289362250963,-0.2705614119079204,1,right
1.585,-0.12045405389088042,1.2671347571131006,0.03490865507236181,0.36492421717105966,2.406477027128887,-0.01251735055171728,-0.22878070859417138,-0.39683209594142177,-0.279918482178625,1,right
1.5859999999999999,-0.12067346167146917,1.265228585244756,0.035225752930422474,0.3977550526134357,2.432651505601419,-0.015012428507659844,-0.2278129521633489,-0.4042855505395476,-0.2896693773415752,1,right
1.589,-0.12103213354840772,1.2632542288219357,0.0355606102181738,0.43093492668930844,2.4582475037815708,-0.0176329596968745,-0.22684554559555756,-0.4118200197274081,-0.2998133119954754,1,right
1.591,-0.12152999162367249,1.2612126610359866,0.035913699726658366,0.4644444756605647,2.483252614898034,-0.02038040765576252,-0.22587805312551335,-0.41943221512825846,-0.31034908324127847,1,right
1.594,-0.12216679456587336,1.2591048377831326,0.03628545097916913,0.49826369741616633,2.507655008015075,-0.02325615415141136,-0.22490998958769065,-0.4271187975554701,-0.3212750625848428,1,right
1.594,-0.1229421389480903,1.256931696367727,0.036676248222063224,0.5323719650060116,2.5314434337035245,-0.026261491360636335,-0.22394081863157134,-0.43487637681458396,-0.3325891882630504,1,right
1.599,-0.12385546074924869,1.2546941543955232,0.037086428643902915,0.5667480429624291,2.554607229382268,-0.02939761373956171,-0.22296995090522934,-0.44270151145189707,-0.3442889580236495,1,right
1.601,-0.12490603704013169,1.2523931088695126,0.037516280841363686,0.6013701065064146,2.5771363244003123,-0.03266560959200524,-0.2219967422044689,-0.4505907084716557,-0.3563714223902046,1,right
1.605,-0.126092987888511,1.250029435502885,0.03796604353801502,0.6362157637365492,2.5990212449277426,-0.0360664523453023,-0.22102049158473083,-0.45854042304413367,-0.3688331784446503,1,right
1.605,-0.12741527853143925,1.247603988263812,0.03843590455156022,0.6712620808993041,2.6202531187220965,-0.039600991542581065,-0.22004043943297602,-0.46654705822706727,-0.3816703641610544,1,right
1.609,-0.12887172187560517,1.245117599164757,0.03892599999991239,0.7064856108401448,2.6408236798348472,-0.0432699435608791,-0.21905576549674982,-0.4746069647231035,-0.3948786533252904,1,right
1.609,-0.1304609813968887,1.2425710783066652,0.039436413736164036,0.7418624247354869,2.6607252733208524,-0.04707388206487269,-0.21806558686762026,-0.48271644069609004,-0.40845325107641306,1,right
1.61,-0.132181574514811,1.2399652141864632,0.0399671770045807,0.7773681472061316,2.6799508600117408,-0.05101322820637441,-0.21706895592179754,-0.490871731659946,-0.4223888901012931,1,right
1.6130000000000002,-0.13403187651314344,1.237300774273084,0.04051826831216358,0.812977994913318,2.6984940214123143,-0.05508824058014003,-0.21606485824884997,-0.4990690304077245,-0.43667982748858564,1,right
1.614,-0.1360101250650074,1.2345785058517564,0.04108961351197331,0.8486668186498451,2.7163489647433323,-0.05929900496265499,-0.21505221065003358,-0.5073044768653225,-0.45131984220136523,1,right
1.615,-0.1381144254064011,1.2317991371302823,0.04168108609467635,0.8844091484934768,2.7335105279831153,-0.06364542393966785,-0.2140298593158559,-0.5155741577081456,-0.466302233102248,1,right
1.619,-0.1403427561919596,1.2289633785965,0.042292507683639936,0.9201792407880421,2.749974184454308,-0.06812720667030249,-0.21299657826435106,-0.5238741056254336,-0.48161981749238997,1,right
1.62,-0.1426929760583139,1.2260719246121967,0.04292364872682719,0.9559511252722568,2.76573604633118,-0.072743859114679,-0.21195106807090028,-0.5322002982003643,-0.49726493017454393,1,right
1.624,-0.14516283090732437,1.223125455222401,0.043574229377585566,0.9916986511220621,2.780792866609827,-0.07749467497365387,-0.2108919548922823,-0.5405486564204277,-0.513229423077889,1,right
1.625,-0.14774996189927825,1.2201246381484219,0.04424392055877698,1.0273955314744476,2.795142039385791,-0.08237872744800352,-0.20981778978198323,-0.5489150428419047,-0.5295046654886213,1,right
1.629,-0.15045191411438794,1.217070130917597,0.044932345208184093,1.0630153864463416,2.8087815984505795,-0.08739486184605369,-0.20872704829375832,-0.5572952594323607,-0.5460815449312301,1,right
1.63,-0.1532661458022996,1.2139625830633156,0.04563907970035022,1.0985317847512088,2.821710214250331,-0.09254168905340061,-0.20761813037040128,-0.5656850451151286,-0.5629504687463043,1,right
1.6340000000000001,-0.15619003809716903,1.2108026383096901,0.04636365542867794,1.133918284015844,2.8339271892478455,-0.09781757987875198,-0.20648936051463088,-0.5740800730398062,-0.5801013664116039,1,right
1.6340000000000001,-0.15922090503493158,1.2075909366422732,0.047105560517543374,1.1691484698996313,2.8454324517271545,-0.10322066029029466,-0.20533898823895858,-0.5824759476028316,-0.5975236926539962,1,right
1.6369999999999998,-0.1623560036762977,1.204328116164274,0.04786424162358007,1.2041959941182423,2.856226548077776,-0.10874880755737136,-0.20416518879134798,-0.590868201242231,-0.615206431400695,1,right
1.6380000000000001,-0.16559254411899516,1.2010148146493946,0.048639105781562296,1.2390346114733704,2.8663106335937436,-0.11439964731261815,-0.20296606415341953,-0.5992522910306453,-0.6331381006190505,1,right
1.643,-0.16892769917783992,1.197651670726248,0.04942952225622956,1.2736382159896544,2.8756864618204747,-0.12017055155007993,-0.2017396443078917,-0.6076235950907438,-0.6513067580949156,1,right
1.6440000000000001,-0.17235861352115808,1.1942393246596297,0.05023482437721524,1.3079808762594134,2.8843563724804717,-0.12605863757517985,-0.20048388877188283,-0.615977408857126,-0.6697000082003609,1,right
1.6469999999999998,-0.17588241207621624,1.1907784187244366,0.05105431135452366,1.3420368700952212,2.8923232780068417,-0.13206076792277013,-0.19919668839262447,-0.6243089412087854,-0.688305009702228,1,right
1.6480000000000001,-0.17949620755345752,1.1872695971942018,0.05188725008777709,1.3757807185896713,2.8995906487115732,-0.1381735512598364,-0.1978758674020586,-0.632613310496174,-0.707108484663685,1,right
1.652,-0.1831971069858438,1.1837135059844774,0.052732876987730666,1.409187219680932,2.9061624966134723,-0.1443933442897637,-0.19651918572670687,-0.6408855404868546,-0.7260967284915972,1,right
1.653,-0.18698221722947964,1.1801107919997742,0.053590399823418365,1.4422314813218744,2.912043357948663,-0.15071625467539945,-0.19512434154910935,-0.6491205562536676,-0.7452556211831319,1,right
1.659,-0.19084864942008964,1.1764621022333188,0.05445899959564703,1.4748889543496526,2.9172382743845366,-0.15713814499846596,-0.19368897411703342,-0.6573131800292535,-0.7645706398255842,1,right
1.66,-0.19479352242515427,1.1727680826656413,0.05533783242049445,1.5071354651516538,2.9217527729560335,-0.16365463777318157,-0.19221066679655074,-0.6654581270506882,-0.7840268724039411,1,right
1.662,-0.198813965373502,1.1690293770047786,0.05622603139003731,1.5389472482226885,2.9255928447411654,-0.1702611215322461,-0.19068695036496988,-0.6735500014178735,-0.8036090329711937,1,right
1.662,-0.20290711938233036,1.165246625309582,0.057122708368477104,1.5703009787071898,2.9287649222907146,-0.17695275800362875,-0.18911530653949657,-0.6815832919892093,-0.8233014782368483,1,right
1.6669999999999998,-0.20707013863445567,1.1614204625382643,0.0580269556839036,1.601173805019001,2.9312758558250884,-0.18372449039686975,-0.18749317173736849,-0.6895523683379329,-0.8430882256294997,1,right
1.6680000000000001,-0.2113001909833251,1.1575515170670312,0.058937847687098956,1.6315433816300935,2.933132888209384,-0.1905710528178632,-0.1858179410630829,-0.6974514767923591,-0.862952972889685,1,right
1.671,-0.21559445827536564,1.1536404092283135,0.05985444216293992,1.6613879021182314,2.9343436287157783,-0.1974869808313336,-0.18408697251819617,-0.7052747365830868,-0.8828791192495556,1,right
1.672,-0.2199501365729996,1.1496877499225515,0.06077578159010822,1.6906861325622295,2.9349160255804763,-0.20446662319044825,-0.18229759142902982,-0.7130161361200534,-0.9028497882561747,1,right
1.6780000000000002,-0.22436443643371856,1.145694139358131,0.06170089424696582,1.7194174453719975,2.934858337360572,-0.21150415475322235,-0.1804470950874647,-0.7206695294221154,-0.9228478522954688,1,right
1.6780000000000002,-0.22883458335477003,1.1416601659683052,0.06262879515755869,1.7475618536390602,2.934179103094312,-0.21859359060557151,-0.17853275759813053,-0.7282286327263026,-0.9428559588222348,1,right
1.679,-0.2333578184427443,1.1375864055411238,0.06355848686798692,1.7751000460916784,2.9328871112664325,-0.2257288014110509,-0.17655183491655638,-0.735687021327089,-0.9628565580426842,1,right
1.682,-0.23793139932628934,1.133473420580585,0.06448896004497474,1.8020134227370608,2.9309913675784127,-0.23290353000748384,-0.17450157004724032,-0.7430381267379449,-0.98283193132982,1,right
1.682,-0.24255260129839532,1.1293217598983472,0.06541919389625163,1.828284131271479,2.9285010615217177,-0.24011140927083377,-0.17237919836183993,-0.750275234290596,-1.0027642193929276,1,right
1.683,-0.24721871864644018,1.1251319584183634,0.06634815642407145,1.8538951042577643,2.92542553179807,-0.2473459812259295,-0.1701819530060668,-0.7573914812636894,-1.0226354494814751,1,right
1.6869999999999998,-0.2519270661104846,1.1209045371637296,0.06727480453474403,1.8788300966699005,2.9217742308677153,-0.2546007171793993,-0.16790707037910144,-0.7643798555900917,-1.0424275613699248,1,right
1.6869999999999998,-0.25667498041239445,1.116640003387244,0.06819808403516373,1.9030737226862635,2.9175566893345337,-0.2618690382824029,-0.16555179567771078,-0.7712331951682784,-1.0621224321288667,1,right
1.6909999999999998,-0.26145982181090854,1.1123388508019516,0.0691169295546409,1.9266114902131863,2.9127824811138296,-0.26914433572645674,-0.16311338849875043,-0.7779441877982415,-1.0817018997395214,1,right
1.692,-0.2662789756478473,1.1080015598618203,0.07003026443997788,1.9494298320165582,2.907461190088311,-0.2764199899800766,-0.16058912849351042,-0.7845053717619792,-1.1011477856084297,1,right
1.696,-0.27112985386204685,1.1036285980391116,0.07093700067873202,1.9715161330535205,2.901602378526558,-0.2836893888418602,-0.15797632106713266,-0.7909091370682352,-1.1204419160388701,1,right
1.6969999999999998,-0.27600989646614854,1.0992204200492108,0.07183603890521423,1.992858753992251,2.8952155572980236,-0.29094594429002296,-0.15527230311608922,-0.7971477273807532,-1.1395661427152064,1,right
1.702,-0.28091657300040074,1.094777467984328,0.07272626853945569,2.0134470509853606,2.888310157869289,-0.2981831081492735,-0.152474448796464,-0.8032132426488799,-1.1585023622559967,1,right
1.703,-0.28584738398831094,1.090300171330931,0.07360656810502904,2.033271391760328,2.880895506064775,-0.30539438659589674,-0.14958017531552661,-0.809097642458892,-1.177232534891245,1,right
1.706,-0.29079986241984035,1.08578894686078,0.0744758057655871,2.052323168088257,2.872980797573576,-0.3125733535218782,-0.14658694873882439,-0.8147927501239556,-1.1957387023186983,1,right
1.7069999999999999,-0.29577157528148357,1.0812441984003163,0.0753328401096194,2.0705948046900895,2.864575075182598,-0.319713662778845,-0.14349228980474954,-0.8202902575301246,-1.2140030047935495,1,right
1.71,-0.3007601251415481,1.0766663164947583,0.07617652119904639,2.08807976463719,2.8556872077147264,-0.3268090593225258,-0.14029377973826176,-0.8255817307552642,-1.2320076975053118,1,right
1.7109999999999999,-0.30576315178635843,1.0720556779903798,0.07700569188247176,2.1047725513010325,2.8463258706493058,-0.33385338927833985,-0.13698906605516228,-0.8306586164772405,-1.2497351662949916,1,right
1.716,-0.3107783338928581,1.0674126455624169,0.07781918935879156,2.1206687069044543,2.8364995284007897,-0.3408406089486132,-0.13357586834802343,-0.8355122491871546,-1.2671679427649898,1,right
1.7169999999999999,-0.31580339071717967,1.0627375672179793,0.07861584696104341,2.1357648077246982,2.8262164182300666,-0.34776479278179245,-0.1300519840445809,-0.8401338592228009,-1.2842887188334153,1,right
1.7209999999999999,-0.32083608377746176,1.0580307758034526,0.07939449611619315,2.150058455996189,2.8154845357615734,-0.35462014032387973,-0.1264152941290898,-0.844514581636917,-1.3010803607836998,1,right
1.7209999999999999,-0.32587421851309517,1.0532925885455287,0.08015396842800558,2.163548268558699,2.8043116220779916,-0.3614009821721475,-0.12266376881683466,-0.8486454659141484,-1.3175259228595575,1,right
1.726,-0.33091564591054157,1.0485233066561992,0.08089309782895734,2.176233862294268,2.7927051523630007,-0.36810178495101314,-0.11879547317166568,-0.8525174865499854,-1.3336086604544342,1,right
1.726,-0.3359582640932192,1.0437232150347338,0.08161072275235877,2.188115836393932,2.7806723260612767,-0.37471715532975425,-0.11480857265610951,-0.8561215545042395,-1.3493120429436487,1,right
1.73,-0.34100001987521095,1.0388925821007042,0.08230568828591878,2.199195751493018,2.7682200585236556,-0.38124184310153253,-0.11070133860327343,-0.8594485295409049,-1.3646197662064328,1,right
1.7309999999999999,-0.3460389102755189,1.034031659788561,0.08297684828115615,2.2094761057114436,2.7553549741041365,-0.3876707433429637,-0.10647215359942626,-0.8624892334655091,-1.3795157648840373,1,right
1.7380000000000002,-0.3510729839843268,1.029140683726933,0.08362306740671158,2.2189603076331608,2.7420834006741646,-0.39399889767322716,-0.102119516765799,-0.8652344642702875,-1.3939842244189795,1,right
1.739,-0.35610034276768954,1.0242198736176154,0.08424322314460554,2.22765264625658,2.728411365518446,-0.4002214946314467,-0.09764204892780284,-0.8676750111967183,-1.4080095929193746,1,right
1.7409999999999999,-0.36111914279254287,1.0192694338208237,0.08483620773436595,2.2355582579455118,2.714344592575345,-0.4063338691908021,-0.09303849765951178,-0.8698016707241341,-1.4215765928911046,1,right
1.742,-0.3661275958490153,1.014289554143586,0.08540093007075338,2.242683090407882,2.6998885009837483,-0.4123315014275389,-0.08830774219090297,-0.8716052634922765,-1.43467023287936,1,right
1.745,-0.3711239704413353,1.0092804108172544,0.08593631755967726,2.249033863727204,2.6850482048971416,-0.4182100143627416,-0.08344879816498971,-0.8730766521647844,-1.4472758190598094,1,right
1.745,-0.3761065927142627,1.0042421676399753,0.08644131793720476,2.2546180284695283,2.6698285145244887,-0.42396517099442227,-0.07846082223390456,-0.8742067602185905,-1.4593789668048658,1,right
1.746,-0.3810738471830329,0.9991749772534713,0.08691490105847106,2.259443720886357,2.6542339383564046,-0.42959287053714207,-0.07334311649404843,-0.8749865915377024,-1.4709656121817838,1,right
1.751,-0.3860241772417813,0.9940789825223788,0.08735606066507857,2.2635197153024476,2.638268686524926,-0.4350891439022403,-0.06809513278061609,-0.8754072504988539,-1.4820220232166421,1,right
1.7519999999999998,-0.39095608543282045,0.9889543179865046,0.08776381614107866,2.2668553741286193,2.6219366751987354,-0.44045014853236536,-0.06271647685286239,-0.8754599621299638,-1.4925348106894558,1,right
1.7530000000000001,-0.3958681334622198,0.9838011113586325,0.08813721427023247,2.2694605965735413,2.605241531832979,-0.4456721628493914,-0.057206912489676506,-0.8751360920269032,-1.5024909382915483,1,right
1.755,-0.4007589419458363,0.9786194850424489,0.08847533101198429,2.27134576747971,2.588186601046389,-0.4507515806554015,-0.05156636549409595,-0.8744271659030741,-1.511877732096066,1,right
1.756,-0.40562718986709917,0.9734095576482855,0.08877727331910469,2.2725217073533264,2.570774950942732,-0.45568490574505743,-0.04579492759359286,-0.8733248887508167,-1.5206828893583344,1,right
1.761,-0.4104716137280518,0.9681714454910748,0.08904218102125319,2.2729996240196164,2.553009379774193,-0.4604687468415184,-0.03989286022030518,-0.8718211636136978,-1.528894486674631,1,right
1.761,-0.4152910063805492,0.9629052640663464,0.0892692287903595,2.2727910659797175,2.5348924228886407,-0.46509981288668845,-0.03386059815500892,-0.8699081099676256,-1.5365009875263094,1,right
1.765,-0.4200842155322718,0.9576111295138816,0.08945762818564981,2.271907877472523,2.5164263599107644,-0.46957490869995794,-0.02769875301825234,-0.8675780817076059,-1.5434912492345505,1,right
1.765,-0.4248501419291607,0.9522891600902619,0.08960662975543125,2.2703621552428896,2.4976132221060454,-0.4738909310191738,-0.021408116591697925,-0.8648236847358044,-1.549854529349301,1,right
1.771,-0.4295877372207642,0.946939477677663,0.08971552515800583,2.2681662070156285,2.4784547998755238,-0.4780448649371361,-0.01498966395234445,-0.8616377941454019,-1.5555804914942257,1,right
1.7719999999999998,-0.43429600151711084,0.941562209355946,0.08978364925790128,2.2653325116727743,2.4589526503283214,-0.4820337807464701,-0.008444556401929365,-0.8580135709935331,-1.5606592106877388,1,right
1.774,-0.43897398064548676,0.9361574890599927,0.08981038215379353,2.2618736811297153,2.4391081048778775,-0.48585483120526524,-0.0017741441734423925,-0.8539444786553815,-1.5650811781583613,1,right
1.775,-0.44362076311423976,0.9307254593375045,0.0897951511004047,2.257802423903903,2.4189222768068612,-0.4895052492354093,0.0050200311036856975,-0.8494242987502624,-1.5688373056708413,1,right
1.78,-0.44823547678930914,0.9252662732156721,0.089737432299174,2.253131510368028,2.3983960687447405,-0.4929823460650689,0.011936234198518586,-0.844447146629271,-1.5719189293776021,1,right
1.78,-0.45281728528866877,0.9197800961774796,0.08963675255022725,2.247873739677752,2.377530180001003,-0.49628350982628894,0.01897253435283316,-0.839007486412789,-1.574317813208202,1,right
1.784,-0.45736538410211397,0.914267108240763,0.0894926907761619,2.242041908362334,2.3563251136960432,-0.4994062046181905,0.02612680365413564,-0.833100145564855,-1.5760261518075798,1,right
1.784,-0.46187899644921604,0.90872750612788,0.08930487943932243,2.235648780564751,2.3347811836307453,-0.5023479700457517,0.03339671572733931,-0.8267203289900874,-1.5770365730319182,1,right
1.7890000000000001,-0.46635736889521245,0.9031615055107172,0.08907300587426169,2.2287070599162426,2.3128985208348283,-0.5051064212436481,0.04077974476531275,-0.8198636326375222,-1.5773421400090017,1,right
1.7890000000000001,-0.4707997667521168,0.8975693433124761,0.08879681354917067,2.221229363028551,2.2906770797330345,-0.507679249394119,0.048273164918845764,-0.8125260565943838,-1.5769363527679598,1,right
1.7930000000000001,-0.47520546930035784,0.8919512800438774,0.08847610326166179,2.213228194585521,2.2681166438672684,-0.5100642227473046,0.05587405006691218,-0.8047040176514552,-1.5758131494412804,1,right
1.794,-0.4795737648737451,0.8863076021487367,0.08811073427012871,2.2047159240141423,2.2452168311118275,-0.5122591881519738,0.06357927398843302,-0.796394361320337,-1.5739669070399622,1,right
1.798,-0.4839039458557675,0.8806386243328701,0.0877006253620612,2.195704763713579,2.221977098317886,-0.5142620731040295,0.07138551095706047,-0.7875943732815133,-1.5713924418006266,1,right
1.7990000000000002,-0.48819530363735464,0.874944691850372,0.08724575586234382,2.186206748819233,2.1983967453224196,-0.5160708883196362,0.07928923678081112,-0.7783017902407433,-1.5680850091013467,1,right
1.8030000000000002,-0.4924471235862857,0.8692261827225807,0.08674616658479718,2.176233718477408,2.1744749182557896,-0.5176837308392737,0.08728673030867638,-0.7685148101699034,-1.5640403029408811,1,right
1.8030000000000002,-0.4966586800783799,0.863483509867826,0.08620196072858963,2.1657972986047183,2.150210612081217,-0.5190987876684636,0.09537407542662778,-0.7582321019069934,-1.5592544549739065,1,right
1.8090000000000002,-0.5008292316412438,0.8577171231236608,0.08561330471852178,2.154908886104976,2.1256026722984105,-0.5203143399603636,0.10354716356571432,-0.7474528140886101,-1.553724033092735,1,right
1.8090000000000002,-0.5049580162628415,0.8519275111469915,0.08498042898455357,2.14357963451494,2.100649795742619,-0.5213287677448557,0.11180169674521838,-0.7361765833867678,-1.547446039543898,1,right
1.8130000000000002,-0.5090442469203259,0.8461152031815348,0.08430362867209795,2.1318204410489665,2.0753505304094095,-0.5221405552081931,0.12013319117409374,-0.7244035420205253,-1.5404179085658267,1,right
1.814,-0.5130871073883412,0.8402807706865374,0.0835832642729613,2.1196419350113014,2.0497032742344645,-0.5227482965266913,0.12853698143415576,-0.7121343245114521,-1.532637503531749,1,right
1.814,-0.5170857483863287,0.8344248288247622,0.08281976216725777,2.1070544675435006,2.023706272756724,-0.5231507022573766,0.1370082252546014,-0.6993700736553762,-1.5241031135976215,1,right
1.818,-0.5210392841179049,0.8285480378088815,0.08201361506653035,2.094068102670219,1.9973576156421171,-0.5233466062706065,0.1455419088170286,-0.6861124457055983,-1.5148134499421217,1,right
1.819,-0.5249467892428031,0.8226511041022454,0.0811653823483122,2.080692609590445,1.9706552322937894,-0.5233349731225302,0.1541328524031996,-0.6723636148048422,-1.5047676418443885,1,right
1.819,-0.5288072963094603,0.8167347814658561,0.08027569027510169,2.066937456133131,1.9435968872231197,-0.5231149056088515,0.16277571612735808,-0.6581262767259647,-1.4939652329323698,1,right
1.8230000000000002,-0.5326197936719003,0.8107998718438012,0.07934523209441312,2.0528118032800564,1.9161801761044621,-0.5226856521542007,0.17146500556571714,-0.6434036519558555,-1.482406177843136,1,right
1.8230000000000002,-0.5363832239179751,0.8048472260853989,0.07837476801622438,2.038324500672614,1.8884025231858712,-0.5220466137773886,0.18019507722303146,-0.6281994881120427,-1.4700908393735113,1,right
1.828,-0.5400964828387477,0.7988777445100562,0.07736512505734915,2.0234840830450542,1.8602611802776696,-0.5211973505280343,0.1889601438469449,-0.612518061655946,-1.4570199861078557,1,right
1.829,-0.5437584189653595,0.7928923773269864,0.07631719673067129,2.0082987675406394,1.8317532272900205,-0.5201375873760179,0.197754279615063,-0.5963641788604889,-1.4431947904898008,1,right
1.8330000000000002,-0.547367833692584,0.7868921249258976,0.07523194254468951,1.9927764518691027,1.8028755742397011,-0.5188672195519227,0.20657142521981772,-0.5797431759884049,-1.4286168273025568,1,right
1.834,-0.5509234820003672,0.7808780380573195,0.07411038727015631,1.9769247132628032,1.7736249646452278,-0.5173863173360258,0.21540539287629068,-0.562660918636198,-1.413288072520244,1,right
1.837,-0.5544240737744863,0.7748512179229373,0.07295361993042344,1.9607508081879643,1.7439979802284313,-0.5156951302927921,0.2242498712782455,-0.5451238001973625,-1.3972109024905406,1,right
1.838,-0.5578682757134047,0.7688128161964466,0.07176279248168027,1.9442616727664264,1.7139910468395183,-0.5137940909472246,0.23309843052768503,-0.5271387393971267,-1.3803880934067654,1,right
1.8430000000000002,-0.5612547137928499,0.7627640349935743,0.0705391181633384,1.9274639238623865,1.6836004415215804,-0.5116838178988141,0.2419445270632976,-0.5087131768496643,-1.3628228210253717,1,right
1.844,-0.5645819762463627,0.7567061268072102,0.0692838695102954,1.9103638607876798,1.6528223006294358,-0.5093651183682334,0.25078150861318627,-0.48985507058740624,-1.3445186605826702,1,right
1.847,-0.5678486170103897,0.7506403944209757,0.06799837602693619,1.8929674675782444,1.621652628916589,-0.5068389901713151,0.25960261919728633,-0.4705728905108035,-1.325479586862459,1,right
1.848,-0.5710531595761557,0.7445681908110902,0.06668402153197685,1.8752804157935345,1.590087309503,-0.5041066231142527,0.2684010042048696,-0.45087561170562646,-1.3057099743641098,1,right
1.8530000000000002,-0.5741941011889442,0.7384909190406994,0.06534224119499316,1.8573080677897635,1.5581221146352358,-0.501169399803366,0.27716971557250686,-0.4307727065736442,-1.285214597518538,1,right
1.8530000000000002,-0.5772699173398521,0.7324100321431226,0.06397451829555571,1.8390554804170194,1.525752717149452,-0.4980288958621763,0.2859017170878144,-0.4102741357213116,-1.2639986308973654,1,right
1.857,-0.5802790665029918,0.7263270329831412,0.06258238074047923,1.8205274090894508,1.4929747025465205,-0.4946868795479464,0.2945898898442458,-0.38939033754989866,-1.2420676493585,1,right
1.858,-0.5832199950778645,0.7202434740809032,0.06116739737472237,1.8017283121769048,1.4597835815874596,-0.4911453107592486,0.3032270378721026,-0.36813221648933314,-1.2194276280692613,1,right
1.8619999999999999,-0.5860911425004963,0.7141609573811812,0.05973117412050256,1.7826623556655943,1.4261748033161743,-0.4874063394255449,0.3118058939708348,-0.3465111298168933,-1.1960849423461206,1,right
1.8630000000000002,-0.5888909464895425,0.7080811339508517,0.05827534997911986,1.763333418034577,1.392143768415333,-0.4834723032691812,0.3203191257675735,-0.32453887300077866,-1.1720463672480599,1,right
1.867,-0.5916178483973068,0.7020057035897533,0.05680159292955534,1.7437450952940479,1.3576858428000225,-0.4793457249296273,0.3287593420266921,-0.302227663507516,-1.1473190768585317,1,right
1.868,-0.5942702986407215,0.6959364143442173,0.055311595753588225,1.7239007061306861,1.3227963713526192,-0.47502930843922586,0.3371190992350264,-0.27959012301111397,-1.1219106431889718,1,right
1.8719999999999999,-0.5968467621911748,0.6898750619181462,0.053807071806697415,1.703803297104534,1.2874706917011065,-0.4705259350391551,0.34539090848719184,-0.25663925794087145,-1.0958290346348274,1,right
1.8719999999999999,-0.5993457241021133,0.683823488983417,0.05228975074137547,1.6834556478411473,1.2517041479418411,-0.46583865832375565,0.35356724269523,-0.23338843830377382,-1.0690826139130791,1,right
1.8769999999999998,-0.6017656950496318,0.6777835843973871,0.050761374183098354,1.66286027616201,1.2154921042065272,-0.46097069870082924,0.3616405441465831,-0.20985137471647242,-1.0416801354082856,1,right
1.8769999999999998,-0.6041052168558,0.6717572823375068,0.049223691363152,1.6420194430954902,1.1788299579719088,-0.4559254371549765,0.36960323243414295,-0.18604209358094512,-1.0136307418522412,1,right
1.882,-0.6063628679601313,0.6657465613614739,0.047678454723275296,1.6209351577098856,1.141713153009425,-0.4507064083005176,0.37744771278184636,-0.16197491033707392,-0.9849439602604293,1,right
1.883,-0.6085372688041962,0.6597534433979303,0.046127415516944714,1.5996091817094005,1.1041371918707852,-0.4453172927100179,0.3851663847762767,-0.13766440078445907,-0.9556296970784789,1,right
1.883,-0.6106270870991295,0.653779992668154,0.044572319433656714,1.5780430337331885,1.0660976478041373,-0.43976190850393276,0.39275165145083274,-0.11312537076453628,-0.9256982326494967,1,right
1.886,-0.6126310429538749,0.6478283145337863,0.04301490226463324,1.5562379933288795,1.0275901760339672,-0.4340442022037389,0.4001959285542373,-0.08837282503247146,-0.8951602153984655,1,right
1.8869999999999998,-0.6145479138490492,0.6419005542609546,0.04145688561809359,1.5341951047312494,0.9886105245354161,-0.42816823893719896,0.40749165377121704,-0.06342193644713699,-0.8640266562876271,1,right
1.8880000000000001,-0.6163765394435401,0.6359988956885304,0.03989997268756035,1.511915180863871,0.9491545447903376,-0.42213819224010374,0.4146312957263825,-0.03828801630728966,-0.8323089239354645,1,right
1.891,-0.6181158261965694,0.6301255597868938,0.03834584408004943,1.4893988081408294,0.9092182032099403,-0.41595833378513875,0.42160736271637944,-0.012986486122308327,-0.8000187405030129,1,right
1.892,-0.6197647517777741,0.6242828030921417,0.03679615372003277,1.4666463524849744,0.8687975937086401,-0.4096330232813002,0.42841241117853723,0.012467149194247445,-0.7671681782899907,1,right
1.8969999999999998,-0.6213223692277134,0.6184729159991369,0.03525252485481878,1.443657966690624,0.8278889515544076,-0.40316669863066495,0.4350390539165094,0.03805732678042764,-0.7337696569496581,1,right
1.8969999999999998,-0.62278781082793,0.612698220896409,0.03371654619290665,1.4204335990980146,0.7864886684206513,-0.39656386634212476,0.44147996810292933,0.06376845000368213,-0.6998359412296692,1,right
1.902,-0.6241602916439584,0.6069610701277566,0.03218976820829683,1.3969730035141497,0.7445933085235114,-0.3898290921839232,0.44772790307861543,0.08958491143373902,-0.6653801391445738,1,right
1.902,-0.6254391127120932,0.6012638437693596,0.030673699643263802,1.3732757503139938,0.7021996257270327,-0.38296699205642837,0.45377568796734585,0.11549111468405127,-0.6304157004840502,1,right
1.906,-0.6266236638481614,0.5956089472168822,0.029169804240525562,1.3493412386553039,0.659304581497284,-0.3759822230661839,0.45961623912469063,0.1414714951956391,-0.594956415559415,1,right
1.9069999999999998,-0.6277134260635409,0.5899988085837573,0.027679497731062177,1.3251687097396956,0.6159053635850564,-0.36887947478190003,0.4652425674388341,0.1675105400374584,-0.5590164140894582,1,right
1.912,-0.6287079735805887,0.5844358759176641,0.026204145096082855,1.3007572610518692,0.5719994053153515,-0.3616634606526826,0.47064778550074643,0.19359280679768354,-0.5226101641251862,1,right
1.912,-0.6296069754468685,0.5789226142458183,0.024745058114211464,1.2761058615082355,0.5275844053604276,-0.3543389095684444,0.4758251146604674,0.2197029416405052,-0.4857524709116426,1,right
1.916,-0.6304101967549733,0.5734615024627732,0.02330349319977894,1.2512133674454993,0.48265834787172196,-0.34691055754210437,0.48076789198565034,0.24582569660321404,-0.4484584755835879,1,right
1.9169999999999998,-0.6311174994813268,0.5680550300792521,0.021880649534428316,1.2260785393790714,0.43721952284451604,-0.33938313949285603,0.48546957713787914,0.2719459462084637,-0.41074365359048753,1,right
1.921,-0.6317288429627117,0.5627056938567007,0.020477667492179517,1.2007000594604862,0.391266546587746,-0.331761381109473,0.48992375918161807,0.2980487034666883,-0.3726238127449557,1,right
1.921,-0.6322442840342721,0.5574159943578514,0.01909562735785962,1.1750765495623172,0.34479838216989434,-0.32404999077232216,0.49412416333997866,0.3241191353436858,-0.33411509078755564,1,right
1.925,-0.6326639768572702,0.5521884324471934,0.017735548337677275,1.1492065899183779,0.2978143597104258,-0.31625365151247126,0.4980646577107968,0.35014257776837066,-0.29523395235964334,1,right
1.9269999999999998,-0.6329881724672196,0.5470255057761588,0.016398387856328717,1.1230887382463026,0.25031419638475544,-0.3083770129860047,0.5017392599558023,0.3761045502556507,-0.25599718527478266,1,right
1.93,-0.6332172180723223,0.5419297052862692,0.015085041128861642,1.096721549278894,0.2022980160092559,-0.30042468344140577,0.5051421439749341,0.40199077021929003,-0.21642189597814152,1,right
1.931,-0.6333515561294881,0.5369035117600433,0.013796340990127843,1.0701035946299142,0.15376636807133118,-0.29240122165761767,0.5082676465771088,0.4277871670494845,-0.17652550408221024,1,right
1.9369999999999998,-0.63339172322135,0.5319493924448169,0.012533057961422192,1.0432334829192913,0.10472024606810168,-0.2843111288301664,0.5111102741579853,0.45347989602970207,-0.13632573586616226,1,right
1.9380000000000002,-0.6333383487522588,0.5270697977700403,0.01129590053441808,1.0161098800819865,0.05516110501576408,-0.2761588403825104,0.5136647093944895,0.47905535216712064,-0.0958406166252053,1,right
1.94,-0.6331921534748943,0.5222671581747848,0.010085515657163093,0.9887315297840591,0.005090877990209733,-0.26794871767957634,0.5159258179650661,0.5045001840107406,-0.055088461755349476,1,right
1.9409999999999998,-0.6329539478531195,0.5175438810581952,0.008902489412007821,0.9610972738687309,-0.04548800844199167,-0.259685039620252,0.5178886553038117,0.529801307530951,-0.014087866458148126,1,right
1.946,-0.6326246302610494,0.5129023478615251,0.007747347875604122,0.9332060727545308,-0.0965726200446093,-0.2513719940854239,0.5195484733958164,0.5549459201339916,0.027142306050852372,1,right
1.9469999999999998,-0.6322051850126235,0.5083449112881668,0.006620558145620009,0.9050570257068641,-0.14815950212860243,-0.24301366921798503,0.5209007276201996,0.5799215148843792,0.06858293794698359,1,right
1.95,-0.6316966802104594,0.5038738926686431,0.005522529511724016,0.8766493909036219,-0.20024466831009907,-0.23461404451108217,0.5219410836464666,0.6047158950079543,0.11021467193239012,1,right
1.9509999999999998,-0.6311002653980439,0.49949157947880596,0.004453614744553183,0.847982605214702,-0.2528235909562468,-0.2261769816807295,0.5226654243829685,0.629317188711473,0.1520179281617724,1,right
1.9509999999999998,-0.6304171689973314,0.4952002230182529,0.003414111478726955,0.8190563036145757,-0.3058911934671232,-0.2177062152987868,0.5230698569454634,0.6537138641727746,0.19397292271899147,1,right
1.955,-0.6296486955155469,0.4910020362518297,0.002404263673574764,0.789870338146291,-0.3594418445433219,-0.20920534316218037,0.5231507195590803,0.6778947442285034,0.23605968686921178,1,right
1.9569999999999999,-0.6287962225077669,0.48689919181342955,0.0014242631433452667,0.7604247963561422,-0.41346935452782624,-0.20067781640327262,0.5229045882761775,0.7018490201043965,0.2782580860134572,1,right
1.9580000000000002,-0.6278611972840603,0.48289382017012605,0.0004742511538935972,0.730720019125384,-0.4679669736000642,-0.1921269294918694,0.5223282834215663,0.7255662637139735,0.32054783757118327,1,right
1.96,-0.6268451333536397,0.4789880079437418,-0.00044567991364709183,0.7007566178388497,-0.5229273910396159,-0.1835558105414886,0.5214188757294532,0.7490364383773781,0.3629085275537756,1,right
1.9609999999999999,-0.6257496066048239,0.475183796384596,-0.0013354848275825956,0.6705354908374845,-0.5783427344662925,-0.1749674124781153,0.5201736921654059,0.7722499079928856,0.4053196258904961,1,right
1.965,-0.6245762512278066,0.47148317998957107,-0.002195163689668973,0.6400578390931614,-0.6342045682767734,-0.16636450548392354,0.5185903214316832,0.7951974447291825,0.4477605006283203,1,right
1.966,-0.6233267553969315,0.4678881052545779,-0.003024760026917104,0.6093251810291839,-0.690503891061132,-0.15774967086616282,0.5166666191533099,0.8178702353058259,0.4902104311273134,1,right
1.969,-0.622002856739965,0.46440046954978825,-0.003824358780675722,0.5783393664012421,-0.7472311320959981,-0.1491252963556793,0.5144007127413138,0.8402598859285465,0.5326486203733353,1,right
1.97,-0.6206063376322319,0.4610221201049492,-0.004594084186058927,0.5471025891512701,-0.8043761470748182,-0.14049357281036326,0.5117910059285715,0.8623584259452984,0.5750542065299519,1,right
1.975,-0.6191390203622117,0.45775485309230396,-0.005334097540182989,0.515617399145923,-0.8619282132369207,-0.1318564922987795,0.5088361829727343,0.8841583102881708,0.6174062738514551,1,right
1.975,-0.617602762221797,0.45460041279643876,-0.0060445948647415565,0.48388671271066364,-0.9198760240583327,-0.1232158475392105,0.5055352125197186,0.9056524207654649,0.6596838630788602,1,right
1.982,-0.6159994505782348,0.45156049086381395,-0.006725804475584906,0.45191382186973006,-0.9782076836684827,-0.1145732326693194,0.5018873511202645,0.9268340662674015,0.7018659814406554,1,right
1.983,-0.6143309979851806,0.4486367256288186,-0.007377984476129808,0.41970240220154087,-1.0369107011580974,-0.10593004532162517,0.49789214639106905,0.9476969819480693,0.7439316123799249,1,right
1.984,-0.6125993373878917,0.4458307015161649,-0.008001420191350889,0.3872565192183926,-1.0959719849447382,-0.09728748997997075,0.4935494398110107,0.9682353274453479,0.7858597251292524,1,right
1.985,-0.6108064174738584,0.44314394852069117,-0.008596421557036264,0.35458063317860644,-1.15537783736352,-0.08864658259215923,0.48885936914198536,0.98844368419964,0.8276292842545371,1,right
1.99,-0.6089541982157495,0.44057794176543796,-0.009163320478224653,0.3216796022385986,-1.2151139496516195,-0.0800081564139315,0.4838223704628757,1.0083170519313336,0.869219259288521,1,right
1.9909999999999999,-0.6070446466473179,0.43813410113678897,-0.009702468172822176,0.288558683851676,-1.2751653974962178,-0.07137286905945923,0.4784391798041782,1.0278508443359837,0.9106086345744304,1,right
1.994,-0.6050797329035665,0.4358137909916328,-0.010214232520871332,0.25522353431969824,-1.3355166373164957,-0.06274121073353246,0.47271083436981703,1.0470408840552583,0.9517764194396795,1,right
1.995,-0.6030614265447489,0.4336183199277098,-0.01069899544450083,0.2216802064031012,-1.396151503451261,-0.05411351362062698,0.4666386733316752,1.0658833969807253,0.992701658819065,1,right
1.999,-0.6009916931721725,0.43154894060621557,-0.011157150345026793,0.18793514489414703,-1.4570532064246853,-0.0454899624060459,0.4602243381813809,1.0843750059465909,1.0333634444463122,1,right
2.0,-0.5988724913340782,0.42960684961537093,-0.0115890996209266,0.15399518005765078,-1.5182043324634857,-0.03687060590433949,0.45346977262289667,1.1025127238665064,1.0737409267321871,1,right
2.004,-0.5967057697127317,0.42779318736448096,-0.011995252285378014,0.11986751884283624,-1.5795868444397059,-0.028255369770218856,0.44637722198846974,1.1202939463685682,1.1138133274466993,1,right
2.004,-0.5944934645794061,0.4261090379996431,-0.01237602169721742,0.08555973376939494,-1.6411820844140115,-0.019644070267190096,0.43894923215952286,1.1377164439816225,1.153559953322159,1,right
2.009,-0.5922374975019158,0.4245554293339013,-0.012731823415316262,0.05107974939026375,-1.7029707779551342,-0.011036429069147959,0.4311886479730847,1.1547783539249783,1.1929602106930393,1,right
2.01,-0.5899397732898557,0.4231333327854016,-0.013063073182260918,0.01643582623309756,-1.764933040411757,-0.0024320890701791664,0.4230986110933918,1.171478171552599,1.2319936212877147,1,right
2.013,-0.5876021781656581,0.4218436633176465,-0.013370185038156939,-0.01836345787810314,-1.8270483853137482,0.006169368822163106,0.4146825573273281,1.187814741501826,1.2706398392862164,1,right
2.0140000000000002,-0.5852265781536232,0.4206872793777584,-0.01365356956164865,-0.053309229220243545,-1.889295735080204,0.014768407934841831,0.4059442133614161,1.203787248595639,1.3088786697571415,1,right
2.0180000000000002,-0.5828148176825704,0.4196649828320901,-0.013913632235030848,-0.08839234238676925,-1.951653434212253,0.023365517143294653,0.39688759291187536,1.21939520854003,1.346690088528354,1,right
2.019,-0.5803687183999984,0.41877751890218495,-0.014150771932383212,-0.12360340742163421,-2.0140992651490213,0.03196119127607905,0.3875169923520775,1.2346384584250465,1.3840542632577248,1,right
2.02,-0.5778900781960897,0.41802557610655094,-0.01436537953205408,-0.1589328199719721,-2.076610466965533,0.040555910634907905,0.37783698601354926,1.2495171469794346,1.4209515749518986,1,right
2.024,-0.575380670433707,0.41740978621517005,-0.0145578366573836,-0.19437079456023548,-2.1391637570916315,0.049150119654773755,0.367852421429509,1.2640317244958,1.4573626388925716,1,right
2.025,-0.5728422433755415,0.41693072422478455,-0.014728514551380084,-0.229907401076934,-2.201735356231265,0.05774420472885586,0.35756841471527284,1.2781829323741274,1.4932683242157587,1,right
2.025,-0.5702765197940208,0.4165889083632683,-0.014877773089952863,-0.26553260447816296,-2.264301016562188,0.06633847125729327,0.3469903461462302,1.291971792288027,1.5286497719052718,1,right
2.029,-0.5676851967471566,0.41638480013040857,-0.015005959934636812,-0.3012363070860295,-2.326836052798896,0.07493312015086577,0.33612385591946825,1.3053995950090085,1.563488411247517,1,right
2.029,-0.5650699455048948,0.4163188043807501,-0.015113409822768036,-0.3370083918348502,-2.389315374806393,0.08352822433015189,0.32497484006951194,1.318467888929437,1.5977659748507134,1,right
2.033,-0.5624324116126074,0.41639126945239324,-0.015200443992084029,-0.3728387642198551,-2.451713519955017,0.09212370593269355,0.3135494465078044,1.3311784683237866,1.63146451233014,1,right
2.035,-0.5597742150785378,0.4166024873440162,-0.015267369735597166,-0.40871739129175133,-2.514004683903824,0.10071931476873787,0.3018540711547239,1.3435333613867677,1.6645664027594471,1,right
2.0380000000000003,-0.5570969506708323,0.4169526939404939,-0.015314480079658112,-0.44463433709621425,-2.576162749395125,0.10931460825659937,0.2898953541321225,1.3555348180858768,1.6970543659864707,1,right
2.039,-0.5544021883084558,0.4174420692849018,-0.015342053575001268,-0.48057979454393435,-2.638161313139899,0.11790893289672653,0.27768017598357797,1.3671852978648824,1.7289114729103134,1,right
2.043,-0.5516914735282574,0.418070737891988,-0.01535035419031813,-0.5165441138142692,-2.6999737109729716,0.1265014073091646,0.26521565388877544,1.378487457233749,1.760121154814752,1,right
2.043,-0.5489663280070047,0.4188387690962726,-0.015339631301312594,-0.5525178273956597,-2.7615730414564656,0.13509090685910535,0.2525091378376794,1.389444137279479,1.7906672118512585,1,right
2.048,-0.5462282501129369,0.41974617742747317,-0.015310119773100641,-0.5884916718660501,-2.822932188109576,0.1436760498952112,0.23956820672942114,1.400058351131346,1.8205338207631234,1,right
2.049,-0.5434787154575007,0.4207929230078398,-0.015262040137702415,-0.624456606516609,-2.884023840442175,0.15225518562539464,0.22640066436010908,1.4103332714129975,1.8497055419402963,1,right
2.0540000000000003,-0.5407191774154386,0.4219789119698812,-0.015195598869917996,-0.6604038289220727,-2.9448205139691526,0.16082638365472585,0.21301453526307687,1.4202722177129037,1.8781673258926672,1,right
2.0540000000000003,-0.537951067580242,0.4233039968957767,-0.015110988763841138,-0.6963247875610362,-3.005294569381702,0.16938742521012756,0.19941806036440968,1.4298786441036575,1.9059045192275461,1,right
2.059,-0.5351757961211403,0.42476797727895965,-0.015008389409334664,-0.7322111915894887,-3.065418231050985,0.17793579607649862,0.18561969241593906,1.4391561267396427,1.9329028702151185,1,right
2.06,-0.5323947520081916,0.42637060000542465,-0.014887967764214862,-0.7680550178708441,-3.1251636050387774,0.18646868126888422,0.17162809116726988,1.448108351561636,1.9591485340236052,1,right
2.063,-0.5296093030767485,0.4281115598505308,-0.01474987881520959,-0.8038485153656385,-3.184502696788759,0.19498296146528074,0.15745211823779776,1.4567391021359442,1.984628077703777,1,right
2.064,-0.5268207959121247,0.42999049998807254,-0.014594266320779497,-0.8395842069839698,-3.2434074286711003,0.20347521122462686,0.1431008316490973,1.4650522476547372,2.009328485000355,1,right
2.0669999999999997,-0.5240305555461912,0.4320070125113291,-0.014421263632103692,-0.8752548890036336,-3.3018496575519305,0.2119416990144865,0.1285834799775057,1.4730517311233005,2.0332371610656605,1,right
2.068,-0.5212398849664287,0.4341606389677262,-0.01423099459239011,-0.910853628156762,-3.359801192558081,0.22037838907287557,0.11390949608619759,1.4807415577590122,2.056341937148689,1,right
2.073,-0.5184500644439242,0.4364508709071967,-0.014023574515450778,-0.9463737564876111,-3.4172338132062676,0.22878094512862046,0.09908849039554343,1.4881257836259323,2.078631075330532,1,right
2.074,-0.5156623506909571,0.4388771504397618,-0.013799111240778537,-0.9818088640839544,-3.4741192880645375,0.23714473600456157,0.08413024365006755,1.4952085045279957,2.1000932733748083,1,right
2.077,-0.5128779758629959,0.4414388707924326,-0.013557706256440928,-1.0171527897843315,-3.530429394112396,0.24546484312782885,0.06904469913987178,1.5019938451829042,2.1207176697594505,1,right
2.077,-0.510098146425492,0.4441353768513832,-0.013299455876699222,-1.0523996099631816,-3.586135936964549,0.2537360699713178,0.05384195433396934,1.5084859486979425,2.140493848953857,1,right
2.082,-0.5073240419124505,0.4469659656736209,-0.013024452459694458,-1.0875436254956403,-3.6412107721216094,0.2619529534503823,0.03853225188257902,1.5146889663680732,2.1594118470030352,1,right
2.083,-0.5045568136094886,0.4499298869522913,-0.012732785650040301,-1.122579347003525,-3.6956258274094744,0.2701097772986338,0.023125969945064714,1.5206070478158142,2.177462157477967,1,right
2.0869999999999997,-0.5017975831964085,0.4530263434201744,-0.012424543629960495,-1.1575014784837445,-3.7493531267673452,0.2782005874465976,0.007633611821360672,1.526244331488241,2.1946357378281185,1,right
2.088,-0.4990474413811022,0.45625449117752087,-0.012099814361555217,-1.192304899420089,-3.802364815542535,0.28621920942681756,-0.00793420502812606,1.5316049355090684,2.2109240160652126,1,right
2.088,-0.4963074465498662,0.45961343993345455,-0.011758686803446347,-1.2269846454790307,-3.85463318744834,0.2941592678288295,-0.023566760295997066,1.5366929488531327,2.226318897517081,1,right
2.092,-0.4935786234558755,0.4631022531521116,-0.011401252086202577,-1.2615358878898486,-3.9061307133392438,0.302014207827232,-0.03925324208937753,1.5415124227932258,2.2408127712835584,1,right
2.093,-0.490861961970938,0.466719948093835,-0.011027604631131303,-1.295953911609048,-3.956830071955688,0.30977731880587706,-0.05498275786178931,1.546067362585,2.2543985161281843,1,right
2.094,-0.4881584159297473,0.47046549574087904,-0.010637843198449468,-1.3302340923847933,-4.006704182706295,0.3174417600499984,-0.07074434493131718,1.5503617193846908,2.2670695057247054,1,right
2.096,-0.48546890209332316,0.47433782059953017,-0.010232071855516169,-1.3643718729172345,-4.055726240142125,0.32500058822296257,-0.08652698060861619,1.5543993824101998,2.2788196132791376,1,right
2.097,-0.4827942992495306,0.4783358003763525,-0.00981040086200707,-1.3983627384551691,-4.103869749035362,0.332446785885266,-0.10231959197992327,1.558184171358636,2.2896432155664033,1,right
2.102,-0.4801354474592429,0.4824582655326694,-0.00937294747442576,-1.4322021922496113,-4.151108558561347,0.3397732900582303,-0.11811106539032817,1.561719829092652,2.299535196417926,1,right
2.102,-0.47749314744981824,0.4867039987248696,-0.008919836676511568,-1.4658857312039097,-4.197416894491533,0.34697302008943176,-0.1338902556726192,1.56501001460719,2.308490949693929,1,right
2.1069999999999998,-0.474868160151185,0.4910717341382494,-0.008451201844059644,-1.4994088219146788,-4.242769389042316,0.3540389045353752,-0.14964599516704766,1.5680582962875131,2.3165063817715197,1,right
2.1069999999999998,-0.47226120636262536,0.4955601567218119,-0.00796718535163181,-1.5327668772168512,-4.287141108433177,0.3609639070314665,-0.16536710257735193,1.570868145468691,2.323577913576966,1,right
2.112,-0.4696729665324481,0.5001679013324841,-0.007467939126136403,-1.5659552333296112,-4.33050757828712,0.36774105116995204,-0.18104239170834632,1.5734429303059954,2.3297024821878822,1,right
2.113,-0.46710408063063635,0.5048935517987676,-0.00695362515142525,-1.5989691276994917,-4.3728448070036245,0.3743634444061079,-0.19666068013031274,1.5757859099649736,2.3348775420283476,1,right
2.116,-0.46455514809611476,0.5097356399148187,-0.006424415929968817,-1.6318036776364646,-4.414129307231539,0.38082430101255715,-0.21221079781533347,1.5779002291392754,2.3391010656772586,1,right
2.117,-0.4620267278438554,0.5146926443761807,-0.005880494909956445,-1.664453859838347,-4.454338115566442,0.3871169641011696,-0.22768159579057257,1.5797889129036404,2.3423715443075106,1,right
2.121,-0.4595193383214934,0.5197629896677912,-0.0053220568859906475,-1.6969144908983582,-4.493448810594039,0.39323492673155414,-0.2430619548533479,1.5814548619087825,2.344687987770867,1,right
2.122,-0.45703345760964526,0.5249450449127688,-0.004749308378727701,-1.7291802088901385,-4.531439529398153,0.39917185212468925,-0.25834079439264185,1.5829008479242503,2.346049924340645,1,right
2.126,-0.4545695235638153,0.530237122686486,-0.004162467995138741,-1.7612454561240132,-4.568288982648755,0.4049215929997545,-0.27350708136147045,1.584129509734699,2.3464574001216176,1,right
2.127,-0.4521279339982646,0.5356374777961882,-0.003561766767787546,-1.7931044631677469,-4.603976468382368,0.41047821005172613,-0.28854983944427,1.585143349394358,2.345910978133774,1,right
2.131,-0.4497090469141249,0.5411443060242345,-0.0029474484686657556,-1.824751234224461,-4.638481884583902,0.4158359895867764,-0.30345815846317004,1.5859447288438644,2.3444117370738606,1,right
2.1319999999999997,-0.4473131807768793,0.5467557428329958,-0.0023197698900514763,-1.8561795339598177,-4.671785740675764,0.42098946033198353,-0.3182212040666976,1.586535866892987,2.341961269755873,1,right
2.135,-0.4449406148525673,0.5524698620295658,-0.0016790010811322603,-1.887382875869981,-4.703869168016707,0.42593340943530134,-0.3328282277441029,1.586918836572167,2.338561681228927,1,right
2.136,-0.4425915896156269,0.5582846743876895,-0.0010254255255662818,-1.9183545122812558,-4.734713929509496,0.43066289767116883,-0.34726857720811083,1.5870955628551768,2.3342155865682104,1,right
2.142,-0.4402663072425632,0.5641981262232904,-0.0003593402437436449,-1.9490874260716717,-4.764302428413029,0.43517327386655263,-0.3615317071884856,1.5870678207546025,2.328926108331974,1,right
2.142,-0.43796493220634836,0.5702080979191219,0.0003189441942655267,-1.9795743242041426,-4.792617716451052,0.4394601885616145,-0.3756071906783471,1.586837233791251,2.322696873674811,1,right
2.147,-0.4356875919888852,0.5763124023931857,0.0010091037536053005,-2.0098076331601518,-4.8196435013060155,0.44351960691858094,-0.38948473067470046,1.5864052728379994,2.3155320111047377,1,right
2.148,-0.43343437793216155,0.5825087835052343,0.00171080111883889,-2.0397794963622413,-4.845364153583059,0.44734782089176195,-0.40315417245412993,1.585773255338002,2.3074361468688926,1,right
2.1519999999999997,-0.43120534624986506,0.5887949143965474,0.0024236859728183624,-2.0694817736728677,-4.869764713325412,0.45094146067102553,-0.4166055164240697,1.5849423448966036,2.2984144009499627,1,right
2.1519999999999997,-0.4290005192184071,0.5951683957596594,0.003147395363035202,-2.098906043056457,-4.892830896158825,0.4542975054103817,-0.429828931589497,1.583913551245715,2.288472382652772,1,right
2.156,-0.42681988656046305,0.6016267540364109,0.003881554149216635,-2.128043604490747,-4.914549099138893,0.4574132932526665,-0.4428147696480941,1.5826877305828018,2.277616185774304,1,right
2.157,-0.42466340702764305,0.6081674395456298,0.004625775527585122,-2.1568854862127225,-4.934906406371318,0.46028653066064246,-0.45555357959529863,1.5812655863058522,2.265852383430388,1,right
2.157,-0.4225310101834501,0.6147878245461338,0.005379661628068896,-2.185422453383653,-4.953890594471372,0.4629153010641515,-0.4680361224842054,1.5796476702007551,2.2531880227583487,1,right
2.16,-0.42042259838384294,0.6214852012446098,0.006142804181077646,-2.2136450192569175,-4.97149013792489,0.4652980728322653,-0.4802533858536,1.577834384156749,2.2396306197948914,1,right
2.16,-0.4183380489504257,0.6282567797600012,0.006914785250252917,-2.2415434588673544,-4.987694214397292,0.4674337065729566,-0.4921965974676951,1.5758259824652434,2.225188154743289,1,right
2.161,-0.41627721652990435,0.6350996860577266,0.007695178027540793,-2.2691078249394723,-5.002492709973221,0.4693214617334738,-0.5038572382462094,1.5736225747211179,2.209869067692645,1,right
2.165,-0.4142399356319933,0.6420109598699452,0.008483547687831761,-2.296327965134046,-5.015876224197567,0.4709610024223494,-0.5152270543936651,1.571224129325249,2.19368225476682,1,right
2.165,-0.4122260233355286,0.6489875526216854,0.009279452300788171,-2.3231935394311773,-5.027836074724719,0.47235240234462555,-0.5262980687621968,1.5686304775824973,2.176637064661553,1,right
2.17,-0.4102352821487557,0.6560263253855702,0.010082443795138328,-2.3496940367674446,-5.0383643014387465,0.4734961487698056,-0.5370625914813509,1.565841318388824,2.158743295525791,1,right
2.17,-0.4082675030046838,0.6631240468891187,0.010892068965873457,-2.375818790620697,-5.0474536700110555,0.4743931455028778,-0.547513229887522,1.562856223500647,2.1400111921407423,1,right
2.175,-0.4063224683666673,0.6702773915980315,0.011707870509378627,-2.401556993555555,-5.055097674917854,0.47504471485668104,-0.557642897784812,1.559674643378983,2.1204514433477124,1,right
2.176,-0.40439995541453877,0.6774829378972519,0.012529388067504829,-2.4268977108057133,-5.061290541947671,0.47545259862890077,-0.5674448240682207,1.5562959136003658,2.100075179673336,1,right
2.1790000000000003,-0.40249973927931365,0.6847371663902553,0.013356159260333662,-2.4518298929680835,-5.066027230225021,0.47561895808627386,-0.5769125607391753,1.5527192618259598,2.0788939710984207,1,right
2.18,-0.4006215962953259,0.6920364583366173,0.014187720688382324,-2.476342387882682,-5.069303433772154,0.47554637295787916,-0.5860399903424818,1.5489438153197317,2.056919824914233,1,right
2.185,-0.39876530724223513,0.6993770942483969,0.015023608886139676,-2.5004239517710385,-5.071115582626679,0.47523783943868914,-0.5948213328528452,1.5449686090059702,2.03416518360772,1,right
2.186,-0.3969306605546544,0.7067552526668396,0.015863361209350998,-2.5240632597047337,-5.071460843528662,0.47469676720386667,-0.6032511520381424,1.5407925940558762,2.0106429227148377,1,right
2.191,-0.3951174554833926,0.7141670091413758,0.016706516639438812,-2.547248915474445,-5.070337120186587,0.4739269754336049,-0.6113243613256556,1.5364146469923787,1.9863663485788943,1,right
2.1919999999999997,-0.3933255051992697,0.7216083354320016,0.01755261649098225,-2.569969460928667,-5.0677430531274,0.47293268784763076,-0.6190362291964819,1.5318335793017517,1.9613491959485647,1,right
2.195,-0.39155463983728594,0.729075098954086,0.018401205012614365,-2.59221338484999,-5.063678019131609,0.47171852674782655,-0.6263823841323246,1.5270481475400326,1.9356056253480283,1,right
2.1959999999999997,-0.3898047094843351,0.7365630624822523,0.019251829877312814,-2.613969131435508,-5.058142130250208,0.4702895060667667,-0.6333588191378472,1.522057063921666,1.9091502201495283,1,right
2.199,-0.38807558711780915,0.7440678841283498,0.020104042563772993,-2.6352251084466185,-5.051136232395992,0.4686510234193236,-0.6399618958607363,1.5168590073772097,1.8819979832765066,1,right
2.199,-0.38636717150616223,0.7515851176084708,0.02095739863503041,-2.655969695092078,-5.042661903497551,0.4668088511538652,-0.646188348330567,1.5114526350663477,1.8541643334633962,1,right
2.204,-0.384679390085105,0.7591102128153294,0.021811457921452157,-2.676191249706786,-5.032721451200076,0.464769126398952,-0.652035286336506,1.505836594331877,1.8256651009961034,1,right
2.205,-0.3830122018234142,0.7666385167141643,0.022665784611693832,-2.695878117287345,-5.0213179100928285,0.46253834010083694,-0.6575001984628112,1.5000095350797245,1.7965165228552102,1,right
2.21,-0.38136560009046105,0.774165274581612,0.023519947249974197,-2.715018636943955,-5.00845503843895,0.46012332504649034,-0.6625809548000127,1.493970122569468,1.7667352371819751,1,right
2.211,-0.37973961553389574,0.7816856316073437,0.02437351863499224,-2.733601149326715,-4.994137314379058,0.45753124286630487,-0.667275809348563,1.4877170505992185,1.7363382769852935,1,right
2.214,-0.3781343189704961,0.7891946348787129,0.025226075616117175,-2.751614004082856,-4.978369931575871,0.45476957001008533,-0.6715834021306533,1.481249055068127,1.7053430630059194,1,right
2.214,-0.3765498242870919,0.7966872357703229,0.026077198784308406,-2.769045567399871,-4.96115879426293,0.4518460826894028,-0.6755027610247861,1.4745649278991584,1.6737673956524304,1,right
2.219,-0.3749862913439202,0.8041582927632439,0.0269264720571643,-2.7858842296879,-4.942510511656286,0.4487688407788811,-0.6790333033365896,1.467663531304169,1.6416294459216538,1,right
2.22,-0.37344392887105804,0.8116025747218066,0.027773482160673796,-2.8021184134530848,-4.922432391683879,0.44554617066849994,-0.6821748371182453,1.4605438123727041,1.6089477452145455,1,right
2.224,-0.3719229973492661,0.8190147646583988,0.02861781801618355,-2.817736581411952,-4.900932433983184,0.4421866470585335,-0.684927562247788,1.4532048179653094,1.5757411739568596,1,right
2.225,-0.37042381186848927,0.8263894640178655,0.02945907004815332,-2.8327272448951657,-4.87801932211355,0.43869907368830185,-0.6872920712702804,1.4456457098836188,1.542028948972231,1,right
2.225,-0.3689467449593248,0.8337211975130067,0.030296829432395218,-2.847078972587268,-4.853702414925593,0.4350924629894964,-0.6892693499610625,1.437865780249278,1.5078306097533092,1,right
2.229,-0.3674922293934064,0.8410044185412555,0.031130687304273954,-2.860780399648513,-4.827991737073963,0.4313760146832011,-0.6908607774969135,1.4298644669519192,1.4731660041342836,1,right
2.23,-0.3660607609471028,0.8482335152102154,0.03196023394423545,-2.8738202372694617,-4.800897968896226,0.42755909348313564,-0.6920681260791649,1.4216413689862009,1.4380552740662593,1,right
2.231,-0.3646529011208128,0.8554028169977774,0.03278505795537306,-2.8861872827185913,-4.772432436309306,0.4236512063260942,-0.6928935598923773,1.4131962615368592,1.4025188419959769,1,right
2.233,-0.36326927980455903,0.8625066020721488,0.03360474544329899,-2.8978704299476683,-4.7426071016114015,0.4196619796940076,-0.6933396333543308,1.404529110741303,1.3665773979878175,1,right
2.233,-0.36191059787821017,0.8695391052980455,0.034418879202673724,-2.908858680811366,-4.711434555832871,0.4156011374479996,-0.6934092886526629,1.3956400880982147,1.3302518875281861,1,right
2.238,-0.36057762973144797,0.8764945269565678,0.03522703790969614,-2.9191411569442556,-4.6789280128428565,0.41147847933575704,-0.6931058525705309,1.386529584497899,1.2935634999102297,1,right
2.239,-0.35927122568664654,0.8833670422071348,0.036028795316732004,-2.928707112329986,-4.645101305174079,0.4073038601895287,-0.6924330326025867,1.377198223849479,1.2565336570956855,1,right
2.2430000000000003,-0.35799231430769596,0.8901508113198994,0.03682371944334344,-2.9375459465941796,-4.609968881476286,0.4030871698031085,-0.6913949123614715,1.367646876279407,1.219184002949553,1,right
2.2430000000000003,-0.35674190457816723,0.8968399907059245,0.03761137175702252,-2.9456472190505787,-4.5735458055049945,0.3988383134759811,-0.6899959462739664,1.3578766708751173,1.1815363927422389,1,right
2.249,-0.3555210879324562,0.9034287447696175,0.038391306338233185,-2.953000663527886,-4.535847756548392,0.3945671932126584,-0.6882409535648746,1.347889007947018,1.1436128828128436,1,right
2.249,-0.354331040123736,0.9099112586037974,0.039163069029252276,-2.9595962040026773,-4.496891031191496,0.39028368956511506,-0.6861351115256636,1.3376855707813835,1.1054357202863436,1,right
2.254,-0.3531730229126565,0.9162817515434447,0.039926196574157025,-2.9654239710616306,-4.456692546312969,0.3859976441061383,-0.6836839480638579,1.3272683368560856,1.0670273327365618,1,right
2.255,-0.35204838556080675,0.9225344915896325,0.040680215765686964,-2.9704743192141776,-4.415269843206343,0.38171884252134325,-0.6808933335281508,1.3166395884904756,1.0284103176860329,1,right
2.258,-0.3509585661133013,0.928663810708911,0.04142464262055582,-2.974737845074506,-4.372641092713759,0.37745699830757073,-0.6777694718032014,1.3058019229001068,0.9896074318331379,1,right
2.258,-0.3499050924573064,0.9346641210056875,0.04215898160588644,-2.978205406429627,-4.32882510125679,0.37322173706537465,-0.6743188906670825,1.2947582616263795,0.9506415798962202,1,right
2.263,-0.348889583152604,0.9405299317585858,0.04288272493676258,-2.980868142207997,-4.2838413176453844,0.36902258137332855,-0.6705484314033822,1.2835118593105785,0.9115358029637948,1,right
2.2640000000000002,-0.34791374805083475,0.9462558673090946,0.043595351963598136,-2.982717493360932,-4.237709840542526,0.3648689362319291,-0.6664652376589929,1.2720663117811766,0.8723132662394303,1,right
2.269,-0.3469793887499245,0.951836685791814,0.044296328673440244,-2.983745224666741,-4.1904514264587505,0.36077007506494996,-0.6620767435376953,1.2604255634226862,0.832997246069414,1,right
2.27,-0.3460883989579001,0.957267298696245,0.04498510733964724,-2.983943447465224,-4.142087498147368,0.3567351262662032,-0.6573906609187168,1.2485939137937572,0.7936111161409116,1,right
2.272,-0.34524276484983213,0.9625427912452713,0.045661126358368116,-2.9833046433278194,-4.092640153267883,0.3527730602797963,-0.6524149659885546,1.2365760234616503,0.7541783327379922,1,right
2.273,-0.3444445654839048,0.967658443561993,0.0463238102952108,-2.9818216886663427,-4.042132173181926,0.3488926772021293,-0.6471578849734699,1.2243769190196547,0.714722418942628,1,right
2.2769999999999997,-0.3436959732999082,0.9726097525719019,0.046972570128393586,-2.979487880280867,-3.990587031742787,0.3451025948940596,-0.6416278790592091,1.212001997253472,0.675266947667572,1,right
2.278,-0.3429992546620471,0.9773924545477841,0.047606803624889345,-2.976296961844893,-3.938028903936555,0.3414112375918724,-0.6358336284836781,1.1994570284220494,0.6358355234078842,1,right
2.282,-0.3423567703321463,0.9820025481476911,0.04822589573942389,-2.972243151323535,-3.884482674229825,0.3378268250059269,-0.6297840157874821,1.186748158617834,0.5964517625978111,1,right
2.283,-0.34177097567406794,0.9864363177247206,0.04882921889885446,-2.967321169318009,-3.829973944475941,0.33435736189610926,-0.6234881082064673,1.1738819111709056,0.5571392724597242,1,right
2.289,-0.34124442030289986,0.9906903566070038,0.049416133043317774,-2.9615262683272396,-3.7745290412288472,0.33101062811350546,-0.6169551391896341,1.160865187060969,0.5179216282318918,1,right
2.289,-0.34077974680918405,0.9947615899599256,0.04998598535951532,-2.954854262914926,-3.7181750223107826,0.32779416909801473,-0.6101944890250663,1.1477052643007037,0.47882234866199785,1,right
2.293,-0.3403796881132641,0.9986472967552167,0.0505381097713775,-2.947301560767929,-3.660939682477276,0.3247152868219523,-0.6032156645558077,1.1344097962535298,0.4398648696535215,1,right
2.294,-0.34004706295400317,1.0023451303103001,0.05107182642470026,-2.9388651946293085,-3.6028515580202334,0.32178103117004475,-0.5960282780005937,1.1209868088531538,0.4010725160212871,1,right
2.294,-0.3397847690267627,1.005853136875303,0.05158644153989777,-2.9295428550868436,-3.543939930147278,0.31899819174659316,-0.5886420250619752,1.1074446967155755,0.36246847165742435,1,right
2.298,-0.3395957733705786,1.0091697718418395,0.05208124805307168,-2.9193329241953374,-3.484234826972984,0.3163732901009739,-0.5810666628066423,1.0937922181765438,0.324075749029655,1,right
2.299,-0.33948309971352975,1.0122939132518565,0.05255552745855989,-2.9082345099084534,-3.4237670239552016,0.31391257236306325,-0.5733119879704397,1.0800384893108104,0.28591715927888867,1,right
2.3,-0.339449812576224,1.0152248723387325,0.05300855324888593,-2.8962474812753243,-3.3625680426358837,0.3116220022747606,-0.5653878161717141,1.066192976965463,0.2480152838390591,1,right
2.302,-0.339498998026543,1.0179624008774741,0.053439596272581893,-2.8833725042646425,-3.300670147686492,0.3095072545750184,-0.5573039622131882,1.052265490796608,0.21039244788246972,1,right
2.303,-0.3396337410923214,1.0205066952029633,0.05384793216223474,-2.8696110779145023,-3.238106342513169,0.3075737086436587,-0.5490702214837612,1.0382661742746537,0.1730706955499959,1,right
2.307,-0.33985709996689567,1.022858396857291,0.054232850761919096,-2.854965570413744,-3.1749103638176974,0.30582644228052475,-0.5406963524374916,1.0242054946184418,0.1360717668573109,1,right
2.3080000000000003,-0.3401720772903323,1.025018589930926,0.05459366723257771,-2.8394392548079668,-3.111116675365328,0.3042702255262399,-0.5321920601265631,1.0100942316182395,0.09941707616910171,1,right
2.311,-0.3405815889522691,1.0269887952779038,0.054929734251529305,-2.8230363441827304,-3.0467604609513477,0.302909514483966,-0.5235669807645983,0.9959434653073979,0.06312769213410684,1,right
2.312,-0.3410884310198108,1.028770961906573,0.0552404545034084,-2.805762026263896,-2.9818776164134984,0.3017484451313075,-0.514830667296288,0.9817645624423077,0.027224318974733545,1,right
2.3169999999999997,-0.34169524553314323,1.0303674559415492,0.055525292557781304,-2.7876224973905086,-2.916504740507074,0.30079082711789945,-0.5059925759489237,0.9675691617501376,-0.008272720973998714,1,right
2.3169999999999997,-0.34240448602255064,1.0317810475891196,0.05578378528498457,-2.768624995813115,-2.8506791244578817,0.30004013754478065,-0.4970620537410789,0.9533691579037288,-0.043343503580394155,1,right
2.3209999999999997,-0.34321838366536334,1.0330148965093386,0.05601555016437548,-2.748777834267903,-2.7844387400067605,0.2994995147222236,-0.488048326923361,0.939176684182938,-0.07796851818999277,1,right
2.322,-0.3441389150045645,1.034072535916262,0.05622029113212021,-2.7280904317745667,-2.7178222257579416,0.2991717519032786,-0.4789604903258636,0.9250040937816761,-0.11212868195938924,1,right
2.327,-0.3451677720926623,1.034957855618886,0.05639780192682563,-2.7065733446033455,-2.650868871642226,0.29905929099088174,-0.4698074975866865,0.9108639397198762,-0.14580535335066575,1,right
2.3280000000000003,-0.34630633582161174,1.0356750841077882,0.056547967157084385,-2.684238296354235,-2.5836186013047753,0.29916421621697975,-0.4605981522356466,0.8967689533196435,-0.17898034488586576,1,right
2.332,-0.34755565307348013,1.0362287697078558,0.05667076149375747,-2.66109820708897,-2.5161119522262303,0.299488247792736,-0.45134109960709357,0.8827320212049027,-0.21163593525960225,1,right
2.332,-0.3489164181923059,1.036623760766248,0.05676624746944551,-2.6371672214539883,-2.448390053384902,0.30003273552949794,-0.4420448195555543,0.8687661607839486,-0.24375488090650463,1,right
2.336,-0.35038895913961304,1.0368651848279857,0.05683457236245377,-2.6124607357302403,-2.3804946002669323,0.30079865243083215,-0.4327176199477691,0.8548844941744361,-0.2753204271187694,1,right
2.336,-0.351973228550487,1.0369584267669483,0.056875964579259655,-2.586995423743399,-2.312467827030579,0.30178658825655985,-0.42336763090454504,0.8411002205305144,-0.3063163188075885,1,right
2.3409999999999997,-0.3536687997510051,1.0369091058843778,0.056890729854307355,-2.560789261565761,-2.2443524756301767,0.3029967430603604,-0.4140027997657381,0.8274265867320122,-0.33672681100068763,1,right
