time,gFx,gFy,gFz,ax,ay,az,wx,wy,wz,subject_number,foot
2.089,0.3983216992436509,0.28562855824827793,0.13475704886363285,-0.22158561732543505,-7.105428681438874,1.2538237306101516,0.33889574653191584,-0.33302950558404326,-2.3656325542444905,2,left
2.093,0.3976468370388417,0.29600921005545916,0.13310956991392253,-0.2376643869393,-7.172938827957435,1.256457942237526,0.3336163827557979,-0.3376707951188268,-2.38746314904393,2,left
2.093,0.3970509172338635,0.30646722469591686,0.13146019842079681,-0.25294775371648004,-7.23732699298054,1.2587292638010235,0.3280493188570564,-0.34254180289495656,-2.4082096566624065,2,left
2.096,0.3965317793634004,0.31699563106171685,0.12980905498413697,-0.2674046035953309,-7.298573280190657,1.2606401710388024,0.3221974837946307,-0.3476438515168177,-2.42786496298661,2,left
2.097,0.3960872391833318,0.3275875632455291,0.12815625405568795,-0.2810053056054928,-7.356660242723341,1.2621931109364153,0.316064113315593,-0.35297789991808143,-2.4464226691206132,2,left
2.102,0.3957150913625545,0.3382362672062311,0.12650190635381361,-0.29372175525863337,-7.4115728854024585,1.2633905063696291,0.30965275199640796,-0.35854453866414304,-2.463877090499675,2,left
2.103,0.3954131119401203,0.34893510712119247,0.12484612145930146,-0.3055274139456967,-7.463298663454612,1.2642347604567301,0.3029672547693594,-0.3643439853428038,-2.480223255115338,2,left
2.1069999999999998,0.39517906054448726,0.35967757142285306,0.12318901058719535,-0.31639734437966893,-7.511827477869576,1.264728260624778,0.296011787916532,-0.3703760800585215,-2.4954569009051246,2,left
2.108,0.39501068237287645,0.3704572785122939,0.12153068952811732,-0.32630824212033477,-7.557151667564493,1.26487338239326,0.2887908295129388,-0.37664028104622166,-2.5095744723569577,2,left
2.112,0.394905709930509,0.3812679821375803,0.1198712817519164,-0.3352384632148851,-7.59926599850038,1.2646724928775717,0.28130916929959676,-0.383135660421329,-2.522573116375255,2,left
2.113,0.39486186453219635,0.3921035764205259,0.1182109216652841,-0.34316804798555245,-7.638167649890363,1.2641279540137451,0.2735719079665799,-0.38986090008334673,-2.534450677452459,2,left
2.116,0.3948768575715776,0.4029581005122113,0.11654975801213632,-0.3500787409926987,-7.673856197629806,1.2632421255048518,0.26558445582531565,-0.3968142877909773,-2.545205692186541,2,left
2.117,0.39494839156593703,0.4138257428545054,0.11488795740206169,-0.3559540071989661,-7.706333595069332,1.2620173674885042,0.25735253084864324,-0.40399371342744084,-2.5548373831818307,2,left
2.121,0.3950741609875641,0.42470084502222755,0.11322570794920214,-0.3607790443572323,-7.735604151242487,1.2604560429238982,0.24888215605641764,-0.41139666547530757,-2.5633456523672713,2,left
2.122,0.39525185289555836,0.43557790511886213,0.11156322300154192,-0.3645407916421864,-7.761674506650556,1.2585605196958574,0.2401796562237269,-0.4190202277208153,-2.570731073763012,2,left
2.127,0.39547914738409823,0.446451580697698,0.10990074493829405,-0.367227934542371,-7.784553606697866,1.2563331724323639,0.2312516538880867,-0.4268610762082906,-2.5769948857229976,2,left
2.127,0.3957537178654304,0.45731669118005847,0.10823854901104815,-0.3688309060265251,-7.804252672861658,1.2537763840310971,0.2221050646312932,-0.434915476465934,-2.5821389826779977,2,left
2.1319999999999997,0.3960732312090878,0.4681682197433588,0.10657694720256987,-0.36934188399500795,-7.820785171671449,1.2508925468895404,0.21274709161094837,-0.4431792810248628,-2.5861659064002986,2,left
2.133,0.39643534776230416,0.47900131465416657,0.10491629207505912,-0.36875478502400477,-7.83416678156363,1.2476840638322617,0.20318521931602457,-0.4516479272539288,-2.5890788368080546,2,left
2.135,0.396837721279281,0.48981129002545337,0.10325698057761988,-0.3670652544071004,-7.84441535766792,1.2441533487280263,0.1934272065202084,-0.46031643553343865,-2.5908815823240823,2,left
2.136,0.39727799878905246,0.5005936259836521,0.10159945778152883,-0.364270652495677,-7.851550894573205,1.2403028267884677,0.18348107840615746,-0.46917940779150774,-2.5915785698006704,2,left
2.141,0.3977538204340112,0.5113439682401825,0.09994422051130927,-0.3603700373364392,-7.855595487111236,1.236134934539099,0.17335511783321728,-0.4782310264273648,-2.591174834018788,2,left
2.142,0.3982628193137196,0.5220581270725528,0.09829182083859772,-0.35536414360120755,-7.856573289187683,1.2316521194525312,0.16305785572058382,-0.48746505364649845,-2.5896760067668705,2,left
2.145,0.3988026213703706,0.5327320757300745,0.09664286940418393,-0.3492553578009507,-7.854510470681079,1.2268568392328383,0.15259806051735691,-0.49687483123309284,-2.587088305501204,2,left
2.145,0.39937084535317424,0.5433619482872916,0.0949980385326561,-0.342047689772851,-7.849435172421331,1.2217515607391054,0.14198472673041385,-0.506453280785743,-2.5834185215867533,2,left
2.151,0.399965102899646,0.5539440369742591,0.09335806510469703,-0.33374674042603003,-7.841377459250652,1.216338758535285,0.13122706250358954,-0.5161929044494703,-2.578674008129497,2,left
2.151,0.4005829987702967,0.5644747890168554,0.09172375315393629,-0.3243596657283921,-7.830369271161079,1.2106209130525898,0.12033447635643006,-0.5260857862101064,-2.572862667484921,2,left
2.1519999999999997,0.40122213126783624,0.5749508030223895,0.09009597615736295,-0.3138951369138925,-7.816444372494022,1.2046005083497653,0.10931656339778802,-0.5361235938761733,-2.5659929386623523,2,left
2.155,0.40188009286650883,0.5853688249469404,0.08847567898838467,-0.3023632969633446,-7.799638299219814,1.1982800294763902,0.0981830914443597,-0.5462975819063931,-2.55807378491845,2,left
2.155,0.40255447107511716,0.5957257436820711,0.08686387949975452,-0.2897757137934828,-7.779988304511792,1.1916619595469724,0.08694398735863156,-0.5565985952088565,-2.5491146817533745,2,left
2.156,0.4032428495562871,0.6060185862990441,0.0852616697036015,-0.2761453312784086,-7.757533303190263,1.184748776819003,0.0756093237129006,-0.5670170739797183,-2.539125605382007,2,left
2.16,0.4039428095232296,0.6162445129884411,0.08367021651658094,-0.26148641960920244,-7.732313815808477,1.1775429521707632,0.0641893057704558,-0.5775430596171384,-2.5281170216728315,2,left
2.161,0.4046519314354758,0.6264008117337295,0.08209076203475613,-0.2458145261097356,-7.704371912939527,1.1700469472703314,0.05269425875165507,-0.5881662017400348,-2.516099875528762,2,left
2.165,0.40536779701545633,0.6364848927591844,0.08052462329802952,-0.22914642693122173,-7.673751159845832,1.1622632135401239,0.04113461535235866,-0.5988757663415619,-2.5030855806812466,2,left
2.166,0.40608799160576803,0.6464942827938748,0.0789731915042152,-0.21150007966037493,-7.64049656149989,1.1541941919169652,0.029520903481934185,-0.6096606451075269,-2.4890860098660443,2,left
2.173,0.40681010688282326,0.6564266191919593,0.07743793063787484,-0.19289457679618963,-7.604654507876101,1.1458423133861642,0.017863734187833845,-0.6205093659302396,-2.474113485346178,2,left
2.174,0.40753174393725045,0.6662796439447628,0.07592037548582879,-0.17335010004749726,-7.566272719425805,1.1372100002672383,0.00617378973355856,-0.6314101046485373,-2.458180769744703,2,left
2.174,0.40825051672534995,0.6760511976138487,0.07442212902001315,-0.15288787540064858,-7.525400192640092,1.128299668228112,-0.005538188203331199,-0.6423506980449422,-2.4413010571471,2,left
2.175,0.408964055890029,0.6857392132091026,0.07294485913929882,-0.1315301289039153,-7.482087145597542,1.1191137290038,-0.017261410246622748,-0.6533186581310911,-2.4234879644303042,2,left
2.18,0.4096700129448504,0.6953417100329785,0.07149029477284254,-0.10930004311251149,-7.436384963386726,1.1096545937947855,-0.028985050983835702,-0.6643011877527277,-2.404755522772637,2,left
2.18,0.41036606481202786,0.7048567875111078,0.07006022135627166,-0.08622171413549966,-7.388346143286157,1.099924677319497,-0.04069826060920584,-0.6752851975456564,-2.3851181692961703,2,left
2.184,0.4110499187050703,0.7142826190288784,0.06865647569827343,-0.0623201092232767,-7.3380242395773765,1.0899264024945055,-0.05239017658092261,-0.6862573242741427,-2.3645907387903877,2,left
2.185,0.41171931734827205,0.7236174457920674,0.06728094026061923,-0.03762102483183003,-7.285473807860016,1.0796622057152692,-0.06404993532627595,-0.6972039505832774,-2.3431884554633573,2,left
2.189,0.4123720445262868,0.7328595707272593,0.06593553688078503,-0.012151045097520182,-7.230750348730918,1.0691345427094814,-0.07566668402833777,-0.7081112261968346,-2.320926924664032,2,left
2.19,0.41300593095699656,0.7420073524356732,0.06462221997249172,0.014062499346217713,-7.173910250682904,1.0583458949343052,-0.08722959252774261,-0.7189650905921082,-2.2978221245167494,2,left
2.194,0.413618860480486,0.751059199212692,0.06334296924380221,0.040991572281150156,-7.115010732072305,1.0472987764880133,-0.09872786537303942,-0.7297512971831505,-2.2738903974064715,2,left
2.195,0.41420877655549404,0.7600135631444644,0.062099781974331116,0.06860747261860888,-7.0541097819982275,1.0359957415057937,-0.11015075405296293,-0.7404554390437115,-2.249148441250854,2,left
2.199,0.41477368905045386,0.7688689342920333,0.06089466489425113,0.09688087499118582,-6.991266099930332,1.0244393920087351,-0.12148756944381858,-0.7510629762010304,-2.223613300492802,2,left
2.2,0.4153116813093998,0.7776238349724153,0.05972962570957081,0.12578187029905788,-6.926539033916081,1.0126323861742634,-0.13272769450498928,-0.7615592645314334,-2.1973023567448053,2,left
2.206,0.415820917465655,0.7862768141450877,0.058606664320663436,0.15528000629021133,-6.8599885171926225,1.0005774469955613,-0.14386059725535585,-0.7719295862884583,-2.170233319014005,2,left
2.207,0.4162996499691035,0.7948264419115889,0.057527763784408006,0.18534432825572328,-6.7916750030229105,0.9882773712967807,-0.15487584406317612,-0.7821591822939439,-2.142424213434678,2,left
2.209,0.4167462272853622,0.8032713041358475,0.056494881074736894,0.21594341992305985,-6.7216593975702255,0.9757350390701354,-0.16576311328168958,-0.792233285822209,-2.1138933724325923,2,left
2.209,0.41715910171700266,0.8116099971941946,0.055509937701460794,0.24704544463206426,-6.6500029906200755,0.9629534231002473,-0.1765122092624073,-0.802137158207078,-2.0846594232435116,2,left
2.214,0.4175368372886709,0.8198411228661392,0.054574810252723226,0.2786181868799343,-6.576767383953334,0.9499355988404204,-0.1871130767777083,-0.8118561262011094,-2.0547412757059917,2,left
2.214,0.41787811763036375,0.8279632833779977,0.05369132093162307,0.3106290943230231,-6.502014417169634,0.9366847545048153,-0.1975558158839975,-0.8213756211159347,-2.0241581092465615,2,left
2.218,0.418181753786494,0.8359750766113322,0.052861228160993895,0.34304532032474233,-6.425806090755273,0.9232042013398152,-0.2078306972562817,-0.8306812197721287,-1.992929358973336,2,left
2.219,0.4184466918741158,0.8438750914883053,0.0520862173299107,0.37583376714019756,-6.348204486185415,0.9094973840371934,-0.2179281779999047,-0.8397586872196223,-1.961074700835316,2,left
2.22,0.4186720205166449,0.8516619035468568,0.051367891747936066,0.4089611298294435,-6.269271682845933,0.89556789125102,-0.22783891782126697,-0.8485940208547152,-1.928614036018481,2,left
2.224,0.41885697799007604,0.859334070719419,0.05070776386020877,0.4423939409924111,-6.189069671556137,0.8814194661795933,-0.23755379521664624,-0.8571734949572484,-1.8955674751363116,2,left
2.225,0.4190009590270887,0.8668901293288873,0.050107246768358996,0.47609861636242934,-6.107660264656968,0.8670560171771734,-0.24706392321426443,-0.8654837043364515,-1.8619553229863517,2,left
2.227,0.4191035212256883,0.8743285903148904,0.04956764610243289,0.5100415010102416,-6.025105003562499,0.8524816283803943,-0.2563606643276727,-0.873511606107677,-1.8277980644269132,2,left
2.229,0.4191643910102878,0.8816479357033035,0.049090152289113266,0.5441889153965055,-5.9414650663555335,0.8377005703709336,-0.26543564460019053,-0.881244559223377,-1.7931163515379522,2,left
2.23,0.4191834690944731,0.888846615332281,0.04867583326023551,0.5785072002255532,-5.8568011789417085,0.8227173109161331,-0.27428076674300894,-0.8886703617152941,-1.7579309920127604,2,left
2.235,0.41916083538986976,0.8959230438477146,0.04832562764951598,0.6129627593398657,-5.771173532336116,0.8075365258079263,-0.2828882223936463,-0.8957772856708998,-1.722262938682387,2,left
2.235,0.4190967533000528,0.902875597980063,0.048040338531311386,0.6475221004100905,-5.684641706966761,0.7921631097825049,-0.29125050352080994,-0.9025541099662684,-1.6861332800732078,2,left
2.238,0.41899167334121534,0.909702614114711,0.047820627754986945,0.682151873461922,-5.597264603939161,0.7766021874818384,-0.29936041300105587,-0.9089901507766951,-1.6495632318966056,2,left
2.239,0.4188462360405424,0.9164023861709311,0.04766701092223166,0.7168189073387502,-5.509100383016238,0.7608591244134473,-0.3072110743919574,-0.915075289885448,-1.6125741293683453,2,left
2.2430000000000003,0.41866127407358994,0.9229731638092847,0.047579853046806196,0.7514902441992894,-5.420206407065042,0.7449395378642777,-0.31479594092579,-0.9208000008101008,-1.5751874202538985,2,left
2.244,0.4184378136127096,0.9294131509912915,0.047559364928698784,0.7861331721495942,-5.3306391927194205,0.728849307723986,-0.32210880374701534,-0.9261553727649147,-1.5374246585347051,2,left
2.248,0.4181770748702264,0.9357205049175376,0.04760560026749284,0.820715256108984,-5.240454367005481,0.7125945871724196,-0.3291437994161028,-0.9311331324767256,-1.4993074985891608,2,left
2.249,0.4178804718310106,0.9418933353718147,0.04771845353239495,0.8552043670094053,-5.149706629674612,0.6961818131855749,-0.3358954167014646,-0.9357256638707686,-1.460857689780972,2,left
2.253,0.41754961117797074,0.9479297045000156,0.04789765859800807,0.8895687094276825,-5.05844972098687,0.6796177168138218,-0.3423585026805004,-0.9399260256418017,-1.4220970713464451,2,left
2.254,0.417186290421552,0.9538276270540901,0.04814278814447866,0.9237768477499313,-4.966736394685771,0.6629093331857139,-0.3485282681699475,-0.9437279667248154,-1.383047567471256,2,left
2.258,0.41679249525131773,0.9595850711334887,0.048453253807380796,0.9577977309671472,-4.874618395903918,0.6460640111902487,-0.3544002925049233,-0.9471259396785041,-1.3437311824462885,2,left
2.258,0.41637039613435,0.9651999594585525,0.048828307047534825,0.9916007162006196,-4.782146443737415,0.6290894227900089,-0.3599705276852152,-0.9501151119935537,-1.3041699957912463,2,left
2.263,0.41592234419161384,0.9706701712121235,0.04926704069719637,1.025155591055375,-4.689370218225705,0.6119935719172017,-0.3652353019065323,-0.9526913753366545,-1.2643861572338972,2,left
2.2640000000000002,0.41545086638904716,0.9759935444869322,0.0497683911303157,1.0584325948993154,-4.59633835147233,0.594784802904222,-0.37019132249357933,-0.9548513527399917,-1.2244018814320607,2,left
2.267,0.4149586600846852,0.9811678793764995,0.05033114100119283,1.0914024391650978,-4.503098422641049,0.5774718083999902,-0.37483567825094727,-0.9565924037447909,-1.1842394423247338,2,left
2.2680000000000002,0.4144485869769015,0.9861909417466613,0.050953922495358704,1.1240363267710796,-4.4096969565609125,0.5600636367229749,-0.3791658412469367,-0.9579126275063123,-1.1439211669981137,2,left
2.274,0.41392366650170176,0.9910604677244348,0.05163522103705143,1.1563059707568657,-4.316179425673144,0.5425696986014786,-0.3831796680445458,-0.958810863866493,-1.1034694289517046,2,left
2.274,0.4133870687285365,0.99577416894196,0.05237337939895939,1.1881836122281095,-4.222590255052056,0.524999773251474,-0.3868754003929595,-0.959286692399234,-1.0629066406491772,2,left
2.278,0.4128421068041972,1.0003297385760606,0.053166602162229334,1.2196420377042532,-4.128972830231802,0.5073640137419997,-0.3902516653919738,-0.959340429432125,-1.0222552452382072,2,left
2.279,0.4122922289933837,1.0047248582269144,0.05401296047821852,1.2506545959618514,-4.03536950757039,0.48967295159788277,-0.39330747514088354,-0.9589731230471825,-0.9815377073231338,2,left
2.283,0.4117410103627495,1.0089572056805571,0.05491039708643799,1.2811952144649954,-3.9418216268822217,0.47193750058933426,-0.3960422258824456,-0.9581865460619712,-0.9407765026739612,2,left
2.2840000000000003,0.41119214415077676,1.0130244635987793,0.05585673153852078,1.3112384154731505,-3.848369526070271,0.45416895965777987,-0.39845569665161606,-0.9569831869912658,-0.8999941067549685,2,left
2.287,0.4106494328561612,1.0169243291748251,0.05684966555981109,1.3407593319154418,-3.755052557489131,0.43637901492712516,-0.40054804743634376,-0.9553662390077847,-0.8592129819994627,2,left
2.2880000000000003,0.4101167790658788,1.020654524782312,0.05788678846329152,1.3697337231190714,-3.6619091057702593,0.4185797407495325,-0.4023198168493064,-0.9533395870172439,-0.8184555639743541,2,left
2.289,0.40959817604296256,1.0242128096276988,0.05896558254681112,1.3981379904781137,-3.568976606841046,0.40078359973468963,-0.40377191929510364,-0.9509077931380434,-0.7777442469692645,2,left
2.294,0.40909769811624175,1.027596992392767,0.060083428460984405,1.4259491931474506,-3.476291567869717,0.38300344171149003,-0.40490564160902354,-0.9480760809726267,-0.7371013697621532,2,left
2.295,0.4086194909545861,1.0308049448262577,0.06123761059524952,1.4531450638370191,-3.383889587918451,0.3652525015636764,-0.4057226391500537,-0.9448503189584609,-0.6965492020962452,2,left
2.296,0.4081677618343075,1.0338346162265495,0.06242532255103618,1.4797040247399063,-3.291805379337121,0.3475443958442902,-0.40622493134334303,-0.9412370029091661,-0.6561099320120818,2,left
2.2969999999999997,0.4077467699887851,1.0366840487585303,0.06364367274882009,1.5056052035540872,-3.2000727903797053,0.3298931180077279,-0.4064148966738804,-0.9372432377572584,-0.615805653961443,2,left
2.298,0.4073608170630591,1.039351393553045,0.06488969017378751,1.5308284495158215,-3.1087248297756513,0.31231303206156924,-0.406295267133741,-0.9328767184892506,-0.5756583575866906,2,left
2.301,0.4070142376011149,1.0418349275240946,0.06616033021348976,1.5553543494009099,-3.0177936937399554,0.2948188644771872,-0.40586912212434784,-0.9281457102627471,-0.5356899170494106,2,left
2.302,0.40671138939135765,1.0441330708007353,0.06745248047495404,1.5791642435201567,-2.9273107954578146,0.27742569426440206,-0.4051398818143017,-0.9230590276940771,-0.495922080792619,2,left
2.307,0.406456643416833,1.0462444046125874,0.06876296640876119,1.6022402417734527,-2.8373067968313683,0.26014894115236487,-0.40411129995244105,-0.9176260133039389,-0.4563764616212438,2,left
2.3080000000000003,0.4062543731284166,1.0481676893987213,0.0700885565656913,1.6245652398328916,-2.747811642227389,0.24300435182644664,-0.4027874561349154,-0.9118565151074843,-0.41707452698611314,2,left
2.312,0.40610894278259413,1.0499018828471949,0.07142596739765683,1.6461229355232851,-2.6588545939660517,0.226007984171201,-0.40117274752418636,-0.9057608633342509,-0.3780375893572526,2,left
2.313,0.4060246946425342,1.0514461575418053,0.07277186766119556,1.6668978454663292,-2.5704642692922834,0.20917618946980215,-0.39927188001700803,-0.8993498462623538,-0.3392867965729347,2,left
2.316,0.4060059349164198,1.0527999179118985,0.07412288263226223,1.686875322052521,-2.4826686785726633,0.19252559251074128,-0.3970898588575953,-0.8926346851503875,-0.30084312205162156,2,left
2.3169999999999997,0.4060569183909086,1.0539628162506778,0.07547559845228492,1.7060415708027201,-2.3954952644623915,0.17607306955299032,-0.39463197869135086,-0.8856270082495472,-0.26272735475470466,2,left
2.323,0.40618183179837863,1.054934767666409,0.07682656697630083,1.7243836681790075,-2.3089709417884574,0.1598357241013159,-0.3919038130537007,-0.8783388238775787,-0.22496008878876547,2,left
2.324,0.40638477602292133,1.055715963923711,0.0781723114795253,1.7418895799021958,-2.223122137896853,0.14383086044394683,-0.38891120328778134,-0.870782492535291,-0.18756171253696363,2,left
2.3280000000000003,0.4066697473003579,1.056306886188669,0.07950933351057046,1.7585481798310327,-2.137974833213467,0.12807595490536847,-0.3856602468839306,-0.862970698045525,-0.1505523972101004,2,left
2.3280000000000003,0.407040617608183,1.0567083167050537,0.08083412107887114,1.7743492694557539,-2.0535546017701574,0.11258862476763577,-0.38215728523315584,-0.8549164176936676,-0.11395208470890601,2,left
2.332,0.40750111447651277,1.056921349412599,0.0821431582499348,1.789283598056255,-1.9698866514494309,0.09738659481426425,-0.3784088907859968,-0.8466328913480338,-0.07778047469015878,2,left
2.333,0.4080548004790094,1.0569473994892014,0.08343293611313912,1.8033428835727183,-1.8869958637031854,0.08248766145147808,-0.37442185360745767,-0.8381335895377013,-0.042057010730361354,2,left
2.336,0.4087050526782094,1.0567882117692937,0.0846999650001215,1.8165198342340638,-1.8049068325030462,0.06790965436236195,-0.37020316731795877,-0.8294321804646881,-0.006800865481873118,2,left
2.3369999999999997,0.40945504229902163,1.0564458679664566,0.08594078777125266,1.82880817098711,-1.723643902282002,0.05367039565028366,-0.3657600144095548,-0.8205424959267071,0.02796907528237041,2,left
2.3409999999999997,0.41030771488854434,1.0559227926086265,0.08715199394092672,1.840202650766818,-1.643231204629263,0.03978765642882544,-0.36109975092598123,-0.8114784961261106,0.06223422983813405,2,left
2.3409999999999997,0.4112657711944521,1.0552217575731793,0.0883302343654016,1.8506990906454588,-1.5636926935025792,0.02627911081638333,-0.3562298904944245,-0.8022542333400562,0.09597633899439607,2,left
2.346,0.4123316489629565,1.0543458850808725,0.0894722361687169,1.860294392895992,-1.4850521787246216,0.013162287294567608,-0.35115808769626805,-0.7928838144263892,0.12917748599294274,2,left
2.346,0.413507505824645,1.0532986489717482,0.0905748175468816,1.868986571002384,-1.4073333575324716,0.0004545173905606185,-0.3458921207634434,-0.78338136213923,0.16182011792143958,2,left
2.351,0.4147952034064838,1.0520838740506575,0.09163490208656976,1.8767747766470082,-1.330559843951783,-0.011827118355336563,-0.3404398735864117,-0.7737609752278013,0.19388706873687284,2,left
2.351,0.4161962927882681,1.0507057332685348,0.0926495322709731,1.8836593277026903,-1.2547551957697478,-0.023665847174612495,-0.33480931701922395,-0.7640366872916037,0.22536158399470152,2,left
2.355,0.41771200141811393,1.0491687425092662,0.09361588191659061,1.889641737254368,-1.1799429388836558,-0.035045263644378,-0.3290084894962762,-0.7542224244300884,0.25622734730725844,2,left
2.356,0.4193432216071155,1.047477752785797,0.09453126737436343,1.8947247436727357,-1.1061465888045463,-0.04594939208536888,-0.3230454771234845,-0.7443319620516949,0.2864685082022968,2,left
2.356,0.42109050072774695,1.045637939704592,0.09539315741707974,1.89891234175966,-1.0333896690982372,-0.056362751818092825,-0.31692839367364656,-0.7343788817955481,0.3160697104190955,2,left
2.363,0.42295403325484016,1.0436547901138373,0.09619918180941002,1.902209814982553,-0.9616957265488675,-0.06627042530977632,-0.3106653610639086,-0.724376529845907,0.3450161193267994,2,left
2.364,0.42493365481964623,1.0415340858975786,0.09694713861346546,1.9046237687125454,-0.8910883428446889,-0.07565812911804826,-0.3042644907441502,-0.7143379775921813,0.3732934474988676,2,left
2.364,0.4270288384658363,1.0392818849215788,0.09763500031615319,1.9061621638798898,-0.821591142647249,-0.0845122869091166,-0.29773386615710107,-0.7042759849984286,0.40088797810744664,2,left
2.365,0.429238693275715,1.036904499183211,0.09826091887273265,1.906834349559541,-0.7532277980133208,-0.09282010269855295,-0.2910815262819438,-0.6942029667190387,0.4277865861505939,2,left
2.366,0.4315619654977371,1.0344084702796719,0.09882322976022771,1.9066510924984825,-0.6860220292004712,-0.100569631834536,-0.28431545024303156,-0.6841309609317953,0.45397675759355716,2,left
2.372,0.43399704227211694,1.0318005424000967,0.09932045513931584,1.9056246020927032,-0.6199976018319303,-0.10774984786864521,-0.27744354296497853,-0.6740716008594353,0.4794466065033515,2,left
2.372,0.43654195799842876,1.0290876331515757,0.09975130622178732,1.903768550217161,-0.5551783202945298,-0.11435070458591891,-0.27047362185502805,-0.6640360889507965,0.5041848902538807,2,left
2.375,0.43919440330216214,1.0262768026119884,0.10011468491631856,1.9010980858084674,-0.4915880171883778,-0.12036319309106103,-0.2634134044932797,-0.6540351736926433,0.5281810228768139,2,left
2.376,0.44195173645598573,1.0233752210488143,0.10040968478248309,1.8976298441973711,-0.42925053863865315,-0.12577939397140137,-0.25627049731105067,-0.644079129023296,0.5514250866313621,2,left
2.38,0.4448109970210579,1.0203901357581047,0.1006355912769367,1.8933819511857413,-0.36818972528336136,-0.13059252455555304,-0.24905238523736506,-0.634177736319259,0.5739078418639983,2,left
2.38,0.44776892140489377,1.0173288374716567,0.1007918812401263,1.888374021860416,-0.30842938875442477,-0.13479698128502182,-0.24176642229330558,-0.6243402689261388,0.595620735227033,2,left
2.385,0.4508219599882022,1.0141986267634617,0.10087822155531061,1.8826271541339938,-0.2499932834730808,-0.1383883772143124,-0.23441982311372442,-0.6145754792052729,0.6165559063228008,2,left
2.386,0.4539662954538424,1.011006780867254,0.10089446691631707,1.8761639170004012,-0.19290507358422684,-0.1413635746533463,-0.2270196553755923,-0.6048915880676445,0.6367061928380275,2,left
2.39,0.4571978619540162,1.007760521297499,0.10084065666273864,1.8690083334909016,-0.1371882948580884,-0.14372071296426017,-0.2195728331120723,-0.5952962769668421,0.6560651342307323,2,left
2.391,0.46051236477336516,1.0044669826427497,0.10071701067410582,1.8611858583140821,-0.08286631139138917,-0.145459231522895,-0.21208611089122717,-0.5857966823230288,0.674626974029794,2,left
2.394,0.4639053001824774,1.0011331828701047,0.10052392435066794,1.852723350161302,-0.029962266944075416,-0.1465798878535192,-0.20456607883811753,-0.5763993923501216,0.6923866608050536,2,left
2.395,0.46737197522504503,0.9977659954423673,0.10026196274208807,1.8436490386571047,0.021500969248415287,-0.14708477094355563,-0.19701915847891213,-0.5671104462586277,0.7093398478635534,2,left
2.4,0.4709075272381872,0.9943721235064409,0.09993185391117655,1.8339924859321746,0.07150086234334324,-0.1469773097433087,-0.1894515993855173,-0.5579353358068647,0.725482891725224,2,left
2.401,0.47450694296423823,0.9909580763647217,0.0995344816332835,1.8237845427945938,0.12001527759124385,-0.14626227685391513,-0.18186947659913624,-0.5488790091735803,0.7408128494290289,2,left
2.408,0.47816507716865514,0.9875301483939587,0.09907087753232116,1.8130572994733911,0.1670225520166845,-0.1449457874049765,-0.17427868881109118,-0.5399458771253,0.7553274747182636,2,left
2.4090000000000003,0.4818766707276335,0.9840944005310248,0.09854221274511994,1.8018440309067094,0.21250157222278993,-0.14303529312157479,-0.16668495727918264,-0.5311398214520545,0.7690252131513727,2,left
2.4090000000000003,0.48563636818532135,0.980656644404757,0.0979497891932222,1.7901791365453399,0.25643185845885813,-0.1405395715786305,-0.15909382545781592,-0.5224642056454812,0.781905196182325,2,left
2.41,0.4894387347999118,0.9772224291593098,0.09729503053136397,1.778098074640871,0.2987936550860613,-0.13746871063883692,-0.15151065932010188,-0.513921887793644,0.7939672342522334,2,left
2.414,0.4932782730991632,0.9737970309877401,0.09657947283785699,1.765637290986319,0.3395680275718362,-0.13383408806870137,-0.14394064835012851,-0.505515235667283,0.8052118089315727,2,left
2.415,0.49714943895246466,0.9703854453736975,0.09580475511334574,1.7528341420758045,0.3787369661391218,-0.12964834632554567,-0.13638880718360782,-0.49724614397257627,0.8156400641499936,2,left
2.419,0.5010466571459076,0.9669923820213329,0.09497260965815396,1.7397268126486498,0.4162834961920975,-0.1249253625066684,-0.1288599778751249,-0.48911605374588,0.8252537965483844,2,left
2.42,0.504964336426423,0.9636222624344079,0.09408485240070262,1.7263542275821755,0.4521917956355173,-0.11968021345025495,-0.1213588327702532,-0.4811259738662996,0.8340554449854876,2,left
2.424,0.5088968839645194,0.96027922008107,0.09314337324712997,1.7127559580965055,0.48644731920012524,-0.11392913597604079,-0.11388987796085204,-0.47327650466234156,0.8420480792290301,2,left
2.425,0.5128387191748321,0.9569671030526589,0.09215012651519826,1.6989721222338057,0.519036929881979,-0.10768948225219233,-0.10645745729439177,-0.4655678635431393,0.8492353878671262,2,left
2.425,0.51678428683409,0.9536894791051669,0.09110712150542996,1.685043279573627,0.549949037598806,-0.10097967027337271,-0.0990657568705487,-0.45799991235438825,0.8556216655140424,2,left
2.4290000000000003,0.5207280694472748,0.9504496429693912,0.0900164132511116,1.6710103203053246,0.5791737448136212,-0.0938191295194614,-0.09171880989057628,-0.4505721857441564,0.8612117994552982,2,left
2.43,0.5246645988254213,0.9472506258208341,0.08888009348027467,1.6569143495777312,0.6067029971303141,-0.08622824229276113,-0.08442050168738184,-0.4432839195933804,0.8660112559154228,2,left
2.431,0.5285884668437586,0.9440952067954781,0.08770028182156148,1.6427965694853872,0.6325307337277596,-0.07822828200375453,-0.07717457480203604,-0.4361340787970217,0.8700260660887296,2,left
2.435,0.5324943353455212,0.9409859264101069,0.08647911729410787,1.628698161850071,0.6566530307534221,-0.0698413501039461,-0.06998463404039948,-0.42912138409763,0.8732628119979786,2,left
2.435,0.5363769451490277,0.9379251016952311,0.08521875013636583,1.614660174156449,0.6790682325332998,-0.06109031293332459,-0.06285415148137162,-0.4222443379042212,0.8757286122028599,2,left
2.439,0.5402311241111395,0.9349148427932114,0.08392133404213727,1.6007234095610714,0.699777068583506,-0.05199873897523063,-0.055786471415954525,-0.4155012490759286,0.8774311073698469,2,left
2.44,0.5440517942031905,0.9319570707329509,0.08258901887807275,1.5869283210942455,0.7187827561446304,-0.042590836580538034,-0.0487848151964838,-0.4088902566502777,0.8783784457127323,2,left
2.444,0.5478339775627317,0.9290535360642862,0.08122394395468863,1.57331491001455,0.7360910883032795,-0.03289139213606052,-0.04185228597555016,-0.4024093524963255,0.8785792683109472,2,left
2.445,0.5515728014929123,0.9262058380098913,0.07982823191120154,1.55992262827604,0.7517105077602896,-0.022925708651118055,-0.03499187331431489,-0.39605640287328936,0.8780426943105725,2,left
2.449,0.5552635023930411,0.9234154437668026,0.07840398325399182,1.5467902850685977,0.7656521663002264,-0.012719544735289858,-0.028206457640112117,-0.38982916887566926,0.87677830601078,2,left
2.45,0.558901428622649,0.9206837075663313,0.07695327157004969,1.5339559573924093,0.7779299700119086,-0.00229905393954469,-0.02149881453342885,-0.38372532574624085,0.8747961338363037,2,left
2.454,0.5624820423297548,0.9180118890843376,0.07547813943312455,1.5214569046281738,0.7885606103048531,0.008309275567824946,-0.014871618824561108,-0.37774248103866415,0.8721066411944172,2,left
2.455,0.566000920311631,0.9154011707881865,0.07398059502888742,1.5093294870654064,0.7975635807617208,0.01907868101972791,-0.008327448480459156,-0.3718781916118139,0.8687207092128075,2,left
2.458,0.5694537540195548,0.912852673818247,0.0724626095287966,1.4976090883520419,0.8049611798620694,0.02998218479313711,-0.001868788262498549,-0.36612997943829256,0.8646496213526745,2,left
2.459,0.572836348862824,0.9103674720359799,0.07092611522871765,1.4863300418295151,0.8107784996079952,0.04099265390670703,0.004501966863855731,-0.3604953462099311,0.8599050478893515,2,left
2.463,0.5761446230065685,0.9079466039284277,0.06937300444252355,1.4755255607185496,0.8150434000775753,0.05208285930402568,0.010782508586286335,-0.3549717867234284,0.8544990302507466,2,left
2.464,0.5793746058867136,0.9055910821373665,0.06780512911330007,1.465227672122063,0.8177864699274134,0.06322553495376537,0.016970612388310623,-0.34955680102960884,0.848443965201932,2,left
2.468,0.5825224366781157,0.9033019004752145,0.06622430107863103,1.4554671548128568,0.819040972861064,0.07439343679830379,0.02306413499571428,-0.3442479053301076,0.8417525888622809,2,left
2.468,0.5855843629453948,0.9010800383904635,0.0646322928992563,1.4462734807751263,0.8188427800756501,0.08555940158261599,0.029061012144769006,-0.3390426416056088,0.8344379605396444,2,left
2.4730000000000003,0.5885567396799366,0.8989264629433867,0.06303083913198942,1.4376747604702658,0.8172302886946285,0.09669640559538836,0.034959256690006435,-0.3339385859600771,0.8265134463642053,2,left
2.4730000000000003,0.5914360288818422,0.8968421284423094,0.061421637903904945,1.4296976917989983,0.8142443261903816,0.10777762335437868,0.0407569570690489,-0.3289333556657247,0.8179927027028122,2,left
2.478,0.5942187997863139,0.8948279739691178,0.05980635263394247,1.4223675127334778,0.8099280407961494,0.11877648626804091,0.04645227614172017,-0.3240246148937566,0.8088896593328092,2,left
2.479,0.5969017297687084,0.892884919086106,0.05818661375431776,1.4157079575947227,0.8043267779027595,0.12966674130535039,0.052043450420376156,-0.31921007911622584,0.7992185023526276,2,left
2.484,0.5994816059015168,0.8910138580594716,0.05656402030462654,1.4097412169525136,0.7974879424316678,0.1404225097056058,0.05752878970810685,-0.3144875181646145,0.7889936568046895,2,left
2.485,0.6019553270874843,0.8892156529547065,0.05494014130130469,1.4044879011267528,0.789460847172008,0.1510183457597482,0.06290667716116688,-0.30985475793103506,0.7782297689845047,2,left
2.487,0.6043199066596197,0.8874911259567929,0.05331651682088354,1.3999670072711994,0.7802965470656632,0.16142929569442607,0.06817556979169291,-0.3053096806982156,0.7669416884082101,2,left
2.488,0.6065724753212518,0.8858410512493321,0.051694658773840024,1.3961958900224876,0.7700476594208165,0.1716309566896501,0.07333399942646242,-0.30085022408469775,0.755144449409207,2,left
2.492,0.6087102842956171,0.8842661467604017,0.05007605138083062,1.3931902356993733,0.7587681700310334,0.1815995360604229,0.07838057413713963,-0.296474378591934,0.7428532523330095,2,left
2.4930000000000003,0.6107307085626923,0.8827670660520364,0.048462151387364906,1.390964040039261,0.7465132251736615,0.19131191063219918,0.08331398014358155,-0.29218018377194516,0.7300834443221279,2,left
2.4930000000000003,0.6126312500809874,0.8813443905862769,0.04685438806130545,1.3895295894612116,0.733338909458222,0.2007456863394317,0.08813298412365857,-0.2879657231930495,0.7168504998024545,2,left
2.497,0.6144095409206444,0.8799986225421843,0.04525416301149942,1.3888974458332224,0.719302009931677,0.2098792580011306,0.09283643574068129,-0.2838291186669078,0.7031700009991863,2,left
2.498,0.6160633462606601,0.8787301783054284,0.04366284985473301,1.389076434655778,0.7044597690405032,0.218691868853331,0.09742327013139931,-0.2797685243589693,0.6890576189300477,2,left
2.498,0.6175905672178315,0.8775393827234189,0.04208179375150713,1.3900736364534991,0.6888696329993869,0.22716366874562846,0.10189251016501016,-0.27578212124602763,0.674529095201145,2,left
2.503,0.6189892434790146,0.8764264642108976,0.04051231083047638,1.391894381100989,0.6725890043097184,0.2352757695347828,0.1062432684053266,-0.27186811209932477,0.6596002247115076,2,left
2.504,0.6202575557086049,0.8753915507885575,0.03895568752168395,1.3945422448793343,0.6556750049729131,0.24301029658076898,0.11047474877571689,-0.2680247170132572,0.6442868392500323,2,left
2.5069999999999997,0.6213938277055425,0.8744346671245706,0.037413179814418156,1.3980190501845022,0.6381842529889081,0.2503504359216135,0.11458624793965502,-0.2642501694682277,0.6286047919431271,2,left
2.508,0.6223965282889697,0.8735557326184308,0.03588601244684182,1.4023248678792681,0.6201726525323585,0.25728047707562246,0.11857715640937748,-0.26054271291639536,0.6125699425102004,2,left
2.511,0.6232642728953625,0.8727545605255739,0.03437537802683495,1.4074580222962843,0.6016951977580655,0.2637858514931842,0.12244695939480137,-0.25690059787927855,0.5961981432830401,2,left
2.512,0.6239958248704578,0.8720308580802858,0.032882436079711995,1.4134150989022802,0.5828057901855093,0.26985316667919884,0.12619523740451358,-0.2533220795463641,0.5795052259440678,2,left
2.516,0.6245900964366388,0.8713842275387286,0.0314083120175044,1.4201909546357554,0.5635570696108639,0.2754702360060114,0.12982166661029468,-0.24980541586406826,0.5625069889374343,2,left
2.517,0.6250461493115947,0.8708141680364361,0.029954096026328637,1.4277787309329086,0.5440002584935291,0.280626104235508,0.1333260189862938,-0.24634886610458304,0.5452191855059627,2,left
2.523,0.62536319494957,0.8703200781368535,0.028520841874744126,1.4361698694589025,0.5241850197630266,0.28531106876777923,0.13670816223362114,-0.242950689904324,0.5276575123060164,2,left
2.523,0.6255405943747029,0.8699012589393893,0.027109565655943482,1.445354130563912,0.5041593279910781,0.28951669663246227,0.13996805950077604,-0.23960914676187298,0.5098375985514956,2,left
2.528,0.6255778575766993,0.8695569176156869,0.025721244485683203,1.4553196144857423,0.4839693538727868,0.2932358372375533,0.1431057689099766,-0.2363224959854826,0.4917749956373328,2,left
2.529,0.6254746424411788,0.8692861712483724,0.02435681518245232,1.4660527853230967,0.4636593619601032,0.2964626308891304,0.14612144289910758,-0.2330889970803767,0.4734851671920703,2,left
2.532,0.6252307531907533,0.8690880508546872,0.02301717295639001,1.477538497805848,0.4432716215901476,0.29919251309405265,0.14901532738865098,-0.22990691056624343,0.4549834795083621,2,left
2.533,0.6248461383194327,0.8689615054884111,0.021703170130750626,1.4897600268909192,0.4228463309504816,0.30142221465630814,0.15178776078261338,-0.2267744992154759,0.4362851922995442,2,left
2.535,0.6243208880120954,0.8689054063288975,0.020415614915761375,1.5026991002145726,0.4024215542230764,0.30314975757626944,0.15443917281211433,-0.22369002970286733,0.4174054497297643,2,left
2.536,0.6236552310505962,0.8689185506857893,0.019155270250408,1.5163359334340618,0.3820331717484953,0.30437444676069253,0.15697008322994943,-0.22065177465761554,0.39835927166455365,2,left
2.541,0.6228495312169313,0.8689996658703907,0.017922852724148477,1.5306492684937258,0.3617148431516953,0.3050968575498601,0.15938110036409345,-0.2176580151086351,0.3791615450881591,2,left
2.542,0.6219042832112839,0.8691474129080097,0.01671903158933354,1.5456164148526446,0.3414979833708512,0.30531881906683,0.16167291953776178,-0.2147070433143121,0.35982701563342945,2,left
2.546,0.6208201081094048,0.8693603900881184,0.015544427876384726,1.5612132937129877,0.32141175153070406,0.3050433933923093,0.16384632136330185,-0.21179716596796944,0.3403702791695755,2,left
2.5469999999999997,0.619597748390698,0.8696371363686404,0.014399613625167115,1.5774144852901293,0.30148305260213204,0.30427485056723197,0.16590216991684237,-0.2089267077704394,0.3208057733926846,2,left
2.551,0.6182380625757673,0.8699761346646226,0.01328511124510626,1.5941932791674687,0.2817365517899292,0.3030186394236855,0.1678414108002857,-0.20609401536126207,0.3011477693634782,2,left
2.552,0.6167420195192688,0.8703758150586083,0.01220139301360362,1.611521727780712,0.2621947015911478,0.30128135424340347,0.16966506909688894,-0.20329746160014686,0.2814103629364498,2,left
2.555,0.6151106924102412,0.8708345579710509,0.01114888071921662,1.6293707030780944,0.2428777814668079,0.29907069724162855,0.17137424722634173,-0.20053545019044736,0.2616074660242104,2,left
2.556,0.6133452525373341,0.871350697326773,0.01012794545505685,1.647709956404691,0.22380395007029452,0.2963954368727516,0.17297012270491366,-0.19780642063650838,0.2417527976405998,2,left
2.5610000000000004,0.6114469628784494,0.8719225237495617,0.009138907569689736,1.6665081816605252,0.2049893099763498,0.2932653619527519,0.17445394581682858,-0.19510885351788462,0.22185987469056187,2,left
2.562,0.6094171715696126,0.8725482878111008,0.008182036785772425,1.6857330817836875,0.18644798485520545,0.2896912315921072,0.1758270372072722,-0.19244127601870958,0.20194200259794434,2,left
2.563,0.6072573052974584,0.873226203352972,0.007257552498296672,1.7053514386110884,0.16819220903709667,0.28568472093150926,0.17709078541535536,-0.1898022675699144,0.18201226608425736,2,left
2.565,0.6049688626531841,0.8739544508944412,0.006365624264884497,1.7253291861707662,0.15023242941313847,0.2812583626714167,0.1782466443696127,-0.18719046541726791,0.16208352053466543,2,left
2.5660000000000003,0.6025534074899002,0.8747311811356107,0.005506372501444059,1.7456314874609165,0.13257741961932676,0.27642548438520176,0.17929613086371865,-0.184604569973114,0.14216838426406567,2,left
2.5660000000000003,0.6000125623326412,0.8755545185630043,0.004679869395535891,1.766222814672765,0.11523440615616781,0.27120014171517964,0.18024082202154898,-0.18204334989043872,0.1222792317740452,2,left
2.572,0.5973480018896362,0.8764225651609349,0.003886140044623379,1.787067032319683,0.09820920462191392,0.2655970481034585,0.18108235275582735,-0.17950564684279816,0.10242818796816426,2,left
2.573,0.5945614467049583,0.8773334042271203,0.0031251638189027237,1.8081274818434723,0.08150636158258329,0.25963150270531854,0.18182241322337475,-0.17699038000267578,0.08262712326838072,2,left
2.575,0.5916546569873159,0.8782851042841611,0.002396875940767737,1.829367065773816,0.06512929612746231,0.25331931868555707,0.18246274627967943,-0.1744965502109088,0.06288764957550635,2,left
2.576,0.588629426654076,0.8792757230694447,0.0017011692645618284,1.85074833001338,0.04908043663507182,0.24667675354329863,0.18300514493520867,-0.17202324382989093,0.04322111701669308,2,left
2.5789999999999997,0.585487577636825,0.8803033115772371,0.001037896232364779,1.872233543714063,0.033361350931174406,0.23972044211279142,0.18345144981559178,-0.16956963627332425,0.023638611423091403,2,left
2.58,0.5822309544960409,0.8813659181196516,0.00040687097832962016,1.8937847767061746,0.017972869496706203,0.23246733233286312,0.18380354662751783,-0.16713499520535355,0.00415095248099915,2,left
2.585,0.5788614193886086,0.8824615923668541,-0.00019212844323608747,1.9153639745418842,0.0029152016795327197,0.22493462376598913,0.18406336363191028,-0.16471868340197665,-0.015231307499972384,2,left
2.585,0.5753808474282084,0.8835883893213868,-0.0007593577262640564,1.93693303121458,-0.011811955135126218,0.21713970884702608,0.18423286912566456,-0.16232016126768029,-0.0344978842579468,2,left
2.591,0.5717911224766208,0.8847443731784239,-0.00129510389590119,1.9584538596159655,-0.026209313439808944,0.20910011684081176,0.1843140689329646,-0.15993898900030634,-0.05363876174500565,2,left
2.591,0.5680941334022286,0.8859276210231115,-0.0017996828252587395,1.979888459792805,-0.04027790064871914,0.20083346048702902,0.1843090039069283,-0.15757482839720555,-0.07264419184424403,2,left
2.596,0.564291770839435,0.8871362263168332,-0.00227343670831134,2.001198985065197,-0.05401897131273631,0.19235738530997873,0.184219747442074,-0.15522744429578755,-0.09150469369298496,2,left
2.596,0.5603859244797798,0.8883683021268567,-0.002716731516416568,2.022347806068119,-0.06743392654689162,0.1836895215702046,0.18404840299784486,-0.15289670564162625,-0.11021105266711806,2,left
2.6,0.5563784809225265,0.8896219840602276,-0.0031299544721292713,2.0432975727777327,-0.080524240710727,0.1748474388342592,0.18379710163318128,-0.15058258617732811,-0.12875431908113982,2,left
2.6010000000000004,0.5522713221082418,0.8908954328736568,-0.003513511578183076,2.064011274583597,-0.09329139538101486,0.16584860313830022,0.18346799955189,-0.14828516474541992,-0.1471258066580567,2,left
2.605,0.5480663243516347,0.8921868367453855,-0.0038678252392130505,2.084452298467454,-0.10573682065537922,0.15671033672065418,0.18306327565832156,-0.14600462519856017,-0.16531709082286994,2,left
2.6060000000000003,0.5437653579793477,0.8934944132103833,-0.004193332009766129,2.1045844853486977,-0.11786184382442651,0.14744978029798395,0.1825851291226393,-0.14374125591042658,-0.18332000687289385,2,left
2.609,0.539370287565287,0.8948164107743405,-0.004490480496629459,2.12437218465595,-0.12966764544906548,0.13808385785924662,0.1820357769547387,-0.14149544888068008,-0.20112664807766512,2,left
2.61,0.5348829727411223,0.8961511102331231,-0.004759729438521233,2.1437803071833827,-0.14115522287877166,0.12862924395122657,0.1814174515856595,-0.1392676984274546,-0.21872936376068453,2,left
2.615,0.5303052695442355,0.8974968257316712,-0.005001545982474552,2.1627743762895553,-0.15232536124563073,0.11910233342907696,0.18073239845512212,-0.1370585994608715,-0.2361207574146919,2,left
2.616,0.5256390322532447,0.898851905599383,-0.005216404171652305,2.1813205774955216,-0.16317861196807795,0.10951921364499992,0.179982873603614,-0.13486884533112803,-0.2532936849016112,2,left
2.6189999999999998,0.5208861156549162,0.9002147329988801,-0.00540478365155741,2.1993858065378995,-0.17371527879733586,0.09989563904794016,0.17917114126725545,-0.13269922524476124,-0.2702412527877176,2,left
2.62,0.5160483776847425,0.901583726423992,-0.005567168592403007,2.2169377159313886,-0.18393541143864067,0.09024700816695838,0.17829947147348135,-0.13055062124274308,-0.2869568168639725,2,left
2.6239999999999997,0.5111276823842773,0.9029573400826236,-0.005704046818067164,2.2339447600939444,-0.19383880677843615,0.08058834295078847,0.1773701376353906,-0.1284240047341173,-0.30343398090084445,2,left
2.625,0.5061259031202309,0.9043340642007826,-0.005815909127110407,2.250376239086435,-0.20342501774780422,0.07093427043596597,0.17638541414243622,-0.12632043257894762,-0.31966659568628764,2,left
2.6289999999999996,0.5010449260129091,0.9057124252833655,-0.005903248788068274,2.2662023410171366,-0.21269336985149165,0.061299006715842,0.17534757394709782,-0.12424104272449284,-0.3356487583783835,2,left
2.63,0.4958866535257346,0.9070909863629975,-0.005966561190112009,2.281394183159856,-0.22164298539098162,0.05169634318276754,0.17425888615771895,-0.12218704944901793,-0.3513748121209646,2,left
2.6310000000000002,0.4906530081737876,0.9084683472612896,-0.0060063436309155446,2.2959238518328178,-0.23027281540914749,0.04213963501574497,0.17312161366680018,-0.1201597383584902,-0.36683934572133675,2,left
2.634,0.48534593631418116,0.9098431448820147,-0.006023095224214684,2.3097644410468563,-0.2385816792129833,0.03264179186803226,0.17193801085459468,-0.1181604613319095,-0.38203719310599343,2,left
2.634,0.479967411982609,0.9112140535547207,-0.0060173169102609,2.3228900897452656,-0.24656831047934719,0.02321527061995392,0.17071032139699852,-0.11619063156066448,-0.39696343235198495,2,left
2.635,0.47451944074191654,0.9125797854471002,-0.0059895115548316506,2.3352760171239515,-0.2542314074165761,0.013872069901520316,0.16944077618732087,-0.11425171873660987,-0.41161338423935423,2,left
2.639,0.46900406351098534,0.9139390910637225,-0.005940184124771975,2.3468985553341883,-0.2615696836032649,0.004623726000301252,0.1681315913706797,-0.11234524439321027,-0.4259826103517877,2,left
2.64,0.463423360342024,0.9152907598487141,-0.00586984192837686,2.3577351790525958,-0.2685819169752199,-0.004518690140472414,0.1667849664875006,-0.1104727773940949,-0.44006691076835086,2,left
2.6430000000000002,0.45777945411163723,0.9166336209094198,-0.005778994909708998,2.3677645317326386,-0.2752669959618275,-0.013544574967583664,0.16540308272247647,-0.10863592956345666,-0.453862321388384,2,left
2.6439999999999997,0.45207451408930166,0.91796654387579,-0.005668155987415319,2.3769664485341244,-0.2816239626227863,-0.02244379345168972,0.1639881012552325,-0.10683635145282198,-0.46736511093082755,2,left
2.648,0.4463107593475529,0.9192884399073931,-0.005537841427212225,2.385321975961789,-0.2876520528053445,-0.031206679335608806,0.1625421617088319,-0.10507572823881595,-0.48057177764843023,2,left
2.6489999999999996,0.44049046198101716,0.9205982628569149,-0.005388571232989547,2.3928133882417275,-0.29335073334124695,-0.03982403452294042,0.16106738069215773,-0.1033557757466493,-0.49347904579646135,2,left
2.654,0.43461595010576126,0.9218950105948742,-0.005220869538580051,2.399424200462071,-0.298719736301649,-0.048287127632563376,0.15956585043211022,-0.10167823659416143,-0.5060838618947094,2,left
2.654,0.42868961061509203,0.9231777264949496,-0.005035264983855118,2.405139178501874,-0.30375909032731585,-0.05658769174416521,0.15803963749147065,-0.10004487645136526,-0.518383390820701,2,left
2.658,0.42271389167195766,0.9244455010725563,-0.0048322910650369305,2.409944345769693,-0.3084691490504761,-0.06471792135953955,0.15649078156819946,-0.09845748041055649,-0.5303750117712102,2,left
2.659,0.4166913049210699,0.9256974737607581,-0.004612486456430374,2.413826986770826,-0.312850616623754,-0.07267046860394577,0.15492129437185953,-0.09691784946217236,-0.5420563141282644,2,left
2.6630000000000003,0.41062442740545174,0.9269328347985314,-0.0043763953047707685,2.4167756475195827,-0.3169045703706577,-0.08043843869135953,0.15333315857278484,-0.09542779707171112,-0.5534250932649732,2,left
2.6639999999999997,0.404515903172853,0.9281508271989901,-0.00412456749740991,2.4187801328103795,-0.3206324805711553,-0.08801538467695422,0.15172832681954904,-0.09398914585315629,-0.5644793463256249,2,left
2.668,0.398368444558742,0.9293507487601632,-0.0038575589036473333,2.419831500358776,-0.32403622739492843,-0.09539530151964415,0.15010872082022986,-0.09260372433448649,-0.5752172680136011,2,left
2.668,0.39218483313412345,0.9305319540773512,-0.003575931586307857,2.4199220518209095,-0.3271181149939526,-0.10257261947699071,0.14847623048291106,-0.09127336381099405,-0.5856372464197673,2,left
2.673,0.38596792030710986,0.9316938565128623,-0.003280253979570964,2.419045320697063,-0.32988088276511685,-0.1095421968542253,0.14683271311081586,-0.08999989528228385,-0.59573785892309,2,left
2.674,0.3797206275681587,0.9328359300761447,-0.0029711010297276542,2.4171960571223705,-0.33232771379266646,-0.11629931212857733,0.14517999264742304,-0.08878514646897621,-0.6055178681943229,2,left
2.679,0.37344594637151934,0.9339577111660136,-0.0026490542982050697,2.414370209544907,-0.33446224047932777,-0.12283965546951517,0.14351985896688033,-0.08763093890529591,-0.6149762183326956,2,left
2.68,0.36714693764818046,0.9350588001278551,-0.002314702031608084,2.410564903288632,-0.3362885473740589,-0.12915931967491096,0.14185406720499752,-0.08653908510389305,-0.6241120311646164,2,left
2.6830000000000003,0.3608267309468701,0.9361388625825124,-0.001968639210234759,2.4057784159958646,-0.337811171203463,-0.135254790542532,0.14018433712607528,-0.08551138578941006,-0.632924602732484,2,left
2.6839999999999997,0.354488523200342,0.937197630488954,-0.001611467590278475,2.400010149941171,-0.3390350981130048,-0.14112293669563863,0.13851235252080404,-0.084549627197483,-0.6414134000007743,2,left
2.687,0.3481355771163212,0.9382349029087861,-0.0012437957533186722,2.393260601205721,-0.33996575812328705,-0.14676099888083577,0.13683976063045192,-0.08365557843604432,-0.6495780578056508,2,left
2.688,0.3417712191969763,0.9392505464477567,-0.0008662391716771526,2.3855313256983695,-0.34060901680577116,-0.15216657875568204,0.13516817159254804,-0.08283098890597873,-0.6574183760734081,2,left
2.693,0.3353988373962091,0.940244495358264,-0.0004794202935796355,2.3768249020068892,-0.3409711641814702,-0.1573376271829082,0.1334991579032621,-0.08207758577837314,-0.6649343173321377,2,left
2.693,0.32902187842815594,0.9412167512960681,-8.396864962619716e-05,2.367144891059969,-0.3410589008453001,-0.1622724320474363,0.13183425389167822,-0.08139707152579595,-0.6721260045400682,2,left
2.698,0.3226438447424594,0.9421673827320677,0.00031947901945785076,2.3564957925777796,-0.3408793213179508,-0.16696960561172405,0.13017495520116493,-0.08079112150524076,-0.6789937192531046,2,left
2.698,0.31626829118218414,0.9430965240261684,0.0007302786161304041,2.344882998286103,-0.34043989462633184,-0.17142807142428554,0.1285227182747331,-0.08026138158741358,-0.685537900142788,2,left
2.699,0.309898821337414,0.9440043741748133,0.001147778525166301,2.332312741866228,-0.3397484421128603,-0.17564705079556178,0.12687895984970124,-0.07980946581145246,-0.6917591418231253,2,left
2.7030000000000003,0.3035390836020202,0.9448911952462025,0.0015713194445364125,2.318792045610028,-0.3388131124730902,-0.17962604885463276,0.1252450564821537,-0.07943695401594196,-0.6976581938504847,2,left
2.7030000000000003,0.29719276693741814,0.9457573105192421,0.0020002342144804734,2.3043286638644376,-0.3376423540784501,-0.1833648402134243,0.12362234413011322,-0.07914538938150428,-0.703235959707986,2,left
2.705,0.29086359634731324,0.9466031023447203,0.002433847651905586,2.2889310239345697,-0.3362448849301875,-0.18686345433361357,0.12201211781595689,-0.07893627583627193,-0.7084934956367247,2,left
2.707,0.28455532806830885,0.9474290097486457,0.0028714763965684243,2.2726081661700235,-0.3346296611120195,-0.19012216081537592,0.12041563137348477,-0.07881107530421508,-0.7134320092685669,2,left
2.708,0.2782717444827773,0.9482355257992786,0.0033124287722064417,2.2553696855439975,-0.33280584489837195,-0.1931414548956627,0.11883409727666493,-0.07877120479232944,-0.718052858066171,2,left
2.7119999999999997,0.27201664876553033,0.9490231947629382,0.0037560046614743122,2.2372256764443583,-0.3307827733843789,-0.19592204337377336,0.11726868654543228,-0.07881803331608678,-0.7223575475853451,2,left
2.713,0.2657938592834809,0.9497926090763118,0.004201495391371857,2.2181866813351445,-0.3285699279810912,-0.19846483105666926,0.11572052872395734,-0.07895287866279174,-0.7263477295739256,2,left
2.719,0.259607203775189,0.9505444061623319,0.00464818362798687,2.198263643356559,-0.32617690482868517,-0.20077090774655174,0.11419071192684419,-0.07917700399273325,-0.7300251999204591,2,left
2.72,0.2534605133447437,0.9512792651145232,0.005095343284846445,2.177467862811354,-0.3236133861218807,-0.20284153577869432,0.11268028294876302,-0.07949161427826786,-0.7333918964650544,2,left
2.722,0.2473576163114186,0.9519979032728229,0.005542239453978743,2.1558109574829376,-0.32088911234123196,-0.20467813811683605,0.11119024743307226,-0.07989785258122513,-0.7364498966838722,2,left
2.7230000000000003,0.2413023319604546,0.9527010727127435,0.00598812837023592,2.1333048267279877,-0.3180138553834377,-0.20628228701276355,0.10972157009503757,-0.08039679616928162,-0.7392014152578209,2,left
2.7310000000000003,0.23529846423776016,0.9533895566699805,0.006432257419057674,2.1099616192838644,-0.3149973925833271,-0.20765569323603303,0.10827517499531106,-0.0809894524722095,-0.7416488015351348,2,left
2.7310000000000003,0.22934979542172299,0.9540641659239186,0.0068738651979125,2.085793704728625,-0.3118494816197167,-0.20880019587911203,0.10685194585939219,-0.0816767548791693,-0.7437945368966254,2,left
2.7319999999999998,0.22346007979310153,0.9547257351644962,0.0073121816419425435,2.060813648529023,-0.3085798362968993,-0.20971775274255236,0.10545272643885328,-0.08245955837848232,-0.7456412320315134,2,left
2.7319999999999998,0.2176330373147979,0.9553751193660267,0.007746428224319434,2.0350341906094456,-0.30519810319312024,-0.21041043130414405,0.10407832091017641,-0.08333863504158713,-0.7471916241308775,2,left
2.738,0.21187234733020568,0.9560131901876672,0.00817581824190545,2.0084682273724037,-0.30171383916701944,-0.2108804002753425,0.1027294943071149,-0.08431466935315649,-0.748448574004891,2,left
2.738,0.20618164229143218,0.9566408324128347,0.008599557197249306,1.9811287970988298,-0.29813648971266626,-0.2111299217476086,0.10140697298256161,-0.0853882533896251,-0.7494150631291566,2,left
2.74,0.2005645015346649,0.9572589404307265,0.009016843288504172,1.953029068654159,-0.2944753681534936,-0.2111613439306569,0.10011144509597751,-0.08655988184865508,-0.7500941906245988,2,left
2.741,0.1950244451269471,0.9578684147556843,0.009426868018060565,1.9241823334239017,-0.29073963566514216,-0.2109770944839662,0.09884356112250693,-0.08782994693234435,-0.750489170174532,2,left
2.7460000000000004,0.1895649278144487,0.9584701585769702,0.00982881692597535,1.8946020004002009,-0.28693828211695777,-0.2105796744422755,0.09760393437998205,-0.08919873308726296,-0.750603326881688,2,left
2.7460000000000004,0.1841893331041861,0.9590650743335866,0.010221870445802968,1.8643015943386754,-0.283080107721645,-0.20997165273515941,0.09639314157009617,-0.09066641160468408,-0.7504400940671592,2,left
2.7510000000000003,0.17890096750751847,0.9596540603161651,0.010605204872603826,1.833294756902712,-0.27917370548236303,-0.20915566130016047,0.09521172333010482,-0.09223303508465888,-0.7500030100124003,2,left
2.7510000000000003,0.1737030549658958,0.9602380073096134,0.010977993429227902,1.80159525071026,-0.2752274444263642,-0.208134390788341,0.09406018479149487,-0.09389853176786771,-0.7492957146446236,2,left
2.7560000000000002,0.1685987314697443,0.960817795303473,0.011339407415810361,1.7692169661961077,-0.271249453614109,-0.20691058686051436,0.09293899614214447,-0.09566269973946395,-0.7483219461651271,2,left
2.7560000000000002,0.16359103987213272,0.9613942903079673,0.011688617425749712,1.7361739312006028,-0.2672476069126541,-0.20548704707181678,0.09184859318858103,-0.097525201009411,-0.747085537619306,2,left
2.761,0.15868292489226707,0.9619683413191423,0.012024794610187831,1.7024803231937766,-0.2632295085219943,-0.20386661834169242,0.09078937791503015,-0.09948555547409636,-0.745590413406326,2,left
2.762,0.15387722830257808,0.962540777474799,0.012347111975433802,1.6681504840418913,-0.25920247924294715,-0.20205219500578098,0.08976171903603564,-0.10154313476429006,-0.7438405857256686,2,left
2.766,0.14917668429732525,0.9631124054348297,0.012654745704745198,1.6331989372215163,-0.2551735434751014,-0.2000467174456258,0.08876595253984218,-0.10369715599517014,-0.7418401509606388,2,left
2.767,0.14458391504599052,0.963684007007926,0.012946876504524085,1.5976404073843702,-0.2511494169333008,-0.19785317129155275,0.08780238222143771,-0.10594667548628511,-0.739593286016367,2,left
2.7680000000000002,0.14010142643723233,0.964256337034946,0.013222690981274201,1.5614898421743415,-0.24713649507111102,-0.19547458719351404,0.0868712802071518,-0.10829058261296125,-0.7371042446618207,2,left
2.773,0.1357316040206803,0.9648301215290899,0.013481383058711728,1.524762436196313,-0.24314084219970933,-0.19291404115414254,0.08597288747441362,-0.11072759400280614,-0.7343773539428078,2,left
2.773,0.13147670915857249,0.9654060560643166,0.013722155446258369,1.4874736570346718,-0.23916818129065068,-0.1901746554177211,0.08510741436874998,-0.11325624823936693,-0.7314170107140596,2,left
2.7739999999999996,0.12733887540601285,0.9659848043967556,0.013944221170955888,1.4496392731673355,-0.235223884458725,-0.18725959990142757,0.08427504111728826,-0.11587490114191386,-0.7282276783050698,2,left
2.775,0.12332010514191226,0.9665669973008798,0.014146805182902351,1.4112753833677263,-0.2313129641598159,-0.18417209412062271,0.08347591833650667,-0.11858172163871983,-0.7248138833155007,2,left
2.7760000000000002,0.11942226647063643,0.9671532316026816,0.014329146039788198,1.3723984467323729,-0.22744006520830184,-0.1809154094981129,0.08271016753174627,-0.12137468824109661,-0.7211802125316609,2,left
2.78,0.11564709041210328,0.9677440693924529,0.014490497670943991,1.3330253122184947,-0.22360945775726873,-0.17749287191274438,0.08197788158609387,-0.12425158612570664,-0.7173313099549031,2,left
2.78,0.11199616839926689,0.968340037397876,0.0146301312169062,1.2931732468261687,-0.2198250313462503,-0.17390786437626027,0.08127912523634014,-0.12721000483292186,-0.7132718739321446,2,left
2.786,0.10847095010214214,0.9689416264967798,0.014747336936894345,1.2528599620113288,-0.21609029005175687,-0.17016382978818984,0.08061393553381366,-0.13024733658924834,-0.7090066543780815,2,left
2.786,0.10507274159198655,0.969549291350374,0.014841426173017865,1.2121036381661814,-0.21240834873732545,-0.16626427375213054,0.0799823222879873,-0.13336077526207588,-0.7045404500780517,2,left
2.79,0.10180270385028604,0.9701634501405597,0.01491173335710055,1.1709229470525893,-0.20878193039222734,-0.16221276744313215,0.07938426849084954,-0.13654731595524588,-0.6998781060598928,2,left
2.79,0.09866185162014525,0.9707844843972208,0.014957618046062634,1.1293370720726534,-0.20521336454811126,-0.15801295051543476,0.07881973072012996,-0.13980375525415706,-0.6950245110225535,2,left
2.7960000000000003,0.09565105259564612,0.9714127389019372,0.014978466975190586,1.0873657262594534,-0.20170458676301042,-0.15366853403936603,0.0782886395195644,-0.14312669212934626,-0.6899845948086395,2,left
2.7969999999999997,0.09277102694670025,0.9720485216520894,0.014973696122147315,1.045029167869683,-0.19825713916230053,-0.1491833034557665,0.07779089975448152,-0.1465125295076916,-0.6847633259075092,2,left
2.799,0.09002234717976854,0.9726921038650069,0.014942752774891342,1.0023482134587616,-0.19487217202636187,-0.14456112153588596,0.07732639094108894,-0.14995747652058586,-0.6793657089749874,2,left
2.8,0.087405438336515,0.9733437199998745,0.01488511759262927,0.9593442483178901,-0.19155044641486868,-0.13980593133427896,0.07689496754793325,-0.15345755143861772,-0.6737967823552304,2,left
2.8080000000000003,0.08492057853104146,0.9740035677791461,0.014800306641333819,0.9160392341514767,-0.18829233781780474,-0.13492175912182258,0.07649645926810338,-0.15700858530247994,-0.6680616155897527,2,left
2.8080000000000003,0.08256789982031675,0.9746718082002109,0.01468787337715564,0.8724557138723654,-0.18509784082348285,-0.129912717285587,0.07613067126084291,-0.16060622625999169,-0.6621653068981198,2,left
2.81,0.08034738939440332,0.9753485655377747,0.014547410546671464,0.8286168133913767,-0.18196657479402645,-0.12478300718190691,0.07579738436133146,-0.16424594461928133,-0.6561129806143221,2,left
2.81,0.07825889106847161,0.9760339273451886,0.014378551975948202,0.7845462402768063,-0.17889779053895374,-0.11953692192863158,0.07549635525748995,-0.16792303862832092,-0.6499097845623635,2,left
2.8139999999999996,0.0763021070602426,0.9767279444675379,0.014180974230737095,0.7402682791587255,-0.17589037797768656,-0.11417884912217356,0.07522731663275842,-0.17163264099113842,-0.6435608873541369,2,left
2.815,0.07447660004244357,0.977430631079599,0.013954398142527875,0.6958077837521988,-0.17294287478198703,-0.10871327346462825,0.07498997727388856,-0.17536972613115298,-0.6370714755922124,2,left
2.82,0.07278179546502227,0.9781419647586282,0.013698590202854402,0.6511901653728681,-0.17005347598950393,-0.10314477928590361,0.07478402214288546,-0.17912911821218594,-0.630446750959729,2,left
2.82,0.07121698414260108,0.978861886598225,0.013413363828165294,0.6064413778177566,-0.167220044579786,-0.09747805294547737,0.07460911241232511,-0.18290549992779392,-0.6236919271791602,2,left
2.825,0.06978132509938086,0.9795903013674325,0.013098580491582796,0.561587898483625,-0.16444012300429095,-0.09171788509809038,0.0744648854633652,-0.18669342206964834,-0.6168122268213262,2,left
2.825,0.06847384865835608,0.9803270777193732,0.012754150710324683,0.5166567055947612,-0.1617109456620852,-0.08586917280738926,0.07435095484585681,-0.1904873138857494,-0.6098128779456288,2,left
2.8289999999999997,0.0672934597557831,0.9810720484551705,0.01238003487326917,0.47167525141170985,-0.1590294523130894,-0.07993692149124995,0.07426691020005376,-0.1942814942393118,-0.6026991105521181,2,left
2.8289999999999997,0.06623894145745592,0.9818250108493268,0.011976243894534803,0.4266714312921466,-0.15639230242087754,-0.07392624668224507,0.07421231713950437,-0.19807018357919115,-0.595476152825638,2,left
2.8339999999999996,0.06530895865267514,0.9825857270407065,0.011542839684235173,0.3816735484748819,-0.15379589041718292,-0.06784237558646421,0.07418671709621158,-0.20184751671209086,-0.5881492271619366,2,left
2.835,0.06450206190526216,0.9833539244904286,0.011079935432986146,0.33671027445783397,-0.15123636188040104,-0.061690648423656416,0.07418962713630241,-0.20560755626354923,-0.580723546015214,2,left
2.835,0.06381669144648494,0.9841292965062909,0.010587695710495997,0.29181060484074806,-0.14870963062050513,-0.05547651953143894,0.07422053976725768,-0.2093443065288618,-0.5732043076961107,2,left
2.841,0.06325118129881807,0.984911502832217,0.010066336381545159,0.24700381062145935,-0.14621139664380853,-0.049205558214952844,0.07427892276490637,-0.21305172731182218,-0.5655966922987538,2,left
2.841,0.06280376352068805,0.9857001703000738,0.009516124345216913,0.20231938552460574,-0.14373716487561702,-0.042883449317383596,0.07436421904140021,-0.21672374745235326,-0.5579058578852811,2,left
2.842,0.062472572562677096,0.986494893540735,0.008937377103851965,0.1577869910038998,-0.14128226434701516,-0.036515993476203254,0.07447584656273994,-0.22035427792986376,-0.5501369369661514,2,left
2.844,0.06225564972624067,0.987295235751357,0.008330462166190699,0.11343640114934528,-0.13884186745661659,-0.03010910702406009,0.07461319831743367,-0.2239372245323195,-0.5422950332643787,2,left
2.845,0.06215094771541697,0.988100729515873,0.007695796285784934,0.06929744914112626,-0.1364110090136728,-0.02366882149886265,0.07477564233653114,-0.2274665001015657,-0.5343852187416084,2,left
2.8489999999999998,0.06215633526903722,0.9889108776754517,0.0070338445331161415,0.025399975830315596,-0.1339846049408823,-0.01720128273785761,0.07496252176535317,-0.230936036365316,-0.5264125308637284,2,left
2.8489999999999998,0.06226960185646582,0.9897251542445449,0.006345119200184725,-0.01822621956293893,-0.13155747061077938,-0.010712749536155402,0.07517315498730953,-0.23433979536608862,-0.5183819700834984,2,left
2.8539999999999996,0.06248846241635268,0.9905430053660613,0.005630178539841801,-0.061551426760485604,-0.12912433880870927,-0.004209591851215749,0.07540683580027054,-0.23767178049721463,-0.5102984975174851,2,left
2.855,0.06281056211727143,0.9913638502966768,0.00488962534634775,-0.10454606987253857,-0.12667987731540703,0.0023017114652729752,0.07566283364602765,-0.24092604715587285,-0.502167032794411,2,left
2.858,0.06323348112162186,0.9921870824103133,0.004124105387111037,-0.1471807511046089,-0.12421870610219701,0.008814575426746655,0.07594039389344676,-0.24409671302291588,-0.49399245205185743,2,left
2.859,0.06375473933848204,0.9930120702051012,0.0033343056998530454,-0.189426292849395,-0.1217354141318115,0.015322312181018491,0.07623873817598392,-0.2471779679790476,-0.4857795860581112,2,left
2.864,0.06437180115539591,0.9938381582991566,0.0025209527755789695,-0.23125377828708107,-0.11922457575779462,0.021818134808123266,0.07655706478429716,-0.2501640836666868,-0.477533218435806,2,left
2.865,0.06508208014234752,0.9946646684049401,0.0016848106531662703,-0.2726345906164592,-0.11668076671540951,0.028295161665448123,0.07689454911475012,-0.2530494227066137,-0.46925808396388463,2,left
2.8680000000000003,0.06588294372317026,0.9954909002795673,0.0008266789528431515,-0.31354045103817285,-0.11409857969690344,0.03474642129883024,0.07725034417466291,-0.2558284475782383,-0.46095886693430027,2,left
2.8680000000000003,0.06677171780984242,0.9963161326567458,-5.2609127272393746e-05,-0.3539434556101786,-0.11147263950390612,0.041164857938267366,0.0776235811452228,-0.25849572917205704,-0.45264019953977636,2,left
2.8739999999999997,0.06774569139352585,0.9971396241732271,-0.0009521888342950258,-0.3938161110942429,-0.10879761776964181,0.04754333759683292,0.07801337000302255,-0.26104595502257427,-0.4443066602688629,2,left
2.875,0.0688021210842601,0.9979606143073193,-0.0018711658959443627,-0.43313136991092366,-0.10606824724352583,0.05387465479131321,0.07841880020124638,-0.2634739372296605,-0.43596277228445873,2,left
2.8789999999999996,0.06993823559053032,0.9987783243482028,-0.002808618571009936,-0.4718626643190456,-0.10327933563059027,0.060151539902989964,0.07883894141157408,-0.2657746200759982,-0.4276130017619113,2,left
2.8789999999999996,0.07115124013097042,0.9995919584128979,-0.0037635997242689814,-0.5099839399341543,-0.10042577897804303,0.06636666719687616,0.07927284432792103,-0.2679430873479304,-0.41926175616276345,2,left
2.885,0.07243832077257194,1.0004007045239245,-0.004735138936448938,-0.5474696886988334,-0.09750257460110816,0.07251266351757789,0.07971954153317674,-0.2699745693666757,-0.4109133824201888,2,left
2.885,0.0737966486919187,1.0012037357564059,-0.005722244658528469,-0.5842949814160951,-0.09450483354012486,0.07858211767979806,0.0801780484301468,-0.271864449736509,-0.4025721650121371,2,left
2.888,0.07522338435813666,1.0020002114599253,-0.006723906418396956,-0.6204354999552999,-0.09142779254069666,0.08456759057132068,0.08064736423794273,-0.2736082718161263,-0.39424232389820746,2,left
2.889,0.07671568163892951,1.0027892785583572,-0.007739097085718098,-0.6558675692382385,-0.08826682554848275,0.09046162598611535,0.08112647305510093,-0.2752017449190201,-0.3859280122962776,2,left
2.8930000000000002,0.07827069183325042,1.0035700729301273,-0.008766775197103947,-0.6905681891111136,-0.0850174547100096,0.096256762204982,0.08161434499074549,-0.27664075024828483,-0.3776333142749352,2,left
2.8939999999999997,0.07988556763371944,1.0043417208724847,-0.009805887340407963,-0.7245150662061917,-0.08167536087065329,0.10194554434091467,0.08210993736514118,-0.2779213465708524,-0.369362242137791,2,left
2.897,0.08155746701788764,1.0051033406564454,-0.010855370594749187,-0.7576866458948629,-0.07823639356070229,0.10752053746609984,0.08261219598101045,-0.27903977563572663,-0.3611187335757983,2,left
2.898,0.08328355706065341,1.0058540441816555,-0.011914155019131475,-0.7900621444317468,-0.0746965804601568,0.11297434053718143,0.08312005646701402,-0.27999246734034255,-0.3529066485637573,2,left
2.903,0.08506101765235057,1.0065929387397483,-0.012981166175049647,-0.8216215813873164,-0.0710521363326548,0.11829960113511871,0.08363244569481629,-0.2807760446487203,-0.34472976597725435,2,left
2.903,0.08688704510105535,1.007319128890528,-0.01405532765936518,-0.8523458124642916,-0.06729947141863694,0.1234890310356367,0.08414828326894083,-0.2813873282632148,-0.3365917799200432,2,left
2.904,0.08875885559671111,1.0080317184495116,-0.015135563618396993,-0.8822165627907618,-0.06343519927757342,0.1285354226259206,0.08466648307746058,-0.2818233410441606,-0.3284962958203732,2,left
2.907,0.09067368851920231,1.0087298125806505,-0.016220801215143448,-0.911216460714094,-0.05945614407503239,0.13343166615427066,0.08518595487146212,-0.28208131215858234,-0.320446826478005,2,left
2.908,0.09262880957904548,1.00941251998514,-0.017309973025423635,-0.9393290717844498,-0.05535934734134571,0.13817076765621553,0.08570560583005668,-0.28215868093162044,-0.31244678831216915,2,left
2.908,0.0946215137854843,1.010078955173593,-0.0184020193423298,-0.9665389320151836,-0.051142074284621294,0.14274586714307969,0.086224342078894,-0.28205310038084597,-0.30449949799244114,2,left
2.912,0.09664912824408563,1.0107282408010925,-0.019495890372751172,-0.992831579172065,-0.04680181977180861,0.14715025649574007,0.08674107015025684,-0.2817624404257692,-0.29660816951150426,2,left
2.9130000000000003,0.09870901479610392,1.0113595100335284,-0.02059054831606532,-1.0181935811735519,-0.04233631405990011,0.1513773966486857,0.0872546983839913,-0.28128479077135504,-0.288775911690507,2,left
2.917,0.10079857252380815,1.011971908904908,-0.021684969321735508,-1.0426125612808494,-0.037743528302690996,0.15542093390611433,0.0877641382707609,-0.28061846346523694,-0.28100572609419106,2,left
2.918,0.10291524015655096,1.012564598622407,-0.022778145326014264,-1.0660772200866926,-0.033021679826881235,0.1592747153741385,0.08826830573910632,-0.2797619951277904,-0.2733005053331278,2,left
2.9219999999999997,0.10505649841785254,1.0131367577768549,-0.023869085767309124,-1.0885773543756818,-0.028169237164687302,0.16293280352123152,0.08876612238778396,-0.2787141488536901,-0.26566303173056827,2,left
2.923,0.10721987235156803,1.0136875844197826,-0.024956819178953513,-1.1101038729262998,-0.02318492482976586,0.16638948987851537,0.08925651666484469,-0.2774739157830338,-0.25809597633159287,2,left
2.928,0.10940293365545901,1.0142162979745872,-0.026040394659648282,-1.1306488093219915,-0.01806772782288154,0.16963930789094908,0.08973842499489865,-0.27604051633956916,-0.2506018982324302,2,left
2.928,0.11160330303670918,1.0147221409572207,-0.02711888322336817,-1.1502053318359289,-0.012816895853376335,0.17267704492991373,0.09021079285599384,-0.27441340113301177,-0.2431832442080118,2,left
2.932,0.11381865259121714,1.0152043804886528,-0.02819137903181109,-1.1687677504512781,-0.007431947262119735,0.17549775347711288,0.09067257580751503,-0.2725922515218895,-0.2358423486160293,2,left
2.9330000000000003,0.11604670820045858,1.0156623095868142,-0.029257000517407015,-1.1863315210759786,-0.0019126726312377012,0.17809676148911247,0.09112274047048517,-0.2705769798327943,-0.22858143355597074,2,left
2.9360000000000004,0.11828525193756047,1.016095248230462,-0.030314891414193936,-1.2028932470081997,0.0037408619344648205,0.18046968195123658,0.09156026546162403,-0.26836772923136637,-0.22140260926182947,2,left
2.937,0.12053212447694857,1.016502544191645,-0.03136422172251852,-1.2184506777057933,0.009528311869857801,0.18261242162891225,0.09198414228248836,-0.2659648732397798,-0.21430787470740215,2,left
2.9419999999999997,0.12278522750621641,1.0168835736376924,-0.03240418863676274,-1.2330027049101893,0.015449051571471728,0.18452118902391948,0.09239337616498451,-0.2633690148949388,-0.20729911840332144,2,left
2.943,0.125042526140901,1.0172377415083227,-0.03343401746279344,-1.2465493561723044,0.021502172195355235,0.18619250154235514,0.09278698687450855,-0.26058098554104053,-0.20037811936520486,2,left
2.947,0.1273020513401902,1.017564481678174,-0.03445296254530315,-1.2590917858251582,0.027686479847429245,0.1876231918804577,0.0931640094719289,-0.25760184324960184,-0.19354654823254308,2,left
2.947,0.12956190231387532,1.0178632569195143,-0.03546030821561822,-1.270632263444997,0.03400049418334434,0.18881041363376871,0.09352349503558546,-0.25443287085949523,-0.18680596851819645,2,left
2.952,0.13182024890042054,1.0181335586846405,-0.03645536975999129,-1.2811741598398458,0.0404424474352278,0.18975164613442563,0.09386451134443373,-0.2510755736289865,-0.18015783796862148,2,left
2.9530000000000003,0.13407533388645768,1.0183749067331431,-0.03743749440119938,-1.2907219306015267,0.047010283883083,0.1904446985206897,0.0941861435234149,-0.24753167649121938,-0.17360351001520574,2,left
2.9560000000000004,0.13632547523079805,1.018586848636236,-0.038406062284476884,-1.2992810972542976,0.05370165978897587,0.1908877130421142,0.09448749465208273,-0.24380312090404563,-0.16714423529734979,2,left
2.9560000000000004,0.1385690681507793,1.018768959197877,-0.03936048745931989,-1.3068582260304094,0.06051394381250987,0.19107916760305163,0.0947676863374648,-0.23989206128456067,-0.16078116323820132,2,left
2.963,0.14080458702648477,1.018920839837799,-0.04030021884790769,-1.3134609043000218,0.06744421792645226,0.191017877546488,0.09502585925208007,-0.23580086101816808,-0.15451534365421496,2,left
2.964,0.14303058708031594,1.0190421179822338,-0.041224741188733864,-1.3190977146800775,0.07448927885172842,0.1907029966794722,0.09526117363797681,-0.23153208803146583,-0.14834772837998442,2,left
2.966,0.14524570579385024,1.0191324465038314,-0.0421335759415527,-1.3237782068439201,0.08164564003134782,0.19013401754068907,0.09547280977759386,-0.22708850991772453,-0.14227917289007036,2,left
2.967,0.14744866402828405,1.0191915032449754,-0.04302628213674654,-1.3275128670506429,0.0889095341631636,0.18931077090999757,0.09565996843218495,-0.22247308860321022,-0.13631043789982547,2,left
2.9730000000000003,0.1496382668187007,1.0192189906504567,-0.04390245714880488,-1.330313085410379,0.09627691631169683,0.18823342455902856,0.09582187124848048,-0.21768897454209427,-0.13044219092750087,2,left
2.9739999999999998,0.15181340381713973,1.0192146355272285,-0.0447617373716268,-1.332191120899003,0.10374346761957558,0.18690248124120748,0.09595776113446222,-0.21273950043795584,-0.12467500780528765,2,left
2.9739999999999998,0.15397304936598918,1.019178188941359,-0.04560379877525075,-1.3331600641329977,0.11130459963944755,0.18531877591883716,0.09606690260640295,-0.2076281745432071,-0.11900937415266245,2,left
2.975,0.1561162621911695,1.019109426256002,-0.04642835732895048,-1.3332337979610436,0.11895545929726005,0.18348347223244207,0.096148582111674,-0.2023586736841615,-0.11344568687146495,2,left
2.9760000000000004,0.15824218471139068,1.0190081473096215,-0.047235169280690874,-1.3324269561686684,0.12669093444678095,0.18139805825832192,0.09620210833309628,-0.19693483621280966,-0.10798425574785293,2,left
2.9760000000000004,0.16035004196275457,1.0188741767308416,-0.04802403128549172,-1.3307548810260723,0.13450565988315544,0.17906434167419374,0.0962268124791862,-0.19136065503208402,-0.10262530522114527,2,left
2.98,0.1624391401373474,1.0187073643843156,-0.048794780376220384,-1.328233580649093,0.14239402363224546,0.176484444493553,0.09622204856214588,-0.1856402707440652,-0.09736897633408383,2,left
2.9810000000000003,0.1645088647329285,1.0185075859396568,-0.049547293771167795,-1.3248796868983241,0.15035017338404683,0.17366079748719224,0.09618719366401897,-0.1797779649163212,-0.09221532885391112,2,left
2.985,0.16655867831067067,1.0182747435530373,-0.050281488514766645,-1.320710414102537,0.15836802303105504,0.17059613433494797,0.09612164819108186,-0.1737781534503753,-0.0871643435488695,2,left
2.986,0.16858811785996342,1.018008766649467,-0.05099732095115648,-1.3157435186476805,0.1664412593239672,0.16729348550856443,0.09602483611645522,-0.1676453800358786,-0.08221592460502171,2,left
2.99,0.17059679177362905,1.0177096127925525,-0.05169478603329148,-1.3099972594218676,0.17456334866756326,0.1637561718775686,0.09589620521083451,-0.16138430967365594,-0.07736990216858795,2,left
2.991,0.17258437644291819,1.0173772686267772,-0.05237391647235266,-1.3034903591044054,0.18272754407978573,0.1599877980293592,0.09573522726114958,-0.15499972225039924,-0.0726260349992888,2,left
2.995,0.1745506124881412,1.0170117508753513,-0.05303478173499714,-1.296241966284639,0.1909268923371963,0.15599224529402886,0.09554139827687462,-0.1484965061474002,-0.06798401322047835,2,left
2.9960000000000004,0.17649530064681992,1.0166131073756037,-0.05367748690059692,-1.2882716183941452,0.1991542413301273,0.1517736644637658,0.09531423868361728,-0.14187965186534662,-0.06344346115214582,2,left
3.0,0.1784182973467126,1.016181418135188,-0.05430217139611064,-1.2795992054336216,0.20740224765096646,0.14733646819601787,0.09505329350352383,-0.13515424564685127,-0.05900394021315671,2,left
3.0010000000000003,0.18031950999640461,1.0157167963966163,-0.054909007630542295,-1.2702449344736921,0.21566338443911454,0.14268532308894924,0.09475813252194222,-0.12832546307804246,-0.05466495187939791,2,left
3.0069999999999997,0.18219889203092066,1.015219389702796,-0.05549819955306578,-1.2602292949067748,0.22392994950623452,0.13782514141708102,0.09442835043968964,-0.12139856265021852,-0.05042594068478156,2,left
3.0069999999999997,0.18405643775299674,1.0146893809591166,-0.0560699811586899,-1.2495730244251424,0.2321940737654707,0.13276107251437844,0.09406356701017385,-0.11437887926225712,-0.04628629725235336,2,left
3.01,0.18589217701259497,1.0141269894878087,-0.05662461496228867,-1.2382970756983462,0.24044772998835315,0.12749849379143396,0.09366342716051984,-0.1072718176441734,-0.04224536134303915,2,left
3.011,0.1877061697683931,1.013532472070121,-0.057162390456506146,-1.2264225837212772,0.2486827419131182,0.12204300137279551,0.09322760109575323,-0.1000828456819395,-0.038302424909851106,2,left
3.014,0.1894985005746217,1.0129061239731798,-0.0576836225643178,-1.2139708338022939,0.2568907937281681,0.11640040033990336,0.09275578438499202,-0.09281748762341112,-0.03445673514565981,2,left
3.015,0.19126927303490338,1.0122482799608061,-0.058188650095710996,-1.2009632301590742,0.26506343995436316,0.1105766945645298,0.09224769802849628,-0.08548131714495652,-0.03070749751292236,2,left
3.02,0.19301860426288134,1.0115593152898221,-0.05867783421943376,-1.1874212650881213,0.27319211574978514,0.10457807611706238,0.09170308850432321,-0.07807995025814755,-0.027053878744037706,2,left
3.02,0.19474661938798443,1.0108396466955378,-0.05915155696118506,-1.1733664886722002,0.2812681476605336,0.09841091423343307,0.09112172779323151,-0.07061903803565352,-0.02349500980127999,2,left
3.0239999999999996,0.19645344614321794,1.0100897333733678,-0.059610219736642066,-1.1588204789883854,0.28928276484101406,0.09208174382397775,0.09050341338037504,-0.06310425913527501,-0.020029988785537498,2,left
3.0239999999999996,0.19813920956952283,1.009310077967213,-0.06005424192356729,-1.1438048127778602,0.2972271107670513,0.08559725350700649,0.08984796823222076,-0.05554131210086782,-0.01665788378335943,2,left
3.029,0.1998040268677251,1.0085012275770557,-0.060484059475057694,-1.1283410365371411,0.30509225546500873,0.07896427314938254,0.08915524074701997,-0.04793590741873572,-0.013377735642084946,2,left
3.03,0.20144800242459504,1.0076637747971025,-0.06090012357542021,-1.1124506379889867,0.3128692082799197,0.07218976089594231,0.088425104677057,-0.040293759307916635,-0.010188560663098343,2,left
3.034,0.2030712230339254,1.0067983587925589,-0.06130289933924559,-1.0961550178899004,0.3205489312054318,0.06528078966914266,0.0876574590207914,-0.03262057722264814,-0.007089353203521152,2,left
3.034,0.20467375332690865,1.0059056664186845,-0.06169286455295924,-1.0794754621298523,0.3281223527981407,0.058244533119895865,0.08685222788290374,-0.024922057045176225,-0.004079088176916046,2,left
3.04,0.2062556314197185,1.0049864333810403,-0.06207050845679537,-1.062433114078614,0.3355803826986344,0.051088251010146184,0.08600936030094167,-0.017203871961904055,-0.0011567234454456848,2,left
3.04,0.20781686478210198,1.0040414454320759,-0.06243633056357681,-1.0450489471319417,0.3429139267812901,0.043819274007355684,0.08512883004112784,-0.009471663090479197,0.001678797895777298,2,left
3.0410000000000004,0.20935742632975424,1.0030715395972474,-0.06279083951038095,-1.027343737409736,0.3501139029545618,0.03644498787070176,0.08421063537293359,-0.0017310300597890127,0.004428545326695079,2,left
3.0439999999999996,0.21087725074342245,1.0020776054229728,-0.06313455194218932,-1.0093380365572664,0.35717125763316165,0.028972817008443997,0.0832547988358869,0.006012478180531647,0.00709359877892293,2,left
3.0439999999999996,0.2123762310168358,1.001060586237548,-0.06346799143216374,-0.9910521445995644,0.3640769829031856,0.021410207385594508,0.08226136700800252,0.013753372119207751,0.009675046565024985,2,left
3.045,0.21385421523442616,1.0000214804146264,-0.06379168744727548,-0.9725060828352622,0.3708221343756992,0.013764608788063612,0.0812304102779633,0.021486229943641934,0.012173983358707488,2,left
3.049,0.2153110035806697,0.9989613426278514,-0.06410617436673978,-0.9537195669407594,0.3773978495981686,0.006043456585873482,0.08016202261910173,0.029205705308737864,0.014591508231980929,2,left
3.049,0.2167463455858527,0.9978812850841223,-0.06441199055427743,-0.9347119807886423,0.38379536666637154,-0.001745846616164413,0.0790563213623278,0.036906534636455,0.016928722756709213,2,left
3.054,0.21815993761669578,0.9967824787192124,-0.0647096774767902,-0.9155023516690052,0.39000604255324217,-0.009595948915448963,0.07791344696504175,0.04458354396829764,0.019186729177727044,2,left
3.054,0.21955142062356095,0.9956661543320671,-0.06499977885432105,-0.8961093274161592,0.3960213707963367,-0.017499566248325864,0.07673356277296277,0.05223165539290298,0.02136662866447277,2,left
3.0589999999999997,0.22092037815742332,0.9945336036263077,-0.06528283982289583,-0.8765511556087299,0.4018329984114095,-0.025449498584879552,0.07551685477169752,0.05984589307083937,0.023469519647853262,2,left
3.0589999999999997,0.2222663346677227,0.9933861801227074,-0.06555940609701283,-0.8568456648250935,0.4074327420247761,-0.03343864517697587,0.07426353132476585,0.06742138887865792,0.02549649624882988,2,left
3.063,0.22358875408746687,0.9922252999050497,-0.06583002313049163,-0.8370102478984832,0.4128126032417266,-0.0414600188822449,0.07297382289469437,0.07495338769415767,0.02744864680499013,2,left
3.0639999999999996,0.2248870387072104,0.9910524421630441,-0.06609523528566592,-0.8170618471156145,0.4179647832676669,-0.04950675958682681,0.07164798174368321,0.08243725234472754,0.029327052501148428,2,left
3.068,0.22616052833628067,0.9898691494996092,-0.06635558502523571,-0.7970169413022613,0.4228816967980566,-0.05757214674981615,0.07028628161024586,0.08986846824051725,0.031132786109801257,2,left
3.068,0.22740849974804622,0.9886770279762004,-0.06661161213775581,-0.7768915347388363,0.4275559851925822,-0.06564961109243346,0.06888901735811784,0.09724264771406453,0.0328669108470471,2,left
3.074,0.22863016640605724,0.9874777468785956,-0.06686385300052192,-0.756701147848704,0.43198052894834993,-0.0737327454550254,0.06745650459362583,0.1045555340878682,0.03453047934936956,2,left
3.075,0.22982467846909396,0.9862730381946541,-0.0671128398775378,-0.7364608096016781,0.436148459486207,-0.0818153148450493,0.06598907924760612,0.11180300549124536,0.03612453277647342,2,left
3.0789999999999997,0.23099112307510325,0.9850646958031988,-0.06735910024834005,-0.7161850515749226,0.4400531702636045,-0.08989126569923267,0.06448709711785924,0.1189810784476477,0.037650100045157515,2,left
3.08,0.23212852490699204,0.9838545743790736,-0.0676031561643846,-0.6958879036132847,0.4436883272266974,-0.09795473438311478,0.06295093336802605,0.12608591125343616,0.03910819719900567,2,left
3.0839999999999996,0.23323584704745917,0.9826445880244333,-0.06784552362799723,-0.6755828910309487,0.44704787861364065,-0.10600005495117658,0.061380981978670666,0.13311380716892512,0.04049982691847726,2,left
3.085,0.23431199213376502,0.9814367086412829,-0.06808671198026436,-0.655283033296193,0.4501260641202859,-0.11402176619074612,0.05977765514625615,0.14006121744230876,0.04182597817578206,2,left
3.089,0.23535580382413782,0.9802329640644593,-0.06832722327101075,-0.6350008441409695,0.45291742343870645,-0.12201461797283171,0.058141382625601,0.14692474418687196,0.04308762603873034,2,left
3.09,0.23636606858518117,0.9790354359764263,-0.06856755157387437,-0.614748333037006,0.4554168041781917,-0.12997357693298284,0.056472611011307045,0.15370114313166694,0.044285731627558056,2,left
3.093,0.23734151780588034,0.9778462576260788,-0.06880818220953556,-0.5945370079801391,0.45761936917754054,-0.1378938315052123,0.054771802953553946,0.16038732626560706,0.04542124222853893,2,left
3.094,0.238280830240077,0.9766676113743183,-0.06904959085141692,-0.5743778795246399,0.45952060321666166,-0.1457707963319293,0.05303943630356054,0.16698036439468728,0.04649509156800991,2,left
3.0980000000000003,0.23918263477586374,0.9755017260894945,-0.06929224250419905,-0.5542814660093779,0.46111631913465084,-0.1536001160727377,0.0512760031839201,0.17347748963179174,0.047508200250253846,2,left
3.0989999999999998,0.24004551352690953,0.9743508744164665,-0.0695365903573168,-0.5342577999177828,0.46240266336066266,-0.1613776686348422,0.049482008978924664,0.17987609783828973,0.048461476362503385,2,left
3.102,0.2408680052373162,0.973217369944894,-0.06978307451961112,-0.5143164353137167,0.46337612086302915,-0.16909956784768132,0.04765797123990281,0.18617375103635384,0.049355816250153034,2,left
3.102,0.24164860898846688,0.9721035643041201,-0.07003212064079456,-0.4944664562955467,0.46403351952120125,-0.1767621656042698,0.0458044185005061,0.19236817981065968,0.050192105465091674,2,left
3.108,0.24238578819413478,0.9710118442112697,-0.07028413842555928,-0.47471648641091496,0.46437203392420123,-0.18436205349158533,0.04392188899679159,0.19845728571784327,0.050971219889896016,2,left
3.108,0.2430779748701549,0.9699446284954619,-0.07053952005088016,-0.4550746989749408,0.46438918859837486,-0.19189606393217423,0.04201092929071741,0.2044391437126992,0.051694027036869636,2,left
3.109,0.24372357416719465,0.9689043651154898,-0.07079863850587531,-0.43554882823484786,0.46408286066632715,-0.19936127085898153,0.0400720928148622,0.2103120045542929,0.05236138750281333,2,left
3.112,0.24432096915712517,0.9678935281827188,-0.07106184588185359,-0.4161461813242997,0.4634512819380069,-0.20675498994523114,0.03810593839079788,0.21607429707293008,0.052974156527970516,2,left
3.112,0.2448685258617327,0.9669146149981266,-0.07132947164606876,-0.3968736509510336,0.4624930404339866,-0.214074778410993,0.03611302879274208,0.22172463013310476,0.053533185589497295,2,left
3.113,0.24536459850618525,0.9659701431134415,-0.0716018209358479,-0.3777377287712266,0.461207081355974,-0.22131843442689375,0.03409392940875801,0.2272617941727487,0.05403932397757977,2,left
3.1180000000000003,0.24580753497331462,0.9650626474276567,-0.07187917290571604,-0.3587445194519407,0.4595927075982658,-0.228483996130308,0.032049207016989156,0.2326847622807152,0.05449342033444221,2,left
3.1189999999999998,0.24619568243201786,0.9641946773284574,-0.07216177914848518,-0.33989975550896595,0.45764958003620637,-0.23556974026030797,0.029979428675060676,0.23799269081962351,0.05489632415426751,2,left
3.122,0.2465273931095599,0.9633687938850645,-0.07244986220016686,-0.32120881305533144,0.4553777179063805,-0.24257418041251602,0.027885160716848403,0.24318491960996813,0.05524888724548559,2,left
3.123,0.24680103016884045,0.9625875670970062,-0.07274361413369798,-0.30267672854860683,0.452777499512721,-0.24949606491969623,0.025766967850742672,0.24826097169107045,0.05555196515673616,2,left
3.128,0.24701497364161779,0.9618535732010849,-0.07304319524556434,-0.28430821653993776,0.4498496633484757,-0.25633437437253864,0.023625412353462383,0.2532205526741193,0.05580641856766516,2,left
3.128,0.24716762636180223,0.9611693920353112,-0.0733487328387308,-0.26610768838064325,0.44659530964342875,-0.26308831879977296,0.021461053353404105,0.25806354970221496,0.056013114645569455,2,left
3.1310000000000002,0.24725741983885344,0.9605376044556991,-0.07366032010493549,-0.2480792718331476,0.4430159023289102,-0.2697573345274934,0.019274446197442535,0.262790030031999,0.05617292836876232,2,left
3.1319999999999997,0.24728282000966617,0.9599607898008711,-0.0739780151112035,-0.23022683153348922,0.439113271412183,-0.276341080737339,0.01706614189503136,0.26740023925111656,0.056286743817392695,2,left
3.137,0.24724233280925006,0.9594415233998997,-0.07430183989820008,-0.21255399025312904,0.4348896157508632,-0.282839435742929,0.01483668663338809,0.27189459914542335,0.05635545543231362,2,left
3.137,0.24713450950556162,0.9589823741205318,-0.0746317796984422,-0.19506415090827656,0.4303475062170939,-0.2892524930037116,0.012586621357482496,0.2762737052295177,0.05637996924246116,2,left
3.141,0.24695795174995097,0.9585859019579518,-0.07496778228034409,-0.17776051926545577,0.42548988924026687,-0.2955805568951388,0.010316481408485987,0.2805383239538403,0.05636120406107238,2,left
3.142,0.24671131630050622,0.9582546556674322,-0.07530975742264949,-0.1606461272925491,0.4203200907161635,-0.3018241382538365,0.008026796214278454,0.2846893896012553,0.05630009265094201,2,left
3.147,0.2463933193819349,0.9579911704459058,-0.07565757652389694,-0.1437238571050826,0.4148418202694734,-0.3079839497161924,0.005718089025549871,0.28872800088569384,0.056197582858790035,2,left
3.147,0.24600274065349423,0.9577979656667325,-0.07601107235124525,-0.1269964654580502,0.40905917585574386,-0.3140609008685418,0.003390876690976325,0.292655417265114,0.056054638718688356,2,left
3.1510000000000002,0.24553842676467505,0.9576775426691599,-0.07637003893082607,-0.11046660873411822,0.4029766486879156,-0.3200560932268901,0.0010456694648939022,0.2964730549807035,0.05587224152437304,2,left
3.1519999999999997,0.2449992944852992,0.9576323826005204,-0.07673423157764205,-0.09413686837960268,0.39659912847171647,-0.3259708150638677,-0.001317029159160707,0.30018248283392945,0.05565139087014968,2,left
3.157,0.2443843334026475,0.9576649443057853,-0.07710336705756467,-0.07800977674017225,0.38993190893331053,-0.33180653610037864,-0.0036967225957272847,0.3037854177127223,0.05539310565998341,2,left
3.158,0.24369260818377173,0.9577776622556817,-0.07747712386874488,-0.062087843248795974,0.3829806936217402,-0.3375649020791674,-0.006092921302252901,0.30728371987776265,0.05509842508425168,2,left
3.161,0.24292326040591408,0.9579729445018579,-0.07785514262616058,-0.04637358091903078,0.3757516019678516,-0.34324772923729924,-0.008505142908262799,0.31067938801953154,0.05476840956352763,2,left
3.162,0.24207550996199628,0.9582531706461553,-0.07823702653211002,-0.030869533097325007,0.3682511755805624,-0.34885699869432096,-0.01093291234570652,0.3139745540964785,0.054404141658654294,2,left
3.167,0.24114865605234503,0.958620689810287,-0.07862234191863744,-0.015578300428604086,0.36048638476051575,-0.3543948507726499,-0.01337576198736189,0.3171714779643617,0.05400672694626528,2,left
3.167,0.24014207777863505,0.9590778185920069,-0.07901061885513454,-0.0005025679900008972,0.3524646352103681,-0.3598635792665188,-0.015833231800225472,0.32027254180651854,0.05357729485880632,2,left
3.1710000000000003,0.23905523436095347,0.9596268389950652,-0.07940135182192644,0.014354867451802589,0.3441937749201781,-0.3652656256755962,-0.01830486952086286,0.32328024437453934,0.05311699948801366,2,left
3.1719999999999997,0.2378876650032905,0.9602699963222954,-0.07979400045422506,0.02899107010354417,0.33568210120560776,-0.3706035734191964,-0.020790230859735446,0.32619719504853134,0.05262702035070987,2,left
3.175,0.23663898843586284,0.9610094970220369,-0.08018799036022134,0.043402937771963315,0.32693836787590674,-0.37588014204679365,-0.023288879739035245,0.329026107728716,0.05210856311707761,2,left
3.176,0.23530890216311492,0.9618475064778714,-0.08058271401523638,0.057587174496671244,0.31797179250793933,-0.3810981814603643,-0.02580038855596454,0.3317697945839722,0.051562860308440386,2,left
3.177,0.23389718144468236,0.9627861467327768,-0.08097753173383067,0.07154026323134836,0.30879206380182017,-0.38626066616389926,-0.028324338440692532,0.33443115970812887,0.0509911719840175,2,left
3.182,0.23240367803739728,0.9638274941416338,-0.08137177272503253,0.08525843864486303,0.2994093489806809,-0.39137068954738025,-0.030860319465623964,0.33701319274869607,0.05039478644299607,2,left
3.1839999999999997,0.2308283187303381,0.9649735769486423,-0.08176473624063842,0.09873766026424924,0.2898343011345512,-0.3964314581730063,-0.03340793077528695,0.33951896255834124,0.04977502096122736,2,left
3.1839999999999997,0.22917110370738467,0.9662263727881035,-0.08215569283008885,0.11197358645261284,0.28007806629631143,-0.4014462859604777,-0.03596678062892724,0.3419516108937288,0.049133222569256875,2,left
3.1860000000000004,0.22743210477403733,0.9675878061085854,-0.08254388571786325,0.12496154986535843,0.27015228997519025,-0.40641858812865306,-0.03853648636056609,0.3443143461719751,0.04847076887136919,2,left
3.187,0.22561146349232108,0.9690597455210339,-0.08292853232075209,0.13769653487644384,0.26006912293463075,-0.41135187479009383,-0.04111667426383955,0.3466104372919247,0.047789068903870004,2,left
3.1919999999999997,0.22370938927605616,0.9706440010707293,-0.0833088259194187,0.15017315719387342,0.24984122611224466,-0.4162497441657014,-0.04370697940896913,0.34884320752724207,0.04708956403076467,2,left
3.1919999999999997,0.2217261575028372,0.9723423214316047,-0.0836839374897541,0.1623856457319294,0.2394817746409863,-0.4211158754258673,-0.04630704539924527,0.35101602849811425,0.04637372887493322,2,left
3.195,0.21966210769894942,0.9741563910193817,-0.08405301768890239,0.17432782677671443,0.2290044609426083,-0.4259540211723177,-0.04891652407443489,0.35313231422816704,0.04564307228284666,2,left
3.196,0.21751764185067632,0.9760878270177082,-0.08441519898430852,0.1859931104808346,0.21842349686404475,-0.4307679995747294,-0.05153507516855361,0.3551955152930165,0.0448991383208181,2,left
3.2,0.2152932228896905,0.9781381763099788,-0.08476959791327714,0.197374479722293,0.20775361482699212,-0.4355616861761054,-0.054162365929471046,0.35720911306670483,0.04414350730073574,2,left
3.201,0.21298937339249052,0.9803089123091074,-0.08511531746136225,0.20846448136188578,0.19701006796061904,-0.44033900538081594,-0.05679807070784495,0.35917661407210766,0.043377796833181964,2,left
3.2060000000000004,0.21060667452739104,0.9826014316779045,-0.08545144954496069,0.2192552199325978,0.18620862918704092,-0.4451039216391442,-0.05944187052290581,0.36110154444124776,0.042603662905804786,2,left
3.2060000000000004,0.20814576527920978,0.9850170509336736,-0.08577707757557813,0.2297383537936767,0.17536558922894088,-0.44986043034211426,-0.062093452612638676,0.3629874444913058,0.04182280098477445,2,left
3.2110000000000003,0.20560734197969135,0.9875570029323665,-0.08609127907508718,0.23990509378122712,0.16449775350850704,-0.4546125484403352,-0.06475250997593325,0.36483786342199004,0.04103694713712914,2,left
3.2119999999999997,0.20299215816791727,0.9902224332306637,-0.08639312830946448,0.24974620438630651,0.15362243790669167,-0.45936430480055757,-0.0674187409142965,0.3666563541398002,0.040247879171789444,2,left
3.216,0.20030102479832587,0.9930143963290557,-0.08668169891551161,0.25925200749061805,0.1427574633516796,-0.4641197303136154,-0.07009184858074433,0.3684464682146123,0.039457417797002216,2,left
3.216,0.19753481080504062,0.9959338518050987,-0.08695606650718159,0.2684123886889876,0.1319211492053826,-0.4688828477674142,-0.07277154054351054,0.37021175097390746,0.038667427791960036,2,left
3.22,0.19469444402083058,0.9989816603531002,-0.0872153112586508,0.27721680622687483,0.12113230541675608,-0.4736576614986227,-0.07545752837223184,0.3719557367398759,0.03787981919033346,2,left
3.221,0.19178091243779002,1.0021585797544075,-0.08745852046477029,0.2856543025802042,0.11041022341076588,-0.4784481468367407,-0.07814952725428727,0.3736819442145474,0.037096548473449245,2,left
3.2239999999999998,0.18879526578524256,1.0054652608101455,-0.087684791073946,0.293713518703808,0.09977466568191497,-0.4832582393542322,-0.08084725564898948,0.3753938720180256,0.03631961977084931,2,left
3.225,0.18573861738956082,1.0089022432728019,-0.08789323217622741,0.30138271097375163,0.08924585406137915,-0.4880918239364509,-0.08355043498734349,0.37709499438484506,0.03555108606597202,2,left
3.23,0.18261214627268849,1.012469951812755,-0.08808296741649548,0.3086497708477542,0.078844456626992,-0.49295272368512727,-0.08625878942510556,0.3787887570234163,0.03479305040470991,2,left
3.2310000000000003,0.17941709944331943,1.0161686920524697,-0.0882531372959314,0.31550224726683196,0.06859157322556966,-0.49784468866924414,-0.08897204565689162,0.38047857314348543,0.034047667104616514,2,left
3.234,0.17615479433722153,1.0199986466973396,-0.08840290132805635,0.32192737182016967,0.058508719577373566,-0.5027713845371945,-0.09168993279910002,0.3821678196565018,0.033317142962558895,2,left
3.234,0.17282662136870797,1.0239598717888916,-0.08853144002627066,0.3279120866940694,0.048617809932876004,-0.5077363810041943,-0.09441218234942832,0.3838598335537671,0.03260373845864298,2,left
3.24,0.1694340465601559,1.0280522931029519,-0.08863795671191091,0.33344307542463464,0.03894113825242126,-0.5127431402290102,-0.09713852823077831,0.3855579084672278,0.03190976895427513,2,left
3.241,0.1659786142183657,1.0322757027121505,-0.08872167914119757,0.33850679647261933,0.029501357879864,-0.5177950050941643,-0.09986870692735625,0.38726529141776983,0.03123760588226623,2,left
3.245,0.16246194962529828,1.0366297557291444,-0.08878186095618996,0.343089519637606,0.02032145968181906,-0.5228951874038851,-0.10260245771765478,0.3889851797517103,0.030589677926125842,2,left
3.2460000000000004,0.15888576170857124,1.0411139672448995,-0.08881778297028677,0.3471773653273719,0.011424748624772876,-0.5280467560141965,-0.10533952299335005,0.39072071824532423,0.029968472181710316,2,left
3.2460000000000004,0.15525184565579303,1.0457277094757476,-0.08882875430276235,0.35075634669696165,0.002834818762988201,-0.5332526249096635,-0.10807964862495992,0.3924749963196999,0.029376535287179734,2,left
3.2489999999999997,0.15156208543374247,1.050470209133102,-0.08881411337988171,0.35381241467059993,-0.005424473389119188,-0.5385155412414523,-0.11082258431945488,0.3942510452873847,0.028816474503248573,2,left
3.25,0.14781845616695133,1.0553405450291031,-0.0887732288235853,0.3563315058581588,-0.01332903712563881,-0.5438380733415109,-0.11356808393068767,0.396051835573194,0.02829095872983178,2,left
3.25,0.14402302632618538,1.0603376459290783,-0.08870550025081474,0.3582995932902704,-0.020854577450137878,-0.5492225987403996,-0.1163159057117144,0.39788027388918495,0.027802719452543534,2,left
3.2539999999999996,0.14017795968153168,1.0654602886589675,-0.08861035900374196,0.3597027394638771,-0.027976626432545698,-0.5546712922793038,-0.11906581251375331,0.3997392003647277,0.027354551616637624,2,left
3.2539999999999996,0.13628551698473015,1.0707070964742111,-0.0884872688236123,0.360527150413032,-0.034670575544413204,-0.5601861145200491,-0.1218175719396674,0.40163138563685385,0.026949314426885695,2,left
3.259,0.13234805735401997,1.0760765376943087,-0.08833572647339581,0.36075922908738217,-0.04091170832719066,-0.5657688007199557,-0.12457095645986473,0.4035595279061417,0.026589932071996805,2,left
3.261,0.12836803933940855,1.081566924602528,-0.08815526231315646,0.360385626749942,-0.04667523291373807,-0.5714208505757106,-0.12732574349851516,0.4055262499634837,0.026279394372296944,2,left
3.265,0.12434802165007629,1.0871764126048518,-0.08794544084036564,0.3593932918795396,-0.05193631422216802,-0.5771435188275146,-0.1300817154979885,0.4075340961931774,0.0260207573495107,2,left
3.265,0.12029066353140355,1.092902999638499,-0.08770586122042157,0.35776951649241284,-0.05667010580655055,-0.5829378067521134,-0.13283865996942276,0.40958552955788524,0.02581714371761909,2,left
3.2680000000000002,0.11619872478624702,1.0987445258182538,-0.0874361578384102,0.3555019798818553,-0.060851781380983606,-0.588804454560951,-0.13559636953733653,0.41168292857111866,0.02567174329390809,2,left
3.2689999999999997,0.11207506544328205,1.1046986733075157,-0.08713600089600308,0.3525787897730333,-0.06445656603208924,-0.594743934719888,-0.1383546419862017,0.41382858426301883,0.025587813329471538,2,left
3.2739999999999996,0.10792264508567778,1.1107629663993324,-0.08680509706459923,0.3489885208882822,-0.06745976713348102,-0.6007564462071319,-0.14111328031689624,0.41602469714533324,0.025568678758590434,2,left
3.275,0.10374452186527927,1.1169347717905944,-0.08644319019614397,0.3447202509163436,-0.06983680497416213,-0.6068419097262341,-0.14387209282095856,0.4182733741816182,0.02561773236657783,2,left
3.279,0.09954385123702736,1.1232112990323606,-0.08605006208776352,0.339763593877121,-0.07156324311115651,-0.6129999638912152,-0.1466308931805671,0.4205766257688357,0.025738434875855528,2,left
3.279,0.0953238844521052,1.1295896011425994,-0.08562553329292612,0.33410873087161536,-0.07261481845494769,-0.6192299624010924,-0.14938950060216954,0.4229363627366582,0.02593431495021477,2,left
3.284,0.09108796684614988,1.1360665753729484,-0.08516946396827728,0.32774643820475835,-0.07296747109450095,-0.6255309722212883,-0.1521477399916863,0.42535439337094477,0.02620896911740944,2,left
3.284,0.08683953595353708,1.1426389641266959,-0.08468175474038217,0.3206681128668818,-0.07259737386677642,-0.631901772789613,-0.15490544217921323,0.42783242046801145,0.026566061610436006,2,left
3.2880000000000003,0.08258211947279827,1.149303356031317,-0.0841623475695737,0.31286579535755876,-0.07148096167370199,-0.6383408562647117,-0.15766244420114836,0.4303720384264755,0.027009324128070743,2,left
3.2889999999999997,0.07831933310224994,1.1560561871758515,-0.08361122657932006,0.3043321898335205,-0.06959496054756811,-0.644846428835077,-0.1604185896476655,0.43297473038362594,0.027542555515461073,2,left
3.2969999999999997,0.07405487825868919,1.162893742530607,-0.08302841881235154,0.2950606815602986,-0.06691641646373006,-0.6514164131069261,-0.16317372908345668,0.435641865403442,0.028169621365804965,2,left
3.298,0.06979253968627003,1.1698121575737361,-0.08241399487402223,0.2850453516451619,-0.06342272389736084,-0.6580484515894344,-0.16592772054966323,0.43837469572355775,0.028894453544399897,2,left
3.298,0.06553618295904623,1.1768074201554255,-0.08176806942956609,0.2742809890268201,-0.05909165411878695,-0.6647399112960113,-0.16868043015491296,0.4411743540686533,0.029721049636601573,2,left
3.299,0.061289751879988745,1.1838753726339348,-0.08109080153062297,0.262763099695245,-0.05390138321966387,-0.6714878894804861,-0.17143173276337764,0.44404185103793703,0.03065347232150221,2,left
3.303,0.05705726578074617,1.1910117143174592,-0.08038239475339792,0.25048791311282875,-0.04783051985990671,-0.6782892205272509,-0.1741815127877622,0.4469780725745716,0.03169584867341938,2,left
3.303,0.05284281672806352,1.198212004242823,-0.07964309713380592,0.23745238580594505,-0.04085813272288719,-0.6851404840145776,-0.17692966509513305,0.44998377752508945,0.03285236939357857,2,left
3.3080000000000003,0.048650566642753745,1.2054716643172323,-0.07887320088350848,0.22365420209381784,-0.032963777663940486,-0.6920380139704851,-0.1796760960334893,0.4530595952970362,0.03412728797467712,2,left
3.3089999999999997,0.04448474433519991,1.212785982842389,-0.0780730418684287,0.2090917719194275,-0.024127524534696885,-0.6989779093406907,-0.18242072458697564,0.4562060236232797,0.035524919801332926,2,left
3.312,0.04034964245834282,1.2201501184307266,-0.07724299883389073,0.19376422574500185,-0.014329983663164519,-0.7059560456883179,-0.18516348366763166,0.45942342644161965,0.03704964118974949,2,left
3.313,0.03624961437505699,1.2275591043114964,-0.07638349236934747,0.17767140647245,-0.0035523319668417583,-0.7129680881451677,-0.18790432155156697,0.46271203189853516,0.03870588837026915,2,left
3.3139999999999996,0.032189070931812544,1.235007853012344,-0.075494983615785,0.1608138583469034,0.008223661326566645,-0.7200095056344783,-0.19064320346201113,0.46607193048401,0.04049815641317167,2,left
3.3169999999999997,0.028172477126152024,1.2424911613951495,-0.07457797272368562,0.14319281279933188,0.021015609379015948,-0.7270755863852157,-0.1933801132745028,0.4695030732940732,0.0424309980801045,2,left
3.318,0.024204348653748993,1.250003716025719,-0.073632997065967,0.12481017126568232,0.0348404828784352,-0.7341614547268378,-0.1961150552705556,0.4730052703989933,0.04450902255090403,2,left
3.319,0.020289248321489983,1.257540098860656,-0.07266062920195013,0.10566848543617977,0.049714585554541356,-0.7412620889976267,-0.1988480558389533,0.47657818928476464,0.04673689395762192,2,left
3.323,0.016431782313861467,1.2650947932352798,-0.07166147458211457,0.08577093613933459,0.06565352988390245,-0.7483723401190747,-0.20157916505100132,0.4802213533462305,0.0491193296763105,2,left
3.324,0.012636596299066286,1.2726621901307804,-0.07063616898373233,0.06512131248139962,0.08267221272128573,-0.7554869502329237,-0.20430845808497577,0.48393414042930083,0.051661098360543646,2,left
3.3280000000000003,0.008908371358825117,1.280236594687429,-0.0695853756750731,0.043723992441455195,0.10078479067301804,-0.7626005709534394,-0.2070360365021867,0.487715781430425,0.054367017719416155,2,left
3.3289999999999997,0.005251819723380748,1.2878122329196082,-0.0685097823198326,0.021583925367034143,0.12000465516736462,-0.7697077810682126,-0.20976202938250055,0.4915653589637859,0.057241952046875856,2,left
3.332,0.0016716802926523158,1.2953832585840783,-0.06741009765113595,-0.001293383605347632,0.14034440725571112,-0.7768031036767267,-0.21248659432716302,0.4954818061068782,0.06029080950970091,2,left
3.332,-0.0018272860738216764,1.3029437601553313,-0.06628704796190935,-0.024901887266212876,0.16181583219661053,-0.7838810227871148,-0.2152099183367581,0.4994639052353331,0.06351853920190592,2,left
3.3369999999999997,-0.0052403015130714665,1.3104877678684326,-0.06514137347275516,-0.049235008249287816,0.1844298738779352,-0.7909359993915127,-0.2179322185721349,0.5035102869580461,0.06693012797384645,2,left
3.339,-0.008562576374158042,1.318009260799327,-0.06397382464717642,-0.07428564921351746,0.20819660913559077,-0.7979624870403785,-0.22065374300612928,0.5076194291638558,0.07053059704479123,2,left
3.341,-0.011789314704207174,1.3255021739635355,-0.06278515852210688,-0.10004620135873818,0.23312522203049654,-0.8049549469361009,-0.2233747709739043,0.5117896561912105,0.07432499840824511,2,left
3.343,-0.014915720012381494,1.3329604054233053,-0.06157613510599061,-0.12650855134489478,0.2592239781488185,-0.811907862566149,-0.22609561362973057,0.5160191381324434,0.0783184110398342,2,left
3.3480000000000003,-0.017937001312055223,1.3403778233986023,-0.060347513873780984,-0.1536640866867495,0.28650019899375007,-0.8188157538959391,-0.22881661431802508,0.5203058902844571,0.08251593691810713,2,left
3.3489999999999998,-0.02084837943245134,1.3477482733792656,-0.059100050371762136,-0.18150369969806873,0.31496023654047206,-0.825673191141493,-0.23153814886646606,0.5246477727577942,0.08692269686916397,2,left
3.352,-0.023645093582776746,1.355065585234833,-0.05783449294314787,-0.21001779006128818,0.3446094480292817,-0.8324748081418497,-0.23426062580900103,0.5290424902562386,0.09154382624659554,2,left
3.353,-0.02632240814575842,1.362323580315813,-0.056551579595155374,-0.23919626610064748,0.37545217107526224,-0.8392153153510644,-0.2369844865465653,0.5334875920392586,0.09638447045880263,2,left
3.3569999999999998,-0.028875619673213154,1.369516078537822,-0.05525203503884836,-0.2690285448387491,0.40749169917626266,-0.8458895124694822,-0.2397102054533303,0.5379804720797591,0.1014497803563657,2,left
3.358,-0.03130006405413192,1.3766369054396455,-0.053936567933405635,-0.29950355091843367,0.4407302577043705,-0.8524923007338132,-0.2424382899363034,0.5425183694297641,0.10674490749275126,2,left
3.363,-0.033591123825654816,1.3836798992067523,-0.0526058683558095,-0.3306097144737704,0.4751689804694894,-0.8590186948853642,-0.24516928045610525,0.5470983688067912,0.11227499927227196,2,left
3.364,-0.035744235597566544,1.3906389176514018,-0.05126060550368638,-0.3623349680358396,0.5108078869470651,-0.8654638348355872,-0.24790375051675628,0.5517174014138209,0.11804519399986292,2,left
3.366,-0.037754897560779,1.3975078451383953,-0.04990142562812816,-0.3946667425608277,0.5476458602654497,-0.8718229970479019,-0.2506423066323101,0.556372246005889,0.12406061584789674,2,left
3.367,-0.039618677051940505,1.4042805994417034,-0.048528950184279114,-0.4275919626697704,0.585680626051836,-0.8780916056545309,-0.25338558827818053,0.561059530216455,0.13032636975593453,2,left
3.3710000000000004,-0.04133121815238727,1.4109511385123794,-0.04714377418174431,-0.46109704119105327,0.6249087322391417,-0.8842652433268525,-0.25613426783501964,0.5657757321568055,0.13684753628000076,2,left
3.372,-0.04288824930933461,1.4175134671330505,-0.045746464716328365,-0.4951678730985228,0.6653255299396634,-0.8903396619175304,-0.25888905053301414,0.5705171823018601,0.14362916640867315,2,left
3.3760000000000003,-0.04428559097699932,1.4239616434294804,-0.044337559666760645,-0.5297898289397646,0.7069251554947578,-0.8963107928924172,-0.2616506744044836,0.5752800656758368,0.1506762763639986,2,left
3.377,-0.04551916328215089,1.430289785207215,-0.042917566541975094,-0.5649477478507683,0.7497005138132296,-0.9021747575699589,-0.26441991025267714,0.5800604243513163,0.1579938424059797,2,left
3.3819999999999997,-0.04658499372050793,1.4364920760830193,-0.041486961466721824,-0.6006259302548258,0.7936432631145239,-0.9079278771855407,-0.26719756164055947,0.5848541602705716,0.16558679565309933,2,left
3.383,-0.047479224886975355,1.4425627713866571,-0.0400461882957593,-0.6368081303450879,0.8387438011962096,-0.9135666827979205,-0.2699844648827707,0.589657038374339,0.1734600168969906,2,left
3.383,-0.048198122235254146,1.4484962038160007,-0.03859565784497634,-0.673477548451746,0.8849912533486178,-0.9190879250545875,-0.2727814889868414,0.5944646899805239,0.18161833132691282,2,left
3.386,-0.04873808185188231,1.4542867888316207,-0.03713574721798653,-0.7106168233962983,0.9323734620428523,-0.924488583832564,-0.2755895354691418,0.5992726163316197,0.1900665030453625,2,left
3.387,-0.049095638218096205,1.4599290297724734,-0.03566679919753378,-0.7482080249368045,0.98087697852171,-0.929765877770846,-0.27840953799169826,0.6040761922533955,0.1988092292920756,2,left
3.387,-0.04926747192561109,1.4654175226682185,-0.03418912167807531,-0.7862326464062832,1.030487056396239,-0.9349172736904027,-0.2812424618031635,0.6088706699101607,0.20785113435772043,2,left
3.39,-0.049250417313800234,1.4707469607249497,-0.03270298713936189,-0.8246715976319976,1.0811876472034192,-0.9399404957976699,-0.28408930298788293,0.6136511826656553,0.21719676320453518,2,left
3.391,-0.049041470001862444,1.4759121384702945,-0.031208632182278144,-0.8635051981963145,1.1329613976127566,-0.9448335343877453,-0.2869510875311622,0.6184127490633597,0.22685057481903623,2,left
3.395,-0.04863779429185829,1.480907955554597,-0.029706257153499505,-0.9027131710853098,1.1857896478222565,-0.9495946536634906,-0.28982887020887477,0.6231502769399851,0.23681693532278159,2,left
3.3960000000000004,-0.04803673041456355,1.4857294202144213,-0.028196025873607884,-0.9422746367882362,1.2396524308378758,-0.954222398386021,-0.29272373330959095,0.6278585676858658,0.24710011086804648,2,left
3.4010000000000002,-0.04723580158744188,1.4903716524164763,-0.02667806546032468,-0.9821681079404623,1.2945284726045394,-0.9587155992510563,-0.2956367851974515,0.6325323206659222,0.2577042603461541,2,left
3.4019999999999997,-0.04623272086084975,1.4948298867148535,-0.025152466218006278,-1.0223714846193221,1.3503951931103384,-0.9630733769848802,-0.29856915872405504,0.6371661378147943,0.26863342793710016,2,left
3.407,-0.045025397743263446,1.4990994748653141,-0.023619281557831752,-1.0628620504064779,1.4072287086185995,-0.9672951451731983,-0.301522009497678,0.6417545284196557,0.27989153553002183,2,left
3.408,-0.043611944608186924,1.5031758882403534,-0.022078527916236754,-1.1036164693313495,1.4650038351854209,-0.9713806118358014,-0.3044965140181981,0.6462919141041291,0.29148237504498314,2,left
3.41,-0.04199068288411405,1.5070547200761901,-0.020530184641935605,-1.1446107838110584,1.5236940936231085,-0.975329779759551,-0.3074938676861476,0.6507726340265967,0.3034096006874805,2,left
3.411,-0.040160149012519165,1.510731687559508,-0.018974193822188234,-1.1858204137031534,1.5832717160727352,-0.9791429456018153,-0.31051528269438133,0.6551909503060797,0.3156767211680194,2,left
3.4139999999999997,-0.03811910013443227,1.5142026337330796,-0.017410460020890372,-1.2272201565881435,1.6437076543517304,-0.9828206977760897,-0.3135619858109078,0.6595410536887067,0.32828709192006655,2,left
3.415,-0.03586651944491553,1.5174635291734362,-0.015838849907520724,-1.2687841893995486,1.7049715902450435,-0.9863639131311516,-0.31663521606149575,0.6638170694676322,0.34124390735064947,2,left
3.4210000000000003,-0.03340162114512581,1.5205104733764574,-0.014259191768327434,-1.3104860715197995,1.7670319479109733,-0.9897737524347008,-0.3197362223207392,0.6680130636690832,0.3545501931588504,2,left
3.4219999999999997,-0.030723854924962234,1.5233396957794403,-0.012671274911249922,-1.3522987494608625,1.8298559085752077,-0.9930516546720548,-0.3228662608203356,0.6721230495170204,0.36820879875842805,2,left
3.424,-0.02783290992126798,1.525947556350102,-0.01107484900253701,-1.3941945632489359,1.8934094276890072,-0.9961993301700794,-0.32602659258340827,0.6761409941886835,0.3822223898417948,2,left
3.425,-0.024728718111050103,1.5283305456828176,-0.009469623396757335,-1.436145254632952,1.9576572547297408,-0.9992187525561547,-0.3292184807937848,0.6800608258730616,0.3965934411235817,2,left
3.429,-0.021411457111250833,1.5304852845583854,-0.007855266530986324,-1.4781219772369487,2.0225629558241773,-1.002112149561594,-0.332443188109225,0.6838764411440845,0.41132422930303325,2,left
3.43,-0.017881552364888312,1.5324085229433555,-0.006231405443807484,-1.5200953087766005,2.08808893937703,-1.0048819926785653,-0.3357019739276811,0.6875817126600611,0.4264168262854956,2,left
3.435,-0.014139678699501201,1.5340971384260886,-0.004597625457108687,-1.562035265460364,2.1541964848892414,-1.007530985679192,-0.3389960916157608,0.6911704972006151,0.44187309270428704,2,left
3.4360000000000004,-0.010186761249230195,1.5355481341074433,-0.002953470034631486,-1.60391131869576,2.2208457751523865,-1.0100620520051518,-0.34232678570866115,0.6946366440520652,0.45769467178527257,2,left
3.4389999999999996,-0.006023975737018264,1.5367586359828844,-0.0012984408118221287,-1.6456924142213052,2.2879959320073455,-1.012478321035733,-0.3456952890909367,0.697974003751881,0.4738829835975043,2,left
3.44,-0.0016527481190241917,1.537725889867826,0.0003680022221725414,-1.6873469937845103,2.355605055857075,-1.0147831132419713,-0.3491028201675676,0.7011764372025101,0.4904392197343317,2,left
3.445,0.00292524639933927,1.538447257928548,0.0020464404142775524,-1.7288430194861792,2.423630269124851,-1.0169799242341369,-0.35255058003489953,0.704237825164521,0.5073643384704376,2,left
3.446,0.007708084956048652,1.5389202148891383,0.0037374960242403206,-1.7701480009109642,2.4920277638507993,-1.0190724077095252,-0.3560397496611338,0.7071520781386371,0.5246590604413057,2,left
3.449,0.012693599202175462,1.539142343991114,0.00544183168451605,-1.8112290251637706,2.5607528536208473,-1.0210643573071796,-0.359571487080288,0.7099131466343369,0.5423238648650475,2,left
3.45,0.0178793780094594,1.5391113327822443,0.007160149721978157,-1.8520527899311505,2.6297600300234136,-1.022959687375863,-0.3631469245743086,0.7125150317647517,0.5603589861893913,2,left
3.451,0.0232627706757866,1.5388249688044089,0.00889319131164281,-1.892585639686271,2.6990030238302327,-1.024762412661299,-0.3667671657652923,0.714951796003583,0.5787644107989705,2,left
3.4539999999999997,0.028840890587145222,1.5382811352479584,0.010641735427697363,-1.9327936050906644,2.7684348709533695,-1.026476626945277,-0.370433282510543,0.717217573881783,0.5975398732809228,2,left
3.4560000000000004,0.03461061928989555,1.53747780664529,0.012406597552054673,-1.972642445321552,2.8380079825049136,-1.0281064808032625,-0.3741463115226705,0.7193065824588262,0.6166848518860646,2,left
3.4560000000000004,0.04056861092719319,1.536413044678553,0.014188628101581908,-2.0120976924700833,2.907674216979041,-1.0296561588886686,-0.37790725068990505,0.7212131315065061,0.6361985630726918,2,left
3.46,0.04671129699631066,1.5350849941769666,0.015988710542607844,-2.051124696831213,2.9773849518503,-1.0311298572860124,-0.3817170551012923,0.7229316334002435,0.6560799551593091,2,left
3.4610000000000003,0.0530348913798657,1.5334918793896548,0.017807759168541378,-2.0896886722285912,3.047091152608762,-1.0325317613406162,-0.3855766327874362,0.7244566127238974,0.6763277011412807,2,left
3.464,0.05953539559705856,1.5316320006343453,0.019646716524486713,-2.127754741099325,3.1167434385604054,-1.033866024130502,-0.3894868401875969,0.7257827155935425,0.6969401907274619,2,left
3.465,0.06620860421915346,1.5295037314271898,0.021506550475639048,-2.165287979385912,3.1862921454476227,-1.0351367456115843,-0.3934484773540889,0.726904718705138,0.7179155216539186,2,left
3.469,0.07305011039491952,1.5271055161948495,0.02338825092918158,-2.2022534613460625,3.255687385089981,-1.0363479524402004,-0.39746228290507085,0.7278175381104568,0.7392514903329014,2,left
3.469,0.08005531143182287,1.5244358686647128,0.02529282622448466,-2.238616304389677,3.324879102245229,-1.037503578476818,-0.40152892873695956,0.728516237725075,0.7609455818962827,2,left
3.4739999999999998,0.08721941437682067,1.5214933710261411,0.02722129920239676,-2.274341714050741,3.3938171288902392,-1.0386074459745795,-0.4056490145078518,0.7289960375716313,0.7829949596937074,2,left
3.475,0.09453744153870207,1.5182766739532214,0.02917470295683566,-2.3093950292002403,3.462451236121124,-1.039663247456172,-0.40982306190348555,0.7292523217609707,0.805396454306746,2,left
3.478,0.10200423589435148,1.5147844975749916,0.031154076265692242,-2.3437417676044925,3.5307311838711937,-1.040674528282349,-0.41405150869742485,0.7292806462131679,0.8281465521413656,2,left
3.4789999999999996,0.10961446632406273,1.5110156334723408,0.03316045869325335,-2.3773476719314433,3.5986067686446828,-1.041644669915286,-0.41833470261730415,0.7290767461197998,0.8512413836620516,2,left
3.484,0.11736263262363901,1.5069689477728685,0.035194885353486215,-2.4101787563055557,3.666027869463313,-1.0425768738798056,-0.4226728950291258,0.728636543148191,0.8746767113319296,2,left
3.485,0.12524307024289,1.5026433854047336,0.03725838132792414,-2.442201353509889,3.7329444922217276,-1.0434741464253923,-0.42706623445175634,0.7279561523877088,0.8984479173242301,2,left
3.488,0.1332499547053112,1.4980379755543871,0.03935195574683255,-2.473382162931829,3.799306812646677,-1.044339283891781,-0.43151475991392874,0.727031889037509,0.9225499910714362,2,left
