time,gFx,gFy,gFz,ax,ay,az,wx,wy,wz,subject_number,foot
0.9440000000000001,0.13881470142156646,1.1545160840679531,0.18359761040436495,-1.7915205346512577,1.4569668901617305,-1.0074969810492571,-0.620249991480603,0.1965386020333456,0.5895864726208045,1,left
0.946,0.14282635514385786,1.1534086990812342,0.18558891800650096,-1.8074920137543211,1.4772750447024874,-1.01213876156968,-0.6182297654047043,0.19461378910664462,0.6011035684252424,1,left
0.9470000000000001,0.14686920275551674,1.1522428778374418,0.18760868557302976,-1.822913609608201,1.497352196734425,-1.0165832352035102,-0.6159841108764165,0.1927346284384093,0.6125641022174398,1,left
0.95,0.1509401706948806,1.1510189304665126,0.18965624357135213,-1.8377714195497183,1.5171844609839358,-1.0208199522203303,-0.6135098731134633,0.19090239273165105,0.6239612038041775,1,left
0.951,0.15503618116128862,1.1497371732714587,0.19173089316313657,-1.8520518264000114,1.536758062630911,-1.0248382861578675,-0.6108040393765236,0.18911822667529682,0.6352879391941294,1,left
0.956,0.15915415751306425,1.1483979270207443,0.19383190640536588,-1.865741519500602,1.556059350585748,-1.0286274472613275,-0.6078637441325835,0.18738314201272968,0.6465373143396612,1,left
0.9570000000000001,0.1632910295507986,1.1470015151577946,0.19595852624033666,-1.8788275155231995,1.5750748099720182,-1.0321764964075182,-0.6046862741000365,0.1856980127420111,0.6577022791165145,1,left
0.961,0.16744373863172435,1.1455482619518984,0.19810996629241998,-1.8912971790942412,1.5937910738709986,-1.0354743595252862,-0.6012690731677516,0.18406357044266117,0.6687757315739006,1,left
0.961,0.1716092425636781,1.144038490617523,0.20028541050326987,-1.9031382432734638,1.612194934383486,-1.0385098425231263,-0.5976097471796565,0.18248039972401486,0.679750522487307,1,left
0.965,0.17578452023436678,1.1424725214294875,0.20248401264773405,-1.914338829924072,1.6302733530634832,-1.0412716467341363,-0.5937060685757041,0.1809489337903147,0.6906194602460733,1,left
0.966,0.17996657594172194,1.140850669861541,0.20470489577788786,-1.9248874700103034,1.6480134707775072,-1.0437483848877671,-0.5895559808793973,0.1794694501178457,0.7013753161075328,1,left
0.97,0.1841524434026098,1.1391732447749472,0.20694715164227603,-1.9347731238563781,1.6654026170423524,-1.0459285976170618,-0.5851576030213584,0.17804206623956553,0.7120108298492319,1,left
0.97,0.1883391894297955,1.1374405466798656,0.20920984012476318,-1.9439852013989836,1.6824283188932179,-1.0478007705092969,-0.5805092334877223,0.17666673563283092,0.7225187158504364,1,left
0.975,0.1925239172803946,1.1356528660861138,0.2114919887456478,-1.9525135824635755,1.6990783093331376,-1.0493533517071116,-0.5756093542814275,0.17534324370597085,0.7328916696338054,1,left
0.976,0.19670376969184752,1.1338104819538877,0.21379259226678748,-1.960348637092869,1.7153405354136368,-1.050574770066368,-0.5704566346837675,0.17407120387960526,0.7431223748977727,1,left
0.98,0.20087593163273942,1.1319136602510234,0.21611061243936663,-1.9674812459539666,1.7312031659954965,-1.051453453876093,-0.5650499348028438,0.17285005375875823,0.7532035110698039,1,left
0.98,0.20503763280495388,1.1299626526206725,0.21844497792522155,-1.9739028208485982,1.7466545992374385,-1.0519778501449373,-0.5593883088948428,0.1716790513919628,0.7631277614103146,1,left
0.987,0.2091861499404335,1.1279576951602681,0.22079458441091915,-1.9796053253489625,1.7616834698594168,-1.0521364444576358,-0.5534710084433307,0.1705572716137018,0.7728878216966217,1,left
0.987,0.21331880893960647,1.1258990073094772,0.22315829492095066,-1.9845812955796396,1.7762786562260604,-1.0519177814039677,-0.5472974849851281,0.16948360247408595,0.7824764094950114,1,left
0.988,0.21743298689714674,1.1237867908428842,0.2255349403261284,-1.9888238611640088,1.7904292872946315,-1.0513104855816997,-0.5408673926910577,0.16845674179686787,0.7918862739242368,1,left
0.99,0.221526114053306,1.1216212289632697,0.22792332003766042,-1.9923267663515343,1.8041247494706496,-1.050303283173942,-0.5341805907459706,0.16747519397372782,0.80111020562552,1,left
0.99,0.22559567569954292,1.1194024854934301,0.23032220287380306,-1.9950843913402003,1.817354693413086,-1.048885024100266,-0.5272371455921899,0.16653726713995984,0.8101410465493234,1,left
0.995,0.22963921406012483,1.1171307041677512,0.232730328079998,-1.9970917738062686,1.830109040829755,-1.0470447047398126,-0.5200373330793021,0.16564107083976604,0.8189716992729585,1,left
0.997,0.23365433016601975,1.1148060080283373,0.2351464064752793,-1.9983446306514103,1.8423779913022242,-1.0447714912234733,-0.5125816405256496,0.1647845142228002,0.8275951357503367,1,left
0.9990000000000001,0.23763868573103156,1.1124284989338034,0.2375691216924197,-1.9988393799369426,1.8541520291609543,-1.0420547432687777,-0.5048707686756725,0.16396530477667323,0.8360044054989234,1,left
1.0,0.2415900050338667,1.1099982571905764,0.2399971314808561,-1.9985731627818442,1.8654219303436217,-1.0388840384185365,-0.49690563353241707,0.16318094759284113,0.8441926432492527,1,left
1.001,0.24550607680580744,1.1075153413163763,0.24242906904766945,-1.997543864655434,1.8761787690126979,-1.0352491963426007,-0.4886873680437941,0.16242874516341002,0.8521530760817567,1,left
1.004,0.24938475612007216,1.1049797879465206,0.24486354441522076,-1.9957501353025242,1.8864139236205555,-1.0311403027494528,-0.4802173236204374,0.16170579770649954,0.8598790300750543,1,left
1.004,0.25322396627311744,1.1023916118981607,0.24729914577188386,-1.9931914067275667,1.896119082195304,-1.026547732564413,-0.4714970714622844,0.1610090040179053,0.8673639364892071,1,left
1.0090000000000001,0.25702170064179103,1.0997508064117854,0.24973444079104257,-1.989867909005753,1.905286246774579,-1.0214621722303594,-0.4625284036702723,0.1603350628468936,0.8746013375067961,1,left
1.0090000000000001,0.260776024496506,1.097057343588896,0.25216797789818224,-1.9857806838777334,1.913907736999388,-1.015874641096866,-0.4533133341188199,0.1596804747940448,0.8815848915540009,1,left
1.015,0.26448507674922866,1.0943111750413403,0.25459828747382646,-1.9809315961206038,1.9219761928958818,-1.0097765118845436,-0.44385409906405,0.1590415447291361,0.888308378223166,1,left
1.015,0.2681470716136555,1.0915122327651026,0.25702388298707984,-1.9753233426856165,1.9294845768713678,-1.0031595302099572,-0.4341531574619903,0.15841438472712097,0.8947657028176375,1,left
1.02,0.2717603001523426,1.088660430248991,0.2594432620610737,-1.9689594595908781,1.9364261749493135,-0.996015833155048,-0.4242131909702866,0.15779491752031616,0.9009509005389122,1,left
1.02,0.27532313168324174,1.085755663824697,0.2618549074795638,-1.9618443265551067,1.9427945972665086,-0.9883379668635245,-0.41403710360625884,0.15717888046495246,0.906858140335406,1,left
1.024,0.27883401501861554,1.082797814259875,0.2642572881520095,-1.9539831693563465,1.948583777853938,-0.9801189031451961,-0.4036280210334374,0.15656183002027912,0.912481728431375,1,left
1.024,0.2822914795133082,1.0797867485915775,0.26664886006045146,-1.945382059897371,1.9537879737212938,-0.9713520550677138,-0.3929892894480323,0.155939146738433,0.917816111553749,1,left
1.0290000000000001,0.28569413590554565,1.0767223221932178,0.26902806721499245,-1.9360479139573423,1.9584017632634052,-0.9620312915136432,-0.3821244740361069,0.15530604076329305,0.9228558798738328,1,left
1.031,0.2890406769401365,1.0736043810639941,0.27139334264548143,-1.9259884866071564,1.962420044005211,-0.952150950679246,-0.37103735697156326,0.1546575578365378,0.9275957696800168,1,left
1.034,0.2923298777692744,1.0704327643257425,0.27374310945417285,-1.9152123652637836,1.9658380297002085,-0.9417058524897726,-0.3597319349243819,0.1539885858091066,0.9320306657968129,1,left
1.034,0.29556059612926877,1.0672073069084735,0.2760757819475889,-1.9037289603568042,1.968651246795623,-0.9306913099044755,-0.3482124160479139,0.15329386165623488,0.9361556037646808,1,left
1.038,0.29873177229349235,1.0639278424025267,0.2783897668575599,-1.891548493578259,1.9708555302758308,-0.9191031390829515,-0.33648321641338447,0.15256797899419025,0.9399657717942487,1,left
1.0390000000000001,0.30184242880365225,1.060594206052127,0.2806834646544175,-1.878681983684882,1.972447018893847,-0.9069376683827949,-0.32454895585913707,0.15180539609677576,0.9434565125076614,1,left
1.043,0.304891669983574,1.057206237861454,0.28295527095150785,-1.865141229819743,1.973422149798947,-0.8941917461569094,-0.31241445322153777,0.15100044440959287,0.9466233244788916,1,left
1.044,0.30787868124261675,1.0537637857812163,0.285203577999871,-1.8509387923183347,1.9737776525667488,-0.8808627473171852,-0.30008472091385324,0.15014733755996723,0.9494618635839523,1,left
1.048,0.31080272817958127,1.0502667089434319,0.28742677627401275,-1.836087970962172,1.9735105426363202,-0.8669485786295817,-0.28756495881882893,0.14924018086033428,0.9519679441710275,1,left
1.0490000000000002,0.31366315550193546,1.0467148809146245,0.28962325615201934,-1.8206027806410272,1.9726181141571049,-0.8524476827039992,-0.2748605474601198,0.1482729813027598,0.95413754005961,1,left
1.054,0.31645938577890265,1.0431081929410555,0.2917914096933996,-1.8044979243830264,1.9710979322466788,-0.8373590406406388,-0.261977040417164,0.1472396580421318,0.9559667853767916,1,left
1.055,0.31919091804941463,1.0394465571634564,0.29392963251504184,-1.7877887637099843,1.9689478246585685,-0.8216821732928821,-0.24892015597060868,0.14613405335895038,0.9574519752396131,1,left
1.055,0.3218573263057054,1.0357299097838741,0.2960363257616753,-1.7704912862735158,1.9661658728575615,-0.8054171411050243,-0.23569576808017828,0.14494994406019576,0.9585895663000186,1,left
1.058,0.3244582578698502,1.0319582141727763,0.2981098981645036,-1.7526220707256959,1.9627504024981335,-0.7885645424815203,-0.2223098970039282,0.14368105321847263,0.9593761771834418,1,left
1.0590000000000002,0.3269934316751586,1.02813146390876,0.3001487681786842,-1.7341982487763032,1.9586999732998174,-0.7711255106427043,-0.2087686999826393,0.1423210621171481,0.9598085888596726,1,left
1.063,0.32946263645908846,1.0242496857465089,0.30215136618556765,-1.7152374643869877,1.9540133683115126,-0.7531017089202611,-0.19507846229731718,0.14086362230124766,0.9598837449750466,1,left
1.063,0.3318657288697075,1.0203129425122672,0.30411613674188653,-1.6957578300510687,1.9486895825549237,-0.734495324444038,-0.18124558879973074,0.13930236769172272,0.959598752158529,1,left
1.068,0.3342026314830199,1.0163213359295051,0.3060415408586805,-1.6757778801872967,1.9427278110580932,-0.7153090602122365,-0.16727659590016627,0.137630926752714,0.9589508803046451,1,left
1.069,0.33647333072478947,1.0122750093787503,0.30792605829775754,-1.655316522080478,1.9361274364011931,-0.6955461257460239,-0.1531781039730826,0.13584293470761064,0.9579375628334693,1,left
1.069,0.3386778746901401,1.0081741505940716,0.30976818988028954,-1.634392985531377,1.9288880160983495,-0.6752102269071398,-0.13895683014094287,0.13393204579940604,0.956556396926846,1,left
1.074,0.3408163708568733,1.0040189942969076,0.31156645980695324,-1.6130267727829788,1.9210092702504722,-0.6543055556660888,-0.12461958139610806,0.13189194559053508,0.9548051437389775,1,left
1.074,0.3428889836917998,0.999809824768328,0.31331941799027235,-1.5912376098827037,1.9124910697891977,-0.632836780396175,-0.11017324802030584,0.12971636329704286,0.9526817285784607,1,left
1.078,0.34489593215320025,0.9955469783616381,0.31502564239903674,-1.5690453999078418,1.9033334254267782,-0.6108090368877784,-0.095624797260835,0.12739908415158172,0.9501842410578017,1,left
1.078,0.34683748709733536,0.9912308459555903,0.3166837414132869,-1.546470178074092,1.893536477311885,-0.5882279200649656,-0.08098126722233354,0.12493396178936221,0.9473109352053729,1,left
1.082,0.34871396860149684,0.98686187534531,0.3182923561863415,-1.523532068664655,1.8831004853668563,-0.565099476342769,-0.06624976093262477,0.12231493065079531,0.944060229533707,1,left
1.082,0.3505257432194546,0.9824405735661671,0.3198501630076383,-1.500251243716168,1.8720258202800857,-0.5414301965618705,-0.05143744054086298,0.11953601839415492,0.940430707056952,1,left
1.087,0.35227322118741117,0.9779675091455434,0.32135587565722135,-1.4766478833966732,1.8603129551254043,-0.5172270094358293,-0.036551521605926805,0.11659135831116665,0.9364211152492269,1,left
1.087,0.3539568535994861,0.9734433142775999,0.3228082477397854,-1.452742138009772,1.847962457578478,-0.4924972754444291,-0.021599267432756107,0.11347520173798589,0.9320303659345384,1,left
1.092,0.3555771295707526,0.9688686869169255,0.32420607498305876,-1.4285540915581234,1.8349749826984094,-0.46724878110516216,-0.006587983414096055,0.11018193045356973,0.9272575350978273,1,left
1.093,0.35713457340298566,0.9642443927887953,0.325548197482332,-1.4041037267985275,1.8213512662408922,-0.44148973355333765,0.00847498866509918,0.10670606905697064,0.9221018626056278,1,left
1.099,0.35862974176510587,0.9595712673156848,0.3268335018709513,-1.3794108917199608,1.807092118467445,-0.415228755359789,0.02358227640354129,0.10304229731458837,0.9165627518237185,1,left
1.099,0.36006322089821796,0.9548502174603241,0.32806092339548265,-1.3544952673751207,1.7921984184134143,-0.38847487951366527,0.038726482682868844,0.09918546246790753,0.910639769118058,1,left
1.101,0.36143562385321965,0.9500822234841853,0.32922944787388675,-1.3293763369952833,1.77667110857561,-0.36123754449632656,0.053900191733550464,0.09513059149172398,0.9043326432241895,1,left
1.102,0.3627475877660767,0.9452683406167519,0.3303381135161643,-1.30407335631758,1.760511189978615,-0.3335265893709223,0.06909597541081343,0.09087290329232404,0.8976412644692016,1,left
1.1059999999999999,0.36399977117277393,0.9404097006260409,0.3313860125896755,-1.278605325053159,1.7437197175769834,-0.3053522488108157,0.08430639972408704,0.08640782083452608,0.8905656838292302,1,left
1.107,0.36519285136301094,0.9355075132760051,0.33237229291497306,-1.2529909594241162,1.7262977959487236,-0.2767251479886304,0.09952403166353474,0.08173098318592575,0.883106111804383,1,left
1.114,0.3663275217684415,0.9305630676523429,0.3332961591815383,-1.2272486656965418,1.7082465752336478,-0.2476562972463343,0.11474144636731239,0.07683825746610368,0.8752629170918623,1,left
1.115,0.3674044893794047,0.9255777333354699,0.33415687407560224,-1.2013965146365644,1.6895672472683507,-0.2181570864654472,0.12995123467323227,0.07172575068795922,0.8670366250369627,1,left
1.1159999999999999,0.36842447218693786,0.9205529613987375,0.33495375921568776,-1.1754522168158492,1.6702610418677708,-0.18823927905515694,0.145146011098533,0.06638982147772617,0.8584279158405126,1,left
1.1159999999999999,0.36938819665441003,0.915490285211157,0.33568619589754745,-1.1494330986926362,1.6503292232014803,-0.157915005474862,0.16031842229145485,0.06082709165960651,0.8494376225002322,1,left
1.121,0.37029639523187996,0.91039132102599,0.3363536256575208,-1.1233560793940902,1.629773086211052,-0.1271967562064227,0.17546115599829823,0.055034457690327505,0.8400667284623745,1,left
1.122,0.37114980393340213,0.9052577683391568,0.3369555506689967,-1.0972376481254722,1.6085939530130344,-0.09609737409020076,0.19056695056456735,0.04900910192211419,0.8303163649737031,1,left
1.122,0.37194916000098455,0.9000914100039679,0.33749153398861836,-1.0710938421314178,1.5867931692302848,-0.06463004593780108,0.2056286048635696,0.04274850364105906,0.8201878081966701,1,left
1.126,0.37269519967788745,0.8948941120907753,0.3379611996667919,-1.0449402251344504,1.5643721001926103,-0.03280829333329754,0.22063898832045944,0.03625044977166395,0.8096824762825906,1,left
1.127,0.3733886561118097,0.8896678234826592,0.3383642327334813,-1.0187918661757287,1.5413321269458755,-0.0006459625336313558,0.23559105057444163,0.029513045106801552,0.7988019266704296,1,left
1.1320000000000001,0.37403025740882606,0.884414575202256,0.3387003790682946,-0.9926633187829601,1.5176746420069562,0.03184278662218621,0.2504778304468894,0.022534721952528473,0.7875478538038261,1,left
1.133,0.3746207248595471,0.8791364794696411,0.3389694451633231,-0.9665686003903796,1.4934010448001278,0.06464349288645249,0.2652924641082843,0.01531424913204729,0.7759220873248623,1,left
1.136,0.37516077135659437,0.8738357284949091,0.3391712977862031,-0.9405211719760118,1.4685127367510022,0.09774140691187927,0.2800281924618819,0.007850740323287511,0.7639265907281088,1,left
1.137,0.3756511000176948,0.8685145930101659,0.33930586354883924,-0.9145339180830062,1.4430111162238346,0.1311215055544225,0.29467836778685585,0.00014366171005600909,0.7515634604426165,1,left
1.137,0.3760924030230185,0.863175420545016,0.33937312838459716,-0.8886191277546663,1.416897573866918,0.16476850667577225,0.3092364596834628,-0.007807161073987558,0.7388349253084658,1,left
1.141,0.3764853606697222,0.85782063345152,0.3393731369342203,-0.8627884771144441,1.3901734891405015,0.19866688375620586,0.32369606036254617,-0.016001536729972093,0.7257433464134141,1,left
1.1420000000000001,0.3768306406419757,0.8524527266905716,0.33930599183946686,-0.8370530141208237,1.3628402285884225,0.23280087982540426,0.33805088932145094,-0.024438902829213974,0.7122912172541322,1,left
1.146,0.3771288974894667,0.8470742653969097,0.3391718529432555,-0.8114231456644967,1.33489914603222,0.2671545205725527,0.35229479744815734,-0.03311832112221367,0.6984811641854686,1,left
1.147,0.37738077229889094,0.8416878822415499,0.3389709363937919,-0.7859086269739486,1.3063515846532563,0.3017116266938558,0.3664217705951578,-0.04203847364478917,0.6843159471201381,1,left
1.15,0.37758689253346933,0.8362962746114275,0.3387035136489969,-0.7605185532555511,1.2771988808843282,0.3364558255754909,0.3804259326643022,-0.05119765964558242,0.669798460440198,1,left
1.151,0.3777478720103439,0.8309022016281663,0.3383699103811162,-0.7352613534945509,1.2474423700305033,0.3713705624106526,0.3943015482435169,-0.06059379335986964,0.6549317340806413,1,left
1.156,0.37786431098642337,0.8255084810283757,0.3379705052889191,-0.71014478634368,1.2170833935371763,0.40643911084992757,0.40804302483596827,-0.07022440265529711,0.6397189347444239,1,left
1.157,0.3779367963269537,0.8201179859257105,0.33750572883077007,-0.6851759380264664,1.1861233078215987,0.44164458328477463,0.42164491472188886,-0.08008662857584974,0.6241633672072258,1,left
1.161,0.3779659017339188,0.8147336414718663,0.3369760618939256,-0.6603612221827034,1.1545634945824026,0.47696994086437383,0.4351019164929142,-0.09017722581103971,0.6082684756692457,1,left
1.162,0.3779521880129098,0.8093584214305491,0.3363820344146258,-0.6357063815839413,1.1224053724999081,0.5123980033465525,0.4484088762983947,-0.1004925641179753,0.5920378451103325,1,left
1.165,0.37789620336017377,0.8039953446754992,0.335724223959357,-0.6112164916472846,1.0896504102382785,0.547911458883886,0.4615607888427462,-0.11102863072463433,0.5754752026037759,1,left
1.166,0.37779848365695456,0.7986474716220604,0.3350032542704379,-0.5868959656762235,1.0563001406588604,0.5834928738464172,0.4745527981724851,-0.12178103374332204,0.5585844185430999,1,left
1.172,0.3776595527631429,0.793317900601525,0.3342197937728047,-0.5627485617576807,1.0223561761523345,0.6191247027827328,0.4873801982911664,-0.13274500662393798,0.5413695077352435,1,left
1.173,0.3774799228045913,0.7880097641863998,0.3333745540372127,-0.5387773912449335,0.987820224995581,0.6547892986213789,0.500038433639995,-0.14391541367730995,0.5238346303125553,1,left
1.177,0.37726009444938335,0.7827262254717123,0.332468288197556,-0.5149849287565501,0.952694108637456,0.6904689232147955,0.5125230994814228,-0.155286756699473,0.5059840924150878,1,left
1.178,0.37700055716929726,0.7774704743139564,0.3315017893234344,-0.49137302362197965,0.9169797798159748,0.7261457583280904,0.5248299422225722,-0.1668531827283796,0.48782234659374757,1,left
1.181,0.37670178948322053,0.772245723527239,0.33047588875078104,-0.4679429127049368,0.8806793414076881,0.7618019171750714,0.536954859714839,-0.17860849296511833,0.46935399188393623,1,left
1.182,0.3763642591795141,0.7670552050358731,0.32939145437306955,-0.44469523453623705,0.843795065908352,0.7974194566039956,0.5488939015655323,-0.19054615289229557,0.45058377349841283,1,left
1.185,0.37598842351610634,0.761902165982768,0.32824938889510236,-0.4216300446882541,0.8063294154422948,0.8329803900354854,0.5606432694968944,-0.20265930362279394,0.43151658208721316,1,left
1.185,0.37557472940105474,0.7567898647928948,0.3270506280520768,-0.3987468323236919,0.7682850621962071,0.8684667012550082,0.5721993177873265,-0.21494077451266336,0.4121574525115823,1,left
1.19,0.3751236135606105,0.7517215671916335,0.325796138798644,-0.37604453785188774,0.7296649091713999,0.9038603591621952,0.583558553829109,-0.22738309707242382,0.3925115620780092,1,left
1.1909999999999998,0.37463550270421453,0.7467005421787459,0.32448691747474107,-0.35352157162638453,0.6904721111469083,0.9391433335791199,0.594717638824788,-0.23997852017954868,0.372584228200925,1,left
1.192,0.3741108136957943,0.7417300579584467,0.32312398795479114,-0.3311758336180331,0.6507100957441556,0.9742976122194413,0.6056733885859893,-0.25271902643531646,0.3523809055784297,1,left
1.195,0.3735499537394495,0.7368133778248828,0.32170839978418836,-0.3090047339984031,0.6103825844822394,1.0093052189200487,0.6164227742937082,-0.2655963492215621,0.3319071831745322,1,left
1.195,0.3729533205864857,0.7319537560035809,0.32024122630505,-0.28700521456879585,0.5694936137112567,1.0441482332365262,0.6269629230206905,-0.27860198985323326,0.3111687814172201,1,left
1.2,0.3723213027693509,0.7271544334543222,0.31872356277378555,-0.26517377097066,0.5280475553094499,1.07880881150339,0.6372911178737958,-0.2917272343831385,0.2901715499042448,1,left
1.2009999999999998,0.37165427986484173,0.7224186336463185,0.31715652447376314,-0.24350647561371186,0.48604913702833247,1.1132692094596242,0.6474047977177861,-0.3049631699037841,0.2689214656977835,1,left
1.205,0.3709526227838073,0.7177495583201478,0.3155412448255702,-0.22199900125855357,0.4435034623683409,1.147511806539575,0.6573015564992416,-0.3183007003516292,0.24742463217174235,1,left
1.206,0.37021669407895896,0.7131503832525111,0.3138788734963697,-0.2006466451887049,0.4004160298866918,1.1815191318621256,0.6669791422002672,-0.3317305618514462,0.22568727835139463,1,left
1.206,0.36944684825862784,0.7086242540385647,0.3121705745096956,-0.17944435389562763,0.356792751941205,1.2152738916174688,0.6764354554510407,-0.34524333763878917,0.20371575868432074,1,left
1.21,0.36864343209354855,0.7041742819025616,0.3104175243577708,-0.15838674817953252,0.312639973058876,1.2487589969507031,0.6856685478296262,-0.3588294725988659,0.1815165531809085,1,left
1.2109999999999999,0.3678067849038272,0.6998035395453609,0.30862091012068077,-0.13746814855739733,0.2679644882200932,1.281957591107771,0.6946766198768506,-0.3724792874603741,0.15909626786198267,1,left
1.215,0.36693723881177687,0.6955150570402076,0.3067819276004167,-0.11668260088186065,0.22277356124419348,1.3148530749415617,0.7034580188534033,-0.3861829926830995,0.13646163545045845,1,left
1.216,0.36603511894441726,0.6913118177929898,0.3049017794809319,-0.09602390209632006,0.17707494327392698,1.347429130474698,0.7120112362656821,-0.3999307020782833,0.11361951624326182,1,left
1.222,0.3651007435691627,0.6871967545855586,0.3029816735267015,-0.07548562606376737,0.13087689125124147,1.3796697425477327,0.7203349051862562,-0.41371244620095204,0.09057689909912267,1,left
1.2229999999999999,0.36413442414762925,0.683172745720209,0.30102282083289666,-0.055061149409636155,0.08418818625457983,1.4115592186472203,0.7284277973941716,-0.42751818555355464,0.06734090247723272,1,left
1.224,0.36313646529540505,0.6792426112819078,0.29902643414079555,-0.034743677319300795,0.03701815156642953,1.4430822070072105,0.7362888203596674,-0.4413378236403786,0.043918775461163975,1,left
1.225,0.36210716464030135,0.6754091095331856,0.29699372623109355,-0.014526269231211867,-0.010623329661572015,1.4742237130767504,0.7439170140972101,-0.4551612199123149,0.020317898701867794,1,left
1.23,0.36104681257721993,0.671674933454433,0.294925908405019,0.005598135633020867,-0.05872579728008033,1.50496911444497,0.7513115479100941,-0.4689782026416109,-0.003454214786980859,1,left
1.2309999999999999,0.3599556919228945,0.6680427074398423,0.29282418906076685,0.02563669295997955,-0.10727819768552066,1.5353041743142801,0.7584717170491886,-0.4827785817662893,-0.027389919048563426,1,left
1.234,0.3588340774776787,0.6645149841574218,0.29068977237136356,0.04559662831531773,-0.15626886817243735,1.5652150536111056,0.7653969393077416,-0.4965521617439207,-0.05148143488520492,1,left
1.235,0.3576822355042378,0.6610942415801923,0.28852385706749534,0.06548521245199582,-0.2056855222328776,1.5946883218224515,0.7720867515734846,-0.5102887544544229,-0.07572084991164274,1,left
1.239,0.3565004231348071,0.6577828801941483,0.2863276353245845,0.08530973701345339,-0.25551523594226244,1.6237109666454181,0.7785408063586035,-0.5239781921915073,-0.10010011902802125,1,left
1.24,0.3552888877205848,0.6545832203873239,0.2841022917498068,0.10507749068907367,-0.3057444355724559,1.6522704025355575,0.7847588683274688,-0.5376103407823197,-0.12461106538180365,1,left
1.2429999999999999,0.35404786613906214,0.6514975000234643,0.2818490024628665,0.12479573587909047,-0.35635888657396514,1.680354478238714,0.7907408108413454,-0.5511751128747153,-0.149245381888217,1,left
1.244,0.35277758407608345,0.6485278722019819,0.2795689342627097,0.14447168592590387,-0.4073436840703897,1.7079514833897,0.7964866125386192,-0.5646624814314715,-0.17399463337924828,1,left
1.249,0.3514782552983432,0.6456764032022904,0.2772632438702174,0.1641124829686076,-0.45868324500938473,1.7350501542598162,0.8019963539684054,-0.5780624934705779,-0.1988502594515864,1,left
1.25,0.35015008093051403,0.6429450706060917,0.27493307723544264,0.183725176477389,-0.5103613021155071,1.7616396787338768,0.8072702142947203,-0.5913652840905514,-0.2238035780842607,1,left
1.254,0.3487932487504624,0.6403357615862272,0.27257956889764734,0.2033167025243411,-0.5623608997913778,1.7877097005959905,0.8123084680877259,-0.6045610908194998,-0.24884579009705454,1,left
1.254,0.34740793251563035,0.6378502713454143,0.2702038413861752,0.22289386384712392,-0.6146643921146092,1.8132503232019213,0.8171114822178737,-0.6176402683264063,-0.27396798452107973,1,left
1.258,0.3459942913329535,0.6354903016842637,0.2678070046495177,0.242463310761833,-0.667253443078919,1.8382521126143936,0.8216797128644356,-0.630593303509835,-0.29916114491896395,1,left
1.2590000000000001,0.3445524690827244,0.6332574596777703,0.2653901554996876,0.2620315229813701,-0.7201090292287726,1.86270610027621,0.8260137026309229,-0.6434108308639734,-0.32441615652129724,1,left
1.26,0.34308259390385265,0.631153256442494,0.2629543770599875,0.2816047923955711,-0.7732114448377699,1.886603785294534,0.8301140777262468,-0.6560836478146328,-0.34972381373830036,1,left
1.265,0.3415847777470425,0.6291791059795132,0.2605007382058066,0.30118920686932193,-0.8265403097818084,1.9099371364081432,0.8339815451514936,-0.6686027296024908,-0.37507482743481946,1,left
1.266,0.3400591160056069,0.627336324079512,0.258030292989423,0.3207906351148916,-0.880074580258821,1.9326985937078807,0.8376168898498235,-0.680959243405448,-0.4004598315279909,1,left
1.268,0.3385056872393193,0.6256261272783487,0.25554408004148793,0.34041471269472323,-0.9337925625075946,1.954881070178942,0.8410209718092987,-0.6931445615985129,-0.42586938877498437,1,left
1.2690000000000001,0.33692455301198015,0.6240496318560514,0.2530431219444632,0.36006682921095706,-0.9876719296788209,1.9764779531320122,0.8441947231260885,-0.7051502741641641,-0.45129399578941787,1,left
1.274,0.3353157578659706,0.6226078528785848,0.25052842457574953,0.37975211673800685,-1.0416897420121256,1.997483105588623,0.8471391450384975,-0.7169682002886688,-0.4767240873593484,1,left
1.274,0.33367932945562917,0.621301703288031,0.24800097641934618,0.3994754395279181,-1.0958224703861021,2.017890867663363,0.8498553049415987,-0.7285903991793441,-0.5021500401398131,1,left
1.276,0.3320152788565543,0.6201319930507433,0.2454617478444695,0.41924138488502616,-1.1500460228726341,2.037696057878498,0.8523443333915879,-0.740009180137233,-0.5275621757929384,1,left
1.2790000000000001,0.33032360106273756,0.6190994283738305,0.24291169034790788,0.4390542548666043,-1.2043357731420143,2.056893974155152,0.8546074211083247,-0.751217111919128,-0.5529507636486497,1,left
1.2790000000000001,0.3286042756807148,0.6182046110014301,0.24035173575495106,0.45891805833300964,-1.2586665891294917,2.0754803941180864,0.8566458159838616,-0.7622070314223123,-0.5783060229590039,1,left
1.284,0.3268572678292417,0.6174480376068109,0.23778279537350414,0.4788365030042478,-1.3130128608103429,2.093451574454784,0.8584608201041167,-0.7729720517248077,-0.603618124819125,1,left
1.285,0.32508252925031117,0.6168300993020228,0.2352057590978376,0.498812987419934,-1.3673485267159236,2.110804249257511,0.860053786790192,-0.7835055695133077,-0.6288771938276569,1,left
1.287,0.3232799996306958,0.6163510812896679,0.23262149446043912,0.5188505928330628,-1.4216470992594863,2.1275356273806576,0.8614261176651962,-0.7938012719303571,-0.6540733095595508,1,left
1.288,0.32144960812483403,0.6160111626811736,0.23003084563164897,0.5389520750948149,-1.475881689027826,2.1436433888649806,0.8625792597517904,-0.8038531428716826,-0.6791965079238809,1,left
1.2930000000000001,0.3195912750617122,0.6158104165042498,0.22743463236777162,0.5591198565877951,-1.5300250281947914,2.1591256804785917,0.8635147026050346,-0.8136554687639278,-0.7042367824792304,1,left
1.294,0.3177049138106759,0.6157488099193971,0.2248336489103985,0.5793560182652691,-1.5840494932125875,2.1739811104227487,0.8642339754844804,-0.8232028438523499,-0.7291840857790065,1,left
1.3,0.31579043277483243,0.6158262046610798,0.2222286628437534,0.5996622918541519,-1.6379271269366138,2.1882087422487193,0.8647386445688267,-0.8324901750273472,-0.7540283308188375,1,left
1.3019999999999998,0.3138477374774577,0.616042357713403,0.21962041392144263,0.6200400522796873,-1.6916296603393164,2.2018080880301976,0.8650303102158269,-0.8415126862179623,-0.778759392657961,1,left
1.3030000000000002,0.3118767327064845,0.6163969222236496,0.21700961287673914,0.6404903103699563,-1.7451285339681928,2.2147791008339337,0.8651106042695212,-0.8502659223797768,-0.8033671102862515,1,left
1.304,0.3098773246826749,0.6168894486515691,0.21439694023241224,0.6610137058985527,-1.7983949193026645,2.227122166529461,0.8649811874162424,-0.8587457531038699,-0.8278412888082344,1,left
1.307,0.3078494232170283,0.6175193861484014,0.21178304512934157,0.6816105010239656,-1.851399740164028,2.2388380949769813,0.8646437465902396,-0.8669483758727485,-0.8521717020151122,1,left
1.308,0.3057929438233321,0.6182860841558939,0.20916854419737926,0.7022805741844207,-1.9041136943321126,2.249928110630671,0.8640999924291538,-0.8748703189883867,-0.8763480954154708,1,left
1.3119999999999998,0.30370780975377615,0.619188794211574,0.206554020495142,0.7230234145071378,-1.9565072755215973,2.260393842592871,0.8633516567789777,-0.8825084441967251,-0.9003601897949527,1,left
1.3130000000000002,0.30159395392850014,0.6202266719436349,0.20394002254641122,0.7438381167911735,-2.0085507958701996,2.2702373141528196,0.8624004902475305,-0.8898599490321887,-0.9241976853747687,1,left
1.317,0.299451320732927,0.6213987792371415,0.20132706350009644,0.764723377123229,-2.0602144090901002,2.2794609318417867,0.8612482598048945,-0.8969223689049727,-0.9478502666384782,1,left
1.318,0.29727986766003656,0.6227040865517042,0.19871562043965155,0.7856774891860074,-2.1114681344330535,2.2880674740346825,0.8598967464286642,-0.9036935789530323,-0.9713076078959985,1,left
1.3219999999999998,0.29507956677812186,0.6241414753698469,0.1961061338667813,0.8066983413189145,-2.162281881618629,2.2960600791264234,0.8583477427912798,-0.9101717956798917,-0.9945593796532972,1,left
1.3230000000000002,0.29285040600738843,0.62570974075668,0.19349900738227127,0.8277834143910958,-2.2126254768739324,2.303442233309555,0.8566030509861392,-0.9163555783985544,-1.017595255855694,1,left
1.327,0.2905923901915215,0.6274075940147187,0.19089460758359694,0.8489297805470031,-2.2624686902319824,2.310217757977869,0.8546644802886105,-0.922243830500964,-1.0404049220721359,1,left
1.328,0.28830554195387553,0.629233665420438,0.18829326419544865,0.8701341028848698,-2.3117812642346482,2.316390796778976,0.8525338449505767,-0.9278358005608623,-1.0629780846535242,1,left
1.328,0.28598990233162536,0.631186507030991,0.1856952704453128,0.8913926361286624,-2.360532944184712,2.3219658023370537,0.8502129620419804,-0.9331310832232524,-1.085304480729069,1,left
1.3330000000000002,0.2836455311840048,0.6332645955519606,0.18310088369115796,0.9127012283542484,-2.4086935100901736,2.3269475226652427,0.8477036493799923,-0.9381296197359893,-1.1073738886007307,1,left
1.3330000000000002,0.2812725073733831,0.6354663352595292,0.18051032630343075,0.9340553238306858,-2.456232810442395,2.331340987285429,0.84500772360127,-0.9428316979243784,-1.129176137926649,1,left
1.337,0.2788709287222893,0.6377900609712185,0.1779237868009555,0.9554499670376968,-2.5031207979680685,2.335151493071444,0.8421269984168323,-0.9472379514626018,-1.150701119252229,1,left
1.338,0.2764409117558632,0.6402340410589364,0.1753414212391199,0.976879807920529,-2.5493275674933007,2.338384589830003,0.8390632830608197,-0.9513493583917774,-1.171938792750087,1,left
1.3430000000000002,0.27398259124581237,0.6427964804978804,0.17276335484611446,0.9983391084435382,-2.594823396056311,2.341046065632014,0.8358183809284793,-0.9551672388874028,-1.1928791961977694,1,left
1.3430000000000002,0.2714961195767838,0.6454755239451788,0.17018968389808178,1.0198217505039426,-2.6395787854033808,2.3431419319052154,0.8323940883951019,-0.9586932522888415,-1.2135124522550547,1,left
1.344,0.2689816659579609,0.648269258843421,0.16762047781862366,1.0413212452321425,-2.683564506910899,2.3446784083050947,0.8287921938071147,-0.9619293934026648,-1.233828775101833,1,left
1.347,0.2664394155008958,0.6511757185463867,0.16505578148431788,1.06283074352931,-2.726751648525216,2.3456619074176683,0.8250144766360122,-0.9648779880908245,-1.2538184764966964,1,left
1.348,0.2638695681797123,0.6541928854657247,0.16249561771582488,1.0843430473766222,-2.7691116625014653,2.3460990194149534,0.8210627067852914,-0.9675416881537856,-1.2734719713154896,1,left
1.3519999999999999,0.2612723376862298,0.6573186942360878,0.15993998993167782,1.105850621274781,-2.8106164122712176,2.3459964968206193,0.8169386440400467,-0.9699234655179244,-1.2927797826281677,1,left
1.3519999999999999,0.258647950194138,0.6605510348928556,0.1573888849377232,1.1273456033482743,-2.8512382172156228,2.3453612395034593,0.812644037648378,-0.9720266057356649,-1.3117325463713623,1,left
1.3559999999999999,0.2559966430503266,0.6638877560545153,0.1548422758215079,1.148819815965227,-2.890949894926749,2.3442002799458685,0.8081806260232632,-0.9738547008060139,-1.3303210156730971,1,left
1.357,0.253318663413215,0.6673266681028022,0.15230012492022046,1.1702647758994549,-2.9297248009864556,2.3425207687947043,0.80355013655305,-0.9754116413223437,-1.348536064885098,1,left
1.361,0.25061426685792737,0.6708655463556799,0.14976238683331278,1.1916717040964575,-2.967536866379443,2.340329960692716,0.7987542855082338,-0.9767016079534723,-1.3663686933771229,1,left
1.3619999999999999,0.24788371596865727,0.6745021342285669,0.14722901145497558,1.2130315351050158,-3.0043606326545076,2.3376352003872283,0.7937947780317052,-0.9777290622633001,-1.383810029146694,1,left
1.3659999999999999,0.24512727893896075,0.6782341463776609,0.1446999470047388,1.2343349262359862,-3.0401712849453255,2.3344439091112643,0.7886733081991655,-0.9784987368734854,-1.4008513322965384,1,left
1.367,0.24234522819980972,0.6820592718171492,0.1421751430355434,1.2555722665097642,-3.074944682959343,2.330763571230837,0.7833915591359403,-0.9790156249728739,-1.4174839984309446,1,left
1.3719999999999999,0.23953783909326842,0.6859751770006264,0.1396545533990664,1.2767336854537614,-3.108657390040501,2.3266017211506758,0.777951203175944,-0.9792849691766451,-1.433699562021126,1,left
1.3730000000000002,0.23670538860695142,0.6899795088563846,0.13713813914919215,1.2978090618110727,-3.141286700408613,2.321965930469242,0.7723539020480896,-0.9793122497373954,-1.4494896997885207,1,left
1.376,0.23384815418112967,0.6940698977663832,0.13462587136639892,1.3187880322213208,-3.1728106646752527,2.316863795372478,0.7666013070749703,-0.9791031721096551,-1.4648462341537956,1,left
1.3769999999999998,0.23096641259707268,0.6982439604792142,0.13211773388861503,1.3396599999344498,-3.2032081137329342,2.3113029242543446,0.7606950593681917,-0.9786636538686257,-1.4797611367981178,1,left
1.38,0.22806043895222608,0.7024993029470636,0.12961372593749573,1.360414143617987,-3.232458681111283,2.30529092555085,0.7546367900042764,-0.9779998109832262,-1.4942265323820394,1,left
1.381,0.22513050572503657,0.7068335230755203,0.1271138646320512,1.3810394263180188,-3.2605428238907117,2.29883539577293,0.7484281201646192,-0.9771179434428617,-1.508234702466088,1,left
1.3880000000000001,0.22217688193055943,0.7112442133746799,0.12461818738424693,1.4015246046338161,-3.287441842260874,2.2919439077222186,0.74207066122253,-0.976024520236666,-1.5217780896758983,1,left
1.389,0.2191998323685238,0.7157289635008088,0.12212675417442408,1.4218582381657072,-3.3131378978078923,2.284623998872456,0.7355660147599624,-0.974726163683322,-1.5348493021534204,1,left
1.39,0.21619961696721318,0.7202853626789109,0.11963964970783322,1.4420286992954248,-3.3376140306109914,2.276883159898003,0.7289157724960991,-0.9732296331089434,-1.547441118334431,1,left
1.391,0.213176490227299,0.7249110019972066,0.11715698545653086,1.4620241833577494,-3.360854175225773,2.2687288233296834,0.7221215161095297,-0.9715418078698874,-1.5595464920912365,1,left
1.395,0.21013070077006596,0.7296034765645549,0.11467890159296602,1.481832719261839,-3.3828431756279156,2.2601683523169425,0.7151848169353424,-0.9696696697167871,-1.5711585582781067,1,left
1.396,0.20706249099581386,0.7343603875215755,0.11220556882216602,1.501442180620164,-3.4035667991875806,2.2512090294740967,0.7081072355270568,-0.967620284518902,-1.5822706386992038,1,left
1.3969999999999998,0.20397209685946802,0.7391793438974762,0.10973719011792211,1.5208402974424622,-3.423011749741245,2.241858045787272,0.7008903211180716,-0.9654007834842698,-1.5928762484354417,1,left
1.4,0.20085974777002144,0.7440579643082366,0.10727400236552956,1.5400146684515932,-3.4411656798241093,2.232122489557442,0.6935356110981697,-0.963018344221083,-1.6029691023178008,1,left
1.401,0.19772566662033364,0.7489938784946266,0.10481627791183683,1.558952774077598,-3.4580172021225803,2.2220093353538624,0.6860446306653761,-0.9604801721021367,-1.6125431212512404,1,left
1.405,0.19457006995567164,0.7539847286974325,0.10236432602351689,1.5776419901856635,-3.473555900202664,2.211525432951034,0.6784188927679065,-0.9577934822767734,-1.621592438173846,1,left
1.406,0.19139316829099484,0.7590281708646128,0.09991849425437141,1.596069602593046,-3.487772338566393,2.200677496221257,0.6706598983692679,-0.954965482463812,-1.6301114035818614,1,left
1.41,0.1881951665868286,0.7641218756845569,0.09747916972033147,1.6142228224293325,-3.5006580720846783,2.189472091953732,0.6627691370240285,-0.9520033565415699,-1.6380945906317113,1,left
1.41,0.1849762648926392,0.7692635294411955,0.09504678027736922,1.6320888023592004,-3.51220565483362,2.1779156285966317,0.6547480877423502,-0.9489142489272774,-1.6455367998449963,1,left
1.411,0.18173665916448667,0.7744508346893958,0.09262179559462205,1.6496546535135908,-3.5224086482695705,2.166014345050164,0.6465982201209995,-0.9457052497377738,-1.6524330634409226,1,left
1.416,0.1784765422593463,0.7796815107527011,0.09020472811451496,1.6669074626639147,-3.5312616285161598,2.1537742998763716,0.6383209957181724,-0.942383380722994,-1.6587786493190864,1,left
1.416,0.17519610510341824,0.7849532940487263,0.08779613389351419,1.6838343090006003,-3.538760192444714,2.1412013614230334,0.6299178696490901,-0.9389555819633825,-1.6645690647139857,1,left
1.421,0.17189553802778523,0.7902639382491397,0.08539661331878214,1.700422280048916,-3.5449009623135646,2.1283011992254166,0.6213902923789633,-0.9354286993220351,-1.669800059541056,1,left
1.421,0.16857503226099502,0.7956112142824245,0.08300681169634523,1.7166584865646048,-3.5496815888861537,2.1150792768098925,0.6127397116895422,-0.9318094726420382,-1.6744676294524532,1,left
1.425,0.16523478156328109,0.8009929101896103,0.0806274197071874,1.7325300764234322,-3.5531007530318814,2.101540845889842,0.6039675747951223,-0.9281045246791744,-1.6785680186192071,1,left
1.425,0.16187498398235198,0.8064068308445869,0.07825917372946288,1.7480242475522696,-3.5551581658273315,2.0876909419168004,0.5950753305835061,-0.9243203507598771,-1.682097722254764,1,left
1.43,0.15849584370798245,0.8118507975509852,0.07590285602635202,1.7631282599483304,-3.555854567171606,2.07353438094887,0.5860644319570767,-0.9204633091540501,-1.685053488893319,1,left
1.432,0.15509757300207197,0.8173226475284215,0.0735592947997735,1.7778294468321243,-3.5551917229255943,2.059075757797522,0.5769363382487845,-0.9165396121521243,-1.687432322434713,1,left
1.4340000000000002,0.15168039418062634,0.822820233302454,0.07122936411145962,1.7921152249786108,-3.553172420581079,2.044319445413006,0.5676925176875058,-0.9125553178354938,-1.689231483966019,1,left
1.435,0.14824454162352943,0.8283414220133674,0.0689139836750369,1.8059731042699207,-3.549800463461696,2.0292695954677136,0.5583344498868905,-0.9085163225292634,-1.690448493368312,1,left
1.439,0.14479026378811827,0.8338840946584251,0.06661411852437474,1.819390696511848,-3.545080663453837,2.0139301400959693,0.5488636283314795,-0.9044283539260508,-1.6910811307154443,1,left
1.44,0.1413178252039845,0.8394461452812291,0.06433077856358549,1.8323557235551196,-3.5390188322617155,1.998304794747861,0.5392815628335395,-0.900296964869409,-1.6911274374699925,1,left
1.444,0.13782750842802288,0.84502548012029,0.06206501800327955,1.8448560247612336,-3.5316217711769045,1.9823970621138924,0.5295897819337358,-0.8961275277852793,-1.690585717479866,1,left
1.445,0.13431961593988412,0.8506200167269096,0.05981793468681256,1.8568795638513809,-3.5228972593488144,1.9662102370763954,0.5197898352184392,-0.8919252297497421,-1.6894545377773902,1,left
1.449,0.13079447195972407,0.856227683060564,0.05759066930930852,1.8684144351756697,-3.512854040538706,1.9497474126428198,0.5098832955261424,-0.8876950681812095,-1.6877327291809943,1,left
1.45,0.12725242417371652,0.8618464165675672,0.055384404531467084,1.8794488694385387,-3.5015018083360014,1.9330114868152135,0.4998717610151496,-0.8834418471450917,-1.685419386697942,1,left
1.456,0.12369384535767944,0.8674741632447772,0.05320036398965624,1.8899712389148695,-3.4888511898118497,1.9160051703493985,0.4897568570643872,-0.8791701742588779,-1.6825138697248576,1,left
1.4569999999999999,0.12011913489383713,0.8731088766849755,0.05103981120150532,1.899970062189915,-3.4749137275811264,1.898730995356552,0.4795402379788833,-0.87488445818549,-1.6790158020410968,1,left
1.459,0.11652872018001925,0.8787485170956431,0.04890404836073027,1.9094340084547128,-3.4597018602402634,1.881191324699126,0.46922358847115614,-0.8705889067026983,-1.6749250715883124,1,left
1.459,0.11292305793553695,0.884391050278998,0.04679441500919677,1.9183519013871901,-3.4432289011446064,1.8633883621322516,0.4588086248894594,-0.866287525336339,-1.6702418300278745,1,left
1.464,0.1093026354131779,0.8900344465586502,0.044712286571874864,1.9267127226476581,-3.4255090154852748,1.8453241631410116,0.4482970961635377,-0.8619841165450319,-1.6649664920660883,1,left
1.464,0.10566797152975511,0.8956766796371417,0.04265907274218316,1.934505615015859,-3.4065571956218608,1.8270006464231983,0.4376907844382594,-0.8576822794440642,-1.6590997345354626,1,left
1.465,0.10201961792707567,0.9013157253695024,0.04063621571098733,1.9417198851951631,-3.3863892346236755,1.8084196059664186,0.42699150537813807,-0.8533854100528658,-1.6526424952268919,1,left
1.469,0.09835815997232114,0.9069495604417617,0.03864518823980102,1.9483450063079075,-3.365021697968667,1.7895827236676556,0.4162011081901141,-0.8490967020343586,-1.6455959715075048,1,left
1.469,0.09468421770436188,0.9125761609484943,0.036687491583722164,1.954370620104242,-3.342471893345603,1.7704915824426521,0.40532147552803865,-0.8448191478654182,-1.637961618832088,1,left
1.474,0.09099844673375886,0.9181935008651149,0.03476465327259734,1.9597865389051845,-3.3187578385016163,1.7511476797717451,0.39435452350667716,-0.8405555403615624,-1.6297411492958889,1,left
1.475,0.0873015391095593,0.9237995504077476,0.03287822476217669,1.9645827472988961,-3.2938982270737656,1.731552441628034,0.383302201988145,-0.8363084744951454,-1.620936530333318,1,left
1.479,0.08359422417082327,0.9293922742713764,0.031029778969128386,1.968749403607463,-3.267912392339875,1.711707236733048,0.3721664951870906,-0.8320803494754107,-1.6115499835905307,1,left
1.479,0.07987726940061718,0.9349696297393124,0.029220907702158277,1.9722768411501792,-3.240820268891861,1.6916133910896973,0.36094942257605184,-0.827873371074931,-1.601583983956588,1,left
1.48,0.07615148129506243,0.9405295646623679,0.027453218997078286,1.9751555693798415,-3.212642352587958,1.6712722027683151,0.34965304005923975,-0.8236895541902427,-1.5910412587279175,1,left
1.484,0.07241770625325465,0.9460700153119466,0.02572833436005085,1.9773762750608816,-3.1833996597787095,1.6506849569690458,0.33827944138276383,-0.8195307256245298,-1.5799247868791075,1,left
1.485,0.06867683148939395,0.951588904115738,0.02404788592291042,1.9789298237086217,-3.1531136871548826,1.6298529414098648,0.32683075974907977,-0.8153985270802793,-1.5682377984114124,1,left
1.4880000000000002,0.06492978596744398,0.9570841372872542,0.02241351351627816,1.979807261454776,-3.121806373205877,1.6087774620620592,0.3153091696032129,-0.8112944183498917,-1.555983773748691,1,left
1.489,0.06117754135852135,0.9625536023619817,0.020826861667848452,1.9799998174083164,-3.0895000616324473,1.5874598592061275,0.3037168885580887,-0.8072196806923022,-1.5431664431488488,1,left
1.493,0.057421113020145645,0.9679951656545053,0.019289576534601546,1.9794989065266007,-3.0562174666980835,1.5659015237536091,0.292056179426085,-0.803175420383746,-1.5297897860972174,1,left
1.494,0.05366156099554726,0.9734066696530917,0.017803302778852198,1.978296132999263,-3.0219816404291633,1.5441039137743033,0.2803293523237134,-0.7991625724308802,-1.5158580306466785,1,left
1.5,0.04989999103124242,0.9787859303709819,0.01636968039814108,1.9763832941454078,-2.986815941571109,1.522068571167639,0.26853876681613253,-0.7951819044345587,-1.501375652667717,1,left
1.501,0.0461375556109918,0.9841307346767493,0.014990341518273595,1.9737523848226417,-2.950744006204996,1.499797138416267,0.25668683406800086,-0.7912340205926455,-1.486347374969989,1,left
1.5019999999999998,0.04237545500307886,0.9894388376292268,0.013666907158126804,1.9703956023444777,-2.9137897199263065,1.4772913753592656,0.24477601896698498,-0.7873193658303377,-1.4707781662553867,1,left
1.5030000000000001,0.038614938315508884,0.9947079598450059,0.012400983974309736,1.9663053519005937,-2.875977191484863,1.4545531759216526,0.23280884218605805,-0.7834382300465662,-1.454673239861014,1,left
1.508,0.034857304550607364,0.9999357849276459,0.011194160993626506,1.9614742524723763,-2.83733072778236,1.4315845847362294,0.22078788215054612,-0.7795907524651334,-1.4380380522489036,1,left
1.508,0.03110390364767889,1.0051199569876879,0.010048006341950402,1.9558951432340859,-2.7978748101213964,1.408387813593114,0.20871577687571097,-0.7757769260793418,-1.420878301197765,1,left
1.5130000000000001,0.02735613750144505,1.0102580782824775,0.008964063979812973,1.9495610904278777,-2.757634071597422,1.384965257651641,0.1965952256404969,-0.7719966021789659,-1.403199923650509,1,left
1.514,0.023615460945218276,1.0153477070055579,0.007943850457812183,1.9424653946987873,-2.716633275522645,1.3613195113486511,0.18442899046291392,-0.768249494948513,-1.385009093169773,1,left
1.517,0.019883382689647944,1.0203863552569041,0.0069888517073937355,1.9346015988736347,-2.6748972947685976,1.3374533839365421,0.17221989734238327,-0.7645351861258175,-1.3663122169521624,1,left
1.518,0.0161614662085155,1.02537148722692,0.006100519882374678,1.9259634961656413,-2.632451091911816,1.313369914583793,0.1599708372342319,-0.7608531297101081,-1.3471159323504378,1,left
1.5219999999999998,0.012451330561670651,1.0303005176284683,0.0052802702631929805,1.916545138784356,-2.5893197000649013,1.2890723869700438,0.14768476672139172,-0.7572026567087825,-1.3274271028514064,1,left
1.5230000000000001,0.008754651142963445,1.0351708104114734,0.004529478230182897,1.9063408469282919,-2.54552820427312,1.264564343307177,0.13536470834823675,-0.7535829799122183,-1.3072528134558157,1,left
1.528,0.0050731603403335246,1.0399796777924728,0.0038494763057331195,1.8953452181354429,-2.5011017233546626,1.2398495977172197,0.12301375058137566,-0.74999319868604,-1.2866003654051223,1,left
1.5290000000000001,0.0014086480967825197,1.0447243796265997,0.003241551259679669,1.883553136964611,-2.456065392060705,1.2149322488972751,0.11063504736211223,-0.7464323037703544,-1.2654772701985912,1,left
1.5319999999999998,-0.002237037636958872,1.0494021231435762,0.002706941267987272,1.8709597849782202,-2.4104443434295333,1.1898166920010864,0.09823181722929997,-0.7428991820810817,-1.243891242874785,1,left
1.5330000000000001,-0.005861990566194891,1.0540100630647309,0.002246833111335959,1.8575606509950175,-2.364263691207154,1.1645076296662442,0.08580734206179069,-0.7393926215362163,-1.2218501946901603,1,left
1.534,-0.009464245840518736,1.0585453021156999,0.001862359397949832,1.843351541578777,-2.3175485122050667,1.1390100821154638,0.07336496561660767,-0.7359113159796725,-1.1993622256141627,1,left
1.538,-0.013041779974884473,1.0630048919482502,0.0015545957934200406,1.828328591726815,-2.2703238284642024,1.1133293962597943,0.06090809210946555,-0.7324538703030706,-1.1764356172189125,1,left
1.5390000000000001,-0.016592510912016425,1.0673858344831997,0.0013245582395632009,1.8124882757198229,-2.2226145890924074,1.0874712537310616,0.04844018501363654,-0.7290188058382712,-1.1530788263802367,1,left
1.544,-0.020114298234430717,1.0716850836848961,0.0011732001477471586,1.7958274180921816,-2.1744456516413337,1.061441677770312,0.0359647661261002,-0.7256045660438063,-1.1293004799174888,1,left
1.545,-0.023604943532782308,1.0758995477771869,0.0011014095631358984,1.7783432046796008,-2.1258417628871245,1.0352470388984933,0.02348541487931159,-0.7222095224807983,-1.1051093701383181,1,left
1.547,-0.027062190934143863,1.0800260919114613,0.001110006314020819,1.7600331937111828,-2.076827538945174,1.0088940593209765,0.01100576786277818,-0.7188319810684942,-1.0805144512213078,1,left
1.548,-0.03048372779098803,1.084061541298533,0.001199739176741221,1.7408953269737537,-2.0274274449843523,0.9823898161463888,-0.00147048148138521,-0.715470188609605,-1.0555248363681928,1,left
1.5490000000000002,-0.03386718553074709,1.0880026848171267,0.0013712830927650151,1.7209279411874876,-1.9776657754103864,0.9557417437326119,-0.01393958302476552,-0.7121223395756907,-1.0301497956561803,1,left
1.5519999999999998,-0.037210140666100525,1.0918462791126773,0.0016252364721639336,1.7001297797925738,-1.9275666357233503,0.9289576356017094,-0.026397730016667294,-0.7087865831428883,-1.0043987545197408,1,left
1.554,-0.04051011596708408,1.095589053201885,0.001962118614332601,1.678500005281211,-1.8771539269166724,0.9020456462357438,-0.03884105908166816,-0.7054610304683167,-0.978281292790099,1,left
1.556,-0.04376458179957755,1.0992277136008692,0.00238236727114657,1.6560382120932657,-1.8264513326784644,0.8750142928321836,-0.05126565018652617,-0.702143762197542,-0.951807144219549,1,left
1.557,-0.046970957641421,1.1027589499968005,0.002886336363932559,1.6327444400284696,-1.7754823093185925,0.8478724569678494,-0.06366752661221951,-0.6988328361935134,-0.9249861964166403,1,left
1.561,-0.05012661379462935,1.1061794414843293,0.0034742938440383963,1.6086191881130107,-1.7242700782767175,0.8206293860941042,-0.07604265496685665,-0.6955262954774115,-0.8978284911172251,1,left
1.5619999999999998,-0.05322887331624993,1.109485863389437,0.004146419663989246,1.5836634288559972,-1.6728376210656952,0.7932946947856531,-0.0883869452751408,-0.6922221763718774,-0.8703442247153373,1,left
1.5659999999999998,-0.05627501418907126,1.112674894705009,0.004902803809220627,1.5578786228288775,-1.621207676503975,0.7658783656650016,-0.10069625118000726,-0.6889185168371059,-0.842543748976873,1,left
1.567,-0.05926227174740523,1.1157432261645963,0.0057434443327646825,1.5312667334985117,-1.5694027400899209,0.738390749924332,-0.11296637029197545,-0.6856133649902997,-0.814437571858078,1,left
1.571,-0.062187841366368936,1.118687568982417,0.006668245337132648,1.5038302422422065,-1.5174450653703546,0.7108425673662926,-0.12519304472166837,-0.6823047877989892,-0.7860363583499116,1,left
1.5719999999999998,-0.06504888141867492,1.121504664287632,0.007677014857510968,1.4755721634706451,-1.465356667155048,0.6832449058849631,-0.13737196183085174,-0.678990879938722,-0.7573509312684448,1,left
1.577,-0.06784251650069213,1.1241912932792906,0.008769462615532625,1.4464960597822707,-1.4131593264283933,0.6556092203080547,-0.14949875523723277,-0.6756697728056242,-0.7283922719105728,1,left
1.577,-0.07056584092753931,1.1267442881247889,0.009945197629932342,1.4166060570703094,-1.3608745968090379,0.627947330521229,-0.1615690061081329,-0.6723396436743242,-0.6991715204934785,1,left
1.581,-0.07321592249381617,1.129160543618634,0.01120372568793905,1.3859068595012634,-1.3085238124078926,0.6002714187952816,-0.17357824477801193,-0.6689987249917148,-0.6696999762954636,1,left
1.5819999999999999,-0.07578980649070118,1.1314370296095921,0.012544446700270656,1.3544037642813547,-1.2561280969346111,0.5725940262368244,-0.18552195272467134,-0.6656453137970101,-0.6399890974149808,1,left
1.5859999999999999,-0.07828451995867176,1.1335708041924317,0.013966651982553854,1.3221026761250658,-1.2037083739023897,0.5449280482830283,-0.19739556493880167,-0.662277781258525,-0.610050500063949,1,left
1.588,-0.08069707613633625,1.1355590276432597,0.015469521522469274,1.2890101213375964,-1.1512853777807404,0.5172867291609473,-0.20919447272136313,-0.6588945823175776,-0.5798959573107118,1,left
1.591,-0.08302447904167844,1.1373989770524064,0.017052121300655098,1.2551332614207478,-1.0988796659457611,0.4896836552319432,-0.22091402694310122,-0.6554942654298779,-0.5495373971873114,1,left
1.5919999999999999,-0.08526372809620306,1.139088061574461,0.018713400737011603,1.2204799061094584,-1.0465116312773652,0.4621327471417602,-0.2325495418002971,-0.6520754823947229,-0.5189869000751011,1,left
1.5959999999999999,-0.08741182268052747,1.1406238381697504,0.020452190342512767,1.1850585257439405,-0.994201515252913,0.43464825069687524,-0.2440962991006376,-0.6486369982622792,-0.48825669528209176,1,left
1.5959999999999999,-0.08946576649858791,1.1420040276543542,0.022267199675676242,1.1488782628801129,-0.9419694213867433,0.40724472638785525,-0.2555495531128621,-0.6451777013091795,-0.45735915672485,1,left
1.6,-0.09142257162908603,1.1432265308114755,0.024157015717930733,1.1119489430387999,-0.8898353288652099,0.37993703748060753,-0.2669045360136018,-0.641696613072611,-0.4263067976272091,1,left
1.601,-0.0932792621547035,1.1442894442636,0.026120101764948615,1.0742810844919615,-0.8378191062269914,0.3527403365965978,-0.2781564639471334,-0.6381928984183131,-0.39511226417913925,1,left
1.6019999999999999,-0.09503287728132347,1.1451910757922934,0.028154796876069463,1.0358859069820354,-0.7859405249386698,0.3256700507033458,-0.2893005436263093,-0.6346658755443445,-0.36378832825664614,1,left
1.6059999999999999,-0.0966804738891301,1.1459299588249625,0.030259315859468845,0.9967753392683295,-0.7342192727158526,0.2987418644367826,-0.300331979245697,-0.6311150256901122,-0.3323478795875193,1,left
1.6059999999999999,-0.09821912848748252,1.1465048658350852,0.032431749719636215,0.9569620253922785,-0.6826749664404531,0.2719717016773742,-0.31124597939047394,-0.6275400022465897,-0.30080391790534566,1,left
1.6119999999999999,-0.09964593857287116,1.146914820386442,0.03467006645973227,0.9164593295512894,-0.6313271645251375,0.24537570530227978,-0.3220377637115059,-0.6239406390370852,-0.2691695454758325,1,left
1.6130000000000002,-0.1009580234197976,1.1471591075285241,0.03697211212572964,0.8752813394688501,-0.5801953785764002,0.21897021503622074,-0.3327025692936579,-0.6203169576701585,-0.23745796009474796,1,left
1.6159999999999999,-0.10215252436950302,1.1472372822647356,0.039335612017634164,0.8334428681465568,-0.5292990842082353,0.19277174332419283,-0.3432356567312427,-0.6166691739397141,-0.20568244849848943,1,left
1.6159999999999999,-0.1032266047148367,1.147149175862074,0.04175817207112399,0.7909594538817372,-0.4786577308589387,0.16679694914965223,-0.3536323159415978,-0.612997703261931,-0.17385638009643203,1,left
1.617,-0.10417744930511245,1.1468948998281894,0.044237280500996325,0.7478473584767835,-0.42829075049136855,0.14106260977758853,-0.36388787174741855,-0.6093031651386207,-0.1419932009339861,1,left
1.621,-0.10500226400633556,1.1464748474394366,0.04677030985376826,0.7041235637862852,-0.3782175651935406,0.11558559067865604,-0.3739976892580956,-0.6055863866365337,-0.11010642779511022,1,left
1.6219999999999999,-0.10569827515320147,1.1458896927580078,0.04935451962322281,0.6598057671455736,-0.32845759394173446,0.09038281438827249,-0.38395717907991367,-0.6018484048720707,-0.07820964235288122,1,left
1.625,-0.10626272914728106,1.1451403871277939,0.05198705957172605,0.6149123764443639,-0.2790302589249476,0.06547122933144986,-0.39376180238456254,-0.5980904684907834,-0.046316485276615395,1,left
1.626,-0.10669289241044456,1.1442281531966285,0.05466497390558346,0.5694625053855431,-0.22995499169450578,0.04086777936869643,-0.40340707586499414,-0.5943140381309944,-0.01444065020396816,1,left
1.631,-0.10698605196861616,1.1431544765874482,0.05738520645935456,0.5234759690680815,-0.1812512391589701,0.016589374322022815,-0.4128885766072261,-0.5905207858607965,0.017404122513589425,1,left
1.632,-0.10713951697680064,1.1419210954282955,0.06014460702078853,0.4769732798095165,-0.13293846930956532,-0.007347138535243168,-0.4222019469062488,-0.5867125935776419,0.04920405238350827,1,left
1.636,-0.10715062148081614,1.1405299880330335,0.06293993887408572,0.42997564307748576,-0.08503617653519102,-0.030925002095475686,-0.43134289905373446,-0.582891550359675,0.08094532575465428,1,left
1.6369999999999998,-0.10701672864049422,1.1389833590847704,0.06576788757415379,0.38250495339824636,-0.0375638863871449,-0.05412757621031306,-0.44030722012477685,-0.5790599487579152,0.1126141033010085,1,left
1.639,-0.10673523652529282,1.137283624705039,0.0686250709027998,0.33458379010863654,0.009458840345189625,-0.07693836372949013,-0.449090776790406,-0.5752202800183558,0.14419652809789762,1,left
1.64,-0.10630358546648579,1.135433396794863,0.07150804990246316,0.28623541281651527,0.056012404385259895,-0.09934103585263789,-0.45768952018213027,-0.5713752282230058,0.17567873438190898,1,left
1.6440000000000001,-0.10571926684115801,1.1334354670155822,0.0744133408343111,0.23748375643335795,0.10207716568319783,-0.12131945686066967,-0.46609949083424834,-0.5675276633388737,0.2070468570854361,1,left
1.645,-0.10497983308558005,1.1312927907451966,0.07733742786938137,0.18835342564139296,0.14763344222765246,-0.14285770829224803,-0.47431682372915407,-0.5636806331638685,0.23828704223655334,1,left
1.649,-0.10408290868647938,1.1290084713057382,0.08027677629735491,0.13886968865643884,0.19266151008929483,-0.16394011262965452,-0.4823377534703291,-0.5598373541585775,0.26938545831462907,1,left
1.65,-0.10302620186951002,1.1265857447127363,0.08322784602534694,0.08905847014644497,0.23714160482828495,-0.18455125655716603,-0.49015861960717366,-0.5560012011528758,0.3003283086517603,1,left
1.6569999999999998,-0.10180751668576876,1.1240279651511356,0.08618710513475554,0.038946343164651495,0.2810539243965289,-0.20467601385377804,-0.49777587213527397,-0.5521756959163215,0.33110184496974343,1,left
1.6580000000000001,-0.1004247651836376,1.1213385913333727,0.08915104326623434,-0.011439480044729139,0.3243786336640374,-0.2242995679808051,-0.5051860771951404,-0.5483644945813044,0.36169238214188904,1,left
1.659,-0.09887597934542586,1.1185211738449097,0.09211618461366722,-0.06207115851134627,0.3670958706971229,-0.24340743442353685,-0.5123859229918759,-0.5445713739079344,0.39208631426854124,1,left
1.66,-0.09715932247213803,1.1155793435309274,0.09507910033178199,-0.1129202344179607,0.40918575491454023,-0.26198548284473017,-0.5193722259576491,-0.5408002163796893,0.42227013215467724,1,left
1.6669999999999998,-0.09527309972002285,1.112516800926584,0.09803642019973186,-0.16395764653879516,0.4506283972459889,-0.2800199591062802,-0.5261419371782537,-0.53705499411888,0.45223044227743514,1,left
1.6680000000000001,-0.09321576753033028,1.1093373066853502,0.10098484343061447,-0.21515374538237567,0.49140391241564896,-0.29749750721393103,-0.5326921491044296,-0.5333397516110455,0.48195398733085576,1,left
1.669,-0.0909859417467976,1.10604467292117,0.10392114856758702,-0.26647831018487683,0.5314924334716217,-0.3144051912383665,-0.5390201025521144,-0.5296585872631059,0.5114276683708779,1,left
1.67,-0.08858240427780234,1.102642755360012,0.10684220245159505,-0.31790056790052407,0.570874128680284,-0.3307305172644604,-0.5451231939157024,-0.5260156339984434,0.5406385682647885,1,left
1.67,-0.08600410822122746,1.0991354461960425,0.10974496827680835,-0.36938921433606053,0.6095292209026533,-0.34646145541886664,-0.5509989823747059,-0.522415039413047,0.569573975575885,1,left
1.6740000000000002,-0.08325018142083919,1.0955266675476338,0.11262651277195261,-0.42091243757665464,0.6474380095678818,-0.3615864620244942,-0.5566451967941064,-0.5188609461952196,0.5982214076951925,1,left
1.6740000000000002,-0.08031992846522513,1.0918203653918266,0.11548401256756764,-0.4724379438509024,0.6845808953569719,-0.3760945019287381,-0.5620597420975099,-0.5153574733331938,0.626568632349524,1,left
1.679,-0.07721283118287162,1.0880205038347355,0.1183147598289752,-0.5239329859827696,0.7209384077077156,-0.38997507105063395,-0.5672407050346128,-0.5119086983142389,0.6546036871871381,1,left
1.68,-0.07392854773200955,1.0841310595691902,0.1211161672437815,-0.5753643945784171,0.7564912352497173,-0.4032182191903607,-0.5721863593433015,-0.5085186403407126,0.6823148974596265,1,left
1.6840000000000002,-0.07046691042610244,1.0801560163811696,0.1238857724480339,-0.626698612095857,0.7912202592761606,-0.41581457314274833,-0.5768951703219358,-0.5051912445530016,0.7096908918814376,1,left
1.6840000000000002,-0.06682792247110343,1.0760993595869088,0.12662124195960658,-0.6779017299453001,0.8251065903567214,-0.4277553601546428,-0.5813657988266948,-0.5019303672494524,0.7367206167475506,1,left
1.685,-0.06301175381371411,1.0719650703098231,0.12932037466566668,-0.7289395286747149,0.8581316081006948,-0.43903243172504375,-0.5855971047081907,-0.49873976209356174,0.7633933483888794,1,left
1.69,-0.05901873629854322,1.0677571195369584,0.13198110488914372,-0.7797775208290483,0.8902770036118972,-0.4496382875495235,-0.5895881497008745,-0.4956230672988761,0.7896987040440305,1,left
1.6909999999999998,-0.05484935830634123,1.0634794619231305,0.13460150504164275,-0.830380995232768,0.9215248233372441,-0.45956609905657,-0.5933381997780743,-0.49258379378224143,0.8156266512250372,1,left
1.693,-0.05050425902621118,1.059136029335416,0.13717978785589097,-0.8807150609791229,0.9518575125432894,-0.46880973178604063,-0.5968467269848192,-0.48962531427624423,0.8411675156536725,1,left
1.694,-0.04598422252335878,1.0547307241545698,0.1397143081759653,-0.9307446898747307,0.9812579571176283,-0.47736376605353853,-0.6001134107599121,-0.4867508533918993,0.8663119878438899,1,left
1.699,-0.041290171776522895,1.0502674123761828,0.14220356427001687,-0.9804347569258428,1.009709523226727,-0.4852235156945583,-0.6031381387580244,-0.4839634786228592,0.8910511284048512,1,left
1.7,-0.03642316284769891,1.0457499165810018,0.14464619862295014,-1.0297500789176515,1.0371960948242536,-0.4923850448758363,-0.6059210071818898,-0.48126609228265427,0.9153763721378967,1,left
1.704,-0.03138437931556726,1.0411820088666688,0.14704099816664537,-1.0786554512302824,1.063702109094334,-0.49884518299846714,-0.6084623206339814,-0.4786614243667117,0.9392795309996692,1,left
1.704,-0.026175127067720606,1.0365674038498967,0.14938689391057375,-1.1271156830341467,1.089212589911432,-0.504601537715359,-0.6107625914963618,-0.47615202633115317,0.9627527960024456,1,left
1.7069999999999999,-0.020796829511880967,1.0319097518589089,0.15168295994536507,-1.175095631006244,1.1137131793957824,-0.5096525060835921,-0.6128225388467016,-0.473740265780627,0.9857887381215341,1,left
1.7080000000000002,-0.015251023236704962,1.0272126324418926,0.1539284118075052,-1.2225602317078361,1.1371901676404883,-0.5139972838702348,-0.6146430869177669,-0.4714283220576993,1.0083803082783929,1,left
1.712,-0.009539354131292626,1.0224795483184614,0.15612260421378618,-1.2694745327626231,1.1596305206835362,-0.5176358730281491,-0.6162253631069877,-0.4692181827265985,1.0305208364668814,1,left
1.713,-0.003663573958352807,1.0177139198971423,0.158265028194214,-1.3158037229731852,1.1810219067950858,-0.5205690873562955,-0.617570695542024,-0.46711164094439167,1.052204030088809,1,left
1.719,0.002374462633565276,1.0129190804733492,0.16035530766820993,-1.3615131615119658,1.201352721147446,-0.5227985563570172,-0.6186806102075633,-0.46511029371295376,1.0734239715636638,1,left
1.7209999999999999,0.008572800680026398,1.0080982722109897,0.16239319552237336,-1.4065684063214945,1.220612108932177,-0.5243267273007587,-0.619556827637898,-0.46321554100538487,1.0941751152761146,1,left
1.724,0.01492938707854087,1.0032546429979894,0.16437856925987765,-1.4509352418568662,1.2387899869857477,-0.5251568655066486,-0.6202012591791511,-0.4614285857608279,1.1144522839235589,1,left
1.725,0.02144207240286327,0.9983912442513602,0.16631142629931742,-1.4945797063017106,1.255877063982125,-0.5252930528453568,-0.620616002824341,-0.45975043474193966,1.134250664324669,1,left
1.7269999999999999,0.028108612384429056,0.9935110297298928,0.16819187900254234,-1.5374681183870136,1.271864859247606,-0.5247401844686221,-0.6208033386238077,-0.4581819002495758,1.1535658027485354,1,left
1.7280000000000002,0.0349266690926691,0.988616855392227,0.17002014950816904,-1.5795671039401729,1.2867457202500898,-0.523503963767846,-0.6207657236728563,-0.45672360268955686,1.1723935998226467,1,left
1.734,0.04189381184528174,0.9837114803169004,0.1717965644425625,-1.6208436222895886,1.3005128388118563,-0.5215908955621518,-0.6205057866778144,-0.45537597398669805,1.1907303050765747,1,left
1.735,0.04900751787772143,0.9787975686805117,0.17352154957367602,-1.6612649926479275,1.3131602660917692,-0.5190082775143343,-0.6200263221010446,-0.4541392618415963,1.2085725111768408,1,left
1.7380000000000002,0.056265172799371634,0.9738776927714116,0.17519562446363438,-1.700798920594929,1.3246829263796311,-0.5157641897711635,-0.6193302838921387,-0.4530135348078806,1.2259171479013835,1,left
1.739,0.06366407086214798,0.9689543370027432,0.17681939716224068,-1.7394135247782587,1.3350766297422314,-0.5118674828225606,-0.6184207788485031,-0.45199868807741034,1.2427614758723367,1,left
1.74,0.07120141506530125,0.9640299028821501,0.1783935589679761,-1.7770773639484592,1.3443380835574072,-0.5073277635722463,-0.6173010597138465,-0.4510944496982624,1.2591030800134617,1,left
1.744,0.07887431711784723,0.9591067148901383,0.17991887926988062,-1.813759464441499,1.3524649029692104,-0.50215537961056,-0.6159745181590892,-0.45030038686012724,1.2749398626688528,1,left
1.745,0.08667979727673931,0.9541870272080837,0.18139620047468527,-1.8494293482197837,1.3594556202940318,-0.4963614016782766,-0.6144446777529663,-0.4496159119725918,1.2902700363463966,1,left
1.7480000000000002,0.09461478407439143,0.949273031222749,0.1828264330164833,-1.8840570615797587,1.365309693404282,-0.48995760430840096,-0.6127151869630709,-0.44904028842506566,1.3050921160989644,1,left
1.749,0.10267611394450693,0.9443668637229563,0.18421055043872275,-1.917613204631418,1.3700275131129733,-0.48295644463110743,-0.6107898121908597,-0.4485726360079628,1.3194049115831705,1,left
1.7519999999999998,0.11086053075129955,0.9394706156961727,0.18554958453172335,-1.9500689616521205,1.3736104095792836,-0.475371039325202,-0.6086724308362327,-0.4482119359931691,1.3332075188397299,1,left
1.7519999999999998,0.11916468522359111,0.9345863416257214,0.18684462050728232,-1.9813961324141325,1.3760606577519192,-0.46721513969774026,-0.6063670243867274,-0.4479570358721415,1.3464993118379929,1,left
1.7530000000000001,0.12758513429180104,0.9297160691840332,0.1880967921966573,-2.011567164523272,1.377381481843059,-0.45850310490166785,-0.6038776715258046,-0.44780665375029244,1.3592799338257744,1,left
1.756,0.1361183403251004,0.9248618092194821,0.18930727726560473,-2.040555186508115,1.3775770587185008,-0.44924987344943973,-0.6012085412541519,-0.44775938239662166,1.3715492885241247,1,left
1.757,0.1447606702699735,0.9200255659439623,0.19047729244553674,-2.068334040865381,1.3766525198993982,-0.4394709334485101,-0.5983638860173909,-0.4478136929478595,1.383307531205226,1,left
1.7619999999999998,0.15350839469712446,0.9152093472306788,0.1916080887820713,-2.094878315969046,1.374613951763822,-0.4291822921327521,-0.5953480348330451,-0.4479679382666868,1.3945550596901304,1,left
1.7619999999999998,0.1623576867680504,0.9104151749145735,0.1927009469030328,-2.1201633760420884,1.371468393637057,-0.41840044511254987,-0.5921653864091115,-0.448220355953893,1.4052925053015854,1,left
1.767,0.1713046211378512,0.9056450949607908,0.19375717230928927,-2.144165388916886,1.3672238336433202,-0.4071423454952222,-0.5888204022460712,-0.4485690710146241,1.415520723805726,1,left
1.767,0.18034517281981866,0.9009011873447037,0.19477809069433463,-2.166861351601522,1.3618892022922828,-0.39542537287620894,-0.5853175997136867,-0.4490120981791605,1.425240786374945,1,left
1.771,0.18947521604957585,0.8961855754728928,0.19576504330198422,-2.1882291137245806,1.3554743637913753,-0.38326730217008326,-0.5816615450934516,-0.44954734387894457,1.4344539706027926,1,left
1.771,0.1986905231997001,0.8915004349653255,0.19671938233594408,-2.20824739892733,1.3479901050717036,-0.37068627224908585,-0.5778568465770932,-0.45017260787885716,1.4431617516002857,1,left
1.776,0.20798676380701867,0.8868480016158903,0.19764246643984604,-2.2268958242684547,1.339448122512271,-0.3577007543555592,-0.5739081472110756,-0.45088558456701006,1.4513657932015582,1,left
1.777,0.21735950378119256,0.882230578353956,0.19853565627018865,-2.244154917702664,1.3298610063441003,-0.34432952025339497,-0.5698201177766099,-0.45168386390358756,1.4590679393053172,1,left
1.7819999999999998,0.22680420486282307,0.8776505410435714,0.19940031018728632,-2.260006133690648,1.3192422227127834,-0.3305916100823912,-0.5655974495942523,-0.4525649320305286,1.4662702053771275,1,left
1.7819999999999998,0.2363162243926,0.8731103429770222,0.2002377800915197,-2.2744318669939085,1.307606093374945,-0.3165062998782566,-0.5612448472417552,-0.45352617154409214,1.4729747701360945,1,left
1.788,0.24589081544290206,0.8686125179447484,0.2010494074324221,-2.2874154647040035,1.2949677730011093,-0.30209306871989117,-0.5567670211734393,-0.4545648614325938,1.479183967448078,1,left
1.7890000000000001,0.2555231273530835,0.8641596817942431,0.20183651941416722,-2.2989412365517077,1.281343224054493,-0.2873715654645181,-0.5521686802289655,-0.4556781766818393,1.4849002784461276,1,left
1.79,0.2652082067021856,0.8597545324249485,0.2026004254136738,-2.308994463537492,1.2667491892123335,-0.27236157503024716,-0.5474545240190122,-0.45686318755100985,1.4901263238974118,1,left
1.791,0.27494099875065225,0.8553998482002881,0.20334241361965463,-2.3175614049205877,1.2512031612934764,-0.2570829841847054,-0.5426292351750062,-0.4581168585219777,1.4948648568344782,1,left
1.796,0.28471634938680845,0.8510984847882558,0.20406374789419549,-2.3246293035997105,1.234723350653122,-0.2415557467974868,-0.5376974714497051,-0.45943604692524337,1.4991187554672722,1,left
1.797,0.29452900762147,0.8468533704686337,0.204765664853186,-2.330186389914302,1.2173286500028413,-0.22579984851334484,-0.5326638576551018,-0.46081750124589277,1.5028910163909357,1,left
1.801,0.3043736286804302,0.8426674999697781,0.20544937115733616,-2.334221883890865,1.1990385966112418,-0.20983527080227857,-0.5275329774237961,-0.4622578591131686,1.5061847481030026,1,left
1.8019999999999998,0.31424477774726406,0.8385439269207645,0.20611604099975298,-2.3367259959546733,1.1798733318379826,-0.19368195434195046,-0.5223093647796784,-0.46375364497743815,1.5090031648422182,1,left
1.806,0.32413693440707336,0.8344857550223065,0.20676681376963485,-2.337689926122801,1.1598535579512095,-0.17735976168721643,-0.5169974955182594,-0.4653012674942799,1.511349580758334,1,left
1.807,0.3340444978347996,0.8304961280450909,0.2074027918690891,-2.3371058616900355,1.1390004921759118,-0.1608884391809486,-0.5116017784706298,-0.4668970167143755,1.513227404413373,1,left
1.807,0.3439617927601521,0.8265782187564437,0.20802503866333683,-2.3349669734148595,1.117335817918187,-0.14428757805978948,-0.5061265468578375,-0.46853706131989176,1.5146401336000523,1,left
1.81,0.3538830762258324,0.8227352168748743,0.20863457654882386,-2.33126741020824,1.0948816331079494,-0.12757657470799114,-0.500576050016144,-0.470217446226983,1.5155913504542167,1,left
1.811,0.3638025451367756,0.8189703161738966,0.2092323851237772,-2.3260022923235444,1.0716603956002249,-0.11077459001206366,-0.49495444569945374,-0.4719340907953844,1.5160847168442613,1,left
1.8159999999999998,0.37371434457746383,0.8152867008887884,0.20981939944071462,-2.3191677030414226,1.047694865572838,-0.09390050776858457,-0.4892657930319097,-0.473682787744357,1.5161239700326472,1,left
1.817,0.38361257685435096,0.8116875316018396,0.21039650831264528,-2.310760678839012,1.023008044856042,-0.07697289209720465,-0.4835140461095046,-0.4754592027955624,1.5157129186107468,1,left
1.821,0.39349131120143005,0.8081759307898415,0.21096455263901384,-2.3007791980283376,0.9976231131274239,-0.06000994381062283,-0.47770304823456683,-0.47725887504778963,1.514855438708453,1,left
1.8219999999999998,0.4033445940714463,0.8047549682146634,0.21152432371845525,-2.2892221679021034,0.9715633610557122,-0.04302945576730625,-0.4718365267667888,-0.4790772180885483,1.5135554704786671,1,left
1.8230000000000002,0.41316645993158413,0.8014276463192602,0.21207656152295365,-2.2760894107097314,0.944852121237111,-0.02604876760363102,-0.46591808857428113,-0.48090952184762215,1.5118170148554986,1,left
1.825,0.4229509424928156,0.7981968857601762,0.21262195291725924,-2.261381649302519,0.917512699137538,-0.009084720909913666,-0.45995121606796885,-0.4827509551977417,1.509644130583716,1,left
1.8259999999999998,0.43269208630986106,0.7950655111863174,0.21316112981327776,-2.245100493571437,0.8895683070142804,0.007846383714194053,-0.45393926380248284,-0.4845965693075918,1.507040931515726,1,left
1.83,0.4423839586790411,0.7920362373780475,0.21369466725059336,-2.2272484285073877,0.8610420030266335,0.024728826660529814,-0.44788545562655363,-0.48644130175240474,1.5040115841710964,1,left
1.83,0.45202066174327044,0.7891116558745657,0.21422308139515073,-2.2078288041886878,0.83195663637153,0.041547505972898274,-0.44179288236577224,-0.4882799813874195,1.5005603055523868,1,left
1.835,0.461596344700457,0.7862942222214748,0.21474682745350293,-2.186845827706854,0.8023347985163514,0.05828797064159541,-0.4356645000204543,-0.4901073339894989,1.49669136120982,1,left
1.837,0.47110521600350497,0.7835862439658968,0.2152662975138093,-2.1643045569794044,0.772198780447022,0.07493645058044587,-0.4295031284612244,-0.4919179886721919,1.4924090635460996,1,left
1.84,0.48054155543561317,0.7809898695210831,0.21578181834743904,-2.1402108963939037,0.7415705358478777,0.09147988333463786,-0.4233114506048232,-0.4937064850795118,1.4877177703514708,1,left
1.841,0.48989972594671316,0.778507078017384,0.21629364923075992,-2.1145715942229857,0.710471650128264,0.10790593756741669,-0.4170920120525391,-0.4954672813636686,1.4826218835579141,1,left
1.847,0.4991741851457696,0.7761396702496253,0.2168019798662046,-2.087394241745606,0.6789233152093364,0.12420303337343569,-0.41084722117356937,-0.49719476295194504,1.4771258482001852,1,left
1.849,0.5083594963550344,0.7738892608203893,0.2173069284895018,-2.0586872740053277,0.6469463099831246,0.1403603594662626,-0.4045793496155307,-0.49888325210784273,1.4712341515702283,1,left
1.85,0.5174503391409362,0.7717572715641489,0.21780854024719684,-2.028459972132003,0.6145609863545652,0.15636788728720427,-0.3982905332242558,-0.5005270182915438,1.4649513225503388,1,left
1.851,0.526441519240186,0.7697449263197742,0.21830678592093652,-1.9967224671487913,0.5817872607759188,0.17221638208224369,-0.39198277335494247,-0.5021202893246395,1.4582819311092923,1,left
1.8559999999999999,0.5353279778024996,0.7678532470990145,0.21880156106767992,-1.9634857451820684,0.5486446111817544,0.1878974109934832,-0.3856579385566539,-0.5036572633639625,1.4512305879445246,1,left
1.857,0.5441047998761676,0.7660830516762409,0.21929268563728518,-1.928761653987417,0.5151520792315089,0.20340334821105963,-0.3793177666121076,-0.5051321216892343,1.443801944252328,1,left
1.859,0.5527672220674641,0.7644349526019604,0.21977990411487583,-1.8925629107005413,0.4813282777655128,0.21872737723104152,-0.3729638669146368,-0.5065390423090903,1.4360006916069081,1,left
1.86,0.5613106393077909,0.7629093576217393,0.22026288621309867,-1.8549031107176581,0.44719140337931557,0.23386349026433936,-0.3665977231641592,-0.5078722143898883,1.4278315619280582,1,left
1.864,0.5697306106657725,0.7615064714630505,0.22074122811558955,-1.8157967376056359,0.4127592540201328,0.24880648484115894,-0.36022069636394144,-0.5091258535115206,1.4192993275161208,1,left
1.865,0.5780228641478575,0.760226298932325,0.22121445425453454,-1.7752591739379213,0.3780492515082894,0.26355195765500616,-0.35383402809991144,-0.510294217754263,1.4104088011318354,1,left
1.869,0.5861833004412407,0.7590686492398718,0.22168201959220735,-1.7333067129480995,0.34307846888563,0.2780962956897148,-0.3474388440842309,-0.5113716246204751,1.4011648360976132,1,left
1.87,0.5942079955678795,0.7580331414396392,0.2221433123667178,-1.6899565708887765,0.3078636624920208,0.29243666467241414,-0.3410361579448134,-0.5123524687947435,1.3915723263957418,1,left
1.8730000000000002,0.602093202438347,0.7571192108392393,0.22259765725616718,-1.6452268999793676,0.27242130867026637,0.3065709948947897,-0.3346268752423475,-0.5132312407143479,1.3816362067451413,1,left
1.874,0.6098353513160344,0.7563261162193194,0.22304431891436238,-1.599136801822309,0.23676764499901573,0.3204979644444112,-0.328211797695891,-0.5140025457643715,1.37136145267306,1,left
1.874,0.6174310492211273,0.7556529477065222,0.22348250583441856,-1.551706341163202,0.20091871595253097,0.33421697988732135,-0.3217916275972298,-0.5146611236283442,1.3607530806614827,1,left
1.879,0.6248770783204894,0.7550986351458763,0.2239113744981169,-1.5029565598664263,0.16489042288553635,0.3477281544424851,-0.315366972393707,-0.5152018671677145,1.349816148482821,1,left
1.88,0.6321703933669912,0.7546619567954955,0.22433003376591829,-1.4529094909738716,0.12869857824075953,0.3610322836881075,-0.30893834941968035,-0.5156198403604424,1.3385557558027006,1,left
1.8840000000000001,0.6393081182668432,0.7543415481403987,0.22473754946430324,-1.4015881727105697,0.09235896387621449,0.37413081883923127,-0.30250619075760043,-0.5159102951118243,1.3269770450623113,1,left
1.8840000000000001,0.6462875418620584,0.7541359106220057,0.22513294914194562,-1.3490166622972344,0.055887393408760644,0.38702583763542914,-0.29607084821016005,-0.5160686869076371,1.3150852026160693,1,left
1.889,0.6531061130196583,0.7540434201045363,0.2255152269862825,-1.2952200494259818,0.019299778470002707,0.3997200128768148,-0.2896325983650485,-0.5160906893107878,1.30288546009225,1,left
1.889,0.6597614351241184,0.7540623349358788,0.22588334890172168,-1.2402244692518558,-0.01738780122982867,0.4122165786460039,-0.28319164773383293,-0.5159722073022958,1.2903830959433429,1,left
1.89,0.6662512600741782,0.7541908035012391,0.22623625774385053,-1.1840571147292562,-0.054159024292597516,0.4245192942915031,-0.2767481379464807,-0.5157093894670514,1.2775834371519792,1,left
1.893,0.6725734818833541,0.75442687120733,0.2265728786894043,-1.1267462480192065,-0.09099725152971566,0.4366324064395644,-0.2703021509830279,-0.5152986390244075,1.264491861057392,1,left
1.893,0.6787261299742728,0.7547684868667308,0.2268921247109497,-1.0683212105105862,-0.12788544983933545,0.4485606096468218,-0.26385371442389116,-0.5147366237032535,1.25111379726651,1,left
1.899,0.6847073622526011,0.7552135084745515,0.22719290211716323,-1.008812430895445,-0.16480611932574502,0.4603090064976081,-0.25740280670031224,-0.5140202844608092,1.237454729612922,1,left
1.9,0.6905154580555868,0.7557597083876465,0.2274741161075551,-0.9482514308348781,-0.2017412261344045,0.4718830677571688,-0.250949362326418,-0.5131468430439536,1.2235201981261195,1,left
1.9040000000000001,0.6961488110823432,0.7564047779362476,0.2277346762778138,-0.8866708279281135,-0.23867214205561474,0.48328859284561493,-0.24449327709437124,-0.5121138083914647,1.2093158009725942,1,left
1.9040000000000001,0.7016059224155108,0.7571463315196226,0.22797350200757124,-0.8241043357939924,-0.2755795911606863,0.4945316707048027,-0.23803441321408003,-0.5109189818751069,1.1948471963295637,1,left
1.909,0.7068853937379523,0.7579819102585551,0.2281895276690957,-0.7605867610909415,-0.3124436035766733,0.5056186410914031,-0.23157260437892702,-0.5095604613770537,1.1801201041513092,1,left
1.909,0.711985920838688,0.7589089852963015,0.22838170760725096,-0.6961539972986031,-0.34924347650572274,0.5165560563289392,-0.2251076607389712,-0.508036644200671,1.1651403077873301,1,left
1.912,0.7169062874921638,0.7599249608547956,0.22854902084787515,-0.6308430150814613,-0.38595774259502263,0.5273506435511023,-0.2186393737630673,-0.5063462288112248,1.1499136554107652,1,left
1.913,0.7216453597862985,0.7610271771616884,0.2286904754894801,-0.564691849052074,-0.4225641457632032,0.5380092674682118,-0.21216752097133945,-0.5044882154026091,1.1344460612147833,1,left
1.9169999999999998,0.7262020809663999,0.762212913364324,0.2288051127285938,-0.49773958074888947,-0.45903962458886305,0.5485388936882533,-0.2056918705194368,-0.5024619052857107,1.118743506333927,1,left
1.9180000000000001,0.7305754668507183,0.7634793905391543,0.22889201047017227,-0.43002631764111054,-0.49536030336664033,0.5589465526235202,-0.19921218561598864,-0.5002668990935547,1.102812039446675,1,left
1.922,0.7347646018597432,0.764823774890815,0.22895028648238666,-0.36159316797065577,-0.531501490935942,0.5692393040134921,-0.19272822875466647,-0.497903093797892,1.086657777014805,1,left
1.923,0.7387686356886548,0.7662431812155471,0.22897910106721595,-0.2924822112389667,-0.5674376873870628,0.5794242020942143,-0.1862397657422504,-0.4953706785314046,1.070286903114462,1,left
1.9269999999999998,0.74258678064061,0.7677346766813731,0.22897765923224353,-0.22273646414422926,-0.6031425987489802,0.5895082614440925,-0.17974656950408413,-0.4926701292092251,1.0537056688131752,1,left
1.9280000000000002,0.7462183096248213,0.7692952849560374,0.2289452123608078,-0.15239984177250793,-0.6385891597625956,0.5994984235356858,-0.17324842364829163,-0.489802201942979,1.0369203910464297,1,left
1.933,0.749662554806889,0.7709219906954942,0.22888105938231543,-0.08151711384434952,-0.6737495648425975,0.6094015240227724,-0.16674512577011572,-0.4867679252400763,1.0199374509467818,1,left
1.9340000000000002,0.7529189068818348,0.7726117443911014,0.2287845474428641,-0.01013385581658936,-0.708595307330464,0.61922426079167,-0.16023649047772476,-0.4835685909804954,1.0027632915778932,1,left
1.9380000000000002,0.755986814924141,0.7743614675618561,0.22865507207595467,0.06170360536260164,-0.743097227140368,0.6289731628055267,-0.15372235212081906,-0.48020574416282413,0.9854044150252822,1,left
1.939,0.7588657867521375,0.7761680582666417,0.22849207688082265,0.13394825104895833,-0.7772255668989327,0.6386545597700442,-0.14720256720335492,-0.4766811714108423,0.9678673787950134,1,left
1.943,0.7615553897246798,0.7780283968982443,0.22829505273234071,0.2065524364526163,-0.8109500366788774,0.6482745526488665,-0.14067701646168818,-0.47299688823146,0.9501587914710088,1,left
1.944,0.7640552518697236,0.7799393522058058,0.22806353656586942,0.27946796215012915,-0.844239887425604,0.657838985056653,-0.13414560658942357,-0.4691551250143534,0.9322853075811218,1,left
1.945,0.7663650632358571,0.7818977874786397,0.22779710979288342,0.3526461517654449,-0.8770639931746996,0.6673534155576617,-0.1276082715994239,-0.4651583117967122,0.9142536216505383,1,left
1.9469999999999998,0.768484577366666,0.7839005668189248,0.2274953964014422,0.42603793602831047,-0.9093909421571716,0.6768230908974908,-0.12106497385933511,-0.46100906198372893,0.8960704615651924,1,left
1.9480000000000002,0.7704136128197534,0.7859445614356879,0.22715806078491332,0.49959394341946595,-0.9411891368879811,0.6862529201954662,-0.11451570491962071,-0.45671015551681743,0.8777425816277423,1,left
1.9509999999999998,0.7721520546702906,0.7880266558956054,0.22678480533827902,0.5732645976127448,-0.9724269033321018,0.6956474501250189,-0.10796048629900097,-0.4522645221487791,0.8592767558328124,1,left
1.952,0.7736998559435599,0.7901437542574025,0.22637536787206006,0.6470002219248088,-1.0030726092409015,0.705010841109267,-0.10139937034625623,-0.4476752253170226,0.8406797717431567,1,left
1.9569999999999999,0.7750570389228766,0.7922927860065407,0.22592951890967788,0.7207511507258526,-1.0330947914767608,0.7143468445714689,-0.09483244121468265,-0.4429454468037014,0.821958425087655,1,left
1.9580000000000002,0.7762236962902755,0.7944707117115614,0.22544705893893804,0.7944678464756276,-1.062462290775393,0.7236587813427557,-0.08825981593955277,-0.4380784722035412,0.803119515057034,1,left
1.959,0.7771999920737933,0.7966745283413875,0.22492781567907003,0.8681010187285413,-1.0911443899333186,0.7329495214425692,-0.081681645599733,-0.43307767718617735,0.7841698402439031,1,left
1.962,0.7779861623879806,0.7989012741984998,0.22437164141293056,0.9416017401623195,-1.119110950039327,0.7422214655100001,-0.07509811654459311,-0.42794651453942506,0.7651161951733406,1,left
1.963,0.7785825159612896,0.8011480334285018,0.22377841042684635,1.014921555973937,-1.1463325407337064,0.7514765281013053,-0.06850945166732651,-0.4226885019795057,0.7459653673699216,1,left
1.9669999999999999,0.7789894344483453,0.8034119400717411,0.22314801659275643,1.0880125853070577,-1.1727805629373718,0.7607161229557077,-0.061915911705784595,-0.41730721071387156,0.7267241349067695,1,left
1.9680000000000002,0.7792073725291189,0.8056901816377113,0.2224803711166232,1.1608276146641607,-1.1984273638577991,0.769941150268687,-0.05531779655191284,-0.4118062547418968,0.7073992643819057,1,left
1.9709999999999999,0.7792368578013082,0.8079800022060014,0.2217754004699458,1.2333201835138852,-1.2232463443499044,0.7791519859993535,-0.048715446550861706,-0.40618928087833617,0.687997509266899,1,left
1.972,0.7790784904768999,0.8102787050810215,0.22103304451956804,1.3054446623034544,-1.2472120587077857,0.7883484732384461,-0.04210924377083153,-0.40045995948410157,0.6685256085725544,1,left
1.976,0.7787329428978748,0.8125836550470793,0.22025325487007508,1.3771563230852628,-1.2703003069609486,0.7975299156634609,-0.03549961322469756,-0.3946219758885608,0.6489902857761398,1,left
1.9769999999999999,0.7782009588882789,0.8148922802845515,0.2194359934298834,1.448411402965779,-1.2924882197462582,0.8066950731073661,-0.028887024024449075,-0.3886790224872297,0.6293982479544289,1,left
1.9809999999999999,0.777483352960531,0.8172020740170092,0.2185812312075722,1.51916716058386,-1.313754335824412,0.8158421592673244,-0.022271990449465675,-0.382634791498408,0.6097561850666385,1,left
1.9809999999999999,0.7765810093933478,0.8195105959634906,0.21768894734114438,1.589381925824394,-1.334078672307212,0.8249688415797933,-0.0156550729096441,-0.3764929683619956,0.5900707693311544,1,left
1.986,0.7754948811978204,0.821815473670393,0.2167591283597729,1.6590151429718767,-1.3534427876593278,0.83407224328833,-0.009036878784380442,-0.37025722576342396,0.5703486546397757,1,left
1.9880000000000002,0.7742259889882082,0.8241144037941835,0.21579176767268138,1.7280274075070896,-1.3718298375356024,0.8431489477303715,-0.0024180631184057087,-0.3639312182653483,0.5505964759530687,1,left
1.9909999999999999,0.7727754197750866,0.8264051533997552,0.21478686527259497,1.7963804967485077,-1.3892246235122443,0.8521950048692061,0.0042006708445325915,-0.3575185775294632,0.5308208486202913,1,left
1.992,0.7711443256996344,0.8286855613306989,0.21374442763548354,1.8640373945383815,-1.4056136347675001,0.8612059400972738,0.010818571309153696,-0.35102290811053705,0.5110283675672466,1,left
1.996,0.7693339227286851,0.8309535396976206,0.21266446779733136,1.930962310171671,-1.4209850827645951,0.8701767653368695,0.017434837776304286,-0.3444477838044998,0.49122560629533757,1,left
1.9969999999999999,0.7673454893305806,0.8332070755183273,0.21154700559118972,1.9971206917641127,-1.4353289289868831,0.8791019924642214,0.024048621109808852,-0.33779674453216996,0.4714191156350267,1,left
2.0,0.7651803651512395,0.8354442325288826,0.21039206803081278,2.062479234253696,-1.4486369057722615,0.8879756490828211,0.030659023841519487,-0.3310732937399683,0.4516154221968556,1,left
2.001,0.762839949707929,0.8376631531683735,0.20919968983054313,2.127005882227742,-1.4609025302909875,0.8967912966717652,0.03726510073357004,-0.324280896298737,0.43182102646315135,1,left
2.006,0.7603257011160203,0.839862060725061,0.2079699140564142,2.190669827765555,-1.4721211117080846,0.9055420511347334,0.04386585961683235,-0.3174229768815656,0.4120424004635353,1,left
2.006,0.7576391348628772,0.8420392616196392,0.20670279290633253,2.2534415034843502,-1.4822897515685551,0.9142206057750843,0.050460262524562365,-0.31050291880131636,0.3922859849773557,1,left
2.011,0.7547818226437457,0.8441931477941246,0.20539838860880888,2.3152925709737495,-1.491407337440626,0.9228192567223761,0.05704722714021171,-0.3035240632883433,0.3725581862061962,1,left
2.011,0.7517553912760788,0.8463221991727046,0.2040567744123638,2.3761959048016705,-1.4994745298492487,0.9313299308354351,0.06362562856822006,-0.29648970918609047,0.3528653718840776,1,left
2.012,0.748561521708152,0.8484249861634628,0.20267803562680348,2.4361255722718815,-1.5064937425290594,0.939744216106889,0.07019430138586416,-0.2894031130289688,0.3332138669151471,1,left
2.017,0.745201948134041,0.8505001721757118,0.20126227068055189,2.4950568091108414,-1.5124691160229988,0.9480533945938462,0.07675204184291846,-0.2822674894431491,0.31360994884853693,1,left
2.017,0.7416784572234661,0.852546516130872,0.19980959216588412,2.5529659912587235,-1.5174064846497675,0.9562484778991538,0.08329761002513603,-0.2750860117976436,0.2940598436222904,1,left
2.022,0.7379928874749376,0.8545628749399867,0.19832012784685968,2.6098306029367393,-1.5213133368602927,0.9643202452273881,0.08982973184825203,-0.2678618130460046,0.2745697218862535,1,left
2.023,0.7341471287029632,0.8565482059098559,0.19679402160532192,2.6656292011599994,-1.5241987690003842,0.9722592840394265,0.0963471008404799,-0.2605979867224197,0.25514569599416675,1,left
2.025,0.7301431216726842,0.8585015690275948,0.195231434304219,2.720341376862224,-1.5260734324937761,0.9800560333291245,0.10284837972215652,-0.2532975880689585,0.23579381763323026,1,left
2.026,0.7259828578970167,0.8604221290638813,0.19363254455490045,2.7739477128489782,-1.5269494745781174,0.9877008294573989,0.10933220180129903,-0.24596363527322512,0.2165200760351653,1,left
2.0269999999999997,0.7216683796104424,0.8623091574329342,0.19199754938285665,2.8264297390598756,-1.5268404733301046,0.9951839540393144,0.11579717220379258,-0.23859911079555451,0.19733039671298588,1,left
2.031,0.7172017799294745,0.8641620337535438,0.19032666479435648,2.8777698860973646,-1.5257613688048957,1.0024956825885691,0.12224186895688269,-0.2312069627647888,0.17823064066789984,1,left
2.031,0.7125852032058456,0.8659802470602269,0.18862012625844504,2.927951438243365,-1.5237283927186367,1.009626332184017,0.1286648439445957,-0.22379010642156988,0.15922660401098418,1,left
2.035,0.7078208455769309,0.8677633966079142,0.18687818913509188,2.9769584869149632,-1.520758998493544,1.016566306861723,0.1350646237536565,-0.21635142558799958,0.1403240179445205,1,left
2.036,0.7029109557149479,0.8695111922047652,0.1851011290919064,3.024775885026815,-1.5168717923903625,1.023306140226344,0.14143971042841352,-0.20889377414243715,0.12152854904813448,1,left
2.04,0.6978578357676036,0.8712234540079102,0.18328924254883963,3.071389202457744,-1.5120864658437152,1.0298365352144339,0.14778858215322035,-0.2014199774781341,0.10284579981515779,1,left
2.041,0.69266384246942,0.8729001117287795,0.18144284717346018,3.116784682762284,-1.5064237289918478,1.036148401029589,0.15410969388065474,-0.19393283392434302,0.08428130938492344,1,left
2.045,0.6873313883898972,0.874541203214625,0.17956228242909772,3.1609492012645055,-1.4999052453896509,1.042232887268775,0.16040147792388632,-0.186435116108483,0.0658405544170113,1,left
2.046,0.6818629432761285,0.8761468723965314,0.1776479101638895,3.203870224668001,-1.4925535678912532,1.0480814152585765,0.16666234453142795,-0.17892957223789677,0.047528950053785796,1,left
2.05,0.6762610354456375,0.8777173666177254,0.17570011522252574,3.245535772312407,-1.4843920756859663,1.053685706619485,0.17289068246242598,-0.17141892727969735,0.029351850917906524,1,left
2.051,0.6705282531903752,0.879253033376229,0.17371930606158464,3.285934379203322,-1.4754449124689017,1.0590378090756802,0.17908485958056136,-0.1639058840171713,0.011314552091848076,1,left
2.0540000000000003,0.6646672461634792,0.8807543165303415,0.17170591535146712,3.3250550609388716,-1.4657369257251935,1.0641301195270927,0.18524322348454325,-0.1563931239611827,-0.006577709973163709,1,left
2.055,0.6586807267337546,0.8822217520236035,0.1696604005512434,3.362887280652617,-1.4552936071044325,1.0689554043998288,0.19136410219308417,-0.1488833080950081,-0.024319756671005634,1,left
2.06,0.6525714713056866,0.8836559631908857,0.16758324444446965,3.399420918088817,-1.444141033859661,1.0735068172903177,0.19744580490214714,-0.14137907743102446,-0.041906466629106236,1,left
2.061,0.6463423216117067,0.8850576557121228,0.16547495562262804,3.434646240922418,-1.4323058113230962,1.0777779139177917,0.20348662283215335,-0.1338830533576745,-0.05933277532287866,1,left
2.065,0.6399961859858161,0.8864276122847626,0.16333606890065155,3.4685538784324184,-1.4198150163886363,1.0817626643989489,0.20948483018272934,-0.12639783775514105,-0.07659367496709442,1,left
2.066,0.633536040622748,0.8877666870886818,0.1611671456498681,3.5011347976335503,-1.4066961419691695,1.0854554628578597,0.21543868521246157,-0.11892601285817811,-0.09368421473470907,1,left
2.069,0.6269649308162126,0.8890758001170161,0.15896877403775683,3.532380281967447,-1.392977042394744,1.0888511343833709,0.2213464314610087,-0.11147014084457076,-0.11059950135319022,1,left
2.07,0.6202859721575921,0.8903559314417927,0.15674156916798837,3.5622819126506817,-1.3786858797157742,1.091944939345444,0.22720629913079823,-0.10403276312772593,-0.1273347001279229,1,left
2.074,0.6135023516671114,0.8916081154742305,0.15448617311686114,3.590831552773255,-1.3638510708736584,1.0947325750810275,0.2330165066454083,-0.09661639933193532,-0.14388503644177872,1,left
2.075,0.6066173288239292,0.8928334352677711,0.15220325486479888,3.6180213342372767,-1.348501235699458,1.0972101749592045,0.23877526240160216,-0.08922354592889707,-0.1602457977794314,1,left
2.079,0.599634236458717,0.8940330168991565,0.14989351012403943,3.643843647621727,-1.3326651456996392,1.0993743048344944,0.24448076672412444,-0.08185667452556405,-0.1764123363041099,1,left
2.08,0.5925564814727126,0.8952080239505227,0.14755766106361853,3.668291135055282,-1.3163716735863307,1.10122195689631,0.2501312139936238,-0.07451822985058756,-0.19238007191208026,1,left
2.08,0.5853875453509719,0.8963596521052746,0.14519645593022254,3.6913566861753124,-1.299649743508054,1.1027505409216791,0.2557247948484345,-0.06721062758954548,-0.20814449550623632,1,left
2.084,0.5781309844415645,0.8974891238637445,0.1428106685618986,3.7130334372472067,-1.2825282819355062,1.1039578729374426,0.26125969832219403,-0.05993625227635887,-0.22370117212775326,1,left
2.084,0.5707904299744412,0.8985976833807224,0.14040109779277926,3.7333147735142425,-1.2650361691556402,1.1048421612972281,0.266734113817718,-0.052697455391242286,-0.2390457436860545,1,left
2.089,0.5633695877954974,0.8996865914244241,0.13796856674966626,3.752194334844252,-1.2472021913260745,1.1054019901775878,0.2721462328868745,-0.045496553712768624,-0.25417393121012666,1,left
2.089,0.5558722377960353,0.900757120455243,0.13551392204448867,3.7696660247353373,-1.2290549930407044,1.1056363004967649,0.2774942508246335,-0.038335827914584474,-0.26908153664548895,1,left
2.095,0.5483022330254319,0.9018105498231074,0.13303803286976446,3.785724022674739,-1.2106230303853598,1.1055443683177288,0.2827763680930145,-0.031217521385985627,-0.28376444424088876,1,left
2.095,0.5406634984814362,0.9028481610839221,0.13054179000533164,3.80036279952023,-1.1919345246065016,1.1051257810916955,0.28799079159047536,-0.02414383925567158,-0.29821862156817347,1,left
2.096,0.5329600295754275,0.9038712334378843,0.12802610474297635,3.8135771349920655,-1.1730174167763119,1.1043804126293335,0.2931357357821031,-0.017116947598112865,-0.3124401202181554,1,left
2.099,0.5251958902730923,0.9048810392951695,0.12549190773467567,3.825362136038763,-1.1538993239818482,1.103308397981435,0.29820942370577536,-0.010138972802087032,-0.32642507621464145,1,left
2.099,0.5173752109191757,0.905878839976891,0.12294014777293825,3.8357132551566036,-1.134607497420056,1.101910109114375,0.30321008786926956,-0.0032120010810671295,-0.34016971018814124,1,left
2.104,0.5095021857655556,0.9068658815611426,0.12037179051514357,3.8446263083159495,-1.1151687825185208,1.1001861317328299,0.30813597105309565,0.0036619218947191294,-0.3536703273501009,1,left
2.104,0.5015810702288341,0.9078433908864584,0.11778781716386291,3.8520974924640874,-1.0956095810561315,1.0981372433057837,0.3129853270336232,0.010480791264600876,-0.36692331730782896,1,left
2.109,0.49361617790497053,0.9088125717285584,0.11518922311289932,3.858123402634315,-1.0759558152282882,1.0957643922917994,0.3177564212408661,0.017242643162041223,-0.37992515375959096,1,left
2.109,0.4856118773660058,0.9097746011696678,0.11257701656651452,3.862701048686876,-1.0562328936008694,1.093068678558608,0.32244753136507076,0.02394555483722264,-0.3926723941086485,1,left
2.113,0.4775725887599595,0.910730626182447,0.1099522171355085,3.8658278717031895,-1.0364656788968272,1.090051334991132,0.3270569479260349,0.030587644737225136,-0.4051616790343082,1,left
2.114,0.4695027802304158,0.9116817604529952,0.10731585440566076,3.8675017600506925,-1.0166784575590055,1.0867137102811297,0.3315829748188604,0.03716707256321809,-0.41738973205732344,1,left
2.119,0.46140696416668825,0.9126290814692517,0.10466896646211203,3.867721065131425,-0.9968949110325739,1.083057252890713,0.33602392984961155,0.04368203932391743,-0.42935335913626105,1,left
2.119,0.45328969328877544,0.9135736279017139,0.10201259834174758,3.8664846168233473,-0.9771380887103457,1.0790834961810807,0.34037814527411747,0.050130787404385035,-0.44104944833070403,1,left
2.123,0.4451555565644152,0.9145163973023472,0.0993478003793616,3.8637917386191853,-0.9574303824841871,1.0747940446968811,0.3446439683529168,0.05651160066906749,-0.45247496956641226,1,left
2.124,0.43700917494971764,0.9154583441445538,0.0966756264146671,3.8596422624634417,-0.9377935028457342,1.0701905615956993,0.348819761935099,0.06282280461778622,-0.46362697453680196,1,left
2.127,0.4288551969417126,0.9164003782217578,0.0939971318348376,3.854036543284007,-0.9182484564797091,1.065274757211259,0.3529039050835474,0.06906276661320071,-0.4745025967743376,1,left
2.128,0.42069829393120384,0.9173433634154421,0.09131337143855779,3.846975473210646,-0.8988155252932697,1.0600483787380222,0.3568947937538338,0.07522989619807174,-0.4850990519246517,1,left
2.134,0.4125431553465529,0.9182881168370427,0.08862539712127102,3.8384604954684285,-0.8795142468250227,1.0545132010239622,0.36079084153875907,0.08132264552045143,-0.4954136382554238,1,left
2.135,0.40439448358170615,0.9192354083426506,0.0859342553979268,3.828493617930019,-0.8603633959775993,1.048671018457396,0.3645904804902669,0.08733950988472233,-0.5054437374312555,1,left
2.138,0.3962569887026932,0.9201859604146122,0.08324098479823981,3.817077426306524,-0.8413809680180087,1.0425236379328624,0.36829216203019344,0.09327902844619894,-0.5151868155849755,1,left
2.1390000000000002,0.38813538292481264,0.9211404483997081,0.08054661318582025,3.8042150969524555,-0.8225841627903626,1.0360728728801498,0.3718943579610416,0.09913978506679112,-0.5246404247150014,1,left
2.144,0.38003437485068364,0.9220995010894514,0.07785215506175966,3.789910409256175,-0.803989370085994,1.0293205383396942,0.37539556158769083,0.10492040934901124,-0.5338022044375654,1,left
2.145,0.37195866346324996,0.9230637016233669,0.07515860891458293,3.774167757583038,-0.7856121561164755,1.0222684470666923,0.37879428896067524,0.11061957786538444,-0.542669884121789,1,left
2.148,0.36391293188130985,0.9240335886898321,0.07246695467306134,3.7569921627342855,-0.7674672510355754,1.0149184066454024,0.38208908025137267,0.11623601560009565,-0.5512412854347579,1,left
2.149,0.35590184090528326,0.9250096579907836,0.0697781513068493,3.7383892828806107,-0.7495685374567661,1.0072722175942384,0.38527850126916097,0.12176849761947653,-0.5595143253229136,1,left
2.149,0.34793002239903514,0.9259923639281641,0.06709313460558257,3.718365423925173,-0.7319290399135234,0.9993316724414013,0.3883611451249781,0.1272158509788862,-0.5674870194411031,1,left
2.151,0.3400020725601336,0.9269821214661218,0.06441281515580546,3.6969275492467473,-0.7145609152103236,0.9910985557499408,0.3913356340188066,0.13257695682922363,-0.5751574859691544,1,left
2.1519999999999997,0.3321225451255967,0.927979308124238,0.06173807653139991,3.674083288769567,-0.6974754436129448,0.9825746450702805,0.39420062108038856,0.13785075260672644,-0.5825239496278481,1,left
2.157,0.32429594455701105,0.9289842660542724,0.059069773720125555,3.6498409473023616,-0.6806830208274278,0.973761712797405,0.3969547921655538,0.14303623414538919,-0.5895847456346753,1,left
2.158,0.3165267192584737,0.9299973041399144,0.0564087318244604,3.6242095120850113,-0.6641931507178253,0.9646615289090555,0.3995968675368499,0.14813245759516366,-0.5963383234095218,1,left
2.1630000000000003,0.30881925489388945,0.9310187000445174,0.05375574508876826,3.5971986594772223,-0.6480144387136795,0.9552758645604554,0.40212560340475983,0.1531385411081957,-0.6027832499666843,1,left
2.1630000000000003,0.3011778678737053,0.9320487021270096,0.05111157630696022,3.5688187607195925,-0.6321545858590105,0.9456064965102496,0.4045397933320937,0.15805366629917653,-0.6089182129993738,1,left
2.164,0.2936067990744656,0.933087531152975,0.04847695665419616,3.5390808867228642,-0.6166203834864149,0.9356552123385973,0.40683826950914165,0.16287707949444766,-0.6147420236761016,1,left
2.167,0.28611020784067553,0.9341353817436655,0.04585258596830772,3.5079968119842553,-0.6014177086555363,0.9254238163529238,0.4090199039068493,0.1676080927842381,-0.6202536191674639,1,left
2.168,0.27869216629960764,0.935192423526148,0.043239133488178934,3.4755790179905053,-0.586551520774668,0.914914135959713,0.4110836093149493,0.17224608489215226,-0.6254520649209424,1,left
2.1719999999999997,0.2713566540030518,0.9362588019662575,0.04063723904011243,3.441840696610426,-0.5720258599799478,0.9041280282153027,0.413028340271649,0.1767905018757637,-0.6303365567004519,1,left
2.173,0.26410755290204835,0.9373346388798546,0.03804751464734436,3.4067957538288316,-0.5578438476927886,0.8930673863324504,0.4148530938911384,0.18124085767190407,-0.6349064224064638,1,left
2.178,0.2569486426588864,0.9384200326310957,0.03547054652128087,3.3704588139052016,-0.5440076894985683,0.8817341460349485,0.41655691059484645,0.1855967344999697,-0.6391611236916398,1,left
2.178,0.24988359630041368,0.9395150580420091,0.03290689737833505,3.332845223889605,-0.5305186803358127,0.8701302917163817,0.41813887475202866,0.18985778313629995,-0.6431002573860048,1,left
2.181,0.2429159762183056,0.9406197660535993,0.030357109015666885,3.293971058395235,-0.5173772119551342,0.858257862371258,0.4195981152349264,0.19402372307241073,-0.6467235567447859,1,left
2.182,0.23604923052709378,0.9417341831917887,0.027821705072212474,3.253853124523202,-0.5045827826081799,0.8461189572659595,0.4209338058933909,0.19809434256959635,-0.6500308925311392,1,left
2.189,0.22928668979830785,0.9428583108991045,0.025301193898379135,3.212508966831568,-0.49213400892784237,0.833715741316182,0.42214516595351465,0.2020694986221393,-0.6530222739450818,1,left
2.19,0.22263156419612576,0.943992124793602,0.022796071461328588,3.169956872236978,-0.4800286399619778,0.8210504501367627,0.4232314603444593,0.20594911684109554,-0.6556978494090338,1,left
2.191,0.21608694104421855,0.9451355739105606,0.020306824224535835,3.1262158747336897,-0.4682635733238756,0.8081253947290296,0.424191999957317,0.20973319127034853,-0.658057907219475,1,left
2.191,0.20965578285430223,0.9462885799712762,0.01783393195763106,3.081305759811251,-0.45683487342370993,0.7949429657700436,0.42502614183948256,0.21342178414635138,-0.6601028760733085,1,left
2.197,0.2033409258446847,0.9474510367085688,0.015377870449260301,3.035247068448648,-0.44573779174619443,0.7815056374673569,0.42573328932765603,0.2170150256127028,-0.6618333254766174,1,left
2.197,0.1971450789721795,0.9486228092638986,0.012939114106680649,2.9880611005592943,-0.43496678914063064,0.7678159709421611,0.42631289212223333,0.22051311340042698,-0.6632499660425967,1,left
2.201,0.1910708234922998,0.9498037336596331,0.010518138429851926,2.939769917757894,-0.42451556009051,0.7538766171029616,0.42676444630548055,0.223916312484554,-0.6643536496845356,1,left
2.202,0.18512061305029853,0.9509936163433346,0.008115422345869303,2.890396345316919,-0.41437705893077814,0.7396903189711799,0.42708749430552073,0.2272249547273241,-0.665145369708823,1,left
2.205,0.17929677429161375,0.9521922337983582,0.0057314503837417735,2.839963973177175,-0.4045435279818052,0.7252599134193672,0.4272816248077987,0.23043943851806525,-0.6656262608120468,1,left
2.206,0.17360150796750937,0.9533993322151709,0.0033667146643164285,2.7884971558738028,-0.3950065275700243,0.7105883322819869,0.4273464726153195,0.23356022841952093,-0.6657975989853614,1,left
2.211,0.16803689050110196,0.9546146272191611,0.0010217166797609084,2.736021011235911,-0.38575696790609604,0.6956786027980193,0.42728171845858776,0.23658785483013428,-0.6656608013283989,1,left
2.2119999999999997,0.1626048759701931,0.9558378036517596,-0.0013030311585127848,2.68256141771502,-0.37678514279233066,0.6805338473439425,0.42708708875580437,0.23952291367152373,-0.6652174257741088,1,left
2.215,0.1573072984566114,0.9570685154017378,-0.00360700421717884,2.6281450101945225,-0.36808076513195265,0.6651572824149456,0.4267623553235067,0.24236606611011638,-0.6644691707250214,1,left
2.2159999999999997,0.15214587470828858,0.9583063852838243,-0.005889664588782894,2.5727991741294587,-0.35963300421361427,0.6495522168115514,0.4263073350391037,0.24511803831752665,-0.6634178746018112,1,left
2.2159999999999997,0.14712220706145548,0.9595510049634978,-0.008150460288014102,2.516552037863098,-0.35143052474536285,0.6337220489881468,0.4257218894645765,0.24777962125344358,-0.6620655153104843,1,left
2.221,0.14223778657458103,0.9608019349289817,-0.01038882468865506,2.459432462964058,-0.3434615276130329,0.6176702635192578,0.42500592445498686,0.25035167041752154,-0.6604142096450324,1,left
2.221,0.13749399632698817,0.9620587045126657,-0.012604176184613423,2.4014700324250264,-0.3357137923387698,0.6014004266387445,0.42415938978325257,0.2528351054959504,-0.6584662126478522,1,left
2.225,0.13289211483081745,0.9633208119644413,-0.014795918044699322,2.3426950365615675,-0.3281747212160975,0.5849161808064494,0.4231822788040838,0.2552309098486786,-0.6562239169430382,1,left
2.226,0.1284333195005829,0.9645877245794661,-0.01696343841725982,2.283138456446985,-0.3208313850986099,0.5682212382561936,0.4220746281648531,0.25754012982001034,-0.6536898520454033,1,left
2.23,0.12411869012467265,0.9658588788825092,-0.019106110433767094,2.2228319447167975,-0.3136705708200028,0.5513193734783902,0.4208365175626058,0.25976387387560196,-0.6508666836409029,1,left
2.2319999999999998,0.11994921228728861,0.9671336808695926,-0.021223292362404573,2.1618078036459867,-0.3066788301706852,0.5342144146291716,0.4194680695444037,0.2619033115727418,-0.6477572128320271,1,left
2.233,0.11592578069695295,0.9684115063053272,-0.023314327773299635,2.1000989607596368,-0.2998425300914058,0.5169102340535451,0.41796944934782004,0.2639596723705502,-0.6443643753408859,1,left
2.235,0.11204920238772832,0.9696917010722799,-0.025378545692654422,2.0377389428828803,-0.29314790326718737,0.49941073846269257,0.4163408647780304,0.2659342442864896,-0.6406912406618832,1,left
2.2359999999999998,0.10832019976812293,0.9709735815667567,-0.027415260737150636,1.9747618498937043,-0.28658109803997805,0.4817198595011715,0.4145825661175673,0.2678283724053348,-0.6367410111550541,1,left
2.24,0.10473941349953021,0.9722564351320515,-0.029423773228637064,1.9112023290805136,-0.28012822682424676,0.46384154524297655,0.4126948460644344,0.269643457246512,-0.6325170210703248,1,left
2.241,0.10130740519410518,0.973539520515934,-0.03140336929195352,1.847095550357013,-0.2737754126878172,0.4457797528016653,0.41067803969390265,0.27138095299548304,-0.6280227354921503,1,left
2.245,0.09802465993197747,0.9748220683362397,-0.03335332093607603,1.7824771822255128,-0.2675088340259725,0.4275384420429802,0.40853252443893706,0.27304236560461853,-0.6232617491931888,1,left
2.246,0.09489158860731527,0.9761032815377122,-0.03527288611210657,1.7173833683061341,-0.26131476731026343,0.4091215703486143,0.4062587200838328,0.27462925076877776,-0.6182377853848869,1,left
2.25,0.09190853012013844,0.9773823358248337,-0.037161308735003215,1.651850704247841,-0.25517962789374005,0.3905330883792441,0.40385708876526744,0.2761432117805892,-0.6129546943520705,1,left
2.25,0.08907575343492055,0.9786583800602815,-0.03901781865306482,1.5859162148357346,-0.24909000885457522,0.37177693678443463,0.40132813497460595,0.2775858972702087,-0.607416451957874,1,left
2.255,0.08639345952783908,0.9799305366271961,-0.0408416315516512,1.5196173311076993,-0.24303271786025718,0.3528570438065181,0.39867240555492867,0.278958998834117,-0.6016271580045837,1,left
2.256,0.0838617832431873,0.9811979017640488,-0.042631948785035234,1.4529918672922182,-0.2369948120346972,0.3337773237250558,0.39589048968588325,0.2802642485573095,-0.5955910344352257,1,left
2.26,0.08148079507683066,0.9824595458911379,-0.04438795714030004,1.3860779973780284,-0.2309636308107301,0.31454167608801037,0.39298301884909753,0.2815034164330261,-0.5893124233599988,1,left
2.26,0.07925050290093884,0.9837145139558772,-0.04610882854796295,1.3189142311252355,-0.22492682675057915,0.2951539856752845,0.38995066676652373,0.28267830768396995,-0.5827957848909291,1,left
2.265,0.07717085364043268,0.9849618258288717,-0.047793719766484395,1.2515393893265772,-0.21887239431691277,0.2756181231398232,0.38679414930372585,0.2837907599887679,-0.5760456947674159,1,left
2.266,0.07524173490955877,0.9862004767829989,-0.04944177208327451,1.1839925781266896,-0.21278869657713984,0.2559379462710299,0.38351422432975757,0.2848426406172367,-0.5690668417546421,1,left
2.269,0.07346297661827159,0.9874294380825791,-0.051052111090554124,1.116313162206517,-0.20666448982357627,0.23611730182480875,0.3801116915249224,0.28583584347783386,-0.5618640247961381,1,left
2.269,0.07183435256227969,0.9886476577012245,-0.05262384660400986,1.048540736639401,-0.2004889460920649,0.21616002786412014,0.3765873921273485,0.2867722860804936,-0.5544421499011181,1,left
2.274,0.07035558201541638,0.9898540611788363,-0.05415607279077559,0.9807150972248877,-0.19425167356154746,0.19606995655352152,0.3729422086089584,0.2876539064178726,-0.5468062267465504,1,left
2.275,0.06902633134478307,0.9910475526229389,-0.05564786856192451,0.9128762091059127,-0.18794273481697207,0.17585091735076275,0.3691770642710608,0.2884826597678639,-0.5389613649732814,1,left
2.279,0.0678462156650242,0.9922270158576468,-0.057098298268498285,0.8450641734747611,-0.18155266295777364,0.155506740538112,0.3652929227494421,0.2892605154200733,-0.530912770154902,1,left
2.28,0.06681480053925852,0.993391315724112,-0.0585064127236699,0.7773191921730407,-0.17507247553398703,0.1350412610357075,0.36129078741848786,0.2899894533287934,-0.5226657394174327,1,left
2.285,0.06593160372364658,0.9945392995374471,-0.05987125055929619,0.7096815299908711,-0.16849368629184935,0.1144583224388589,0.35717170068351917,0.2906714606948633,-0.5142256566873005,1,left
2.285,0.0651960969420454,0.9956697987055367,-0.06119183991466876,0.642191474470573,-0.16180831471051474,0.09376178122086352,0.3529367431564782,0.29130852848320177,-0.5055979875592316,1,left
2.286,0.06460770766956223,0.9967816305144703,-0.06246720045004698,0.5748892930203274,-0.15500889331124748,0.07295551104255368,0.3485870327411986,0.29190264790542175,-0.49678827384876806,1,left
2.289,0.064165820900879,0.9978736000839684,-0.06369634567552435,0.507815187143588,-0.14808847272017722,0.052043407109454154,0.344123723710759,0.2924558069377631,-0.4878021280261521,1,left
2.29,0.06386978087557146,0.9989445024955343,-0.0648782855817432,0.4410092435904528,-0.14104062446539503,0.031029390517102573,0.3395480058905279,0.29296998696720594,-0.4786452278014385,1,left
2.294,0.06371889272199202,0.9999931250969725,-0.06601202955097853,0.3745113822377403,-0.13385944148884207,0.009917412524770262,0.33486110402873687,0.29344715963574997,-0.4693233110565161,1,left
2.295,0.06371242396575298,1.001018249988248,-0.06709658951882727,0.30836130050516974,-0.12653953635309703,-0.011288541302483093,0.3300642773794924,0.29388928391176,-0.4598421711866251,1,left
2.301,0.06384960583461094,1.0020186566944247,-0.06813098335131225,0.2425984141158167,-0.11907603712280247,-0.03258444714377995,0.32515881949137465,0.2942983033944121,-0.45020765283981046,1,left
2.301,0.06412963428300997,1.0029931250318382,-0.06911423840021706,0.17726179416387655,-0.11146458094656458,-0.05396623920679231,0.32014605818816055,0.29467614385261415,-0.4404256480275431,1,left
2.302,0.06455167066098454,1.0039404381733417,-0.07004539520230792,0.11239010122366093,-0.10370130559714023,-0.07542980619780375,0.315027355727894,0.29502471099967625,-0.4305020925792856,1,left
2.3040000000000003,0.06511484196314639,1.0048593859164165,-0.07092351129471833,0.048021518620669564,-0.09578283964559309,-0.0969709877646028,0.30980410912621453,0.29534588850490967,-0.42044296291333766,1,left
2.305,0.06581824060324906,1.0057487681546629,-0.07174766512185793,-0.015806312243303478,-0.08770629217705365,-0.11858557060824736,0.30447775062954685,0.2956415362432431,-0.4102542730958717,1,left
2.309,0.06666092366037954,1.006607398549965,-0.07251696000371056,-0.0790563523876283,-0.07946924272290536,-0.14026928405131822,0.29904974832344905,0.29591348878386325,-0.39994207215966576,1,left
2.31,0.06764191154144096,1.0074341083997234,-0.07323052812641026,-0.14169222083382388,-0.07106973166549607,-0.16201779501492228,0.2935216068611183,0.29616355411880474,-0.38951244165364846,1,left
2.313,0.06876018601142977,1.0082277506905601,-0.07388753451111987,-0.2036782452993711,-0.06250625113864308,-0.18382670244825997,0.2878948682967557,0.29639351263234337,-0.37897149339399905,1,left
2.314,0.0700146875594579,1.008987204327529,-0.07448718091749718,-0.2649795081859761,-0.05377773640026463,-0.2056915312730394,0.2821711130082005,0.29660511631197845,-0.3683253673871926,1,left
2.318,0.07140431209148995,1.009711378526792,-0.07502870964045864,-0.3255618880421437,-0.044883557653005245,-0.22760772590520545,0.27635196069295564,0.2968000882017253,-0.35758022989504124,1,left
2.319,0.07292790696698373,1.0103992173588554,-0.07551140716236159,-0.3853920966780546,-0.03582351228825185,-0.249570643416625,0.27043907142144397,0.2969801220983832,-0.3467422716114634,1,left
2.324,0.07458426642285405,1.0110497044272506,-0.07593460762859358,-0.4444377121087753,-0.026597817528464563,-0.27157554639953074,0.26443414673105703,0.2971468824913892,-0.33581770592041127,1,left
2.325,0.07637212645246133,1.0116618676637392,-0.07629769612450407,-0.5026672074997661,-0.01720710344227134,-0.2936175955966727,0.2583389307442812,0.2973020047468232,-0.32481276720410107,1,left
2.327,0.07829015922852488,1.0122347842161623,-0.0766001117445464,-0.5600499762864929,-0.00765240630629959,-0.31569184236026093,0.25215521129392,0.2974470955360843,-0.31373370917042626,1,left
2.3280000000000003,0.08033696717567508,1.0127675853998506,-0.07684135045607457,-0.6165563536376981,0.0020648377127566505,-0.3377932210029025,0.24588482103816509,0.29758373350971973,-0.3025868031681822,1,left
2.333,0.08251107680922631,1.0132594616793464,-0.0770209677660679,-0.6721576344295429,0.011942798582808912,-0.3599165411038447,0.23952963854801076,0.29771347021685807,-0.291378336458503,1,left
2.333,0.08481093246085619,1.0137096676443647,-0.07713858119873412,-0.7268260878954005,0.02197925816523078,-0.38205647983392566,0.23309158934925095,0.2978378312706647,-0.2801146104106954,1,left
2.338,0.08723489001006053,1.0141175269418994,-0.07719387258893406,-0.7805349691135685,0.03217161573580982,-0.4042075743627125,0.22657264690104947,0.29795831776021625,-0.2688019385904627,1,left
2.339,0.08978121073383234,1.0144824371249863,-0.07718659019470327,-0.8332585274925661,0.042516893296166966,-0.4263642144113706,0.21997483349283176,0.29807640790916995,-0.2574466447083316,1,left
2.345,0.09244805537632282,1.0148038743783567,-0.07711655063429804,-0.8849720124110096,0.053011740704469686,-0.4485206350148541,0.21330022104100682,0.29819355898158884,-0.2460550603959396,1,left
2.346,0.09523347852555734,1.0150813980829538,-0.07698364065826155,-0.9356516761662982,0.06365244065471268,-0.47067090955703955,0.20655093176679673,0.29831120943527106,-0.23463352277769695,1,left
2.347,0.09813542336726891,1.0153146551848817,-0.07678781877056505,-0.98527477438352,0.07443491353427789,-0.4928089431424409,0.1997291387362244,0.2984307813229269,-0.22318837180521697,1,left
2.3480000000000003,0.10115171686957258,1.0155033843379266,-0.07652911671195403,-1.033819564033086,0.08535472218991487,-0.5149284663681418,0.19283706624309016,0.29855368294154194,-0.21172594732180305,1,left
2.352,0.10428006543913798,1.0156474197915808,-0.0762076408140004,-1.081265299202631,0.09640707663270048,-0.5370230295595648,0.1858769900209972,0.29868131172258394,-0.20025258583619732,1,left
2.353,0.10751805107992629,1.0157466950006304,-0.07582357322556062,-1.1275922247656889,0.1075868387129437,-0.5590859975336598,0.17885123729750182,0.29881505731729197,-0.18877461704474216,1,left
2.355,0.11086312807808157,1.0158012459383134,-0.07537717300617917,-1.1727815680865552,0.1188885267963948,-0.5811105449530417,0.17176218675226562,0.2989563047621353,-0.17729836024907905,1,left
2.3569999999999998,0.11431262023086321,1.0158112140989006,-0.07486877707506027,-1.2168155288975926,0.1303063204734985,-0.6030896523345352,0.16461226846811436,0.299106437571121,-0.16583012087649107,1,left
2.358,0.1178637186340733,1.0157768491749168,-0.07429880099979559,-1.2596772674820218,0.14183406533379525,-0.6250161027754915,0.15740396393649683,0.2992668406400686,-0.15437618724996954,1,left
2.362,0.12151348004081935,1.0156985113921986,-0.07366773960733998,-1.3013508912919798,0.15346527783792555,-0.6468824794611351,0.15013980612965197,0.2994389029171535,-0.14294282764706548,1,left
2.362,0.1252588258028933,1.0155766734857823,-0.07297616740226943,-1.3418214401283042,0.16519315032002382,-0.6686811640160628,0.14282237962439456,0.2996240198324684,-0.1315362876265975,1,left
