time,gFx,gFy,gFz,ax,ay,az,wx,wy,wz,subject_number,foot
2.0869999999999997,-0.12558490688141868,0.9928441840723387,-0.11823264584608456,0.29690085629178603,-0.0016997398240731001,-0.05934271504479311,0.0027200611331349746,0.15322824190727447,-0.1341872588649359,3,right
2.0909999999999997,-0.12678700825918307,0.9928796135703276,-0.11788552997349813,0.30085744013265237,0.00021484536598306378,-0.05941304860025476,0.0016374976031143134,0.15306969211861976,-0.13529910269601877,3,right
2.092,-0.1280019208616676,0.9929065342496494,-0.11753291867358831,0.3046712806588165,0.0021532977833975614,-0.05946998103029397,0.0005341708447383477,0.1528298749542915,-0.13636850914675006,3,right
2.092,-0.1292285764238167,0.9929248859659701,-0.11717509464426004,0.30833605812947334,0.004113862775003834,-0.05951296014672138,-0.0005890349413030429,0.15250885747383042,-0.13739460942645518,3,right
2.096,-0.13046589627817778,0.9929346166549516,-0.11681234529428447,0.3118455411760127,0.0060947437371943036,-0.0595414047831439,-0.0017312107100355856,0.15210678691728932,-0.1383765752663545,3,right
2.096,-0.13171279255982468,0.9929356825998878,-0.11644496168100876,0.3151936028701743,0.00809410548768235,-0.0595547042994862,-0.0028914239476289304,0.1516238901835722,-0.13931362048360652,3,right
2.101,-0.1329681694314591,0.9929280487251348,-0.11607323744551071,0.31837423611731913,0.01011007751287771,-0.05955221831919161,-0.004068720019830631,0.1510604732468605,-0.14020500242602213,3,right
2.101,-0.1342309243295316,0.9929116889099477,-0.11569746775439502,0.3213815683603156,0.012140757090035374,-0.059533276703222546,-0.005262123496684946,0.15041692050997182,-0.14105002330026895,3,right
2.106,-0.13549994922713338,0.9928865863158752,-0.11531794825848798,0.32420987560364417,0.014184212289917623,-0.05949717976089732,-0.006470639456867396,0.1496936940932647,-0.14184803138625635,3,right
2.1069999999999998,-0.13677413190762086,0.9928527337221525,-0.11493497408123766,0.32685359576684686,0.01623848486575642,-0.05944319869755476,-0.0076932547750150106,0.1488913330574714,-0.14259842214026025,3,right
2.112,-0.13805235724473927,0.9928101338671012,-0.1145488388521423,0.32930734137594725,0.018301593034345618,-0.0593705762989906,-0.008928939395478492,0.14801045255861148,-0.14330063918921354,3,right
2.112,-0.13933350848914428,0.9927587997969801,-0.11415983380111126,0.33156591160095444,0.020371534155129073,-0.059278527852560575,-0.010176647595965819,0.14705174293290907,-0.1439541752184536,3,right
2.116,-0.14061646856611568,0.9926987552248236,-0.11376824692682981,0.33362430364703394,0.022446287313181757,-0.05916624230479333,-0.011435319244587336,0.14601596870941075,-0.14455857275508124,3,right
2.117,-0.1419001213934157,0.992630034900012,-0.11337436224624665,0.33547772350638316,0.024523815812006324,-0.05903288365530298,-0.012703881053849883,0.1449039675477745,-0.1451134248489474,3,right
2.121,-0.14318335323017872,0.9925526849845946,-0.1129784591240672,0.33712159607728936,0.026602069582087173,-0.05887759258673501,-0.013981247835181987,0.14371664909847764,-0.145618375653144,3,right
2.121,-0.14446505406645863,0.9924667634252962,-0.11258081167124903,0.3385515746562726,0.028678987511157838,-0.05869948833042121,-0.015266323757603652,0.14245499378246998,-0.14607312090573407,3,right
2.125,-0.14574411905838913,0.9923723403032821,-0.1121816881936742,0.3397635498086285,0.03075249970214544,-0.0584976707673588,-0.016558003614182637,0.14112005148707935,-0.1464774083143147,3,right
2.126,-0.14701945000744346,0.9922694981406288,-0.11178135067243215,0.34075365762208326,0.03282052966475806,-0.0582712227640655,-0.017855174099944398,0.13971294017476116,-0.14683103784486265,3,right
2.13,-0.14828995687834728,0.9921583321449287,-0.11138005426702641,0.34151828734766093,0.034880996446677005,-0.05801921274279714,-0.019156715104925018,0.13823484440106965,-0.14713386191616845,3,right
2.13,-0.14955455935286252,0.992038950380994,-0.11097804684680439,0.3420540884312358,0.036931816710306146,-0.057740697485545986,-0.02046150102607535,0.13668701373801842,-0.1473857855010197,3,right
2.134,-0.15081218842575145,0.991911473868862,-0.11057556856609135,0.34235797693860615,0.03897090676101474,-0.057434725171167385,-0.021768402101740407,0.13507076109879038,-0.1475867661351495,3,right
2.135,-0.15206178806029513,0.9917760366170895,-0.11017285150032467,0.3424271413762793,0.04099618453278841,-0.05710033864490853,-0.02307628577245052,0.13338746095955378,-0.14773681383481965,3,right
2.14,-0.15330231692777443,0.9916327856066415,-0.10977011935495673,0.34225904790950007,0.04300557153717528,-0.05673657891953738,-0.024384018071770184,0.1316385474739406,-0.1478359909237619,3,right
2.14,-0.1545327502537447,0.9914818807419205,-0.10936758725010932,0.3418514449783902,0.04499699478138051,-0.05634248890719055,-0.02569046505095649,0.12982551247554713,-0.14788441177005524,3,right
2.145,-0.1557520817826185,0.991323494781839,-0.10896546157475095,0.3412023673123913,0.04696838866132282,-0.05591711738097761,-0.02699449424118192,0.1279499033636242,-0.14788224243336978,3,right
2.146,-0.1569593258532961,0.9911578132564626,-0.10856393989577924,0.3403101393425239,0.04891769683542112,-0.05545952316529473,-0.02829497615707581,0.12601332086693606,-0.14782970022286313,3,right
2.149,-0.15815351955763646,0.9909850343654185,-0.1081632109023545,0.3391733780102876,0.050842874084827336,-0.05496877955371346,-0.029590785843054933,0.12401741668393627,-0.14772705316651855,3,right
2.15,-0.15933372493931952,0.990805368846579,-0.1077634543671566,0.33779099497133314,0.05274188816576461,-0.0544439789532207,-0.030880804452505437,0.12196389101399324,-0.14757461939582533,3,right
2.15,-0.1604990311889189,0.9906190398013959,-0.10736484111344222,0.336162198191342,0.05461272165956611,-0.053884237753493346,-0.032163920829346215,0.11985449002440185,-0.14737276645541306,3,right
2.154,-0.16164855679580054,0.9904262824664885,-0.10696753298578264,0.3342864929308441,0.05645337382594067,-0.05328870141979566,-0.033439033050089155,0.1176910033145109,-0.14712191055036297,3,right
2.155,-0.16278145162089763,0.9902273439262661,-0.10657168282930371,0.3321636821150009,0.05826186246491617,-0.05265654980799021,-0.034705049895896276,0.11547526142136648,-0.146822515740522,3,right
2.16,-0.16389689885913117,0.9900224827664791,-0.10617743448592026,0.3297938660913233,0.06003622579205448,-0.05198700269024458,-0.03596089224463602,0.11320913338093327,-0.1464750930851458,3,right
2.161,-0.1649941168698334,0.989811968672644,-0.10578492281726881,0.3271774418158259,0.06177452432756186,-0.05127932543087518,-0.037205494384319186,0.11089452434203585,-0.14608019973780192,3,right
2.161,-0.16607236086336302,0.9895960819791031,-0.10539427376474164,0.3243151015762514,0.06347484279283808,-0.05053283466339527,-0.03843780525154911,0.10853337322665849,-0.14563843799067394,3,right
2.164,-0.16713092443586158,0.98937511317481,-0.10500560446029385,0.3212078313985289,0.06513529200402654,-0.04974690377068795,-0.039656789598591514,0.10612765043009798,-0.14515045426727002,3,right
2.165,-0.1681691409399101,0.9891493623728972,-0.10461902340875998,0.3178569092436833,0.06675401075590691,-0.04892096801915485,-0.040861429092637125,0.10367935555432402,-0.1446169380624025,3,right
2.169,-0.16918638466993402,0.988919138753187,-0.10423463076855877,0.3142639030328656,0.06832916769635163,-0.04805452928584796,-0.042050723350794995,0.10119051516776878,-0.14403862082817084,3,right
2.169,-0.1701820718328,0.9886847599886136,-0.10385251875551045,0.3104306684992291,0.06985896319533563,-0.04714716036651847,-0.0432236909143161,0.09866318058463856,-0.143416274804548,3,right
2.173,-0.1711556612685304,0.9884465516659373,-0.1034727721814357,0.3063593468570298,0.07134163121314568,-0.046198508862208394,-0.04437937016550564,0.09609942565671896,-0.14275071179303842,3,right
2.174,-0.17210665488338486,0.9882048467070884,-0.1030954691190753,0.3020523622776323,0.07277544117231025,-0.045208300641895384,-0.045516820190738584,0.09350134457052808,-0.14204278187174887,3,right
2.178,-0.17303459775837246,0.9879599847907741,-0.1027206816650001,0.2975124191614142,0.07415869983764091,-0.04417634287858304,-0.04663512159294585,0.09087104964256175,-0.14129337205008513,3,right
2.1790000000000003,-0.17393907790187124,0.9877123117663018,-0.10234847676027102,0.29274249919387796,0.07548975320864089,-0.04310252665611119,-0.04773337725688912,0.08821066910527048,-0.1405034048611648,3,right
2.184,-0.17481972562597914,0.9874621790450381,-0.10197891702896504,0.2877458581736044,0.07676698842839601,-0.041986829143840804,-0.04881071307049,0.08552234487630903,-0.13967383688991464,3,right
2.185,-0.17567621254143254,0.987209942952507,-0.10161206160556717,0.2825260225990107,0.07798883571291822,-0.0408293153362491,-0.049866278605424,0.08280823030350705,-0.1388056572347013,3,right
2.188,-0.17650825018288294,0.9869559640283744,-0.10124796693838524,0.2770867860002186,0.07915377030476188,-0.03963013935434975,-0.050899247760132556,0.08007048787792274,-0.137899885900228,3,right
2.189,-0.17731558829210295,0.9867006062715794,-0.10088668757368507,0.27143220500168475,0.08026031445457887,-0.03838954530573336,-0.05190881936834605,0.07731128690726152,-0.1369575721193165,3,right
2.194,-0.1780980127994165,0.9864442363390922,-0.1005282769408404,0.26556659510060876,0.08130703943411904,-0.0371078676999033,-0.05289421777614864,0.07453280114186728,-0.13597979260108248,3,right
2.194,-0.17885534355267596,0.9861872227153069,-0.1001727881659769,0.25949452614549934,0.08229256758401933,-0.03578553141546246,-0.05385469339055037,0.07173720634542613,-0.13496764970290417,3,right
2.198,-0.17958743184755377,0.9859299348743155,-0.0998202749343218,0.25322081749866526,0.08321557439955748,-0.0344230512155878,-0.05478952320246525,0.06892667780246091,-0.13392226952348008,3,right
2.199,-0.18029415781251293,0.9856727424588301,-0.09947079240163921,0.24675053286579055,0.08407479065737428,-0.0330210308081117,-0.05569801128692441,0.06610338775463923,-0.13284479991416875,3,right
2.2030000000000003,-0.1809754276991806,0.9854160144954984,-0.09912439813234587,0.2400889747751607,0.08486900458599247,-0.03158016144641241,-0.056579489283282026,0.0632695027578688,-0.13173640840570588,3,right
2.204,-0.18163117112664032,0.9851601186568785,-0.09878115302612912,0.23324167868852785,0.0855970640827814,-0.030101220067200986,-0.05743331685809802,0.060427180952110846,-0.13059828004729765,3,right
2.209,-0.18226133832559863,0.9849054205693359,-0.09844112219153492,0.22621440672503967,0.08625787897983277,-0.02858506696117846,-0.05825888215330595,0.05757856923580562,-0.12943161515499796,3,right
2.209,-0.18286589742371276,0.9846522831582459,-0.09810437573454141,0.21901314097910604,0.08685042336102711,-0.027032642972425736,-0.05905560222219683,0.054725800336773704,-0.12823762696618773,3,right
2.213,-0.1834448318067123,0.9844010660192418,-0.09777098944765297,0.21164407641254634,0.08737373793237951,-0.025444966222279465,-0.05982292345567061,0.05187098977143248,-0.12701753919688935,3,right
2.213,-0.18399813758265166,0.9841521248068452,-0.09744104540200309,0.20411361330084218,0.08782693244756122,-0.02382312835334039,-0.06056032200112549,0.04901623268414915,-0.12577258349856743,3,right
2.218,-0.18452582117040756,0.9839058106379279,-0.0971146324555077,0.19642834921282187,0.088209188190297,-0.022168290289156675,-0.06126730417545135,0.04616360056499415,-0.12450399681558937,3,right
2.218,-0.1850278970291176,0.9836624695132722,-0.09679184669361772,0.1885950705026209,0.08851976051513986,-0.020481677505023603,-0.06194340686940183,0.04331513787642648,-0.12321301866744855,3,right
2.219,-0.18550438554186424,0.9834224417635866,-0.09647279181757655,0.1806207432922996,0.08875798144792318,-0.018764574805242996,-0.06258819793314113,0.04047285867753459,-0.12190088842118915,3,right
2.224,-0.18595531106482957,0.983186061528452,-0.09615757949161585,0.17251250392305545,0.08892326234698673,-0.017018320602091117,-0.063201276528567,0.03763874336673576,-0.12056884264240864,3,right
2.224,-0.1863807001531882,0.9829536562788446,-0.09584632965779094,0.16427764885254123,0.0890150966260675,-0.01524430069165261,-0.06378227343802984,0.034814735631575555,-0.11921811259014435,3,right
2.228,-0.18678057997524775,0.9827255463938483,-0.09553917082422272,0.1559236239914573,0.08903306253498672,-0.013443941536537806,-0.06433085132637101,0.03200273963619458,-0.11784992187948294,3,right
2.228,-0.18715497692412178,0.9825020447990271,-0.0952362403279285,0.14745801355250288,0.08897682597129794,-0.011618703140152968,-0.06484670495721921,0.029204617444779705,-0.11646548431266958,3,right
2.228,-0.18750391543147876,0.982283456669399,-0.09493768456812898,0.13888852862895137,0.08884614325488686,-0.00977007173163815,-0.06532956136521322,0.026422186672891257,-0.11506600187483913,3,right
2.2319999999999998,-0.18782741698177335,0.9820700791948138,-0.09464365920087726,0.1302229958000751,0.08864086377454397,-0.007899552555247711,-0.06577917998572633,0.02365721835859208,-0.11365266289044161,3,right
2.2319999999999998,-0.1881254993184035,0.9818622013997322,-0.0943543292816477,0.12146934598002186,0.08836093243807562,-0.006008662983141126,-0.06619535274357385,0.02091143504534411,-0.11222664033638717,3,right
2.237,-0.1883981758266178,0.9816601040040982,-0.09406986934138184,0.11263560358190468,0.08800639189826888,-0.004098926035959851,-0.06657790410209019,0.018186509068683063,-0.1107890903078932,3,right
2.237,-0.18864545507447886,0.9814640593089675,-0.09379046338560454,0.10372987598828876,0.08757738454956894,-0.0021718643207672187,-0.06692669107386669,0.015484061038732004,-0.10934115063297561,3,right
2.242,-0.18886734049553386,0.981274331090911,-0.09351630481445936,0.09476034330294542,0.08707415429466471,-0.00022899438092261235,-0.06724160319434548,0.01280565851066943,-0.10788393963149022,3,right
2.2430000000000003,-0.189063830204895,0.9810911744933122,-0.09324759626931049,0.08573524835851404,0.08649704807996479,0.0017281785475929845,-0.0675225624593679,0.010152814835327394,-0.10641855501459713,3,right
2.247,-0.1892349169503379,0.9809148359097304,-0.09298454941424328,0.07666288695450546,0.08584651719873161,0.0036981653789327136,-0.06776952322767928,0.007526988182159641,-0.10494607292049093,3,right
2.25,-0.1893805882072561,0.980745552861754,-0.09272738465727333,0.06755159829989783,0.08512311836042907,0.005679497624798957,-0.06798247208929467,0.004929580726888676,-0.10346754708221302,3,right
2.251,-0.1895008264287014,0.9805835538780144,-0.09247633080966254,0.05840975563441587,0.08432751452462661,0.007670731452137077,-0.06816142770053239,0.0023619379962139756,-0.10198400812333817,3,right
2.252,-0.18959560945947596,0.9804290583813384,-0.09223162467780198,0.04924575700244904,0.08346047549759221,0.009670451356763856,-0.06830644058642472,-0.00017465163795891343,-0.10049646297730835,3,right
2.2569999999999997,-0.1896649111181956,0.9802822765891751,-0.09199351058361953,0.040068016153452554,0.08252287828949759,0.011677273458619374,-0.06841759291111793,-0.0026789573222271634,-0.09900589442616813,3,right
2.258,-0.18970870194679454,0.9801434094305739,-0.0917622398139589,0.030884953542586906,0.08151570722995163,0.013689848424359559,-0.06849499821677545,-0.005149805950710715,-0.09751326075444197,3,right
2.261,-0.18972695012571905,0.9800126484818678,-0.09153807000246003,0.02170498740528862,0.08044005383937335,0.015706864023031113,-0.06853880113140103,-0.007586082266667888,-0.09601949551388246,3,right
2.261,-0.18971962255416586,0.9798901759226648,-0.09132126444861698,0.012536524879424976,0.07929711645351274,0.01772704732059092,-0.06854917704590165,-0.009986728843898217,-0.09452550739480943,3,right
2.267,-0.18968668609497416,0.9797761645135775,-0.09111209137993895,0.0033879531486704067,0.07808819959822899,0.019749166519048757,-0.0685263317606126,-0.01235074595502821,-0.09303218019975408,3,right
2.2680000000000002,-0.18962810898151744,0.9796707775974857,-0.09091082316408491,-0.005732369419248906,0.07681471311143792,0.021772032446024877,-0.06847050110141104,-0.014677191333676527,-0.09154037291511874,3,right
2.273,-0.18954386237984977,0.9795741691269183,-0.09071773547639567,-0.014816122165762741,0.0754781710089488,0.023794499700523296,-0.06838195050544833,-0.016965179837392815,-0.09005091987656237,3,right
2.273,-0.18943392209431437,0.9794864837205205,-0.09053310642463802,-0.023855031092380265,0.07408019009072019,0.025815467460727187,-0.06826097457643604,-0.019213883018159416,-0.088564631023824,3,right
2.276,-0.18929827039916972,0.979407856751164,-0.09035721562969232,-0.03284087789551151,0.0726224882838799,0.02783387995962511,-0.06810789660932558,-0.02142252860713722,-0.08708229224069997,3,right
2.2769999999999997,-0.18913689797336766,0.9793384144673936,-0.09019034326064623,-0.04176550911126426,0.07110688271867296,0.029848726634275694,-0.06792306808412804,-0.023590399920226747,-0.08560466577589806,3,right
2.281,-0.18894980591119584,0.9792782741484598,-0.09003276902542554,-0.05062084539616502,0.06953528753332529,0.03185904195451419,-0.06770686812852719,-0.025716835190902662,-0.08413249074050053,3,right
2.282,-0.1887370077776074,0.9792275442909423,-0.0898847711219292,-0.05939889096960049,0.06790971140363936,0.03386390493689711,-0.06745970294884668,-0.027801226836665013,-0.08266648367777932,3,right
2.286,-0.18849853167335948,0.9791863248225676,-0.08974662515736367,-0.06809174324360023,0.06623225479297214,0.035862438349670976,-0.06718200522884138,-0.02984302066533353,-0.08120733920112025,3,right
2.287,-0.18823442227328036,0.9791547073371101,-0.08961860304414888,-0.07669160266538225,0.06450510691808474,0.03785380761453829,-0.06687423349652298,-0.03184171502802851,-0.07975573069555457,3,right
2.287,-0.1879447428035737,0.9791327753438267,-0.0895009718801455,-0.08519078279786149,0.06273054242619854,0.03983721941097823,-0.06653687146329311,-0.033796859929241745,-0.0783123110770453,3,right
2.291,-0.18762957692987378,0.9791206045263411,-0.08939399282014122,-0.09358172066307682,0.060910917778443534,0.041811919988861614,-0.0661704273470432,-0.035708056110904086,-0.07687771360123083,3,right
2.292,-0.1872890305311579,0.979118263008173,-0.08929791994532135,-0.10185698737322484,0.059048667334742275,0.04377719319507905,-0.06577543319494614,-0.037574954130913094,-0.07545255271198109,3,right
2.296,-0.18692323333308083,0.9791258116224183,-0.08921299913774748,-0.11000929907370022,0.057146299135036514,0.04573235821987841,-0.06535244421742739,-0.039397253452778634,-0.0740374249215137,3,right
2.2969999999999997,-0.18653234037209054,0.9791433041803792,-0.0891394669670425,-0.11803152822223155,0.05520639037163459,0.04767676706858297,-0.06490203813724668,-0.04117470155629284,-0.07263290971630781,3,right
2.2969999999999997,-0.18611653326272518,0.9791707877303464,-0.08907754959679881,-0.1259167152033795,0.05323158255508255,0.04960980176764251,-0.06442481455338692,-0.04290709307532304,-0.07123957048444853,3,right
2.301,-0.18567602124469623,0.9792083027958028,-0.08902746171868062,-0.13365808015486105,0.05122457641458405,0.05153087133048153,-0.06392139431853665,-0.04459426896796203,-0.0698579554603382,3,right
2.302,-0.18521104199191527,0.9792558835824526,-0.08898940552191383,-0.14124903466137984,0.049188126643612815,0.05343940853835086,-0.06339241892887335,-0.046236115724141526,-0.06848859868274093,3,right
2.305,-0.1847218621699261,0.9793135581439854,-0.08896356970613774,-0.14868319284879872,0.04712503663999854,0.05533486660789723,-0.06283854992477789,-0.04783256461568495,-0.06713202096215874,3,right
2.306,-0.1842087777313975,0.9793813484964506,-0.08895012854845416,-0.15595438153352867,0.045038153350937624,0.05721671580059033,-0.06226046830103553,-0.04938359099364625,-0.06578873085357147,3,right
2.311,-0.18367211394559363,0.97945927067234,-0.08894924103891985,-0.16305664930198685,0.04293036226356896,0.05908443999933753,-0.06165887392500509,-0.05088921363765117,-0.0644592256306079,3,right
2.312,-0.18311222516867687,0.979547334709549,-0.08896105009870016,-0.1699842745169764,0.04080458254294166,0.06093753326103849,-0.06103448496116669,-0.05234949416182708,-0.063143992257252,3,right
2.316,-0.18252949437314664,0.9796455445761701,-0.0889856818907117,-0.17673177227186368,0.03866376231138585,0.06277549635048466,-0.060388037300389066,-0.053764536481777106,-0.061843508353226495,3,right
2.3169999999999997,-0.18192433246218712,0.9797538980373178,-0.08902324522595668,-0.1832939003129435,0.036510874063237664,0.06459783326096791,-0.05972028399218949,-0.05513448634692391,-0.06055824314923548,3,right
2.32,-0.18129717739784307,0.9798723864732709,-0.08907383106296188,-0.1896656639498818,0.03434891020881806,0.06640404772692085,-0.059031994678194394,-0.056459530942418346,-0.059288658428288774,3,right
2.3209999999999997,-0.18064849317288353,0.9800009946582625,-0.08913751209499318,-0.19584231997360796,0.03218087874152181,0.06819363973386745,-0.05832395502494525,-0.057739898564678406,-0.05803520944937305,3,right
2.325,-0.17997876865605453,0.980139700506909,-0.08921434241939939,-0.20181937960049748,0.03000979902183844,0.06996610203091828,-0.05759696615413293,-0.05897585837449424,-0.05679834584977866,3,right
2.326,-0.17928851633911044,0.9802884747928239,-0.0893043572823723,-0.20759261046113933,0.027838697672100825,0.07172091665099795,-0.05685184406828508,-0.060167720231506426,-0.05557851252243581,3,right
2.33,-0.1785782710120088,0.980447280843164,-0.08940757288895054,-0.21315803765142186,0.025670604575739817,0.07345755144394461,-0.05608941906987421,-0.06131583461373604,-0.0543761504646603,3,right
2.33,-0.17784858839112944,0.9806160742131869,-0.08952398626545774,-0.21851194386309866,0.023508548974814462,0.07517545662757234,-0.05531053517175986,-0.06242059262571786,-0.05319169759475651,3,right
2.335,-0.17710004372555807,0.9807948023458206,-0.08965357516429143,-0.22365086861041125,0.021355555659587334,0.07687406136173623,-0.05451604949682594,-0.06348242609866132,-0.05202558953297454,3,right
2.336,-0.17633323040836435,0.9809834042238963,-0.08979629800867078,-0.22857160656874778,0.01921464124392318,0.07855277035038795,-0.05370683166462503,-0.06450180778593839,-0.050878260343368134,3,right
2.34,-0.17554875862158556,0.9811818100265314,-0.08995209388282599,-0.2332712050407115,0.017088810520306374,0.08021096047655571,-0.05288376316279376,-0.06547925165707288,-0.04975014323315181,3,right
2.3409999999999997,-0.17474725404392255,0.9813899408033088,-0.09012088257727474,-0.23774696056435407,0.014981052888298653,0.08184797747512688,-0.052047736700958885,-0.06641531329328255,-0.04864167120620828,3,right
2.345,-0.17392935664902875,0.9816077081792484,-0.09030256469795847,-0.241996414677704,0.012894338850293402,0.08346313264825443,-0.051199655544811394,-0.06731059038750364,-0.04755327766745109,3,right
2.346,-0.17309571961904102,0.9818350141013882,-0.09049702184273771,-0.24601734885308443,0.010831616568465919,0.08505569962814928,-0.0503404328279859,-0.06816572335170691,-0.04648539697480254,3,right
2.349,-0.17224700839201282,0.9820717506344817,-0.09070411684228402,-0.24980777861407313,0.008795808476871102,0.08662491119195993,-0.049470990839345724,-0.0689813960341954,-0.045438464935603586,3,right
2.35,-0.1713838998548303,0.9823177998085582,-0.09092369405880263,-0.25336594684730734,0.006789807942700273,0.08816995613337755,-0.04859226028323928,-0.06975833654945743,-0.04441291924432998,3,right
2.354,-0.17050708168685233,0.9825730335156696,-0.09115557973614191,-0.25669031632067996,0.004816475970777805,0.08968997619553996,-0.04770517951026148,-0.07049731822303273,-0.043409199858547735,3,right
2.354,-0.1696172518540515,0.982837313448488,-0.09139958239644828,-0.25977956141881275,0.002878637945455447,0.09118406306974075,-0.046810693717213955,-0.07119916064823788,-0.04242774931108894,3,right
2.355,-0.16871511824918894,0.9831104910711382,-0.09165549327987207,-0.2626325591060243,0.0009790804041478114,0.09265125546437998,-0.045909754120878624,-0.07186473082399306,-0.04146901296142774,3,right
2.359,-0.16780139847117914,0.983392407613517,-0.09192308682460115,-0.2652483791263402,-0.0008794521631537507,0.09409053624852136,-0.045003317120900756,-0.0724949442933962,-0.040533439198186506,3,right
2.36,-0.16687681973523183,0.9836828940824158,-0.09220212118444848,-0.2676262734494178,-0.0026942604939497864,0.09550082967434585,-0.044092343473003816,-0.07309076617509042,-0.03962147960970376,3,right
2.364,-0.1659421189032814,0.983981771283742,-0.09249233878045977,-0.26976566499216964,-0.004462693715439712,0.09688099868730173,-0.04317779748779223,-0.07365321200685997,-0.03873358913472321,3,right
2.365,-0.16499804262246098,0.9842888498506104,-0.09279346688261418,-0.27166613575314036,-0.0061821524768293145,0.0982298423556078,-0.04226064625967727,-0.07418334837027586,-0.037870226196442175,3,right
2.366,-0.16404534755905137,0.9846039302734919,-0.09310521821863958,-0.2733274146903235,-0.007850092013518889,0.09954609349196973,-0.04134185892450058,-0.07468229329260603,-0.037031852818288025,3,right
2.369,-0.16308480071538214,0.9849268029305736,-0.09342729160884125,-0.2747493657803707,-0.009464025090343114,0.10082841656321974,-0.040422405943230114,-0.07515121642760844,-0.03621893471887307,3,right
2.369,-0.16211717981694704,0.985257248118782,-0.09375937262685642,-0.27593197658850743,-0.011021524785369063,0.10207540596056258,-0.03950325840909599,-0.0755913390167322,-0.03543194138364863,3,right
2.373,-0.1611432737585192,0.9855950360889959,-0.09410113428481046,-0.27687534748347115,-0.012520227101667494,0.10328558466173071,-0.038585387375528815,-0.07600393363216283,-0.034671346110850786,3,right
2.374,-0.1601638831022175,0.9859399270918465,-0.09445223773771265,-0.27757968152314544,-0.013957833408793417,0.1044574032933166,-0.03766976320226125,-0.07639032370306109,-0.033937626029403686,3,right
2.379,-0.15917982062429248,0.9862916714417426,-0.09481233299779714,-0.2780452750142887,-0.01533211271844512,0.1055892395968615,-0.03675735491695448,-0.07675188282626277,-0.033231262086520406,3,right
2.379,-0.15819191190730184,0.9866500096064451,-0.09518105964662507,-0.2782725087490677,-0.01664090379860207,0.1066793983021737,-0.03584912958971478,-0.07709003386262733,-0.032552739002817584,3,right
2.384,-0.15720099596978238,0.9870146723274619,-0.09555804753191519,-0.2782618399204201,-0.017882117130266755,0.10772611141123911,-0.03494605171787204,-0.07740624782014846,-0.031902545192836994,3,right
2.385,-0.1562079259183169,0.9873853807720221,-0.09594291743650886,-0.2780137947175835,-0.019053736710753735,0.10872753889597203,-0.034049082618401186,-0.07770204252486822,-0.03128117264894595,3,right
2.3890000000000002,-0.1552135695991944,0.9877618467119161,-0.09633528170755641,-0.27752896160244606,-0.020153821707281232,0.10968176981293401,-0.033159179825379415,-0.0779789810805695,-0.03068911678666829,3,right
2.3890000000000002,-0.15421881022148487,0.9881437727208254,-0.09673474483614822,-0.27680798526668815,-0.021180507964426585,0.11058682383802376,-0.03227729648988713,-0.07823867011815827,-0.030126876249579253,3,right
2.394,-0.15322454692381493,0.9885308523814349,-0.0971409039836614,-0.27585156126900406,-0.022132009368807097,0.11144065322401087,-0.03140438077977778,-0.07848275783558885,-0.02959495267198027,3,right
2.394,-0.15223169526489708,0.9889227704966975,-0.09755334946031591,-0.27466043135101276,-0.023006619074142563,0.11224114518365012,-0.030541375276762293,-0.07871293182913115,-0.0290938503976539,3,right
2.398,-0.15124118763029298,0.9893192033047605,-0.09797166516850125,-0.2732353794297871,-0.023802710589645042,0.1129861247009724,-0.029689216368276657,-0.07893091671672964,-0.02862407615308482,3,right
2.398,-0.1502539735590564,0.9897198187011765,-0.09839542902265089,-0.27157722826425623,-0.024518738734465542,0.1136733577731999,-0.028848833631627054,-0.0791384715541585,-0.028186138673619885,3,right
2.404,-0.1492710199981779,0.9901242764725325,-0.09882421334857182,-0.2696868367920612,-0.025153240460706668,0.11430055508558111,-0.028021149207935372,-0.07933738704463837,-0.02778054828112885,3,right
2.405,-0.1482933114893631,0.9905322285429493,-0.09925758525469558,-0.2675650981327711,-0.025704835547284862,0.11486537612128059,-0.027207077163439106,-0.07952948254254429,-0.02740781641181729,3,right
2.408,-0.14732185028626624,0.990943319231468,-0.09969510696408701,-0.2652129382526989,-0.02617222716669605,0.11536543370829265,-0.026407522835733385,-0.07971660285180518,-0.027068455092934676,3,right
2.408,-0.14635765639665146,0.9913571855162333,-0.10013633610312275,-0.26263131528588773,-0.026554202326504454,0.11579829900517614,-0.025623382162579412,-0.07990061481957014,-0.026762976367213677,3,right
2.4130000000000003,-0.14540176754488338,0.9917734573014112,-0.10058082595670631,-0.2598212195051741,-0.026849632187136416,0.11616150692722757,-0.024855540990942667,-0.08008340372569737,-0.026491891663970965,3,right
2.4130000000000003,-0.14445523905248875,0.9921917576838999,-0.10102812571108831,-0.2567836739365746,-0.027057472257319217,0.1164525620145237,-0.024104874363965842,-0.08026686946860734,-0.02625571111589571,3,right
2.417,-0.14351914363478002,0.9926117032167819,-0.10147778070591906,-0.25351973560957985,-0.027176762468259855,0.11666894474307188,-0.023372245783625865,-0.08045292254803267,-0.026054942820649345,3,right
2.418,-0.1425945711105454,0.9930329041645388,-0.10192933270799066,-0.250030497435287,-0.027206627127410205,0.11680811828010648,-0.022658506446871018,-0.0806434798451943,-0.025890092046498944,3,right
2.4219999999999997,-0.1416826280228116,0.9934549647439495,-0.1023823202076832,-0.2463170907036456,-0.02714627475241354,0.11686753568436158,-0.021964494454317984,-0.08084046020672057,-0.02576166038186789,3,right
2.423,-0.14078443717193337,0.9938774833465581,-0.10283627873158675,-0.24238068819044364,-0.026994997785573193,0.11684464755193653,-0.021291033996812203,-0.08104577986756337,-0.025670144831594643,3,right
2.423,-0.13990113706512514,0.9943000527423465,-0.10329074116249123,-0.23822250786401217,-0.02675217218892756,0.11673691010814857,-0.02063893453631873,-0.0812613478002505,-0.025616036867843354,3,right
2.428,-0.1390338812875286,0.9947222602677374,-0.10374523805912557,-0.2338438171809836,-0.026417256919756354,0.11654179374553741,-0.020008990003839114,-0.08148906110676195,-0.025599821446520066,3,right
2.4290000000000003,-0.13818383779831656,0.995143688004373,-0.1041992979712712,-0.2292459379597979,-0.025989793286082415,0.11625679200795101,-0.01940197803093708,-0.08173080054041167,-0.025621975997348816,3,right
2.432,-0.1373521881497955,0.9955639129579911,-0.10465244775142407,-0.22443025182001436,-0.02546940418147014,0.11587943102039726,-0.018818659220407704,-0.0819884261930736,-0.025682969390819786,3,right
2.4330000000000003,-0.13654012661877338,0.9959825072472067,-0.10510421287111935,-0.21939820617485276,-0.02485579319815751,0.11540727936409592,-0.018259776455516404,-0.08226377335419598,-0.02578326088252501,3,right
2.434,-0.13574885923145857,0.9963990383093619,-0.10555411775479366,-0.214151320755903,-0.02414874362104544,0.11483795838030846,-0.017726054246065666,-0.0825586485423022,-0.02592329903494629,3,right
2.438,-0.1349796026594531,0.9968130691266286,-0.10600168614383768,-0.20869119460904217,-0.023348117323563886,0.11416915280826836,-0.017218198109615356,-0.08287482570972264,-0.026103520616871562,3,right
2.439,-0.13423358296485854,0.9972241584724394,-0.10644644150015663,-0.20301951342927868,-0.022453853619939092,0.1133986215218798,-0.01673689398625266,-0.083214042621352,-0.026324349480728697,3,right
2.4419999999999997,-0.1335120341731742,0.997631861177118,-0.10688790745645121,-0.19713805706235213,-0.021465968146880777,0.11252420805158306,-0.01628280768537995,-0.08357799740828317,-0.026586195418240068,3,right
2.443,-0.1328161966523717,0.9980357284122124,-0.10732560832029808,-0.1910487070395796,-0.020384551828676663,0.11154385065549025,-0.0158565843630631,-0.08396834529722982,-0.026889452994916484,3,right
2.448,-0.13214731528060458,0.9984353079946096,-0.10775906963816789,-0.18475345408252866,-0.019209769945640526,0.1104555918439844,-0.015458848028558996,-0.08438669551671565,-0.027234500364025735,3,right
2.448,-0.13150663739691443,0.9988301447126509,-0.10818781882216975,-0.17825440555276964,-0.017941861306828486,0.10925758733966798,-0.015090201078719218,-0.0848346083810795,-0.02762169806078887,3,right
2.452,-0.13089541054485943,0.9992197806755669,-0.10861138583669364,-0.171553792829219,-0.016581137523917315,0.10794811446983979,-0.0147512238590468,-0.08531359255342104,-0.028051387777676122,3,right
2.452,-0.1303148800322959,0.9996037556835506,-0.10902930393517113,-0.16465397859499303,-0.015127982382870397,0.10652557998837058,-0.014442474250264724,-0.08582510248869249,-0.028523891121794553,3,right
2.457,-0.1297662863390641,0.9999816076103303,-0.10944111043203926,-0.1575574640151071,-0.013582851309749677,0.10498852732353166,-0.014164487279338453,-0.08637053605822605,-0.029039508355480446,3,right
2.457,-0.12925086240798572,1.0003528727871713,-0.10984634749583946,-0.15026689578577657,-0.011946270926765439,0.10333564324801152,-0.01391777475397985,-0.08695123235707629,-0.029598517121331505,3,right
2.463,-0.12876983085394803,1.0007170863793469,-0.11024456295700266,-0.14278507303550322,-0.010218838694390315,0.10156576396703076,-0.013702824919746717,-0.08756846969564988,-0.030201171153036884,3,right
2.463,-0.12832440112146387,1.0010737827521592,-0.11063531113434816,-0.13511495405756652,-0.008401222635099976,0.09967788062013683,-0.013520102138940455,-0.08822346377719258,-0.030847698973486926,3,right
2.468,-0.127915766613487,1.0014224958305813,-0.11101815369171165,-0.12725966285298193,-0.006494161134040291,0.09767114419192797,-0.013370046590594153,-0.08891736606280426,-0.031538302581768984,3,right
2.468,-0.1275451018048077,1.0017627594618563,-0.11139266053584616,-0.11922249546243928,-0.004498462811659947,0.09554486982661972,-0.013253073990934634,-0.08965126232575787,-0.032273156130781085,3,right
2.472,-0.127213559344879,1.0020941077924919,-0.1117584107586697,-0.11100692606519404,-0.002415006463088591,0.09329854054102851,-0.01316957533379447,-0.09042617139700639,-0.0330524045973212,3,right
2.472,-0.12692226715014543,1.0024160756704248,-0.1121149936156046,-0.10261661282235197,-0.0002447410587837766,0.09093181033020674,-0.013119916650543835,-0.09124304410387336,-0.03387616244663642,3,right
2.477,-0.12667232548604154,1.0027281990816208,-0.11246200952245539,-0.0940554034414664,0.002011314199284526,0.08844450665961905,-0.013104438789206922,-0.09210276240403778,-0.03474451229354333,3,right
2.477,-0.12646480404307897,1.00303001562873,-0.11279907104854299,-0.08532734043885452,0.004352069771895012,0.08583663233740685,-0.013123457212523936,-0.09300613871704126,-0.035657503562358514,3,right
2.483,-0.12630073901638128,1.0033210650564537,-0.11312580388398895,-0.07643666607553821,0.006776365633514118,0.08310836675994115,-0.013177261814816696,-0.09395391545566625,-0.03661515114800567,3,right
2.483,-0.12618113019963026,1.0036008898242905,-0.11344184776443321,-0.06738782694222385,0.00928297108639179,0.08026006652351858,-0.013266116757614051,-0.09494676475965645,-0.03761743408079403,3,right
2.4859999999999998,-0.1261069381028483,1.0038690357250886,-0.11374685734619507,-0.058185478168256755,0.011870584544535814,0.0772922653947092,-0.013390260324092403,-0.0959852884343765,-0.03866429419749098,3,right
2.487,-0.12607908110227828,1.0041250525478915,-0.11404050303377061,-0.048834487229019535,0.014537833294526405,0.07420567363151939,-0.013549904792486448,-0.09707001809713496,-0.03975563482143973,3,right
2.491,-0.12609843263114034,1.0043684947840021,-0.11432247176322265,-0.039339937325789304,0.017283273240369074,0.07100117664718839,-0.013745236328725903,-0.09820141553402426,-0.040891319454601394,3,right
2.492,-0.126165818420238,1.0045989223755858,-0.11459246773962718,-0.029707130311628395,0.02010538863981633,0.06767983300809427,-0.013976414898646358,-0.0993798732654992,-0.04207117048486961,3,right
2.492,-0.12628201379580026,1.0048159015069973,-0.1148502131211109,-0.019941589136456658,0.0230025918398174,0.06424287175690471,-0.014243574200179361,-0.10060571529523718,-0.0432949679138394,3,right
2.496,-0.12644774104009773,1.0050190054399408,-0.11509544864070576,-0.01004905978404139,0.025973223018979613,0.06069168905176871,-0.014546821615948615,-0.10187919797409373,-0.04456244811340949,3,right
2.496,-0.12666366682094374,1.00520781539459,-0.11532793415793528,-3.551267324437074e-05,0.02901554994514526,0.05702784411201072,-0.014886238186757082,-0.10320051088729065,-0.0458733026214298,3,right
2.501,-0.12693039969949224,1.0053819214802289,-0.11554744913071904,0.010092856504515453,0.03212776775640313,0.0532530544604569,-0.01526187860659809,-0.10456977769692209,-0.04722717698502609,3,right
2.501,-0.1272484877290144,1.005540923679725,-0.11575379299453692,0.020329626531043483,0.03530799877241315,0.04936919046746078,-0.01567377124000788,-0.1059870569148625,-0.04862366965728913,3,right
2.502,-0.12761841615762834,1.0056844328906285,-0.11594678543303853,0.030668150965472863,0.03855429233486899,0.04537826927770241,-0.016121918162725794,-0.10745234260511002,-0.05006233095143459,3,right
2.505,-0.12804060524442148,1.0058120720222534,-0.1161262665263462,0.04110155890158392,0.04186462466125789,0.041282448337909255,-0.01660629522674129,-0.10896556501949918,-0.05154266205632201,3,right
2.506,-0.1285154081922594,1.0059234771441707,-0.116292096771418,0.051622756028815456,0.04523689868801299,0.037084018819663486,-0.017126852150911025,-0.11052659117085409,-0.05306411411734356,3,right
2.511,-0.12904310919364953,1.006018298677871,-0.11644415698092796,0.06222442589246479,0.048668943887602276,0.03278539915482385,-0.017683512638433357,-0.11213522534779152,-0.05462608738681461,3,right
2.511,-0.12962392157968325,1.006096202620843,-0.11658234807979705,0.07289903132935843,0.052158516059148285,0.028389128763396176,-0.018276174522571683,-0.11379120957552062,-0.05622793044811733,3,right
2.516,-0.13025798605818628,1.0061568717917648,-0.11670659082691792,0.08363881610025642,0.05570329710060988,0.023897861977062555,-0.018904709942121824,-0.11549422402712338,-0.057868939517966796,3,right
2.517,-0.1309453690279118,1.0062000070863366,-0.11681682548933435,0.09443580674942978,0.059300894772380396,0.01931436214602595,-0.01956896554822242,-0.11724388738993623,-0.0595483578312855,3,right
2.52,-0.13168606096012075,1.0062253287347345,-0.11691301148849216,0.10528181472205975,0.06294884246232199,0.014641495916546595,-0.020268762744210574,-0.11903975719178948,-0.06126537511328614,3,right
2.521,-0.13247997484360804,1.0062325775537155,-0.11699512702985743,0.11616843877029395,0.06664459896241409,0.009882227666273943,-0.021003897960328057,-0.12088133009199599,-0.06301912714347548,3,right
2.525,-0.13332694469238365,1.006221516188515,-0.11706316872375075,0.12708706767895922,0.07038554826734562,0.005039614084213147,-0.021774142965185914,-0.1227680421421144,-0.06480869541640188,3,right
2.526,-0.13422672411820896,1.0061919303402242,-0.11711715120664169,0.13802888334206997,0.07416899940552527,0.00011679888190856345,-0.02257924521599735,-0.12469926902164508,-0.06663310690407735,3,right
2.53,-0.13517898497438374,1.0061436299733513,-0.1171571067743344,0.1489848642213886,0.07799218631312069,-0.004882992377821245,-0.023418928249690288,-0.12667432625394767,-0.06849133392510992,3,right
2.531,-0.13618331608218556,1.0060764504972486,-0.11718308503840744,0.15994578921838473,0.081852267761868,-0.009956457348501774,-0.024292892117111706,-0.1286924694077992,-0.0703822941256856,3,right
2.535,-0.13723922205504613,1.0059902539139378,-0.11719515261532745,0.17090224199100723,0.08574632735151434,-0.01510022187810911,-0.02520081386263606,-0.1307528942901388,-0.07230485057763841,3,right
2.536,-0.13834612223495524,1.0058849299228163,-0.11719339285564588,0.1818446157467224,0.0896713735778702,-0.02031084491202067,-0.026142348051589322,-0.13285473713567172,-0.07425781199894449,3,right
2.54,-0.13950334975078987,1.005760396971171,-0.11717790561920653,0.192763118543286,0.09362433998755439,-0.02558482333537761,-0.027117127347998548,-0.13499707479912795,-0.07623993310206999,3,right
2.54,-0.1407101507039532,1.0056166032401042,-0.11714880709977417,0.20364777912870335,0.09760208543061182,-0.03091859676962815,-0.028124763145274484,-0.1371789249560932,-0.07824991507569323,3,right
2.545,-0.14196568348670513,1.0054535275579934,-0.11710622969679937,0.21448845335179084,0.101601394422273,-0.03630855233821299,-0.02916484625253126,-0.13939924631844786,-0.08028640620540882,3,right
2.545,-0.1432690182421902,1.005271180236275,-0.11705032192423863,0.22527483117468394,0.10561897762520428,-0.04175102941653593,-0.030236947639342523,-0.14165693887056627,-0.08234800263910486,3,right
2.552,-0.14461913648041427,1.0050696038240232,-0.11698124834182094,0.23599644431853742,0.1096514724636691,-0.04724232438153434,-0.03134061924182783,-0.14395084413254222,-0.08443324930278479,3,right
2.552,-0.1460149308703551,1.0048488737790366,-0.11689918949696884,0.24664267457353917,0.11369544388108187,-0.052778695376325596,-0.032475394833056254,-0.14627974545681627,-0.08654064097268083,3,right
2.555,-0.14745520523346806,1.0046090990554561,-0.11680434187237451,0.2572027628042005,0.11774738525248887,-0.058356367105556195,-0.03364079096084614,-0.1486423683646885,-0.08866862350957844,3,right
2.555,-0.14893867476554784,1.0043504226118627,-0.11669691783782561,0.2676658186807012,0.12180371946355296,-0.06397153567722064,-0.03483630795613051,-0.15103738092930366,-0.09081559526133887,3,right
2.562,-0.15046396651178523,1.0040730218479255,-0.11657714560324907,0.27802083116684917,0.12586080016765175,-0.06962037350684633,-0.036061431015146944,-0.15346339421179625,-0.09297990863967054,3,right
2.563,-0.1520296201166326,1.0037771089801382,-0.1164452691664168,0.288256679794968,0.12991491323272186,-0.07529903430005958,-0.03731563135649621,-0.15591896275556216,-0.09515987187376215,3,right
2.563,-0.1536340888676975,1.0034629313672119,-0.11630154824628812,0.298362146757746,0.13396227838949407,-0.08100365812965524,-0.03859836744268677,-0.15840258513462643,-0.09735375092596164,3,right
2.5639999999999996,-0.1552757410501573,1.0031307717941051,-0.11614625819234947,0.30832592984677076,0.13799905109276603,-0.0867303766233895,-0.03990908623514331,-0.16091270453580506,-0.09955977152326528,3,right
2.565,-0.15695286162371733,1.0027809487228667,-0.11597968986084264,0.3181366562671284,0.14202132460735126,-0.09247531827880054,-0.041247224440227694,-0.16344770934535346,-0.10177612124094233,3,right
2.569,-0.15866365422799272,1.0024138165196192,-0.11580214945014383,0.3277828973418408,0.14602513232816824,-0.09823461391403036,-0.04261220971541592,-0.16600593371996478,-0.10400095159214406,3,right
2.57,-0.16040624351555008,1.0020297656675985,-0.1156139582909384,0.33725318404333154,0.1500064503331307,-0.10400440222665357,-0.0440034618255792,-0.16858565813841792,-0.10623238010885049,3,right
2.57,-0.16217867780537107,1.0016292229737447,-0.11541545259254488,0.34653602315156307,0.1539612001480668,-0.1097808353659138,-0.04542039375090931,-0.1711851099393363,-0.1084684924170215,3,right
2.574,-0.16397893204052502,1.0012126517728375,-0.1152069831536183,0.355619913761842,0.15788525169206996,-0.11556008438677977,-0.04686241275040822,-0.17380246385240264,-0.11070734431233946,3,right
2.575,-0.16580491101995126,1.0007805521318056,-0.11498891505163117,0.36449336394095677,0.1617744263823913,-0.12133834449129312,-0.04832892138493753,-0.17643584253043681,-0.11294696384294921,3,right
2.5789999999999997,-0.16765445285950195,1.000333461056704,-0.1147616273278841,0.3731449074668824,0.16562450039729823,-0.12711184002935677,-0.049819318503896766,-0.17908331708980027,-0.11518535340561555,3,right
2.58,-0.16952533262782168,0.9998719527019464,-0.11452551268140335,0.3815631206628896,0.16943120810600867,-0.1328768292681514,-0.051333000199671845,-0.18174290766664242,-0.11742049186172519,3,right
2.5839999999999996,-0.17141526609921653,0.9993966385747503,-0.11428097717826369,0.38973663935152436,0.1731902456768645,-0.1386296089467714,-0.05286936073406526,-0.18441258399654897,-0.11965033667956294,3,right
2.585,-0.17332191356652782,0.9989081677201621,-0.11402843997759186,0.3976541759532867,0.17689727487479473,-0.144366518632658,-0.05442779344098839,-0.18709026602519446,-0.1218728261092878,3,right
2.588,-0.17524288366143626,0.9984072268658073,-0.11376833307531498,0.40530453675416805,0.1805479270589955,-0.1500839448963827,-0.0560076916097627,-0.18977382455763403,-0.12408588139702592,3,right
2.589,-0.1771757371369166,0.9978945405024728,-0.11350110107142483,0.4126766393655017,0.1841378073916157,-0.15577832532129932,-0.05760844935344238,-0.19246108195389977,-0.12628740904448124,3,right
2.593,-0.17911799057459704,0.9973708708787296,-0.11322720097240004,0.41975953039884994,0.18766249926808823,-0.16144615236453772,-0.05922946246663392,-0.19514981287858899,-0.1284753031204444,3,right
2.595,-0.1810671199865103,0.9968370178935952,-0.11294710204195411,0.42654240337787847,0.19111756897958498,-0.1670839770857559,-0.06087012927734997,-0.197837745112149,-0.1306474476305526,3,right
2.5989999999999998,-0.18302056428694297,0.9962938188766485,-0.11266128570699177,0.4330146169083748,0.1944985706178988,-0.17268841276000166,-0.06252985149749479,-0.2005225604315736,-0.13280171895162066,3,right
2.5989999999999998,-0.18497572861938652,0.9957421482491302,-0.11237024551432934,0.4391657131267331,0.197801051232868,-0.17825613839095827,-0.06420803507663671,-0.20320189556823,-0.13493598833682327,3,right
2.603,-0.1869299875381096,0.995182917065059,-0.11207448712376139,0.44498543644636945,0.20102055625225987,-0.18378390214076293,-0.06590409106377938,-0.20587334325053316,-0.13704812449796483,3,right
2.603,-0.18888068806059677,0.9946170724391384,-0.11177452831624853,0.45046375262063654,0.20415263517381582,-0.18926852469249106,-0.06761743648189873,-0.20853445333917492,-0.13913599627101988,3,right
2.608,-0.1908251526206757,0.9940455968750858,-0.11147089898877693,0.45559086813988664,0.20719284753893616,-0.19470690256129364,-0.06934749522006504,-0.2111827340626003,-0.1411974753710717,3,right
2.609,-0.19276068196031862,0.9934695075106146,-0.11116414109867864,0.4603572499793806,0.2101367691972434,-0.20009601137006075,-0.07109369894802152,-0.2138156533603994,-0.1432304392427113,3,right
2.614,-0.19468455800155263,0.9928898552941336,-0.11085480851505912,0.4647536457137582,0.21297999887101202,-0.20543290910536083,-0.07285548805813978,-0.21643064034225482,-0.14523277401189089,3,right
2.614,-0.1965940467393089,0.9923077241064403,-0.11054346674057863,0.46877110401277866,0.21571816502818938,-0.21071473936927182,-0.0746323126397213,-0.2190250868700464,-0.14720237754514814,3,right
2.6180000000000003,-0.19848640119184857,0.9917242298400898,-0.11023069248508056,0.4724009955320046,0.21834693307245506,-0.21593873464257896,-0.0764236334906598,-0.22159634927067173,-0.1491371626220384,3,right
2.6189999999999998,-0.20035886443830103,0.9911405194488992,-0.10991707309522443,0.4756350342110388,0.22086201285847692,-0.22110221957466508,-0.0782289231715247,-0.22414175018708885,-0.15103506022652124,3,right
2.6239999999999997,-0.20220867276294185,0.9905577699789322,-0.10960320585725242,0.4784652989908371,0.22325916654022107,-0.22620261431526087,-0.08004766710716868,-0.22665858057502852,-0.15289402296295562,3,right
2.625,-0.20403305891361126,0.9899771875894534,-0.10928969718621673,0.4808842559605067,0.22553421675985763,-0.2312374379030557,-0.08187936474100425,-0.22914410185275738,-0.15471202860225725,3,right
2.63,-0.20582925546967296,0.9894000065672459,-0.10897716170132912,0.4828847809428635,0.22768305518447896,-0.23620431172599787,-0.08372353074713443,-0.23159554821119752,-0.1564870837636657,3,right
2.6310000000000002,-0.20759449830664173,0.9888274883316819,-0.10866622117664824,0.48446018252686357,0.22970165139750706,-0.24110096306793014,-0.08557969630227533,-0.23401012908886692,-0.15821722773260966,3,right
2.6310000000000002,-0.20932603014193743,0.9882609204239182,-0.10835750335592195,0.48560422555384136,0.23158606215131758,-0.2459252287560193,-0.08744741040301772,-0.236385031802212,-0.15990053639080204,3,right
2.633,-0.21102110414810685,0.9877016154730065,-0.10805164062734864,0.4863111550632875,0.2333324409872443,-0.25067505892324365,-0.08932624118443876,-0.23871742429695994,-0.16153512619094432,3,right
2.633,-0.21267698762300366,0.9871509101331133,-0.10774926856225395,0.48657572070267896,0.23493704822875455,-0.2553485209000005,-0.09121577717968157,-0.24100445797221226,-0.16311915808405106,3,right
2.639,-0.2142909657082532,0.9866101639868559,-0.10745102432686068,0.48639320160463545,0.23639626135320133,-0.2599438032486876,-0.09311562847658182,-0.2432432705426869,-0.1646508413315103,3,right
2.64,-0.21586034514792118,0.986080758409028,-0.10715754497640101,0.4857594317011975,0.23770658573562392,-0.2644592199469552,-0.09502542775702359,-0.24543098892924065,-0.1661284371774853,3,right
2.64,-0.21738245807990017,0.9855640953838872,-0.10686946563707331,0.4846708252826318,0.2388646656999853,-0.26889321468538036,-0.09694483122116614,-0.24756473218147507,-0.1675502623813562,3,right
2.6430000000000002,-0.21885466585405253,0.9850615962693191,-0.10658741757857887,0.4831244023168717,0.23986729570899198,-0.27324436517358763,-0.09887351940199876,-0.24964161443885124,-0.16891469261459852,3,right
2.6430000000000002,-0.2202743628729712,0.9845747005027327,-0.10631202618249268,0.4811178128832838,0.24071143146553817,-0.2775113873088863,-0.10081119787570898,-0.2516587479365919,-0.170220165726339,3,right
2.647,-0.22163898045138575,0.984104864245955,-0.10604390881899536,0.478649360234267,0.24139420075605594,-0.28169313910098537,-0.10275759787337761,-0.25361324606249447,-0.17146518488167037,3,right
2.647,-0.22294599068822055,0.983653558970467,-0.1057836726509976,0.47571802228689297,0.2419129139694309,-0.28578862431761315,-0.10471247679954054,-0.2555022264706151,-0.17264832157664087,3,right
2.6519999999999997,-0.22419291034236158,0.983222269990651,-0.10553191238503444,0.4723234715065957,0.24226507428236593,-0.2897969958553532,-0.10667561866318308,-0.2573228142576119,-0.1737682185336658,3,right
2.653,-0.22537730470018327,0.9828124949590112,-0.10528920798310784,0.4684660931758175,0.24244838751314834,-0.2937175588477065,-0.10864683442675796,-0.2590721452073562,-0.1748235924809348,3,right
2.657,-0.2264967914203433,0.9824257423405843,-0.10505612234453889,0.4641470020391887,0.2424607716453063,-0.29754977352214396,-0.11062596227884228,-0.2607473691092324,-0.1758132368192102,3,right
2.658,-0.22754904434038528,0.982063529883622,-0.10483319896609833,0.45936805731549085,0.24230036602215987,-0.3012932578176622,-0.11261286783607245,-0.2623456531553494,-0.17673602417923168,3,right
2.6630000000000003,-0.22853179723110412,0.9817273831015447,-0.10462095959241353,0.4541318760653249,0.2419655402127899,-0.3049477897741046,-0.11460744428001982,-0.26386418542168394,-0.17759090887275547,3,right
2.6639999999999997,-0.22944284748754365,0.9814188337784806,-0.1044199018754236,0.4484418449020796,0.24145490254945548,-0.30851330970425556,-0.11660961243469195,-0.2653001784379615,-0.17837692924006954,3,right
2.667,-0.23028005974822563,0.9811394185083082,-0.10423049706898668,0.4423021300324786,0.24076730833599647,-0.3119899221594616,-0.11861932079036742,-0.2666508728508606,-0.179093209896633,3,right
2.668,-0.23104136943568337,0.9808906772754061,-0.10405318778827985,0.4357176856116704,0.23990186772625569,-0.31537789769927776,-0.12063654547949362,-0.2679135411848964,-0.1797389638812936,3,right
2.673,-0.23172478621071937,0.9806741520840073,-0.10388838585974111,0.4286942603965249,0.23885795327105128,-0.3186776744753821,-0.12266129021039923,-0.2690854917051033,-0.18031349470833924,3,right
2.673,-0.23232839732979219,0.9804913856414507,-0.10373647027659913,0.4212384026795084,0.23763520713172248,-0.3218898596397459,-0.12469358616459482,-0.2701640723853905,-0.18081619832543996,3,right
2.678,-0.23285037089177216,0.9803439200987653,-0.10359778526257507,0.41335746348423524,0.23623354795776122,-0.32501523058679455,-0.12673349186345628,-0.2711466749861919,-0.1812465649793334,3,right
2.679,-0.2332889589606113,0.9802332958508488,-0.10347263843866507,0.40505959800253344,0.23465317742552952,-0.32805473603903795,-0.1287810930101079,-0.2720307392447724,-0.18160418099090347,3,right
2.682,-0.23364250055561608,0.9801610503978287,-0.103361299087473,0.3963537652516206,0.23289458643455035,-0.3310094969854019,-0.1308365023123434,-0.2728137571812816,-0.18188873044109502,3,right
2.6830000000000003,-0.23390942450821056,0.980128717267448,-0.10326399651207002,0.38724972592876944,0.23095856095734546,-0.3338808074812391,-0.13289985929244508,-0.27349327752337393,-0.1820999967688997,3,right
2.6860000000000004,-0.23408825218909982,0.9801378249946506,-0.10318091848745983,0.37775803843964295,0.2288461875382813,-0.3366701353187549,-0.13497133008978385,-0.27406691025192875,-0.18223786428244018,3,right
2.687,-0.2341776001107188,0.9801898961494604,-0.10311220980415545,0.367890053075312,0.2265588584363731,-0.33937912257633857,-0.1370511072621046,-0.2745323312701144,-0.1823023195839692,3,right
2.6910000000000003,-0.23417618240723015,0.9802864463997697,-0.10305797090692319,0.3576579043118239,0.22409827640648708,-0.34200958605505155,-0.13913940959142532,-0.27488728719774314,-0.18229345290939045,3,right
2.6919999999999997,-0.23408281318931792,0.980428983593864,-0.10301825663306073,0.34707450120508015,0.2214664591128763,-0.34456351761028986,-0.1412364819005008,-0.2751296002925603,-0.1822114593826971,3,right
2.696,-0.2338964087653908,0.9806190068480173,-0.10299307505017424,0.3361535158526996,0.2186657431684826,-0.34704308438640585,-0.1433425948858261,-0.27525717349979933,-0.18205664018551362,3,right
2.697,-0.2336159897162159,0.9808580056254406,-0.10298238638819919,0.324909369893503,0.2156987877929401,-0.34945062896185053,-0.14545804496983528,-0.2752679956271806,-0.18182940364122624,3,right
2.698,-0.23324068280721327,0.9811474587938834,-0.10298610206047443,0.3133572190142433,0.21256857808172516,-0.35178866941217884,-0.14758315415825649,-0.27516014662301735,-0.18153026621053167,3,right
2.702,-0.2327697227208751,0.9814888336505658,-0.10300408377176362,0.30151293543224034,0.2092784278784127,-0.3540598992980442,-0.1497182698585132,-0.27493180290022623,-0.18115985339062157,3,right
2.7030000000000003,-0.23220245358884625,0.9818835849037238,-0.10303614271225062,0.28939308832165117,0.20583198224152202,-0.3562671875851063,-0.15186376459836884,-0.2745812426295116,-0.18071890050756542,3,right
2.7060000000000004,-0.23153833029976614,0.9823331535995667,-0.10308203883844828,0.2770149221502237,0.202233219496967,-0.358413578502572,-0.15402003560076008,-0.2741068509438441,-0.18020825339369495,3,right
2.707,-0.23077691956022334,0.9828389659843431,-0.10314148024973951,0.26439633293085035,0.19848645286951716,-0.3605022913377725,-0.1561875042008882,-0.2735071250305464,-0.17962886894599245,3,right
2.708,-0.22991790069428306,0.9834024322952876,-0.10321412267803112,0.25155584258297786,0.19459633170047927,-0.36253672011834354,-0.15836661510838962,-0.27278067910613835,-0.17898181556372822,3,right
2.7110000000000003,-0.2289610661773891,0.9840249454796439,-0.10329956910749763,0.23851257194294512,0.19056784228402446,-0.36452043305123294,-0.16055783552078037,-0.27192624927257486,-0.1782682734638825,3,right
2.7119999999999997,-0.2279063219090286,0.9847078798448824,-0.10339736953121928,0.22528621315316003,0.1864063083684136,-0.3664571715419462,-0.16276165409440227,-0.2709426982531513,-0.17748953487268995,3,right
2.717,-0.2267536872359556,0.9854525896444486,-0.1035070208424668,0.21189700196786165,0.18211739135371063,-0.36835084866293133,-0.16497857977913158,-0.2698290200059867,-0.1766470040914501,3,right
2.717,-0.22550329474415168,0.9862604076022934,-0.10362796686035655,0.19836569016787686,0.17770709019152428,-0.37020554702203334,-0.16720914052314623,-0.26858434421262695,-0.17574219743455688,3,right
2.72,-0.2241553898407133,0.9871326433778121,-0.1037595985018178,0.18471351808472514,0.17318174097768585,-0.3720255160274576,-0.16945388185408358,-0.2672079406389418,-0.17477674303751323,3,right
2.721,-0.22271033014561561,0.988070581972202,-0.10390125412318091,0.1709621871956526,0.1685480162255547,-0.37381516855469316,-0.17171336534295864,-0.26569922336511304,-0.17375238053251366,3,right
2.725,-0.22116858471054834,0.9890754820768592,-0.10405222005600276,0.15713383275076942,0.16381292380729565,-0.3755790770207318,-0.17398816695725117,-0.26405775488113736,-0.17267096058899878,3,right
2.7260000000000004,-0.21953073308202173,0.9901485743627891,-0.10421173135692417,0.1432509963931178,0.15898380555014263,-0.3773219688708212,-0.1762788753096123,-0.26228325004388925,-0.17153444431641213,3,right
2.73,-0.21779746423082832,0.9912910597089404,-0.10437897279005831,0.12933659873221476,0.15406833547435242,-0.37904872148290386,-0.1785860898086821,-0.2603755798914073,-0.170344902526221,3,right
2.7310000000000003,-0.215969575378256,0.9925041073704458,-0.10455308006237041,0.11541391183139284,0.14907451765926105,-0.3807643564948171,-0.1809104187185545,-0.25833477530968907,-0.16910451485009828,3,right
2.737,-0.21404797075814438,0.9937888530939563,-0.10473314132802275,0.10150653156910662,0.14401068372358705,-0.38247403355927473,-0.1832524771334719,-0.2561610305468958,-0.16781556871100514,3,right
2.737,-0.21203366035923127,0.99514639719072,-0.10491819896193887,0.0876383498342825,0.13888548990587798,-0.38418304353159816,-0.18561288487437738,-0.2538547065694876,-0.16648045814376197,3,right
2.74,-0.20992775868973854,0.9965778025751129,-0.1051072515834294,0.0738335265157667,0.133707913730772,-0.3858968010951399,-0.1879922643140049,-0.25141633425442605,-0.16510168246154924,3,right
2.741,-0.2077314835946601,0.9980840927702829,-0.1052992563005095,0.06011646124597069,0.12848725024654647,-0.3876208368293199,-0.19039123813723569,-0.24884661741120087,-0.16368184476464062,3,right
2.745,-0.20544615514101036,0.9996662498796743,-0.10549313115070465,0.04651176485892625,0.12323310781924912,-0.38936078872519675,-0.1928104270435032,-0.24614643562705618,-0.1622236502875382,3,right
2.7460000000000004,-0.20307319457372636,1.0013252125257113,-0.10568775772915008,0.033044230523145486,0.11795540346855846,-0.3911223931535096,-0.19525044739808345,-0.2433168469284132,-0.16072990458055483,3,right
2.75,-0.20061412333544013,1.0030618737625905,-0.10588198400842011,0.019738804509933143,0.11266435773039625,-0.39291147529015436,-0.1977119088391636,-0.240359090251109,-0.15920351152177029,3,right
2.7510000000000003,-0.19807056213301188,1.0048770789761947,-0.10607462735896374,0.006620556558121888,0.10737048903121994,-0.39473393900410514,-0.2001954118476401,-0.2372745877116966,-0.15764747115517855,3,right
2.755,-0.19544423002185812,1.0067716237892093,-0.10626447777296126,-0.0062853502034041775,0.10208460755885533,-0.39659575621285525,-0.20270154528665651,-0.23406494667168098,-0.1560648773507412,3,right
2.7560000000000002,-0.19273694347055947,1.0087462519925523,-0.10645030128146046,-0.018953689813566793,0.09681780861469258,-0.39850295571052896,-0.20523088391795458,-0.2307319615861967,-0.1544589152819685,3,right
2.759,-0.18995061536756638,1.0108016535237583,-0.10663084354058863,-0.03135920455496268,0.09158146543206086,-0.40046161147391246,-0.20778398590217276,-0.2272776156282695,-0.1528328587165646,3,right
2.76,-0.1870872539382465,1.012938462508747,-0.10680483355243903,-0.043476636584765395,0.08638722144562072,-0.4024778304517657,-0.2103613902902942,-0.22370408207944603,-0.15119006711559765,3,right
2.765,-0.18414896154826457,1.0151572553773789,-0.10697098748329638,-0.05528076015699824,0.08124698199666847,-0.404557739842907,-0.21296361451351084,-0.2200137254772204,-0.14953398253658826,3,right
2.765,-0.18113793337308157,1.0174585490578487,-0.10712801254771348,-0.06674641447176163,0.07617290545933497,-0.40670747386871015,-0.2155911518784983,-0.21620910251205944,-0.1478681263410365,3,right
2.766,-0.17805645591369038,1.0198427992521046,-0.10727461093846345,-0.07784853718617073,0.0711773937727831,-0.4089331600458201,-0.21824446907345965,-0.2122929626800865,-0.14619609573278203,3,right
2.77,-0.17490690533882652,1.022310398794716,-0.10740948379160684,-0.08856219862085914,0.06627308236466323,-0.41124090496507415,-0.22092400368729823,-0.2082682487216297,-0.14452156020021326,3,right
2.772,-0.17169174563343778,1.0248616760997111,-0.10753133517621878,-0.09886263669493266,0.06147282945127698,-0.413636779582818,-0.2236301617426453,-0.2041380968891135,-0.14284825796123546,3,right
2.775,-0.1684135265308884,1.0274968937010363,-0.1076388760908993,-0.10872529262121268,0.056789704700125995,-0.41612680403102426,-0.2263633152452493,-0.19990583707385123,-0.1411799924839682,3,right
2.775,-0.16507488120527175,1.0302162468903775,-0.10773082844163688,-0.11812584735860865,0.0522369772541605,-0.41871693196515364,-0.2291237997553776,-0.19557499279650445,-0.13952062910947605,3,right
2.7760000000000002,-0.1616785237033881,1.033019862452695,-0.1078059289745889,-0.12704025864784843,0.0478281031842231,-0.42141303453044937,-0.23191191198866531,-0.19114928105207152,-0.13787409177691795,3,right
2.779,-0.15822724610241976,1.0359077974991975,-0.10786293314290774,-0.13544479815057492,0.04357671255690542,-0.4242208841383125,-0.2347279074542629,-0.18663261199725492,-0.13624435984633151,3,right
2.78,-0.15472391538846278,1.038880038400598,-0.10790061889269767,-0.14331608804106688,0.03949659637229121,-0.4271461383061905,-0.23757199813821378,-0.18202908846777385,-0.13463546501429333,3,right
2.784,-0.15117147006393047,1.0419364998257812,-0.10791779035360226,-0.15063113656786956,0.03560169355959219,-0.4301943237532204,-0.24044435024007163,-0.17734300531291666,-0.133051488317734,3,right
2.784,-0.1475729165057405,1.045077023888374,-0.1079132814130639,-0.1573673724061202,0.031906078098750276,-0.43337082083349676,-0.24334508197084756,-0.17257884853436667,-0.131496557221235,3,right
2.79,-0.14393132510495296,1.0483013793974227,-0.10788595914167043,-0.163502677789246,0.028423946269691195,-0.4366808483276796,-0.24627426142045797,-0.16774129421608622,-0.1299748427831938,3,right
2.7910000000000004,-0.14024982622079687,1.0516092612032983,-0.10783472702596575,-0.1690154204410003,0.025169604018070866,-0.4401294486017115,-0.24923190450292457,-0.16283520723180658,-0.1284905568963162,3,right
2.7939999999999996,-0.13653160598353256,1.055000289629925,-0.10775852796514668,-0.17388448432714076,0.022157454426928583,-0.4437214731417781,-0.25221797298766013,-0.15786563971644754,-0.1270479495979776,3,right
2.795,-0.13277990198645737,1.0584740099893222,-0.10765634700322393,-0.17808929924432787,0.019401985284274597,-0.4474615684750335,-0.25523237262525444,-0.15283782928758008,-0.1256513064460913,3,right
2.799,-0.12899799891712302,1.0620298921804399,-0.10752721378576527,-0.18160986926203504,0.016917756737294225,-0.4513541624860069,-0.25827495137625694,-0.1477571970028497,-0.12430494595622837,3,right
2.799,-0.12518922418743592,1.0656673303758095,-0.10737020473380451,-0.1844268000314137,0.014719389024546628,-0.45540345113902025,-0.2613454977515341,-0.14262934503909472,-0.12301321709585476,3,right
2.804,-0.1213569436269335,1.0693856427937072,-0.10718444491926975,-0.18652132497314916,0.012821550278273877,-0.4596133856173703,-0.26444373927286074,-0.13746005407872813,-0.1217804968316821,3,right
2.804,-0.11750455730102392,1.073184071544424,-0.10696910962355805,-0.18787533035437953,0.011238944389715268,-0.4639876598904661,-0.2675693410624855,-0.13225528038879958,-0.12061118772627456,3,right
2.8080000000000003,-0.11363549550939003,1.077061782533339,-0.10672342557006459,-0.1884713792627297,0.009986298931143165,-0.46852969872056366,-0.27072190457049,-0.12702115257801902,-0.11950971558020966,3,right
2.8089999999999997,-0.1097532150131115,1.0810178654012736,-0.10644667183357347,-0.18829273448343797,0.009078353129200072,-0.47324264612119926,-0.273900966448843,-0.12176396801690492,-0.11848052711626181,3,right
2.8139999999999996,-0.10586119553067443,1.0850513334798821,-0.10613818044090446,-0.1873233802834274,0.00852984588502223,-0.4781293542798953,-0.2771059975811256,-0.11649018890611824,-0.11752808770225884,3,right
2.815,-0.10196293652699706,1.0891611237383774,-0.1057973366941036,-0.18554804310399886,0.008355503837582993,-0.483192372958193,-0.28033640227698475,-0.11120643797795948,-0.11665687910945663,3,right
2.818,-0.09806195429497767,1.0933460967079505,-0.10542357926466603,-0.18295221116159713,0.008570029467679431,-0.488433939382558,-0.28359151764044577,-0.10591949381594024,-0.11587139730348517,3,right
2.819,-0.09416177930540148,1.0976050363951328,-0.10501640010774155,-0.17952215295383303,0.009188089241018181,-0.4938559686402016,-0.2868706131212896,-0.10063628577729343,-0.11517615026513943,3,right
2.824,-0.09026595379146891,1.1019366502195649,-0.1045753442271353,-0.1752449346656305,0.01022430178993136,-0.49946004459436744,-0.29017289025877413,-0.095363888503258,-0.11457565583852213,3,right
2.824,-0.08637802954238734,1.10633956901599,-0.10410000930263277,-0.170108436468011,0.01169322613437043,-0.5052474113341457,-0.2934974826270482,-0.09010951600196487,-0.11407443960429138,3,right
2.8280000000000003,-0.08250156589517527,1.1108123471245075,-0.10359004518044483,-0.16410136769963468,0.013609349943985017,-0.5112189651743945,-0.29684345599167716,-0.08488051528876238,-0.11367703277602603,3,right
2.8289999999999997,-0.07864012791765597,1.1153534625722341,-0.1030451532197771,-0.15721328091878428,0.015987077844294786,-0.5173752472218683,-0.3002098086867646,-0.07968435956885034,-0.11338797011799302,3,right
2.8339999999999996,-0.07479728476115972,1.1199613173338578,-0.10246508548252735,-0.1494345848110121,0.018840719771205463,-0.5237164365241844,-0.3035954722222193,-0.07452864094714422,-0.11321178788288705,3,right
2.835,-0.07097660813901238,1.1246342376481984,-0.10184964375744995,-0.14075655593517036,0.022184479379404484,-0.5302423438187792,-0.30699931212555553,-0.069421062659099,-0.1131530217674811,3,right
2.835,-0.06718167087390048,1.1293704743632957,-0.10119867842655811,-0.13117134928801713,0.02603244251149773,-0.5369524058995434,-0.31042012899657534,-0.06436943085999115,-0.11321620487979264,3,right
2.839,-0.06341604545959059,1.1341682032865952,-0.10051208720199561,-0.12067200766503255,0.030398565736115633,-0.5438456806193503,-0.3138566597063501,-0.05938164608888802,-0.11340586570333168,3,right
2.84,-0.05968330259025591,1.1390255255276946,-0.09978981378143417,-0.109252469792499,0.03529666496462481,-0.5509208425472237,-0.3173075786458731,-0.05446569456734688,-0.11372652603968882,3,right
2.843,-0.055987009614053826,1.1439404678353733,-0.09903184648358607,-0.09690757720329436,0.04074040415752939,-0.5581761792994195,-0.3207714989559011,-0.049629639449372105,-0.1141826989157172,3,right
2.843,-0.05233072886888589,1.1489109829469284,-0.09823821691782904,-0.0836330798262236,0.04674328413313456,-0.5656095885642214,-0.3242469737165341,-0.04488161206072864,-0.11477888645028801,3,right
2.844,-0.04871801586372939,1.1539349499808365,-0.09740899870925837,-0.069425640272357,0.05331863148446162,-0.5732185758439218,-0.3277324971012228,-0.040229803122241774,-0.11551957768062139,3,right
2.8480000000000003,-0.04515241727961925,1.1590101749059032,-0.09654430626412458,-0.0542828368806112,0.06047958757141629,-0.5810002529537339,-0.3312265055051517,-0.03568245394320813,-0.11640924634951283,3,right
2.8480000000000003,-0.04163746877842414,1.1641343911111475,-0.09564429354461369,-0.03820316572870387,0.0682390974838187,-0.5889513373462476,-0.3347273786579785,-0.031247847571295517,-0.11745234865517737,3,right
2.852,-0.038176692625164876,1.1693052600860603,-0.09470915282935252,-0.021186041894358736,0.07660989883199316,-0.5970681523463022,-0.3382334407309401,-0.026934299885586106,-0.1186533209658492,3,right
2.853,-0.03477359515186054,1.1745203722057582,-0.09373911345526972,-0.003231800167528717,0.08560451026385212,-0.6053466283658908,-0.3417429614483581,-0.022750150619717465,-0.12001657750170192,3,right
2.859,-0.031431664114764696,1.1797772476038606,-0.09273444055344907,0.015658304734847917,0.09523521968212693,-0.6137823051408344,-0.3452541572135983,-0.018703754302399844,-0.1215465079870956,3,right
2.86,-0.028154366015417508,1.1850733371097961,-0.09169543379289197,0.03548209848415852,0.10551407217770871,-0.6223703350156854,-0.3487651922595515,-0.01480347110293606,-0.12324747527661026,3,right
2.864,-0.024945143464292746,1.1904060232272102,-0.09062242612991515,0.056236488037069196,0.11645285770496443,-0.6311054873006339,-0.3522741798337143,-0.011057657569742016,-0.1251238129587915,3,right
2.864,-0.021807412664387137,1.195772621136061,-0.08951578254408943,0.0779174631683816,0.12806309852672101,-0.6399821537246384,-0.35577918342795223,-0.00747465725026166,-0.1271798229420126,3,right
2.867,-0.018744561083267684,1.2011703797104691,-0.08837589874042731,0.10052009869673532,0.1403560364584712,-0.6489943550094421,-0.3592782180630284,-0.0040627911810898485,-0.12941977302734917,3,right
2.8680000000000003,-0.01575994536597614,1.2065964825529147,-0.08720319980873636,0.12403855746276889,0.15334261994324996,-0.658135748589555,-0.36276925163797197,-0.0008303482375604341,-0.1318478944738654,3,right
2.873,-0.012856889517825381,1.2120480490495475,-0.08599813884068579,0.14846609412201267,0.16703349099055928,-0.6673996375036912,-0.36625020635435307,0.0022144246674755436,-0.13446837956222807,3,right
2.8739999999999997,-0.010038683359989083,1.217522135450145,-0.08476119550676156,0.17379505981743218,0.18143897201467862,-0.6767789804835345,-0.36971896022551065,0.0050633325454650935,-0.1372853791630915,3,right
2.877,-0.007308581238958031,1.2230157359708207,-0.08349287459329297,0.20001690779916984,0.19656905260969143,-0.6862664032660822,-0.373173348680758,0.007708242463830106,-0.1403030003172385,3,right
2.878,-0.004669800957825932,1.2285257839122692,-0.08219370450082966,0.22712220006164222,0.21243337630058004,-0.6958542111561621,-0.3766111662745604,0.010141093856234958,-0.14352530383501363,3,right
2.8819999999999997,-0.0021255228941460037,1.2340491527871624,-0.08086423571153409,0.2551006150707378,0.22904122731179352,-0.705534402866051,-0.38003016851064614,0.012353909019611536,-0.1469563019231506,3,right
2.884,0.00032111072469541814,1.2395826574595878,-0.07950503924029194,0.2839409566564236,0.24640151739677396,-0.7152986856594358,-0.3834280737909689,0.014338803805522415,-0.15059995584767097,3,right
2.887,0.0026669964075765416,1.2451230553121404,-0.07811670508536671,0.31363116414860437,0.2645227727740352,-0.7251384918272393,-0.3868025654993927,0.01608799851283397,-0.1544601736421199,3,right
2.887,0.004909069865764351,1.2506670474635988,-0.0766998406925868,0.34415832383658473,0.2834131212175232,-0.7350449965231045,-0.39015129422991673,0.017593828988039246,-0.15854080787100383,3,right
2.892,0.007044306398167603,1.2562112800585785,-0.07525506945237717,0.37550868183495906,0.3030802793511477,-0.7450091369865677,-0.3934718801691963,0.01884875793891593,-0.1628456534589054,3,right
2.8930000000000002,0.00906972126967754,1.2617523456458017,-0.07378302925655278,0.4076676584411935,0.3235315401995602,-0.7550216331821689,-0.3967619156430485,0.01984538646652785,-0.16737844559637377,3,right
2.897,0.010982370182771574,1.2672867846598617,-0.07228437113052356,0.44061986407256676,0.3447737610494623,-0.7650730098829392,-0.40001896783655766,0.020576465819879677,-0.17214285773432078,3,right
2.898,0.012779349942526677,1.272811087021446,-0.07075975792628088,0.47434911687249925,0.3668133516779577,-0.7751536202268676,-0.4032405816973146,0.02103490937681388,-0.17714249967929763,3,right
2.9010000000000002,0.014457799390320865,1.2783216938692084,-0.0692098630464874,0.5088384620786222,0.389656263006715,-0.7852536707750932,-0.4064242830312364,0.021213804853997494,-0.18238091580268181,3,right
2.9019999999999997,0.01601490064503479,1.2838149994339032,-0.06763536919161417,0.5440701932472135,0.41330797624297694,-0.7953632481006743,-0.40956758179471964,0.021106426741812876,-0.1878615833673289,3,right
2.903,0.017447880657618743,1.289287353065493,-0.06603696715386333,0.580025875430861,0.4377734925707434,-0.8054723469368733,-0.41266797555879237,0.020706248927830805,-0.19358791092522024,3,right
2.907,0.01875401306595339,1.2947350614258428,-0.06441535468273178,0.6166863704083919,0.4630573234577618,-0.8155708999139502,-0.4157229530704469,0.020006957415305716,-0.19956323664906503,3,right
2.908,0.01993062033108121,1.3001543908577928,-0.06277123541069221,0.6540318640682407,0.4891634816462803,-0.8256488089134869,-0.4187299978082298,0.019002463010957805,-0.2057908264108115,3,right
2.9130000000000003,0.020975076135780254,1.3055415699328325,-0.06110531778440628,0.692041895975193,0.5160954728680837,-0.8356959780088422,-0.42168659145703075,0.017686913886819235,-0.21227387147142696,3,right
2.9139999999999997,0.021884808029395825,1.3108927921685523,-0.05941831393335285,0.7306953907858995,0.5438562881778145,-0.8457023476582242,-0.42459021727725593,0.016054707976498554,-0.21901548573827978,3,right
2.9139999999999997,0.022657300308439043,1.316204218898658,-0.05771093843230917,0.7699706905207021,0.5724483965329856,-0.8556579292730512,-0.42743836337142277,0.014100505196694525,-0.22601870259788123,3,right
2.917,0.023290097127715063,1.321471982269959,-0.055983906953870614,0.8098455863346626,0.6018737371025956,-0.8655528389820997,-0.4302285258566636,0.011819239490168037,-0.23328647134261704,3,right
2.918,0.023780805840863374,1.3266921883291025,-0.05423793483340099,0.8502973487990882,0.6321337109375033,-0.8753773297139048,-0.43295821195147405,0.0092061306854717,-0.24082165321084284,3,right
2.9219999999999997,0.02412710057486259,1.3318609201534843,-0.052473735570619316,0.8913027563664577,0.6632291719060633,-0.8851218212634898,-0.4356249429848831,0.0062566961678123135,-0.24862701706046772,3,right
2.9219999999999997,0.024326726049989974,1.3369742409835528,-0.05069201927808409,0.9328381220599349,0.695160416949786,-0.8947769283114114,-0.4382262573360544,0.002966762354482473,-0.256705234696911,3,right
2.926,0.024377501660689867,1.3420281973262236,-0.0488934910703041,0.9748793185036282,0.7279271757459493,-0.9043334864233219,-0.440759713312156,-0.0006675240326551291,-0.26505887587708393,3,right
2.928,0.02427732583089565,1.3470188220147357,-0.047078849375868016,1.0174018014113397,0.7615285998664951,-0.913782576058024,-0.4432228919721524,-0.00464968490611263,-0.2736904030118258,3,right
2.931,0.024024180648889656,1.3519421372247953,-0.045248784154898684,1.0603806316530764,0.7959632515249372,-0.923115544611733,-0.4456133999039885,-0.008982899972610535,-0.28260216559000506,3,right
2.932,0.023616136772115433,1.3567941574589273,-0.04340397501740297,1.1037904960200395,0.8312290920054098,-0.932324026525981,-0.44792887196243725,-0.013669996124247807,-0.29179639434829063,3,right
2.9360000000000004,0.023051358575167234,1.3615708925179588,-0.04154508925441648,1.1476057268101967,0.8673234698703833,-0.9413999614862913,-0.45016697397468075,-0.01871343707245502,-0.3012751952113926,3,right
2.9360000000000004,0.022328109501358218,1.3662683504772197,-0.03967277979873552,1.1918003203578473,0.9042431090459613,-0.9503356107384127,-0.4523254054204897,-0.02411531323718485,-0.3110405430283795,3,right
2.9410000000000003,0.021444757575009528,1.370882540676,-0.03778768312471472,1.236347954631833,0.9419840968860644,-0.9591235715485509,-0.4544019020936453,-0.029877331904809998,-0.3210942751314883,3,right
2.9410000000000003,0.02039978103754445,1.375409476716914,-0.035890417090387434,1.281222006028204,0.9805418723191842,-0.9677567898336566,-0.45639423875102886,-0.03600080766922144,-0.3314380847446625,3,right
2.946,0.019191774080632253,1.3798451794620814,-0.033981578729526236,1.3263955654842474,1.0199112141837563,-0.9762285709874182,-0.45830023175557627,-0.042486653171648917,-0.3420735142698746,3,right
2.947,0.017819452658996874,1.3841856800079813,-0.03206174201127412,1.37184145404179,1.060086229860565,-0.9845325889271934,-0.4601177417190562,-0.04933537015575919,-0.35300194848011845,3,right
2.9530000000000003,0.016281660371357056,1.3884270226206112,-0.030131455590952465,1.4175322379886306,1.1010603443129339,-0.992662893386666,-0.46184467615039054,-0.056547040855625084,-0.36422460764879067,3,right
2.9530000000000003,0.01457737439837627,1.3925652676159532,-0.02819124057648917,1.4634402437078142,1.1428262896477857,-1.0006139154785494,-0.4634789921149896,-0.06412131973519865,-0.37574254064601537,3,right
2.955,0.012705711480471945,1.396596494176141,-0.026241588336279157,1.5095375723652436,1.185376095312974,-1.0083804715511817,-0.46501869891031683,-0.072057425598963,-0.38755661803331104,3,right
2.9560000000000004,0.01066593390766492,1.4005168030975867,-0.024282958377311824,1.555796114566828,1.228701079048572,-1.0159577653623544,-0.46646186076264107,-0.08035413409447939,-0.39966752518884,3,right
2.96,0.008457455482717821,1.4043223194720262,-0.02231577632160371,1.6021875651169863,1.2727918387120902,-1.0233413885932054,-0.46780659954966636,-0.0890097706285867,-0.41207575549633096,3,right
2.96,0.006079847411961261,1.408009195303556,-0.020340432002838443,1.64868343801087,1.3176382450998332,-1.0305273197244789,-0.46905109755345886,-0.09802220372004894,-0.4247816036316146,3,right
2.965,0.0035328440764313463,1.411573612064495,-0.018357277701274877,1.6952550817931356,1.363229435888839,-1.0375119212969068,-0.4701936002478113,-0.10738883881248149,-0.43778515898156567,3,right
2.966,0.0008163486367100849,1.4150117831925473,-0.016366626540238325,1.7418736954164762,1.4095538108260424,-1.044291935576918,-0.4712324191239064,-0.11710661257241672,-0.4510862992310961,3,right
2.971,-0.0020695615732777375,1.4183199565327538,-0.01436875107949781,1.7885103447334174,1.4565990282934649,-1.050864478648307,-0.47216593455784783,-0.12717198769839383,-0.46468468415470066,3,right
2.972,-0.005124629903335044,1.421494416729102,-0.012363882152974043,1.835135979755107,1.504352003380384,-1.0572270329499245,-0.4729925987184159,-0.13758094826512385,-0.47857974963758965,3,right
2.9730000000000003,-0.008348415525666411,1.4245314875709671,-0.010352208004588541,1.8817214528109547,1.5527989075955266,-1.0633774382788563,-0.47371093848848234,-0.1483289956135369,-0.4927707018906903,3,right
2.975,-0.011740288875358223,1.4274275342986336,-0.00833387377335472,1.9282375377430392,1.6019251703544115,-1.06931388127797,-0.4743195583289031,-0.15941114477286392,-0.5072565117137597,3,right
2.9760000000000004,-0.015299427403155163,1.4301789658696489,-0.0063089813709679525,1.9746549502691575,1.6517154823789915,-1.0750348834260977,-0.4748171429887791,-0.17082192138763952,-0.5220359086000985,3,right
2.9789999999999996,-0.01902481164138551,1.4327822371840435,-0.004277589786895225,2.0209443695964553,1.7021538010856991,-1.0805392875690085,-0.4752024599902856,-0.1825553591377372,-0.5371073745388087,3,right
2.98,-0.022915221575401868,1.4352338512647542,-0.0022397158437277684,2.067076461108218,1.7532233577247605,-1.0858262431311032,-0.4754743618602708,-0.19460499766615932,-0.5524691374822805,3,right
2.9810000000000003,-0.02696923330830291,1.437530361392838,-0.00019533540706128373,2.1130218994796492,1.8049066654681951,-1.090895190331497,-0.47563178810512724,-0.20696388104449887,-0.5681191645090393,3,right
2.984,-0.031185216004611282,1.4396683732036728,0.0018556149641954338,2.1587513913189453,1.8571855273305944,-1.0957458438299281,-0.47567376693003943,-0.2196245568097663,-0.5840551547252459,3,right
2.985,-0.03556132909761124,1.4416445467568304,0.003913235951929256,2.204235696688666,1.9100410431237684,-1.1003781761249087,-0.4755994167033877,-0.2325790756071817,-0.600274531948976,3,right
2.99,-0.04009551974866107,1.443455598597071,0.005977663022433371,2.2494456493283512,1.9634536152154676,-1.104792400841568,-0.47540794716675683,-0.24581899147441966,-0.6167744372222315,3,right
2.991,-0.044785520555833486,1.445098303826252,0.008049063597876835,2.2943521756578575,2.0174029531792788,-1.1089889559436032,-0.47509866039067,-0.2593353628036613,-0.6335517211964601,3,right
2.9960000000000004,-0.04962884751804582,1.4465694982049846,0.010127633868546612,2.3389263126920095,2.071868077487497,-1.112968486882649,-0.47467095147583077,-0.27311875401864943,-0.650602936438168,3,right
2.9960000000000004,-0.05462279826472901,1.4478660802980412,0.012213595260020691,2.383139224996389,2.1268273224003655,-1.1167318296977422,-0.47412430899932384,-0.28715923800476234,-0.6679243297020206,3,right
2.9989999999999997,-0.05976445056139261,1.4489850136694153,0.014307190575663261,2.4269622208132,2.182258338206623,-1.1202799940769441,-0.47345831520488296,-0.3014463993309157,-0.6855118342196203,3,right
3.0,-0.06505066110286149,1.449923329124067,0.016408679840634936,2.4703667674851926,2.238138092971776,-1.1236141463925515,-0.47267264593599684,-0.315969338302866,-0.703361062052936,3,right
3.005,-0.07047806461216444,1.4506781269875786,0.01851833587560287,2.5133245063046052,2.294442873951929,-1.1267355927207094,-0.4717670703102815,-0.33071667588822823,-0.7214672965621375,3,right
3.0069999999999997,-0.07604307327511789,1.451246579414326,0.02063643962730263,2.5558072669129484,2.3511482888323663,-1.1296457618556213,-0.4707414501332062,-0.34567655955422794,-0.7398254850383452,3,right
3.009,-0.08174187655717703,1.4516259327187273,0.022763275281097665,2.59778708137626,2.4082292669513548,-1.1323461883279393,-0.4695957390489138,-0.36083667005988296,-0.7584302315525666,3,right
3.01,-0.08757044146697443,1.451813509730635,0.024899125178676713,2.639236198059177,2.465660060670869,-1.134838495436304,-0.46832998142553495,-0.3761842292449547,-0.7772757900728181,3,right
3.014,-0.09352451334712548,1.45180671218249,0.027044264563977512,2.6801270954198086,2.5234142470570826,-1.1371243783003941,-0.4669443109720495,-0.39170600885861784,-0.7963560579021628,3,right
3.015,-0.09959961728538289,1.4516030231401806,0.029198956185589712,2.7204324958459463,2.58146473003455,-1.1392055869432514,-0.4654389490834035,-0.40738834047137323,-0.8156645694910947,3,right
3.0189999999999997,-0.1057910602459958,1.4512000094904982,0.031363444793876157,2.7601253796516194,2.639783743179002,-1.1410839094100418,-0.4638142029102465,-0.42321712651426335,-0.8351944906783979,3,right
3.02,-0.11209393401950069,1.4505953244955703,0.03353795158076478,2.7991789993514127,2.6983428533146117,-1.1427611549298253,-0.462070463149308,-0.43917785248995156,-0.8549386134152762,3,right
3.0239999999999996,-0.1185031190772194,1.4497867104189797,0.03572266861597216,2.8375668943282677,2.757112965082437,-1.1442391371263145,-0.46020820155009073,-0.4552556004006864,-0.8748893510282081,3,right
3.0239999999999996,-0.12501328939550577,1.4487720012206389,0.03791775333559797,2.875262906008746,2.8160643266475063,-1.1455196572830222,-0.45822796813321215,-0.4714350634385904,-0.8950387340766164,3,right
3.029,-0.13161891828916128,1.4475491253097224,0.040123323138506084,2.9122411936578807,2.875166536712715,-1.146604487667622,-0.45613038811538753,-0.4877005619840924,-0.9153784068620552,3,right
3.03,-0.13831428526974565,1.446116108338513,0.04233945014417794,2.9484762509038362,2.9343885530082967,-1.147495354919771,-0.45391615853570555,-0.5040360609586589,-0.9358996246462095,3,right
3.034,-0.14509348392683769,1.444471076015982,0.0445661561657354,2.9839429231006225,2.9936987024261605,-1.148193923506076,-0.45158604457750867,-0.5204251885782682,-0.9565932516355753,3,right
3.035,-0.1519504308196956,1.4426122569190925,0.04680340795440092,3.018616425635025,3.053064692968805,-1.148701779245323,-0.4491408755798543,-0.5368512565543208,-0.977449759791229,3,right
3.0410000000000004,-0.15887887536266476,1.4405379852810465,0.049051112774489675,3.0524723632818005,3.112453627682876,-1.149020412906535,-0.4465815407321979,-0.5532972817888759,-0.9984592285226196,3,right
3.042,-0.1658724106888193,1.4382467037370563,0.05130911436896052,3.085486750708957,3.171832020747674,-1.1491512038818665,-0.4439089844552914,-0.5697460095695865,-1.0196113453056643,3,right
3.042,-0.17292448548078826,1.435736966010268,0.053577189372212015,3.117636034232691,3.2311658158890904,-1.1490954039357977,-0.44112420151939485,-0.5861799380614171,-1.0408954071701457,3,right
3.043,-0.18002841676208778,1.4330074395245582,0.05585504421776813,3.1488971149191807,3.290420407289506,-1.148854121031545,-0.4382282320377475,-0.6025813435171996,-1.0623003228295163,3,right
3.0439999999999996,-0.18717740364132324,1.430056907936229,0.05814231257795224,3.1792473731280184,3.3495606631641532,-1.148428303235071,-0.4352221565213535,-0.6189323054206992,-1.083814615130882,3,right
3.0469999999999997,-0.19436454199271172,1.4268842735825018,0.06043855336501933,3.2086646945896047,3.408550952174326,-1.1478187226965284,-0.43210709113238177,-0.6352147309842052,-1.1054264235990545,3,right
3.048,-0.20158284004415863,1.4234885598517149,0.0627432493161387,3.2371274980670903,3.467355172756688,-1.1470259597288723,-0.4288841831859821,-0.6514103787976647,-1.1271235070212449,3,right
3.049,-0.20882523483729806,1.419868913486194,0.0650558061755075,3.2646147644550547,3.525936784993186,-1.146050387104929,-0.42555460690157054,-0.6675008816346143,-1.1488932461150327,3,right
3.053,-0.21608460952459044,1.416024606831498,0.0673755524768329,3.2911060668120005,3.584258843827666,-1.1448921548774555,-0.4221195593946375,-0.683467768461644,-1.1707226463416678,3,right
3.053,-0.2233538114665418,1.411955040049007,0.06970173991757239,3.3165816006252036,3.6422840319803083,-1.1435511761282897,-0.4185802568998236,-0.6992924856978824,-1.192598340927005,3,right
3.0580000000000003,-0.23062567107807053,1.407659743317682,0.07203354430140163,3.3410222137994556,3.6999746913648117,-1.1420271139500715,-0.41493793121569955,-0.7149564177706841,-1.214506594152587,3,right
3.0580000000000003,-0.23789302135226445,1.4031383790624332,0.07437006701008406,3.364409436210804,3.7572928526304703,-1.1403193697797218,-0.41119382636138607,-0.730440907013351,-1.2364333049795548,3,right
3.0639999999999996,-0.24514871797176277,1.398390744254373,0.07671033695170167,3.3867255088592767,3.8142002629048606,-1.1384270731002422,-0.40734919543484804,-0.7457272729503045,-1.258364011068197,3,right
3.0639999999999996,-0.2523856599035622,1.393416772829772,0.0790533129172527,3.4079534126907545,3.870658411902792,-1.1363490725064598,-0.40340529766240185,-0.7607968310146689,-1.2802838932560465,3,right
3.068,-0.25959681035776216,1.3882165382701352,0.08139788626485144,3.428076897155152,3.926628556566102,-1.1340839281298065,-0.39936339562868384,-0.775630910742709,-1.3021777805574823,3,right
3.069,-0.26677521797217035,1.3827902563758134,0.08374288384880123,3.4470805085649667,3.982071744397681,-1.1316299054166947,-0.39522475267603746,-0.7902108734889924,-1.3240301557478074,3,right
3.074,-0.27391403806401604,1.377138288251118,0.08608707112314962,3.464949618315149,4.036948835651847,-1.1289849702545185,-0.3909906304619923,-0.8045181297055306,-1.3458251615947352,3,right
3.075,-0.28100655377007644,1.371261143501667,0.08842915536818233,3.481670451022069,4.091220524541765,-1.1261467854387666,-0.38666228666322583,-0.81853415582747,-1.3675466078001517,3,right
3.077,-0.2880461968806513,1.365159483625134,0.0907677890013398,3.4972301126361347,4.144847359623098,-1.1231127084741965,-0.3822409728141218,-0.8322405108071798,-1.3891779787148921,3,right
3.0780000000000003,-0.2950265681648965,1.358834125555223,0.09310157293586498,3.511616618579376,4.197789763511456,-1.1198797907024631,-0.3777279322677646,-0.8456188523377952,-1.410702441889111,3,right
3.082,-0.30194145698599006,1.3522860452983372,0.09542905994706348,3.5248189219559896,4.250008052089477,-1.1164447777480433,-0.3731243982669379,-0.8586509528064437,-1.432102857520607,3,right
3.0839999999999996,-0.3087848600105982,1.3455163815872027,0.09774875800831527,3.5368269418805336,4.301462453357483,-1.1128041112737372,-0.36843159211242904,-0.8713187150164862,-1.4533617888632089,3,right
3.0869999999999997,-0.3155509988238231,1.338526439468639,0.10005913357307424,3.547631591965054,4.3521131260797405,-1.108953932036449,-0.3636507214156771,-0.883604187717169,-1.474461513657019,3,right
3.088,-0.3222343362681376,1.3313176937438869,0.10235861480126633,3.5572248090030674,4.401920178376244,-1.1048900842333709,-0.3587829784225422,-0.8954895809780833,-1.4953840366419573,3,right
3.092,-0.32882959133708456,1.3238917921859978,0.1046455947480895,3.5655995818848694,4.4508436864077385,-1.100608121128106,-0.35382953839471804,-0.9069572814447862,-1.516111103215636,3,right
3.092,-0.33533175247644037,1.3162505584654494,0.10691843454245199,3.572749980775188,4.498843713299415,-1.0961033119456602,-0.3487915580350557,-0.9179898675108363,-1.5366242142961388,3,right
3.096,-0.34173608917788684,1.3083959947223234,0.10917546658165761,3.5786711865807326,4.545880328446268,-1.0913706500246152,-0.34367017394281785,-0.9285701244403515,-1.556904642449775,3,right
3.097,-0.3480381617901039,1.3003302837347077,0.11141499776170992,3.583359520731672,4.591913627340578,-1.0864048622141769,-0.3384665010846354,-0.9386810594739924,-1.5769334493433067,3,right
3.102,-0.3542338295143371,1.2920557906496681,0.1136353127495145,3.5868124752975907,4.636903752059318,-1.0812004195031455,-0.3331816312666962,-0.9483059169500314,-1.5966915045795413,3,right
3.103,-0.3603192565887201,1.2835750642616999,0.11583467728581891,3.5890287434549006,4.680810912546533,-1.0757515488671974,-0.32781663159345714,-0.9574281934708614,-1.616159505974507,3,right
3.1060000000000003,-0.3662909166931742,1.2748908378386716,0.1180113414916556,3.590008250319199,4.723595408822823,-1.070052246320206,-0.3223725428979314,-0.9660316531439566,-1.6353180013337079,3,right
3.1069999999999998,-0.3721455956248976,1.2660060295016076,0.12016354314296705,3.589752184152467,4.76521765425113,-1.0640962911546359,-0.31685037813935163,-0.974100342927386,-1.6541474117446755,3,right
3.108,-0.3778803923034861,1.2569237421598143,0.12228951088069465,3.5882630279514873,4.8056381999848385,-1.0578772613553418,-0.31125112081867423,-0.9816186081209692,-1.672628056204704,3,right
3.111,-0.383492718166048,1.2476472629899347,0.12438746733415816,3.585544591420293,4.844817760721025,-1.0513885501703926,-0.305575723560975,-0.9885711080650579,-1.6907401770462593,3,right
3.112,-0.38898029501651304,1.238180062433501,0.1264556321477321,3.5816020433259177,4.8827172418783515,-1.04462338382179,-0.29982510706846066,-0.9949428321198215,-1.7084639654241123,3,right
3.1180000000000003,-0.394341151409042,1.2285257926812068,0.12849222491038717,3.576441944233183,4.919297768315623,-1.037574840338207,-0.2940001595927006,-1.0007191159839042,-1.7257795863247394,3,right
3.1189999999999998,-0.3995736176668997,1.218688285619643,0.13049546799570413,3.570072279507847,4.954520714662046,-1.0302358694810108,-0.28810173697565233,-1.0058856583873115,-1.7426672029129822,3,right
3.12,-0.40467631965001694,1.2086715502333958,0.13246358932788985,3.562502491959614,4.988347737119373,-1.0225993136836617,-0.2821306632539419,-1.0104285381792881,-1.7591070002273366,3,right
3.122,-0.40964817138278503,1.1984797694732403,0.13439482509608883,3.553743512567203,5.020740806219419,-1.0146579298330662,-0.2760877318096679,-1.0143342318277486,-1.7750792082735714,3,right
3.123,-0.4144883666543859,1.188117296622152,0.13628742244543998,3.543807787209866,5.05166223980935,-1.0064044116702469,-0.2699737070507857,-1.0175896313450739,-1.7905641245651511,3,right
3.127,-0.4191963697192831,1.1775886512195457,0.13813964217786942,3.5327092978406456,5.081074735740326,-0.9978314126372219,-0.26378932660392107,-1.020182062653293,-1.8055421361576427,3,right
3.127,-0.4237719052418323,1.1668985146288926,0.13994976149035954,3.520463577459033,5.108941404103864,-0.9889315690868011,-0.257535304002254,-1.022099304399845,-1.8199937412229499,3,right
3.13,-0.4282149476279363,1.1560517253390648,0.14171607675694445,3.507087718751648,5.135225799063227,-0.9796975238214963,-0.25121233185091163,-1.0233296072332434,-1.8338995702078187,3,right
3.1310000000000002,-0.43252570986804856,1.1450532740742247,0.14343690632927145,3.492600376369101,5.159891950364267,-0.9701219499369008,-0.24482108545210468,-1.0238617135460644,-1.8472404066195958,3,right
3.136,-0.43670463198927617,1.1339082987587377,0.1451105933049913,3.477021762803885,5.1829043946056865,-0.960197574943958,-0.23836222687204314,-1.0236848776907412,-1.859997207480718,3,right
3.137,-0.44075236918740673,1.1226220793510593,0.1467355082090439,3.460373637830906,5.204228206344153,-0.9499172051435744,-0.23183640943146874,-1.022788886671677,-1.8721511234918375,3,right
3.141,-0.44466977968611654,1.1112000325323708,0.14831005155680302,3.442679291469098,5.22382902910505,-0.9392737502260541,-0.2252442826014449,-1.0211640813151774,-1.8836835189418628,3,right
3.142,-0.4484579123524628,1.0996477062180685,0.14983265631219264,3.4239635204194023,5.241673106364901,-0.9282602480668285,-0.2185864972858511,-1.0188013779166771,-1.894575991401529,3,right
3.145,-0.4521179940876207,1.087970773855014,0.15130179030013854,3.4042525979313334,5.257727312566641,-0.9168698896889335,-0.21186371147183614,-1.0156922903626622,-1.9048103912353658,3,right
3.1460000000000004,-0.45565141701177375,1.0761750284736384,0.15271595866406537,3.3835742370473594,5.271959184223976,-0.9050960443616431,-0.20507659622929444,-1.0118289527226043,-1.9143688409651574,3,right
3.15,-0.45905972547154394,1.0642663764785247,0.1540737064666098,3.3619575471713907,5.284336951166027,-0.8929322848036084,-0.19822584204024035,-1.0072041423040976,-1.9232337545161429,3,right
3.15,-0.46234460291421997,1.052250831178963,0.15537362151424874,3.3394329839048043,5.294829567968294,-0.8803724124577614,-0.19131216543876958,-1.0018113031622526,-1.931387856375322,3,right
3.155,-0.4655078586907232,1.0401345060773914,0.1566143374491281,3.316032292090668,5.3034067456107605,-0.8674104828041503,-0.18433631594211142,-0.9956445700522326,-1.9388142006892854,3,right
3.156,-0.4685514148636774,1.0279236079464296,0.15779453710409877,3.2917884420041315,5.31003898339865,-0.8540408306757498,-0.17729908325309313,-0.9886987928116305,-1.9454961903270014,3,right
3.16,-0.47147729310433123,1.0156244297336576,0.15891295607373168,3.2667355586243447,5.314697601175874,-0.8402580955411503,-0.1702013047141564,-0.9809695611571851,-1.9514175959309439,3,right
3.161,-0.47428760176196083,1.0032433433370844,0.15996838642808112,3.2409088439207516,5.31735477185578,-0.8260572467168792,-0.16304387299288856,-0.972453229878106,-1.9565625749778608,3,right
3.165,-0.4769845231848534,0.9907867922943979,0.16095968049339557,3.2143444920841806,5.317983554288175,-0.8114336084709344,-0.15582774397885396,-0.963146944406048,-1.9609156908683463,3,right
3.1660000000000004,-0.47957030136727824,0.9782612844269766,0.16188575464084584,3.1870795976308477,5.316557926475952,-0.7963828849779263,-0.14855394487133725,-0.9530486667395209,-1.9644619320621879,3,right
3.17,-0.482047229993949,0.9656733844756543,0.1627455930476207,3.159152056305146,5.313052819148895,-0.7809011850850218,-0.1412235824374394,-0.9421572016982648,-1.9671867312742415,3,right
3.17,-0.484417640951847,0.953029706760689,0.16353825140893893,3.1306004587050005,5.307444149696407,-0.7649850468466717,-0.13383785141979868,-0.93047222348085,-1.9690759847433021,3,right
3.174,-0.48668389337796936,0.9403369078953864,0.16426286057726036,3.1014639765515337,5.2997088564550205,-0.7486314617848759,-0.12639804307304314,-0.9179943024964927,-1.9701160715841297,3,right
3.175,-0.48884836330860176,0.9276016795808238,0.164918630092261,3.071782241522905,5.28982493334057,-0.7318378988305059,-0.11890555380159476,-0.9047249323922636,-1.9702938732184947,3,right
3.176,-0.49091343398762405,0.9148307415040046,0.16550485155530267,3.041595216570381,5.277771464808842,-0.7146023278999523,-0.11136189383966343,-0.8906665569569429,-1.9695967928190583,3,right
3.179,-0.4928814868778136,0.9020308343523586,0.1660209018015556,3.0109430596330253,5.263528661122473,-0.6969232430601162,-0.10376869585719413,-0.8758225961527251,-1.9680127745900833,3,right
3.18,-0.4947548934048267,0.8892087129508601,0.1664662458242106,2.979865979665829,5.247077893895626,-0.6787996852334923,-0.09612772334375616,-0.8601974702860544,-1.9655303226468392,3,right
3.1839999999999997,-0.49653600745150284,0.876371139528856,0.16684043940244747,2.948404085169371,5.228401731871256,-0.6602312643868065,-0.08844087865383957,-0.8437966215642569,-1.96213851931272,3,right
3.185,-0.49822715860887634,0.8635248771242127,0.16714313138630202,2.916597226781437,5.20748397682686,-0.6412181811102675,-0.08071021065380256,-0.8266265327101555,-1.9578270427579063,3,right
3.1860000000000004,-0.49983064617861445,0.8506766831255456,0.16737406560467655,2.884484837962391,5.184309699403525,-0.6217612474299989,-0.07293792194219888,-0.8086947425422615,-1.9525861839604888,3,right
3.19,-0.5013487339078887,0.8378333029452697,0.16753308238146278,2.8521057791786464,5.15886527459407,-0.6018619066598128,-0.06512637562140716,-0.7900098584734423,-1.946406862980287,3,right
3.1910000000000003,-0.5027836454200875,0.825001463813977,0.16762011966189375,2.8194981896139213,5.131138416672266,-0.5815222521323375,-0.05727810159835905,-0.7705815658787566,-1.9392806445329562,3,right
3.197,-0.5041375602874923,0.8121878686872019,0.16763521376728485,2.78669934796451,5.101118213433384,-0.560745044711461,-0.049395802392043414,-0.750420634280961,-1.9311997528493081,3,right
3.198,-0.5054126106824479,0.7993991902544342,0.1675784998109522,2.7537455425003703,5.068795159662419,-0.5395337290219009,-0.04148235842535166,-0.7295389203000329,-1.922157085802077,3,right
3.2,-0.5066108785434947,0.786642065038522,0.16745021181486097,2.7206719502984287,5.034161189750308,-0.5178924483374799,-0.0335408327787238,-0.7079493673109215,-1.912146228279638,3,right
3.2,-0.5077343931990845,0.7739230875744397,0.1672506825602458,2.687512525553965,4.997209709371898,-0.495826058068425,-0.025574475382957963,-0.6856660017516348,-1.9011614647834545,3,right
3.2039999999999997,-0.5087851294002836,0.7612488046608373,0.16698034318848662,2.6542998968754805,4.957935626132774,-0.4733401377867649,-0.01758672662845661,-0.6627039260217019,-1.889197791223258,3,right
3.205,-0.5097650057232876,0.7486257096848458,0.16663972254812906,2.6210652734681084,4.916335379085451,-0.45044100172766754,-0.009581220368102565,-0.6390793079090212,-1.8762509258811921,3,right
3.2089999999999996,-0.5106758833118571,0.7360602370285008,0.16622944626699981,2.587838360110388,4.872406967008758,-0.4271357077033374,-0.001561786290887126,-0.6148093664811127,-1.8623173195133547,3,right
3.21,-0.511519564938606,0.7235587565731884,0.16575023551924967,2.554647280829048,4.82614997533759,-0.40343206436489165,0.0064675483566486855,-0.589912354374844,-1.847394164554358,3,right
3.213,-0.5122977943715561,0.7111275683265402,0.16520290545699598,2.521518511176401,4.777565601623515,-0.37933863674644624,0.014502557724149085,-0.5644075364168017,-1.831479403387708,3,right
3.214,-0.5130122560374154,0.6987728972028302,0.16458836328373871,2.488476819014942,4.726656679400032,-0.35486475002447915,0.022538817009383767,-0.5383151645046249,-1.8145717356419695,3,right
3.219,-0.5136645749760075,0.6865008879915889,0.1639076059600192,2.4555452137138722,4.673427700319621,-0.3300204914243949,0.03057170283145043,-0.5116564486778205,-1.7966706244698394,3,right
3.22,-0.5142563170830075,0.6743176005494228,0.1631617175483023,2.422744903662426,4.617884834422988,-0.3048167102050967,0.03859639434831254,-0.4844535243048357,-1.777776301764412,3,right
3.2230000000000003,-0.5147889896418135,0.6622290052472798,0.1623518662193014,2.390095262005128,4.560035948394298,-0.27926501565128103,0.04660787514174833,-0.45672941531147626,-1.7578897722640576,3,right
3.2239999999999998,-0.5152640421496236,0.650240978700925,0.16147930095097313,2.357613800504429,4.499890621649482,-0.2533777730021063,0.05460093589277708,-0.42850799337413537,-1.737012816494495,3,right
3.2289999999999996,-0.5156828674462205,0.6383592998073042,0.16054534795193956,2.3253161514365344,4.437460160098072,-0.22716809724385809,0.06257017787060458,-0.3998139329997352,-1.7151479924937767,3,right
3.2289999999999996,-0.5160468031548222,0.6265896461037167,0.15955140683509553,2.2932160574266582,4.372757607412411,-0.20064984469323344,0.0705100172580915,-0.3706726624127893,-1.6922986362630674,3,right
3.233,-0.5163571334414557,0.6149375904602522,0.15849894655942337,2.261325369130444,4.305797753631466,-0.17383760229690537,0.07841469033669488,-0.3411103101685658,-1.668468860883244,3,right
3.234,-0.5166150910934406,0.6034085981089967,0.1573895011539927,2.2296540506687825,4.236597140919946,-0.14674667457210475,0.0862782595537642,-0.3111536474099768,-1.643663554234515,3,right
3.239,-0.516821859910535,0.5920080240059005,0.15622466524116427,2.19821019272385,4.165174066296868,-0.11939306811207029,0.0940946204949889,-0.28083002568453386,-1.6178883752534219,3,right
3.24,-0.5169785773947757,0.5807411105137593,0.15500608938446753,2.167000033204767,4.09154858114125,-0.09179347357937571,0.10185750978469223,-0.2501673102365029,-1.591149748658785,3,right
3.2430000000000003,-0.5170863377180985,0.5696129853896387,0.1537354752947517,2.1360279853919133,4.015742487276183,-0.06396524510934326,0.10956051391727424,-0.2191938088193647,-1.5634548581169685,3,right
3.2439999999999998,-0.5171461949440919,0.5586286600572974,0.152414570930944,2.105296673469584,3.9377793294261445,-0.035926377044999985,0.11719707892659914,-0.18793819672815526,-1.5348116380222028,3,right
3.2439999999999998,-0.5171591664830923,0.5477930281419986,0.1510451655290068,2.074806975357341,3.8576843838360824,-0.007695477924327902,0.12476052062650021,-0.15642943993022654,-1.5052287644395794,3,right
3.248,-0.5171262367628033,0.5371108642409222,0.14962908459070184,2.0445580727510806,3.7754846428345643,0.020708258360096345,0.1322440350590321,-0.12469671882759882,-1.4747156459637318,3,right
3.2489999999999997,-0.5170483610938696,0.5265868228999826,0.14816818486660888,2.014547508285552,3.691208795117075,0.04926508430958039,0.13964070888327967,-0.09276935452774336,-1.4432824150353518,3,right
3.253,-0.5169264697023026,0.5162254377686343,0.14666434936966488,1.9847712497307215,3.6048872015194227,0.07795473355697216,0.14694352961079185,-0.060676738318968415,-1.4109399198803447,3,right
3.253,-0.5167614718936665,0.5060311209065964,0.14511948244982584,1.9552237610266723,3.5165518661669917,0.10675645860338114,0.1541453956898489,-0.028448264390416315,-1.3776997170256124,3,right
3.2539999999999996,-0.5165542603123241,0.49600816221824523,0.14353550494982048,1.9258980794203349,3.426236403488657,0.13564907120596292,0.16123912645979654,0.0038867342949839402,-1.3435740643011966,3,right
3.258,-0.5163057152628876,0.4861607289911997,0.14191434945266324,1.8967858969922777,3.333976002674572,0.1646109844241544,0.16821747199641132,0.03629904706673866,-1.308575914235888,3,right
3.259,-0.5160167090638041,0.47649286551705394,0.14025795562699112,1.8678776443203813,3.2398073917603014,0.19362025497373903,0.17507312286897025,0.06875964364470676,-1.2727189077508407,3,right
3.263,-0.515688110399109,0.4670084927762235,0.13856826567525748,1.8391625745699147,3.1437688029050657,0.2226546248967104,0.1817987198293878,0.10123972936153934,-1.2360173680531896,3,right
3.264,-0.5153207886264249,0.45771140817433015,0.13684721988906667,1.8106288472758785,3.0458999393299693,0.2516915622000926,0.18838686345345135,0.13371079760269095,-1.19848629462915,3,right
3.2680000000000002,-0.5149156179933599,0.4486052853217653,0.1350967523163751,1.78226361162613,2.9462419437675895,0.2807083004753397,0.19483012375383355,0.16614467955719098,-1.1601413572336332,3,right
3.2689999999999997,-0.5144734817140022,0.43969367385016517,0.13331878655182317,1.754053089162776,2.8448373681471177,0.3096818775816735,0.20112104978418657,0.19851359137242072,-1.1209988897709713,3,right
3.2739999999999996,-0.5139952758627505,0.4309799992599109,0.13151523167299795,1.7259826558198355,2.7417301442339927,0.33858917347672635,0.20725217925322853,0.2307901788061161,-1.081075883958967,3,right
3.275,-0.5134819130515142,0.42246756279208625,0.12968797835200796,1.6980369232156556,2.6369655549378224,0.36740694727779605,0.2132160481673155,0.26294755946871,-1.0403899826661525,3,right
3.278,-0.51293432586365,0.41415954131772137,0.1278388951658586,1.6701998191190097,2.5305902059973846,0.39611187363689776,0.21900520051955516,0.2949593627489426,-0.998959472809847,3,right
3.278,-0.5123534700215244,0.40605898723690476,0.1259698251152193,1.642454667008203,2.4226519977465992,0.42468057851260455,0.22461219804305946,0.3267997675154036,-0.9568032777003607,3,right
3.283,-0.5117403272656689,0.39816882837955,0.12408258235097827,1.6147842646428732,2.3132000966606165,0.4530896744214132,0.23002963004545218,0.3584435376863302,-0.9139409487145074,3,right
3.284,-0.5110959079242343,0.39049186789889323,0.12217894910812,1.587170961568482,2.202284906376535,0.48131579525104606,0.23525012334124676,0.38986605575956457,-0.8703926561794465,3,right
3.287,-0.5104212531520721,0.3830307841504195,0.12026067285332084,1.5595967354737512,2.089958037878776,0.5093356307177079,0.24026635229818558,0.42104335439408785,-0.8261791793457929,3,right
3.2880000000000003,-0.5097174368182634,0.37578813055245464,0.11832946365896507,1.5320432673215232,1.9762722785348008,0.5371259605488612,0.24507104901308738,0.4519521461339798,-0.7813218953269065,3,right
3.2910000000000004,-0.5089855670197612,0.3687663354267482,0.11638699181939298,1.5044920151736736,1.8612815596626506,0.5646636884725537,0.24965701363218465,0.48256985136502234,-0.735842766879304,3,right
3.292,-0.5082267871990065,0.36196770181660226,0.11443488572705328,1.4769242866308285,1.7450409223077301,0.5919258760937435,0.2540171248303452,0.5128746245934599,-0.6897643288972237,3,right
3.2969999999999997,-0.5074422768463842,0.3553944072786227,0.11247473002817462,1.4493213098076927,1.6276064809023763,0.618889776737406,0.2581443504629654,0.5428453791356617,-0.6431096734925301,3,right
3.298,-0.5066332517745507,0.3490485036439001,0.11050806407808131,1.4216643027647973,1.5090353844779794,0.6455328693374792,0.2620317584036933,0.5724618103065942,-0.5959024335293555,3,right
3.302,-0.5058009639604588,0.34293191674470735,0.10853638071300997,1.3939345413174353,1.3893857750958583,0.6718328924499198,0.2656725275804928,0.601704417194117,-0.5481667644811569,3,right
3.302,-0.5049467009604433,0.33704644610254697,0.1065611253477692,1.3661134251424487,1.2687167431596504,0.6977678784672774,0.26905995922189,0.6305545231051557,-0.4999273244762157,3,right
3.307,-0.5040717849119413,0.33139376457357106,0.10458369539908532,1.33818254210337,1.1470882792687216,0.7233161881112802,0.27218748832455414,0.6589942947687895,-0.45120925239601506,3,right
3.3080000000000003,-0.5031775711418967,0.32597541795017076,0.10260544002663907,1.3101237307142264,1.024561222268997,0.7484565452789367,0.27504869535265825,0.6870067603802213,-0.4020381438894177,3,right
3.312,-0.5022654464066948,0.32079282452320235,0.10062766017994984,1.2819191406620378,0.9011972031546968,0.7731680723166123,0.2776373181683497,0.7145758265372193,-0.3524400252407587,3,right
3.313,-0.5013368267898557,0.3158472746144784,0.09865160893827515,1.2535512913077345,0.7770585844716998,0.7974303257954263,0.27994726413998067,0.7416862939631924,-0.30244132541178786,3,right
3.313,-0.5003931552803773,0.31113993009069557,0.09667849212856693,1.2250031280848503,0.6522083948706816,0.8212233328601465,0.28197262228050396,0.7683238716285905,-0.25206884726585105,3,right
3.3160000000000003,-0.4994358990499405,0.30667182387063907,0.0947094691999293,1.196258076714929,0.5267102584557655,0.8445276282225297,0.28370767521572277,0.7944751887247944,-0.2013497393646673,3,right
3.3169999999999997,-0.49846654644515787,0.3024438594409049,0.09274565432416257,1.1673000951581125,0.4006283185722098,0.8673242918687598,0.28514691083321664,0.8201278040995971,-0.15031146934371337,3,right
3.322,-0.49748660371046394,0.2984568103983941,0.09078811768835461,1.1381137232218717,0.2740271558933992,0.8895949874811494,0.28628503355542956,0.8452702130432715,-0.09898179918140311,3,right
3.323,-0.4964975914554763,0.29471132003563844,0.08883788695114449,1.1086841297752958,0.1469717017595228,0.9113220012321297,0.2871169752315054,0.8698918514690706,-0.047388762293057066,3,right
3.323,-0.49550104087880126,0.29120790097887084,0.08689594884467038,1.0789971575607904,0.019527149687797996,0.9324882799937786,0.2876379056519943,0.8939830975618325,0.004439357696897129,3,right
3.326,-0.4944984897614733,0.2879469348844721,0.08496325091188127,1.0490393656194057,-0.1082411309334206,0.9530774676638959,0.2878432426896883,0.9175352709668925,0.056474046651889695,3,right
3.327,-0.49349147824859213,0.28492867220036566,0.08304070336985946,1.018798069320294,-0.23626767604958493,0.9730739386488024,0.28772866206896563,0.9405406295900125,0.10868657823749106,3,right
3.3310000000000004,-0.4924815444445276,0.2821532320021501,0.0811291810851339,0.9882613779390117,-0.3644870020971555,0.9924628281547553,0.28729010676513095,0.9629923640775179,0.16104803100183854,3,right
3.332,-0.49147021985209466,0.27962060191505694,0.07922952564219302,0.9574182297035839,-0.49283367526117045,1.0112300592789454,0.28652379603433165,0.984884590044285,0.21352930437162748,3,right
3.3369999999999997,-0.4904590246893725,0.27733063813257575,0.07734254748673046,0.9262584242214322,-0.6212423752008269,1.0293623669574905,0.28542623407371187,1.0062123381156507,0.26610113371359706,3,right
3.3369999999999997,-0.4894494631213717,0.27528306554293014,0.07546902812955654,0.8947726521994157,-0.7496479536112739,1.0468473188260914,0.28399421831053734,1.0269715418477305,0.31873410461186846,3,right
3.341,-0.4884430184481888,0.27347747797524236,0.07360972240072858,0.8629525223683595,-0.8779854879901804,1.0636733330472377,0.28222484731808106,1.0471590235890258,0.3713986665118373,3,right
3.342,-0.48744114829475693,0.2719133385772103,0.07176536074412698,0.8307905855225387,-1.0061903309778246,1.0798296931560232,0.2801155283551107,1.0667724783445784,0.42406514588158184,3,right
3.346,-0.486445279847746,0.27058998033620235,0.06993665154061958,0.7982803555836476,-1.1341981556394374,1.0953065599747773,0.2776639845248569,1.0858104557023036,0.4767037590419235,3,right
3.347,-0.48545680518257495,0.2695066067565912,0.06812428344272758,0.7654163275978284,-1.2619449970583414,1.110094980644828,0.2748682615483748,1.104272339879487,0.5292846248163674,3,right
3.3539999999999996,-0.48447707671876966,0.26866229270617487,0.06632892769687306,0.7321939925733516,-1.3893672906080459,1.1241868948217817,0.27172673414623383,1.1221583279457887,0.5817777771521553,3,right
3.3539999999999996,-0.4835074028357108,0.26805598544177445,0.06455124042561583,0.698609849065545,-1.5164019072708905,1.1375751380787702,0.26823811202148895,1.1394694062774453,0.6341531778635829,3,right
3.355,-0.48254904367477147,0.2676865058202447,0.06279186484413493,0.6646614114145496,-1.6429861863700848,1.1502534425601216,0.2644014454358986,1.1562073252957017,0.6863807296485694,3,right
3.3560000000000003,-0.48160320714985383,0.26755254969911646,0.061051433389401465,0.6303472145404577,-1.769057966081058,1.16221643492593,0.2602161303703619,1.1723745725408605,0.7384302895292106,3,right
3.361,-0.48067104518611126,0.2676526895303967,0.05933056974339495,0.5956668151993493,-1.8945556120869187,1.1734596316259667,0.25568191325955114,1.1879743441316841,0.7902716828667141,3,right
3.361,-0.47975365020414773,0.2679853761491915,0.05762989073383757,0.5606207896026977,-2.0194180447415375,1.1839794315393435,0.2507988952897163,1.2030105146582335,0.8418747181006855,3,right
3.365,-0.47885205186334884,0.26854894075524594,0.05595000810016264,0.5252107273015694,-2.143584765102286,1.1937731060142862,0.24556753624763783,1.2174876055545991,0.8932092023622271,3,right
3.366,-0.4779672140742162,0.269341597081429,0.054291530119609015,0.48943922123599115,-2.2669958801928236,1.2028387863403067,0.23998865790770282,1.2314107519963418,0.9442449581097085,3,right
3.37,-0.47710003228718323,0.27036144373953086,0.05265506309510611,0.4533098538488093,-2.3895921278544994,1.2111754486829927,0.2340634469430771,1.2447856683658547,0.9949518409353869,3,right
3.3710000000000004,-0.4762513310653131,0.27160646673076744,0.05104121270896314,0.4168271791623234,-2.511314901542936,1.2187828965095402,0.22779345734594755,1.2576186123272397,1.0452997586902817,3,right
3.375,-0.4754218619503545,0.2730745421061644,0.04945058524438178,0.3799967007149416,-2.632106275424197,1.225661740531075,0.22118061234081,1.2699163475507116,1.0952586920738523,3,right
3.377,-0.4746123016348906,0.27476343876021503,0.047883788673903346,0.34282484525407464,-2.751909030122599,1.2318133761857075,0.21422720577378443,1.281686105124966,1.1447987168340799,3,right
3.38,-0.4738232504559739,0.2766708213393273,0.046341433612839954,0.3053189320804772,-2.8706666794697133,1.2372399586841796,0.20693590295995037,1.2929355436943901,1.1938900277225246,3,right
3.3810000000000002,-0.47305523122526477,0.2787942532443242,0.04482413413632618,0.2674871379382466,-2.9883234986014444,1.241944375637864,0.1993097409697097,1.3036727083564612,1.242502964347814,3,right
3.3810000000000002,-0.47230868840646323,0.2811311997046438,0.043332508458490154,0.22933845734370775,-3.104824553747224,1.2459302172867985,0.19135212834263268,1.3139059883956736,1.2906080389992411,3,right
3.387,-0.4715839876451271,0.28367903090339086,0.04186717947059828,0.19088265824545994,-3.2201157340523507,1.249201744343344,0.18306684425839956,1.3236440741414333,1.338175966158015,3,right
3.387,-0.4708814156509412,0.2864350251373319,0.04042877513452989,0.15213023290692199,-3.334143785771364,1.2517638534649929,0.17445803726931378,1.3328959136185237,1.3851776927771908,3,right
3.39,-0.4702011804274657,0.2893963720001824,0.03901792873098324,0.11309234404663793,-3.4468563490368282,1.2536220404340952,0.1655302237400398,1.3416706698698915,1.431584428057001,3,right
3.391,-0.4695434118392941,0.2925601755787614,0.03763527896689034,0.07378076699487573,-3.558201996753534,1.25478236145178,0.1562882860971503,1.3499776796174925,1.4773676717936195,3,right
3.391,-0.46890816250296286,0.29592345765197703,0.03628146995082798,0.03420782992767791,-3.66813027399288,1.2552513935481002,0.1467374709143126,1.3578264135428948,1.522499241012894,3,right
3.3960000000000004,-0.4682954089852898,0.299483160882267,0.03495715104886481,-0.005613645037143121,-3.776591735607533,1.2550361954399725,0.1368833868159037,1.365226438255382,1.5669512949517317,3,right
3.397,-0.4677050532895284,0.30323615198612747,0.033662976636354446,-0.04567039782251004,-3.883537980433406,1.2541442698349152,0.1267320021725144,1.3721873799714424,1.6106963585185985,3,right
3.4010000000000002,-0.4671369246065761,0.30717922486660587,0.0323996057608907,-0.08594878269775705,-3.9889216816135926,1.2525835275798198,0.11628964256091846,1.3787188899282095,1.6537073443627248,3,right
3.4019999999999997,-0.46659078130635556,0.3113091036888738,0.031167701727820355,-0.1264348168770149,-4.092696613225529,1.2503622537204564,0.10556298796021142,1.3848306115521367,1.6959575736796546,3,right
3.405,-0.466066313143255,0.3156224458798039,0.029967931616770343,-0.16711422552534783,-4.194817673518526,1.2474890754691739,0.09455906965497024,1.3905321494029201,1.7374207958787513,3,right
3.407,-0.465563143650294,0.32011584503295937,0.028800965738574057,-0.20797248328832063,-4.295240905064302,1.2439729320763258,0.08328526681545009,1.3958330399114562,1.7780712072361589,3,right
3.409,-0.4650808327007048,0.3247858337021206,0.027667477045204877,-0.24899485246127182,-4.393923512118548,1.2398230465990598,0.07174930272401868,1.4007427239294095,1.8178834686545375,3,right
3.41,-0.46461887922198675,0.32962888606973945,0.02656814050643189,-0.2901664179151216,-4.490823875486781,1.2350488995592377,0.059959240616232784,1.4052705211067937,1.8568327226486279,3,right
3.415,-0.4641767240541916,0.33464142048112855,0.025503632462823528,-0.33147211889605854,-4.585901565182902,1.2296602044804021,0.047923479104186734,1.4094256061128112,1.894894609673372,3,right
3.4160000000000004,-0.4637537529492045,0.33981980184110067,0.024474629957607793,-0.372896777816919,-4.679117351163834,1.223666885291893,0.03565074714901071,1.4132169867140751,1.9320452839089015,3,right
3.42,-0.4633492997096154,0.3451603438775412,0.023481810044501738,-0.41442512615850163,-4.770433212418542,1.2170790555864148,0.02315009854866714,1.416653483723246,1.968261428614236,3,right
3.42,-0.4629626494643065,0.3506593112840571,0.022525849066177855,-0.45604182759944467,-4.859812344684478,1.2099069997155996,0.010430905906488437,1.4197437128300323,2.003520271158981,3,right
3.424,-0.4625930420737003,0.3563129217583077,0.021607421896399987,-0.4977314984936351,-4.947219167059147,1.2021611557063687,-0.0024971459547806587,1.4224960683254688,2.0377995978397,3,right
3.425,-0.4622396756512372,0.36211734795336586,0.020727201137358257,-0.5394787258144169,-5.0326193277690505,1.1938520999791913,-0.015624067169326985,1.4249187087293635,2.071077768584947,3,right
3.431,-0.46190171018035003,0.3680687193582499,0.019885856264188626,-0.5812680826851185,-5.115979709352684,1.1849905338476565,-0.028939570631517125,1.427019544329808,2.1033337316502037,3,right
3.432,-0.4615782712005116,0.3741631241213218,0.019084052712217716,-0.6230841416156293,-5.1972684335086194,1.1755872717771327,-0.04243308046316715,1.4288062266426744,2.134547038401152,3,right
3.4330000000000003,-0.46126845353389007,0.3803966108257679,0.01832245090789338,-0.6649114855649211,-5.276454865853916,1.1656532313786667,-0.05609374118252192,1.4302861397980786,2.1646978582808307,3,right
3.4339999999999997,-0.4609713250246712,0.3867651902195943,0.01760170524950495,-0.7067347169495314,-5.353509620832296,1.1551994251126874,-0.06991042761317304,1.4314663938598593,2.1937669940533002,3,right
3.4389999999999996,-0.4606859302635126,0.39326483689505803,0.016922463047411827,-0.7485384647181006,-5.428404567005507,1.144236953675526,-0.08387175557165538,1.4323538200832204,2.2217358974134385,3,right
3.44,-0.4604112942702404,0.39989149090740184,0.01628536343560296,-0.7903073896120907,-5.501112832955303,1.1327770010402403,-0.09796609337294168,1.4329549681148066,2.2485866850494376,3,right
3.443,-0.46014642611102974,0.4066410593224153,0.015691036267644905,-0.8320261877327957,-5.571608814017339,1.1208308311217325,-0.11218157419350216,1.4332761051386136,2.2743021552414797,3,right
3.444,-0.45989032243122263,0.4135094176852893,0.015140101010792217,-0.8736795925347058,-5.639868180062083,1.1084097860346942,-0.12650610933201162,1.4333232169702999,2.2988658050768893,3,right
3.449,-0.4596419708895298,0.42049241140658117,0.014633165651876796,-0.9152523753651813,-5.70586788453155,1.0955252859114808,-0.14092740238417104,1.43310201107425,2.32226184832498,3,right
3.451,-0.4594003534838624,0.4275858570645755,0.014170825626830351,-0.9567293446702503,-5.769586174934328,1.0821888302456228,-0.1554329642284774,1.4326179213399848,2.344475233842129,3,right
3.451,-0.45916444976436277,0.4347855436275189,0.013753662781922677,-0.998095343986157,-5.831002604994933,1.0684120007253142,-0.17001012850412145,1.4318761142072214,2.3654916640693293,3,right
3.4539999999999997,-0.45893323993533586,0.44208723360233537,0.013382244369848093,-1.0393352488360559,-5.890098048647048,1.054206465519892,-0.1846460671424881,1.4308814955911648,2.385297613011714,3,right
3.455,-0.4587057078541582,0.44948666411752436,0.013057122079283804,-1.08043396265097,-5.9468547160536485,1.039583984981018,-0.19932780563395947,1.4296387181958055,2.4038803432555476,3,right
3.458,-0.4584808439398367,0.4569795479494382,0.012778831092997376,-1.121376411838703,-6.001256171737841,1.0245564186964449,-0.2140422379278907,1.4281521890487652,2.421227921879738,3,right
3.4589999999999996,-0.4582576480041115,0.4645615745041609,0.012547889167000826,-1.162147540148474,-6.053287354438761,1.0091357337201985,-0.22877614098377935,1.4264260772274544,2.4373292352848424,3,right
3.4589999999999996,-0.4580351320136758,0.4722284107694312,0.012364795722632181,-1.2027323025226277,-6.102934597467044,0.9933340135987296,-0.24351618901577726,1.424464321772978,2.452174002992929,3,right
3.463,-0.45781232278521683,0.47997570225067876,0.012230030944778297,-1.24311565865077,-6.150185647864855,0.9771634676986007,-0.25824896747278686,1.4222706397875304,2.4657527904681023,3,right
