time,gFx,gFy,gFz,ax,ay,az,wx,wy,wz,subject_number,foot
3.2310000000000003,0.17941709944331943,1.0161686920524697,-0.0882531372959314,0.31550224726683196,0.06859157322556966,-0.49784468866924414,-0.08897204565689162,0.38047857314348543,0.034047667104616514,2,left
3.234,0.17615479433722153,1.0199986466973396,-0.08840290132805635,0.32192737182016967,0.058508719577373566,-0.5027713845371945,-0.09168993279910002,0.3821678196565018,0.033317142962558895,2,left
3.234,0.17282662136870797,1.0239598717888916,-0.08853144002627066,0.3279120866940694,0.048617809932876004,-0.5077363810041943,-0.09441218234942832,0.3838598335537671,0.03260373845864298,2,left
3.24,0.1694340465601559,1.0280522931029519,-0.08863795671191091,0.33344307542463464,0.03894113825242126,-0.5127431402290102,-0.09713852823077831,0.3855579084672278,0.03190976895427513,2,left
3.241,0.1659786142183657,1.0322757027121505,-0.08872167914119757,0.33850679647261933,0.029501357879864,-0.5177950050941643,-0.09986870692735625,0.38726529141776983,0.03123760588226623,2,left
3.245,0.16246194962529828,1.0366297557291444,-0.08878186095618996,0.343089519637606,0.02032145968181906,-0.5228951874038851,-0.10260245771765478,0.3889851797517103,0.030589677926125842,2,left
3.2460000000000004,0.15888576170857124,1.0411139672448995,-0.08881778297028677,0.3471773653273719,0.011424748624772876,-0.5280467560141965,-0.10533952299335005,0.39072071824532423,0.029968472181710316,2,left
3.2460000000000004,0.15525184565579303,1.0457277094757476,-0.08882875430276235,0.35075634669696165,0.002834818762988201,-0.5332526249096635,-0.10807964862495992,0.3924749963196999,0.029376535287179734,2,left
3.2489999999999997,0.15156208543374247,1.050470209133102,-0.08881411337988171,0.35381241467059993,-0.005424473389119188,-0.5385155412414523,-0.11082258431945488,0.3942510452873847,0.028816474503248573,2,left
3.25,0.14781845616695133,1.0553405450291031,-0.0887732288235853,0.3563315058581588,-0.01332903712563881,-0.5438380733415109,-0.11356808393068767,0.396051835573194,0.02829095872983178,2,left
3.25,0.14402302632618538,1.0603376459290783,-0.08870550025081474,0.3582995932902704,-0.020854577450137878,-0.5492225987403996,-0.1163159057117144,0.39788027388918495,0.027802719452543534,2,left
3.2539999999999996,0.14017795968153168,1.0654602886589675,-0.08861035900374196,0.3597027394638771,-0.027976626432545698,-0.5546712922793038,-0.11906581251375331,0.3997392003647277,0.027354551616637624,2,left
3.2539999999999996,0.13628551698473015,1.0707070964742111,-0.0884872688236123,0.360527150413032,-0.034670575544413204,-0.5601861145200491,-0.1218175719396674,0.40163138563685385,0.026949314426885695,2,left
3.259,0.13234805735401997,1.0760765376943087,-0.08833572647339581,0.36075922908738217,-0.04091170832719066,-0.5657688007199557,-0.12457095645986473,0.4035595279061417,0.026589932071996805,2,left
3.261,0.12836803933940855,1.081566924602528,-0.08815526231315646,0.360385626749942,-0.04667523291373807,-0.5714208505757106,-0.12732574349851516,0.4055262499634837,0.026279394372296944,2,left
3.265,0.12434802165007629,1.0871764126048518,-0.08794544084036564,0.3593932918795396,-0.05193631422216802,-0.5771435188275146,-0.1300817154979885,0.4075340961931774,0.0260207573495107,2,left
3.265,0.12029066353140355,1.092902999638499,-0.08770586122042157,0.35776951649241284,-0.05667010580655055,-0.5829378067521134,-0.13283865996942276,0.40958552955788524,0.02581714371761909,2,left
3.2680000000000002,0.11619872478624702,1.0987445258182538,-0.0874361578384102,0.3555019798818553,-0.060851781380983606,-0.588804454560951,-0.13559636953733653,0.41168292857111866,0.02567174329390809,2,left
3.2689999999999997,0.11207506544328205,1.1046986733075157,-0.08713600089600308,0.3525787897730333,-0.06445656603208924,-0.594743934719888,-0.1383546419862017,0.41382858426301883,0.025587813329471538,2,left
3.2739999999999996,0.10792264508567778,1.1107629663993324,-0.08680509706459923,0.3489885208882822,-0.06745976713348102,-0.6007564462071319,-0.14111328031689624,0.41602469714533324,0.025568678758590434,2,left
3.275,0.10374452186527927,1.1169347717905944,-0.08644319019614397,0.3447202509163436,-0.06983680497416213,-0.6068419097262341,-0.14387209282095856,0.4182733741816182,0.02561773236657783,2,left
3.279,0.09954385123702736,1.1232112990323606,-0.08605006208776352,0.339763593877121,-0.07156324311115651,-0.6129999638912152,-0.1466308931805671,0.4205766257688357,0.025738434875855528,2,left
3.279,0.0953238844521052,1.1295896011425994,-0.08562553329292612,0.33410873087161536,-0.07261481845494769,-0.6192299624010924,-0.14938950060216954,0.4229363627366582,0.02593431495021477,2,left
3.284,0.09108796684614988,1.1360665753729484,-0.08516946396827728,0.32774643820475835,-0.07296747109450095,-0.6255309722212883,-0.1521477399916863,0.42535439337094477,0.02620896911740944,2,left
3.284,0.08683953595353708,1.1426389641266959,-0.08468175474038217,0.3206681128668818,-0.07259737386677642,-0.631901772789613,-0.15490544217921323,0.42783242046801145,0.026566061610436006,2,left
3.2880000000000003,0.08258211947279827,1.149303356031317,-0.0841623475695737,0.31286579535755876,-0.07148096167370199,-0.6383408562647117,-0.15766244420114836,0.4303720384264755,0.027009324128070743,2,left
3.2889999999999997,0.07831933310224994,1.1560561871758515,-0.08361122657932006,0.3043321898335205,-0.06959496054756811,-0.644846428835077,-0.1604185896476655,0.43297473038362594,0.027542555515461073,2,left
3.2969999999999997,0.07405487825868919,1.162893742530607,-0.08302841881235154,0.2950606815602986,-0.06691641646373006,-0.6514164131069261,-0.16317372908345668,0.435641865403442,0.028169621365804965,2,left
3.298,0.06979253968627003,1.1698121575737361,-0.08241399487402223,0.2850453516451619,-0.06342272389736084,-0.6580484515894344,-0.16592772054966323,0.43837469572355775,0.028894453544399897,2,left
3.298,0.06553618295904623,1.1768074201554255,-0.08176806942956609,0.2742809890268201,-0.05909165411878695,-0.6647399112960113,-0.16868043015491296,0.4411743540686533,0.029721049636601573,2,left
3.299,0.061289751879988745,1.1838753726339348,-0.08109080153062297,0.262763099695245,-0.05390138321966387,-0.6714878894804861,-0.17143173276337764,0.44404185103793703,0.03065347232150221,2,left
3.303,0.05705726578074617,1.1910117143174592,-0.08038239475339792,0.25048791311282875,-0.04783051985990671,-0.6782892205272509,-0.1741815127877622,0.4469780725745716,0.03169584867341938,2,left
3.303,0.05284281672806352,1.198212004242823,-0.07964309713380592,0.23745238580594505,-0.04085813272288719,-0.6851404840145776,-0.17692966509513305,0.44998377752508945,0.03285236939357857,2,left
3.3080000000000003,0.048650566642753745,1.2054716643172323,-0.07887320088350848,0.22365420209381784,-0.032963777663940486,-0.6920380139704851,-0.1796760960334893,0.4530595952970362,0.03412728797467712,2,left
3.3089999999999997,0.04448474433519991,1.212785982842389,-0.0780730418684287,0.2090917719194275,-0.024127524534696885,-0.6989779093406907,-0.18242072458697564,0.4562060236232797,0.035524919801332926,2,left
3.312,0.04034964245834282,1.2201501184307266,-0.07724299883389073,0.19376422574500185,-0.014329983663164519,-0.7059560456883179,-0.18516348366763166,0.45942342644161965,0.03704964118974949,2,left
3.313,0.03624961437505699,1.2275591043114964,-0.07638349236934747,0.17767140647245,-0.0035523319668417583,-0.7129680881451677,-0.18790432155156697,0.46271203189853516,0.03870588837026915,2,left
3.3139999999999996,0.032189070931812544,1.235007853012344,-0.075494983615785,0.1608138583469034,0.008223661326566645,-0.7200095056344783,-0.19064320346201113,0.46607193048401,0.04049815641317167,2,left
3.3169999999999997,0.028172477126152024,1.2424911613951495,-0.07457797272368562,0.14319281279933188,0.021015609379015948,-0.7270755863852157,-0.1933801132745028,0.4695030732940732,0.0424309980801045,2,left
3.318,0.024204348653748993,1.250003716025719,-0.073632997065967,0.12481017126568232,0.0348404828784352,-0.7341614547268378,-0.1961150552705556,0.4730052703989933,0.04450902255090403,2,left
3.319,0.020289248321489983,1.257540098860656,-0.07266062920195013,0.10566848543617977,0.049714585554541356,-0.7412620889976267,-0.1988480558389533,0.47657818928476464,0.04673689395762192,2,left
3.323,0.016431782313861467,1.2650947932352798,-0.07166147458211457,0.08577093613933459,0.06565352988390245,-0.7483723401190747,-0.20157916505100132,0.4802213533462305,0.0491193296763105,2,left
3.324,0.012636596299066286,1.2726621901307804,-0.07063616898373233,0.06512131248139962,0.08267221272128573,-0.7554869502329237,-0.20430845808497577,0.48393414042930083,0.051661098360543646,2,left
3.3280000000000003,0.008908371358825117,1.280236594687429,-0.0695853756750731,0.043723992441455195,0.10078479067301804,-0.7626005709534394,-0.2070360365021867,0.487715781430425,0.054367017719416155,2,left
3.3289999999999997,0.005251819723380748,1.2878122329196082,-0.0685097823198326,0.021583925367034143,0.12000465516736462,-0.7697077810682126,-0.20976202938250055,0.4915653589637859,0.057241952046875856,2,left
3.332,0.0016716802926523158,1.2953832585840783,-0.06741009765113595,-0.001293383605347632,0.14034440725571112,-0.7768031036767267,-0.21248659432716302,0.4954818061068782,0.06029080950970091,2,left
3.332,-0.0018272860738216764,1.3029437601553313,-0.06628704796190935,-0.024901887266212876,0.16181583219661053,-0.7838810227871148,-0.2152099183367581,0.4994639052353331,0.06351853920190592,2,left
3.3369999999999997,-0.0052403015130714665,1.3104877678684326,-0.06514137347275516,-0.049235008249287816,0.1844298738779352,-0.7909359993915127,-0.2179322185721349,0.5035102869580461,0.06693012797384645,2,left
3.339,-0.008562576374158042,1.318009260799327,-0.06397382464717642,-0.07428564921351746,0.20819660913559077,-0.7979624870403785,-0.22065374300612928,0.5076194291638558,0.07053059704479123,2,left
3.341,-0.011789314704207174,1.3255021739635355,-0.06278515852210688,-0.10004620135873818,0.23312522203049654,-0.8049549469361009,-0.2233747709739043,0.5117896561912105,0.07432499840824511,2,left
3.343,-0.014915720012381494,1.3329604054233053,-0.06157613510599061,-0.12650855134489478,0.2592239781488185,-0.811907862566149,-0.22609561362973057,0.5160191381324434,0.0783184110398342,2,left
3.3480000000000003,-0.017937001312055223,1.3403778233986023,-0.060347513873780984,-0.1536640866867495,0.28650019899375007,-0.8188157538959391,-0.22881661431802508,0.5203058902844571,0.08251593691810713,2,left
3.3489999999999998,-0.02084837943245134,1.3477482733792656,-0.059100050371762136,-0.18150369969806873,0.31496023654047206,-0.825673191141493,-0.23153814886646606,0.5246477727577942,0.08692269686916397,2,left
3.352,-0.023645093582776746,1.355065585234833,-0.05783449294314787,-0.21001779006128818,0.3446094480292817,-0.8324748081418497,-0.23426062580900103,0.5290424902562386,0.09154382624659554,2,left
3.353,-0.02632240814575842,1.362323580315813,-0.056551579595155374,-0.23919626610064748,0.37545217107526224,-0.8392153153510644,-0.2369844865465653,0.5334875920392586,0.09638447045880263,2,left
3.3569999999999998,-0.028875619673213154,1.369516078537822,-0.05525203503884836,-0.2690285448387491,0.40749169917626266,-0.8458895124694822,-0.2397102054533303,0.5379804720797591,0.1014497803563657,2,left
3.358,-0.03130006405413192,1.3766369054396455,-0.053936567933405635,-0.29950355091843367,0.4407302577043705,-0.8524923007338132,-0.2424382899363034,0.5425183694297641,0.10674490749275126,2,left
3.363,-0.033591123825654816,1.3836798992067523,-0.0526058683558095,-0.3306097144737704,0.4751689804694894,-0.8590186948853642,-0.24516928045610525,0.5470983688067912,0.11227499927227196,2,left
3.364,-0.035744235597566544,1.3906389176514018,-0.05126060550368638,-0.3623349680358396,0.5108078869470651,-0.8654638348355872,-0.24790375051675628,0.5517174014138209,0.11804519399986292,2,left
3.366,-0.037754897560779,1.3975078451383953,-0.04990142562812816,-0.3946667425608277,0.5476458602654497,-0.8718229970479019,-0.2506423066323101,0.556372246005889,0.12406061584789674,2,left
3.367,-0.039618677051940505,1.4042805994417034,-0.048528950184279114,-0.4275919626697704,0.585680626051836,-0.8780916056545309,-0.25338558827818053,0.561059530216455,0.13032636975593453,2,left
3.3710000000000004,-0.04133121815238727,1.4109511385123794,-0.04714377418174431,-0.46109704119105327,0.6249087322391417,-0.8842652433268525,-0.25613426783501964,0.5657757321568055,0.13684753628000076,2,left
3.372,-0.04288824930933461,1.4175134671330505,-0.045746464716328365,-0.4951678730985228,0.6653255299396634,-0.8903396619175304,-0.25888905053301414,0.5705171823018601,0.14362916640867315,2,left
3.3760000000000003,-0.04428559097699932,1.4239616434294804,-0.044337559666760645,-0.5297898289397646,0.7069251554947578,-0.8963107928924172,-0.2616506744044836,0.5752800656758368,0.1506762763639986,2,left
3.377,-0.04551916328215089,1.430289785207215,-0.042917566541975094,-0.5649477478507683,0.7497005138132296,-0.9021747575699589,-0.26441991025267714,0.5800604243513163,0.1579938424059797,2,left
3.3819999999999997,-0.04658499372050793,1.4364920760830193,-0.041486961466721824,-0.6006259302548258,0.7936432631145239,-0.9079278771855407,-0.26719756164055947,0.5848541602705716,0.16558679565309933,2,left
3.383,-0.047479224886975355,1.4425627713866571,-0.0400461882957593,-0.6368081303450879,0.8387438011962096,-0.9135666827979205,-0.2699844648827707,0.589657038374339,0.1734600168969906,2,left
3.383,-0.048198122235254146,1.4484962038160007,-0.03859565784497634,-0.673477548451746,0.8849912533486178,-0.9190879250545875,-0.2727814889868414,0.5944646899805239,0.18161833132691282,2,left
3.386,-0.04873808185188231,1.4542867888316207,-0.03713574721798653,-0.7106168233962983,0.9323734620428523,-0.924488583832564,-0.2755895354691418,0.5992726163316197,0.1900665030453625,2,left
3.387,-0.049095638218096205,1.4599290297724734,-0.03566679919753378,-0.7482080249368045,0.98087697852171,-0.929765877770846,-0.27840953799169826,0.6040761922533955,0.1988092292920756,2,left
3.387,-0.04926747192561109,1.4654175226682185,-0.03418912167807531,-0.7862326464062832,1.030487056396239,-0.9349172736904027,-0.2812424618031635,0.6088706699101607,0.20785113435772043,2,left
3.39,-0.049250417313800234,1.4707469607249497,-0.03270298713936189,-0.8246715976319976,1.0811876472034192,-0.9399404957976699,-0.28408930298788293,0.6136511826656553,0.21719676320453518,2,left
3.391,-0.049041470001862444,1.4759121384702945,-0.031208632182278144,-0.8635051981963145,1.1329613976127566,-0.9448335343877453,-0.2869510875311622,0.6184127490633597,0.22685057481903623,2,left
3.395,-0.04863779429185829,1.480907955554597,-0.029706257153499505,-0.9027131710853098,1.1857896478222565,-0.9495946536634906,-0.28982887020887477,0.6231502769399851,0.23681693532278159,2,left
3.3960000000000004,-0.04803673041456355,1.4857294202144213,-0.028196025873607884,-0.9422746367882362,1.2396524308378758,-0.954222398386021,-0.29272373330959095,0.6278585676858658,0.24710011086804648,2,left
3.4010000000000002,-0.04723580158744188,1.4903716524164763,-0.02667806546032468,-0.9821681079404623,1.2945284726045394,-0.9587155992510563,-0.2956367851974515,0.6325323206659222,0.2577042603461541,2,left
3.4019999999999997,-0.04623272086084975,1.4948298867148535,-0.025152466218006278,-1.0223714846193221,1.3503951931103384,-0.9630733769848802,-0.29856915872405504,0.6371661378147943,0.26863342793710016,2,left
3.407,-0.045025397743263446,1.4990994748653141,-0.023619281557831752,-1.0628620504064779,1.4072287086185995,-0.9672951451731983,-0.301522009497678,0.6417545284196557,0.27989153553002183,2,left
3.408,-0.043611944608186924,1.5031758882403534,-0.022078527916236754,-1.1036164693313495,1.4650038351854209,-0.9713806118358014,-0.3044965140181981,0.6462919141041291,0.29148237504498314,2,left
3.41,-0.04199068288411405,1.5070547200761901,-0.020530184641935605,-1.1446107838110584,1.5236940936231085,-0.975329779759551,-0.3074938676861476,0.6507726340265967,0.3034096006874805,2,left
3.411,-0.040160149012519165,1.510731687559508,-0.018974193822188234,-1.1858204137031534,1.5832717160727352,-0.9791429456018153,-0.31051528269438133,0.6551909503060797,0.3156767211680194,2,left
3.4139999999999997,-0.03811910013443227,1.5142026337330796,-0.017410460020890372,-1.2272201565881435,1.6437076543517304,-0.9828206977760897,-0.3135619858109078,0.6595410536887067,0.32828709192006655,2,left
3.415,-0.03586651944491553,1.5174635291734362,-0.015838849907520724,-1.2687841893995486,1.7049715902450435,-0.9863639131311516,-0.31663521606149575,0.6638170694676322,0.34124390735064947,2,left
3.4210000000000003,-0.03340162114512581,1.5205104733764574,-0.014259191768327434,-1.3104860715197995,1.7670319479109733,-0.9897737524347008,-0.3197362223207392,0.6680130636690832,0.3545501931588504,2,left
3.4219999999999997,-0.030723854924962234,1.5233396957794403,-0.012671274911249922,-1.3522987494608625,1.8298559085752077,-0.9930516546720548,-0.3228662608203356,0.6721230495170204,0.36820879875842805,2,left
3.424,-0.02783290992126798,1.525947556350102,-0.01107484900253701,-1.3941945632489359,1.8934094276890072,-0.9961993301700794,-0.32602659258340827,0.6761409941886835,0.3822223898417948,2,left
3.425,-0.024728718111050103,1.5283305456828176,-0.009469623396757335,-1.436145254632952,1.9576572547297408,-0.9992187525561547,-0.3292184807937848,0.6800608258730616,0.3965934411235817,2,left
3.429,-0.021411457111250833,1.5304852845583854,-0.007855266530986324,-1.4781219772369487,2.0225629558241773,-1.002112149561594,-0.332443188109225,0.6838764411440845,0.41132422930303325,2,left
3.43,-0.017881552364888312,1.5324085229433555,-0.006231405443807484,-1.5200953087766005,2.08808893937703,-1.0048819926785653,-0.3357019739276811,0.6875817126600611,0.4264168262854956,2,left
3.435,-0.014139678699501201,1.5340971384260886,-0.004597625457108687,-1.562035265460364,2.1541964848892414,-1.007530985679192,-0.3389960916157608,0.6911704972006151,0.44187309270428704,2,left
3.4360000000000004,-0.010186761249230195,1.5355481341074433,-0.002953470034631486,-1.60391131869576,2.2208457751523865,-1.0100620520051518,-0.34232678570866115,0.6946366440520652,0.45769467178527257,2,left
3.4389999999999996,-0.006023975737018264,1.5367586359828844,-0.0012984408118221287,-1.6456924142213052,2.2879959320073455,-1.012478321035733,-0.3456952890909367,0.697974003751881,0.4738829835975043,2,left
3.44,-0.0016527481190241917,1.537725889867826,0.0003680022221725414,-1.6873469937845103,2.355605055857075,-1.0147831132419713,-0.3491028201675676,0.7011764372025101,0.4904392197343317,2,left
3.445,0.00292524639933927,1.538447257928548,0.0020464404142775524,-1.7288430194861792,2.423630269124851,-1.0169799242341369,-0.35255058003489953,0.704237825164521,0.5073643384704376,2,left
3.446,0.007708084956048652,1.5389202148891383,0.0037374960242403206,-1.7701480009109642,2.4920277638507993,-1.0190724077095252,-0.3560397496611338,0.7071520781386371,0.5246590604413057,2,left
3.449,0.012693599202175462,1.539142343991114,0.00544183168451605,-1.8112290251637706,2.5607528536208473,-1.0210643573071796,-0.359571487080288,0.7099131466343369,0.5423238648650475,2,left
3.45,0.0178793780094594,1.5391113327822443,0.007160149721978157,-1.8520527899311505,2.6297600300234136,-1.022959687375863,-0.3631469245743086,0.7125150317647517,0.5603589861893913,2,left
3.451,0.0232627706757866,1.5388249688044089,0.00889319131164281,-1.892585639686271,2.6990030238302327,-1.024762412661299,-0.3667671657652923,0.714951796003583,0.5787644107989705,2,left
3.4539999999999997,0.028840890587145222,1.5382811352479584,0.010641735427697363,-1.9327936050906644,2.7684348709533695,-1.026476626945277,-0.370433282510543,0.717217573881783,0.5975398732809228,2,left
3.4560000000000004,0.03461061928989555,1.53747780664529,0.012406597552054673,-1.972642445321552,2.8380079825049136,-1.0281064808032625,-0.3741463115226705,0.7193065824588262,0.6166848518860646,2,left
3.4560000000000004,0.04056861092719319,1.536413044678553,0.014188628101581908,-2.0120976924700833,2.907674216979041,-1.0296561588886686,-0.37790725068990505,0.7212131315065061,0.6361985630726918,2,left
3.46,0.04671129699631066,1.5350849941769666,0.015988710542607844,-2.051124696831213,2.9773849518503,-1.0311298572860124,-0.3817170551012923,0.7229316334002435,0.6560799551593091,2,left
3.4610000000000003,0.0530348913798657,1.5334918793896548,0.017807759168541378,-2.0896886722285912,3.047091152608762,-1.0325317613406162,-0.3855766327874362,0.7244566127238974,0.6763277011412807,2,left
3.464,0.05953539559705856,1.5316320006343453,0.019646716524486713,-2.127754741099325,3.1167434385604054,-1.033866024130502,-0.3894868401875969,0.7257827155935425,0.6969401907274619,2,left
3.465,0.06620860421915346,1.5295037314271898,0.021506550475639048,-2.165287979385912,3.1862921454476227,-1.0351367456115843,-0.3934484773540889,0.726904718705138,0.7179155216539186,2,left
3.469,0.07305011039491952,1.5271055161948495,0.02338825092918158,-2.2022534613460625,3.255687385089981,-1.0363479524402004,-0.39746228290507085,0.7278175381104568,0.7392514903329014,2,left
3.469,0.08005531143182287,1.5244358686647128,0.02529282622448466,-2.238616304389677,3.324879102245229,-1.037503578476818,-0.40152892873695956,0.728516237725075,0.7609455818962827,2,left
3.4739999999999998,0.08721941437682067,1.5214933710261411,0.02722129920239676,-2.274341714050741,3.3938171288902392,-1.0386074459745795,-0.4056490145078518,0.7289960375716313,0.7829949596937074,2,left
3.475,0.09453744153870207,1.5182766739532214,0.02917470295683566,-2.3093950292002403,3.462451236121124,-1.039663247456172,-0.40982306190348555,0.7292523217609707,0.805396454306746,2,left
3.478,0.10200423589435148,1.5147844975749916,0.031154076265692242,-2.3437417676044925,3.5307311838711937,-1.040674528282349,-0.41405150869742485,0.7292806462131679,0.8281465521413656,2,left
3.4789999999999996,0.10961446632406273,1.5110156334723408,0.03316045869325335,-2.3773476719314433,3.5986067686446828,-1.041644669915286,-0.41833470261730415,0.7290767461197998,0.8512413836620516,2,left
3.484,0.11736263262363901,1.5069689477728685,0.035194885353486215,-2.4101787563055557,3.666027869463313,-1.0425768738798056,-0.4226728950291258,0.728636543148191,0.8746767113319296,2,left
3.485,0.12524307024289,1.5026433854047336,0.03725838132792414,-2.442201353509889,3.7329444922217276,-1.0434741464253923,-0.42706623445175634,0.7279561523877088,0.8984479173242301,2,left
3.488,0.1332499547053112,1.4980379755543871,0.03935195574683255,-2.473382162931829,3.799306812646677,-1.044339283891781,-0.43151475991392874,0.727031889037509,0.9225499910714362,2,left
3.489,0.14137730567755266,1.493151838347661,0.041476595562192145,-2.5036882993467144,3.865065218053533,-1.0451748587808138,-0.43601839416621213,0.7258602748344632,0.946977516719425,2,left
3.495,0.14961899068215373,1.4879841927379571,0.043633259056151785,-2.5330873426312888,3.93017034809226,-1.0459832065371402,-0.44057693676057075,0.7244380442193019,0.9717246605548799,2,left
3.4960000000000004,0.15796872848171228,1.4825343655407164,0.04582286913591228,-2.561547388496465,3.9945731346733746,-1.046766413040257,-0.4451900570102905,0.7227621502383137,0.996785158475204,2,left
3.4989999999999997,0.16642009220295198,1.4768018015036306,0.04804630647074623,-2.5890371003264057,4.0582248412627,-1.0475263028102915,-0.449857286843211,0.7208297701772244,1.022152303571093,2,left
3.4989999999999997,0.1749665123079421,1.4707860742527339,0.050304402533464014,-2.6155257622083075,4.121077101731823,-1.0482644279298527,-0.4545780135613575,0.7186383109231672,1.0478189338928479,2,left
3.503,0.18360127954918845,1.4644868979115515,0.052597932614377195,-2.6409833332345674,4.18308195894918,-1.0489820576842095,-0.45935147252022535,0.7161854140499213,1.0737774204724009,2,left
3.5039999999999996,0.19231754806079976,1.457904139158041,0.054927608874372785,-2.665380503156251,4.2441919032945155,-1.0496801689219755,-0.46417673974112056,0.7134689606208631,1.1000196556739208,2,left
3.508,0.2011083387395846,1.451037829464079,0.05729407349226166,-2.6886887494638856,4.304359911277154,-1.05035943713843,-0.46905272447011964,0.7104870757033284,1.1265370419467056,2,left
3.509,0.2099665430623232,1.4438881772549947,0.05969789194456456,-2.7108803959686427,4.3635394844361315,-1.0510202282835346,-0.4739781616973565,0.707238132587336,1.1533204810549216,2,left
3.512,0.21888492747616717,1.4364555797319492,0.06213954644313381,-2.731928672953947,4.42168468869762,-1.0516625912966535,-0.4789516046504977,0.7037207567008645,1.1803603638595568,2,left
3.513,0.22785613849316774,1.4287406341188538,0.06461942955691785,-2.7518077789644,4.478750194362392,-1.0522862513699307,-0.4839714172764097,0.6999338292131118,1.2076465607287454,2,left
3.5180000000000002,0.23687270861408763,1.420744148129522,0.06713783806312609,-2.770492944295717,4.534691316893244,-1.0528906039422197,-0.4890357667251657,0.6958764903164011,1.2351684126533853,2,left
3.5189999999999997,0.24592706319329666,1.4124671494991257,0.06969496710421716,-2.787960496246085,4.589464058669306,-1.0534747094254147,-0.49414261585872227,0.6915481421761344,1.2629147231381719,2,left
3.52,0.25501152833279594,1.4039108944797807,0.07229090475162094,-2.804187926185999,4.643025151871084,-1.0540372886649696,-0.4992897158469728,0.6869484515349483,1.290873750901222,2,left
3.523,0.26411833986238514,1.3950768752532057,0.07492562707883565,-2.8191539585001983,4.695332102656832,-1.054576719136342,-0.5044745989864435,0.6820773519520108,1.3190332033483452,2,left
3.5239999999999996,0.2732396534296868,1.3859668262588125,0.07759899383190276,-2.832838621346432,4.746343236688901,-1.0550910318797029,-0.5096945719172608,0.6769350456551462,1.3473802307510048,2,left
3.525,0.28236755569517713,1.376582729469637,0.08031074476609927,-2.8452233186451825,4.796017745572115,-1.0555779091785404,-0.5149467093738918,0.6715220049851719,1.3759014210952876,2,left
3.529,0.29149407660740806,1.3669268186690944,0.083060496686005,-2.8562909017621934,4.844315732875043,-1.0560346829937342,-0.5202278485328381,0.6658389734154893,1.4045827956375507,2,left
3.53,0.300611202714117,1.3570015828014124,0.08584774116966547,-2.866025738814933,4.891198257908229,-1.0564583341679494,-0.525534583980319,0.6598869661316629,1.4334098052406221,2,left
3.533,0.30971089143995123,1.34680976849972,0.08867184288602409,-2.874413780057439,4.936627375922684,-1.0568454924117745,-0.5308632633150245,0.653667270155441,1.4623673275724567,2,left
3.534,0.3187850862446075,1.3363543819238703,0.09153203835821028,-2.881442618742857,4.980566174275591,-1.0571924370769217,-0.5362099834011034,0.647181443996893,1.491439665249611,2,left
3.537,0.3278257325809506,1.3256386900453327,0.09442743501236475,-2.8871015473862043,5.022978804599203,-1.057495098718369,-0.5415705872866229,0.640431316817568,1.5206105450083185,2,left
3.537,0.33682479459479403,1.314666221499883,0.09735701038763567,-2.89138160945143,5.063830511103353,-1.0577490614465481,-0.5469406618027997,0.6334189870868105,1.549863117986315,2,left
3.542,0.3457742725282958,1.303440767100509,0.10031961144772733,-2.8942756464829382,5.103087655137723,-1.0579495660705651,-0.5523155358593522,0.6261468207126054,1.579179961198897,2,left
3.543,0.3546662207946157,1.2919663800687256,0.10331395400028415,-2.8957783406978095,5.140717736135654,-1.0580915140333156,-0.5576902794513656,0.6186174486275646,1.6085430802929812,2,left
3.5469999999999997,0.36349276667979796,1.280247376005515,0.10633862227815896,-2.895886253051005,5.17668940905676,-1.0581694721392125,-0.5630597033930844,0.6108337638099167,1.637933913663156,2,left
3.5469999999999997,0.3722461296021441,1.2682883325870469,0.10939206876101593,-2.8945978567818558,5.210972498441059,-1.0581776780750907,-0.5684183597940641,0.6027989177186138,1.6673333380139124,2,left
3.553,0.380918640825567,1.2560940889396226,0.11247261432242978,-2.8919135664461417,5.243538009182661,-1.0581100467246862,-0.5737605432931103,0.5945163161209325,1.6967216754523584,2,left
3.554,0.38950276348814344,1.2436697446266705,0.11557844878474938,-2.887835762434074,5.274358134126271,-1.0579601772769005,-0.5790802930654194,0.5859896142902139,1.7260787021958184,2,left
3.5580000000000003,0.3979911127748274,1.231020658168895,0.11870763195586198,-2.8823688109704744,5.30340625858495,-1.0577213611278609,-0.5843713956183006,0.5772227115506705,1.755383658978722,2,left
3.5589999999999997,0.40637647603599647,1.2181524450159817,0.12185809520958918,-2.8755190795894454,5.330656961872601,-1.0573865905765687,-0.5896273883908145,0.5682197451454714,1.7846152632431693,2,left
3.5610000000000004,0.41465183263306515,1.205070974893512,0.12502764365569072,-2.867294948071836,5.356086015939692,-1.0569485683136914,-0.5948415641725974,0.5589850834036214,1.8137517231974605,2,left
3.563,0.42281037328094806,1.1917823684600855,0.1282139589289427,-2.8577068148297924,5.379670381195568,-1.0563997177027933,-0.6000069763570561,0.5495233181804574,1.8427707538267304,2,left
3.5660000000000003,0.43084551865543136,1.178292993224078,0.13141460261248994,-2.8467670987187588,5.401388199595637,-1.0557321938530344,-0.605116445044019,0.5398392565459061,1.8716495949396144,2,left
3.5669999999999997,0.43875093704139256,1.1646094586851825,0.13462702029956358,-2.8344902362533047,5.421218785066371,-1.0549378954820559,-0.6101625640068064,0.5299379116939885,1.9003650313346003,2,left
3.573,0.446520560815223,1.1507386106830921,0.13784854628747267,-2.820892674199269,5.439142611335883,-1.0540084775674625,-0.6151377085385449,0.5198244930463964,1.9288934151693813,2,left
3.575,0.45414860158101866,1.1366875249535242,0.14107640888584913,-2.805992857510831,5.455141297232382,-1.0529353647849669,-0.620034044192386,0.509504395522335,1.9572106906161182,2,left
3.577,0.46162956381327513,1.1224634999070673,0.14430773630810093,-2.78981121257726,5.469197589507459,-1.0517097657308927,-0.6248435364301104,0.49898318794619545,1.9852924208850562,2,left
3.577,0.4689582568960285,1.108074048657054,0.1475395631042863,-2.7723701257403386,5.481295343235642,-1.050322687926353,-0.6295579611933926,0.48826660056402077,2.0131138176983976,2,left
3.5810000000000004,0.47612980548631006,1.093526890330626,0.15076883708783106,-2.753693917039687,5.4914194998361365,-1.0487649535999983,-0.6341689164117751,0.4773605116391245,2.0406497732957227,2,left
3.582,0.48313965816657845,1.0788299407058126,0.15399242670824353,-2.7338088091395614,5.499556062757123,-1.047027216245796,-0.6386678344611492,0.4662709330966544,2.067874895051579,2,left
3.5860000000000003,0.48998359438614636,1.0639913022277137,0.1572071288263398,-2.712742891387066,5.505692070857298,-1.0450999779518368,-0.6430459955862692,0.45500399518632545,2.094763542785109,2,left
3.5869999999999997,0.4966577297232633,1.0490192534641969,0.16040967685597313,-2.690526078948191,5.509815569513737,-1.04297360749567,-0.6472945422824559,0.4435659301743828,2.1212898687695314,2,left
3.5869999999999997,0.5031585195216434,1.0339222380579502,0.16359674924545434,-2.667190066964605,5.511915579479429,-1.0406383592011594,-0.6514044945409667,0.43196305528721507,2.147427860092218,2,left
3.592,0.5094827609648545,1.0187088532165542,0.16676497828091946,-2.642768279743373,5.511982063598577,-1.038084392548384,-0.6553667656995219,0.420201755509923,2.1731513823740336,2,left
3.592,0.5156275936543174,1.0033878377666814,0.16991095919987945,-2.617295815351506,5.510005891934652,-1.035301792512945,-0.6591721785487455,0.4082884670545451,2.1984342234993957,2,left
3.593,0.5215904987602199,0.9879680597937578,0.17303125960316554,-2.5908093866375865,5.5059788066750315,-1.0322805905841896,-0.6628114814352412,0.3962296621002817,2.2232501363635526,2,left
3.597,0.527369296826114,0.9724585038980256,0.1761224291451883,-2.563347260062634,5.499893388622857,-1.029010786396638,-0.6662753642642348,0.3840318350262084,2.2475728802835206,2,left
3.5980000000000003,0.5329621443276291,0.9568682581180944,0.1791810094662544,-2.534949193356307,5.491743026628246,-1.0254823699228355,-0.6695544743946279,0.3717014901446461,2.2713762610740127,2,left
3.602,0.5383675291026606,0.9412065005914324,0.18220354431240568,-2.505656372358118,5.48152189049041,-1.0216853442014227,-0.6726394324368932,0.35924513090056,2.294634169859598,2,left
3.602,0.5435842647730509,0.9254824860280888,0.1851865897741344,-2.4755113470374592,5.469224907403705,-1.0176097485880913,-0.6755208479637461,0.34666925050195985,2.3173206206929042,2,left
3.6060000000000003,0.5486114842671523,0.9097055320726464,0.1881267245667194,-2.4445579666109625,5.454847741924184,-1.0132456825192682,-0.6781893351429902,0.33398032394589516,2.3394097870471895,2,left
3.6069999999999998,0.5534486325365794,0.8938850056267288,0.19102056027109524,-2.412841313673115,5.438386779427289,-1.008583329777599,-0.6806355283013787,0.3211848014042739,2.360876037250039,2,left
3.611,0.558095458544098,0.8780303092011794,0.19386475145542573,-2.380407637253641,5.419839113021341,-1.0036129832475003,-0.6828500974277508,0.3082891029333925,2.381693968923305,2,left
3.611,0.5625520065852303,0.862150867361679,0.19665600560410026,-2.3473042847128256,5.3992025338755125,-0.9983250701482231,-0.684823763623086,0.29529961447073877,2.4018384424926955,2,left
3.617,0.5668186069949314,0.846256113324289,0.1993910927911486,-2.313579632383758,5.376475524914997,-0.9927101777310143,-0.6865473145044851,0.28222268508232345,2.42128461382861,2,left
3.6180000000000003,0.5708958662832515,0.8303554757499824,0.20206685504643465,-2.27928301486843,5.351657257830089,-0.9867590794260749,-0.6880116195694214,0.2690646254235085,2.440007966077991,2,left
3.6210000000000004,0.5747846567406927,0.8144583657806157,0.20468021537414602,-2.2444646528926917,5.3247475933398825,-0.9804627614241055,-0.6892076455259081,0.25583170737603017,2.45798434074499,2,left
3.622,0.5784861055551634,0.798574164352412,0.20722818639400734,-2.209175579623298,5.295747084645288,-0.9738124496762888,-0.6901264715935175,0.24253016482366388,2.4751899680762746,2,left
3.6260000000000003,0.5820015834867811,0.7827122098164505,0.20970787858509052,-2.173467565348617,5.264656984000095,-0.966799637295593,-0.6907593047794365,0.2291661955287452,2.4916014968046984,2,left
3.627,0.585332693151879,0.7668817858895677,0.21211650811811958,-2.1373930404230945,5.231479252322769,-0.9594161123412905,-0.691097495132976,0.21574596407154528,2.5071960233029342,2,left
3.63,0.5884812569717113,0.7510921099543046,0.21445140426529144,-2.1010050163742053,5.1962165717656505,-0.9516539859675683,-0.6911325509811556,0.20227560581430232,2.5219511201964386,2,left
3.6310000000000002,0.5914493048436185,0.735352321722884,0.2167100163796358,-2.064357005069428,5.158872361152282,-0.9435057209160674,-0.6908561541471602,0.18876123185153187,2.5358448644828506,2,left
3.634,0.5942390615928703,0.7196714722768047,0.21888992043950636,-2.027502935839727,5.119450794187539,-0.9349641603311222,-0.6902601751526257,0.17520893490807582,2.548855865202574,2,left
3.637,0.5968529342635702,0.7040585134903782,0.22098882515558346,-1.9904970704551146,5.077956820339275,-0.9260225568753861,-0.6893366884038332,0.1616247961462064,2.560963290702885,2,left
3.637,0.599293499308551,0.6885222878435303,0.2230045776368293,-1.95339391584714,5.0343961882842105,-0.91667460212242,-0.6880779873610019,0.14801489284297553,2.572146895535423,2,left
3.642,0.6015634897411338,0.6730715186258064,0.22493516861035567,-1.9162481344725444,4.988775471804828,-0.9069144562016906,-0.686476599688951,0.13438530689889044,2.5823870470244117,2,left
3.6439999999999997,0.6036657823145801,0.6577148005294691,0.22677873718956343,-1.87911445221189,4.941102098018084,-0.8967367776702793,-0.6845253023864621,0.12074213413890489,2.5916647515403337,2,left
3.648,0.6056033847966362,0.6424605906259824,0.2285335751843366,-1.8420475636967009,4.891384377810822,-0.8861367535844341,-0.6822171368907075,0.10709149436664132,2.599961680511154,2,left
3.648,0.6073794234060644,0.6273171997177104,0.23019813094616728,-1.8051020349585147,4.839631538350826,-0.8751101297429151,-0.6795454241521309,0.09343954213270331,2.6072601962004662,2,left
3.6519999999999997,0.6089971304746657,0.6122927840552506,0.23177101274008194,-1.7683322032932933,4.785853757536604,-0.8636532410728853,-0.6765037796741602,0.07979247817789802,2.613543377279171,2,left
3.653,0.6104598323905155,0.5973953374103126,0.23325099163358085,-1.7317920742348234,4.730062200243079,-0.8517630421278868,-0.673086128504368,0.06615656148345807,2.618795044193845,2,left
3.654,0.6117709378659332,0.5826326834929437,0.2346370038913639,-1.6955352155310928,4.672269056214551,-0.8394371376662177,-0.6692867201289666,0.05253812171680139,2.6229997842288655,2,left
3.657,0.612933926560777,0.5680124686994926,0.23592815286523533,-1.6596146480181282,4.612487579450446,-0.8266738132767901,-0.6651001431608262,0.0389435716029973,2.6261429759706623,2,left
3.657,0.6139523380830121,0.5535421551781975,0.23712371037000257,-1.6240827332864374,4.5507321289236184,-0.8134720660183081,-0.660521339676435,0.025379418608592753,2.62821081277628,2,left
3.662,0.6148297613849173,0.5392290142049584,0.23822311753649822,-1.5889910581962,4.487018210424856,-0.7998316349914291,-0.655545619089814,0.011852275468049562,2.6291903249486537,2,left
3.6630000000000003,0.615569824570702,0.5250801198660349,0.23922598513374832,-1.5543903170992488,4.421362519119721,-0.7857530315377078,-0.650168671510924,-0.0016311306585032079,2.62906940050373,2,left
3.6639999999999997,0.6161761851266905,0.5111023430426416,0.24013209335589678,-1.520330194068677,4.353782982035008,-0.7712375683535598,-0.6443865805686619,-0.015063950463862944,2.6278368045147156,2,left
3.668,0.6166525205797925,0.497302345691496,0.24094139107571447,-1.48685924823909,4.284298799484672,-0.7562873865816159,-0.6381958356841464,-0.0284392062475387,2.625482197036229,2,left
3.6689999999999996,0.6170025195861528,0.4836865754208647,0.24165399457492634,-1.454024804561012,4.212930484641285,-0.7409054801651881,-0.6315933437788338,-0.04174978718344738,2.6219961496079884,2,left
3.6719999999999997,0.6172298734503601,0.4702612603688872,0.24227018577058052,-1.4218728508328198,4.139699900816785,-0.7250957171546193,-0.6245764404008501,-0.054988446140094786,2.617370160334472,2,left
3.6719999999999997,0.6173382680757604,0.45703240439485726,0.24279040996309426,-1.3904479410743398,4.064630296212593,-0.7088628578776522,-0.6171429002517467,-0.0681477980916497,2.6115966675337687,2,left
3.677,0.6173313763484565,0.44400578259588896,0.2432152731337175,-1.3597931051478853,3.987746335934126,-0.6922125699296395,-0.6092909470947043,-0.08122032015813321,2.6046690619455837,2,left
3.678,0.6172128509618157,0.4311869371630399,0.24354553881700186,-1.329949764534464,3.9090741310593757,-0.6751514399381862,-0.6010192630240278,-0.09419835331273849,2.5965816974850937,2,left
3.681,0.616986317693638,0.4185811735921837,0.24378212456795437,-1.3009576541749708,3.828641264545965,-0.6576869820556057,-0.5923269970745689,-0.10707410579406802,2.5873299005260533,2,left
3.682,0.6166553691524025,0.40619355726551665,0.24392609803573592,-1.2728547502883956,3.7464768137558555,-0.6398276431313701,-0.5832137731485201,-0.11983965826082585,2.576909977693237,2,left
3.6860000000000004,0.6162235590111892,0.394028910420416,0.2439786726486443,-1.2456772040813995,3.6626113693717746,-0.6215828045155596,-0.5736796972358131,-0.13248697072623045,2.565319222140977,2,left
3.687,0.6156943967485086,0.38209180952340616,0.2439412029101517,-1.2194592812660519,3.5770770504743594,-0.6029627804431589,-0.563725363903154,-0.14500789130911956,2.552555918291206,2,left
3.6910000000000003,0.6150713429145674,0.3703865830666897,0.2438151793032982,-1.1942333073050755,3.489907515544038,-0.5839788129479155,-0.5533518620255116,-0.15739416683840185,2.5386193450010737,2,left
3.6910000000000003,0.6143578049376063,0.35891730980259845,0.24360222280105936,-1.1700296183066001,3.401137969146806,-0.5646430632533691,-0.5425607797326747,-0.16963745534717042,2.523509777126825,2,left
3.696,0.613557133475595,0.3476878174291177,0.2433040789841719,-1.146876517493176,3.3108051640582468,-0.5449685995875854,-0.5313542085422824,-0.18172934049242903,2.5072284854472846,2,left
3.697,0.6126726193046054,0.3367016817386683,0.24292261177554383,-1.1248002371726464,3.2189473985754553,-0.5249693813670868,-0.5197347466495311,-0.19366134793599638,2.489777734906902,2,left
3.702,0.6117074907218077,0.325962226241856,0.24245979680973098,-1.1038249061414083,3.1256045087619437,-0.5046602396944597,-0.5077055013425633,-0.20542496372174138,2.4711607811349605,2,left
3.7030000000000003,0.6106649114330722,0.3154725222764874,0.2419177144639279,-1.0839725224536056,3.0308178553660925,-0.4840568541131492,-0.4952700905113492,-0.21701165468386824,2.451381865194182,2,left
3.707,0.6095479788916065,0.30523538960928526,0.24129854258302763,-1.0652629314928876,2.934630305149365,-0.46317572556202175,-0.4824326432166895,-0.22841289092051034,2.4304462065086025,2,left
3.708,0.6083597230517955,0.29525339753385726,0.2406045489373884,-1.0477138092865221,2.8370862063562186,-0.4420341454713858,-0.46919779928479,-0.23962017036640842,2.4083599939172444,2,left
3.71,0.6071031055015186,0.28552886646456466,0.2398380834577046,-1.0313406510048793,2.7382313580535067,-0.4206501609413187,-0.4555707078916921,-0.25062504549794,2.38513037479678,2,left
3.7110000000000003,0.6057810189377608,0.2760638700227597,0.23900157029467756,-1.0161567645925704,2.6381129730631514,-0.39904253594234984,-0.4415570251006926,-0.26141915220323464,2.360765442193057,2,left
3.716,0.6043962869537295,0.26686023760919625,0.2380974997522732,-1.0021732694808685,2.536779634207963,-0.3772307084778066,-0.427162910314742,-0.271994240849552,2.335274219898051,2,left
3.717,0.6029516641097168,0.2579195574536148,0.23712842014368005,-0.9893991003343955,2.4342812435867236,-0.35523474364643154,-0.4123950216046871,-0.2823422095795196,2.3086666454055322,2,left
3.72,0.6014498362635687,0.24924318012983765,0.23609692961721768,-0.9778410157884877,2.330668964591029,-0.3330752825432401,-0.3972605098935419,-0.2924551397935662,2.2809535507301644,2,left
3.722,0.5998934211397559,0.24083222252254616,0.2350056679924852,-0.9675036121370854,2.225995156372892,-0.3107734869360032,-0.3817670120780171,-0.3023253334069873,2.2521466413449938,2,left
3.722,0.5982849691190448,0.23268757222968264,0.23385730863630227,-0.9583893419344622,2.1203133004687653,-0.2883509796542098,-0.3659226433513172,-0.31194535080654123,2.2222584739813267,2,left
3.725,0.596626964232322,0.22480989238237747,0.23265455040103067,-0.950498537477605,2.0136779192824457,-0.2658297806268968,-0.3497359890922999,-0.3213080480625251,2.1913024343052925,2,left
3.725,0.5949218253414443,0.2171996268635595,0.23140010965095506,-0.9438294391395491,1.9061444861262802,-0.24323223850532638,-0.3332160965829253,-0.33040661231985746,2.159292715208778,2,left
3.73,0.5931719074894497,0.20985700590645937,0.23009671241230611,-0.9383782284732888,1.797769326772857,-0.22058095793526822,-0.3163724666310628,-0.3392345949538627,2.126244295957062,2,left
3.7319999999999998,0.5913795034040882,0.20278205205387254,0.22874708668934146,-0.9341390657383878,1.6886095137449848,-0.19789872318898755,-0.2992150450726035,-0.34778594244398436,2.09217292215895,2,left
3.7319999999999998,0.5895468451417383,0.1959745864580491,0.2273539549876566,-0.9311041310181168,1.5787227568701947,-0.17520842002894357,-0.2817542141054412,-0.3560550249915515,2.0570950864674833,2,left
3.735,0.5876761058619956,0.18943423549868438,0.2259200270819417,-0.9292636678274382,1.4681672949019313,-0.1525329583206744,-0.26400078340695626,-0.36403666290694603,2.0210280099163227,2,left
3.735,0.5857694017256824,0.18316043769217724,0.22444799306397015,-0.928606028386636,1.357001791729005,-0.12989519726663068,-0.24596598098573585,-0.37172615079072346,1.9839896237939552,2,left
3.74,0.5838287939103379,0.1771524508608707,0.2229405167043387,-0.9291177202266515,1.245285238391765,-0.10731787397057371,-0.22766144371739347,-0.3791192795324321,1.9459985519550005,2,left
3.74,0.5818562907372581,0.17140935952837563,0.22140022915555824,-0.9307834540666082,1.1330768608431945,-0.08482353539657135,-0.20909920751351127,-0.3862123561500485,1.9070740934650376,2,left
3.745,0.5798538499019448,0.16593008250543895,0.21982972301803205,-0.9335861929616106,1.020436033135703,-0.06243447365760844,-0.19029169707192106,-0.39300222149211134,1.867236205472597,2,left
3.7460000000000004,0.5778233807946075,0.16071338062824447,0.21823154678716603,-0.9375072027222532,0.9074221957128151,-0.04017266456900173,-0.1712517151557655,-0.39948626582378294,1.8265054861992156,2,left
3.7510000000000003,0.575766746890349,0.15575786460777064,0.21660819969848985,-0.9425261036105883,0.794094778483536,-0.018059709402047035,-0.1519924313480425,-0.4056624423172088,1.784903157935781,2,left
3.752,0.5736857681823795,0.15106200294651442,0.21496212698645975,-0.9486209233205634,0.6805131283559362,0.00388322022637198,-0.13252737022763078,-0.4115292784656748,1.7424510499307664,2,left
3.755,0.5715822236279132,0.146624129878884,0.213295715570262,-0.9557681512541489,0.5667364409054242,0.025635434392118933,-0.11287039891212879,-0.4170858854401848,1.699171581053391,2,left
3.7560000000000002,0.5694578535755087,0.14244245329444738,0.21161129017533534,-0.9639427941075257,0.4528236958522756,0.047176773893562986,-0.09303571391220868,-0.422331965406198,1.6550877421122425,2,left
3.76,0.5673143621431646,0.13851506260788524,0.20991110989205605,-0.9731184327847922,0.3388335960222567,0.06848765633575174,-0.07303782724159781,-0.42726781681737735,1.6102230777074558,2,left
3.761,0.5651534195170766,0.13483993654395304,0.20819736516463586,-0.9832672806596674,0.22482450946361837,0.08954911933144381,-0.05289155172624891,-0.43189433770231217,1.5646016674921666,2,left
3.765,0.562976664141029,0.13141495080999915,0.20647217519634872,-0.9943602432086193,0.11085441439334727,0.1103428608808413,-0.032611985455750316,-0.4362130269592855,1.5182481067166487,2,left
3.766,0.5607857047658583,0.12823788563391178,0.20473758575278667,-1.0063669790417151,-0.0030191533546640305,0.13085127699120194,-0.012214495319559792,-0.4402259836732671,1.4711874859263057,2,left
3.77,0.5585821223279858,0.12530643315098108,0.202995567342408,-1.0192559623602875,-0.11673915070692104,0.1510574965967953,0.00828530042978068,-0.44393590446842734,1.4234453696825091,2,left
3.77,0.5563674716266648,0.12261820462642538,0.20124801375282708,-1.0329945468732165,-0.23024907588038654,0.17094541383890036,0.028871550644673623,-0.4473460789085814,1.3750477741731773,2,left
3.775,0.5541432827720204,0.12017073750050422,0.19949674092218392,-1.0475490312062552,-0.34349301539230115,0.19049971776472296,0.04952819084030132,-0.45046038295709906,1.3260211435779539,2,left
3.7760000000000002,0.5519110623808089,0.11796150224202848,0.1977434861271675,-1.0628847258413519,-0.45641568987633024,0.20970591950324588,0.0702389639011239,-0.4532832705069437,1.2763923250508982,2,left
3.78,0.5496722945043115,0.11598790899505697,0.19598990747171055,-1.0789660216253636,-0.5689624990310012,0.22855037697511063,0.0909874419951444,-0.4558197629906469,1.2261885421817036,2,left
3.78,0.5474284412822813,0.1142473140023799,0.19423758366152122,-1.0957564598899008,-0.6810795660256305,0.247020317192675,0.11175704975524693,-0.4580754370791729,1.175437366794667,2,left
3.786,0.5451809433278213,0.11273702578786549,0.19248801404901839,-1.1132188042262774,-0.7927137816880213,0.26510385620539045,0.13253108878706904,-0.4600564104777949,1.1241666889428947,2,left
3.787,0.542931219859144,0.1114543110791566,0.19074261893254055,-1.1313151139616882,-0.9038128487971319,0.2827900167446072,0.15329276356297736,-0.4617693258262796,1.0724046849535842,2,left
3.7889999999999997,0.5406806686024469,0.11039640045368226,0.1890027400947287,-1.1500068193847663,-1.014325326802682,0.3000687436208411,0.17402520871221705,-0.46322133273943866,1.0201797834633661,2,left
3.79,0.5384306654928162,0.10956049369379978,0.1872696415669282,-1.1692547987706068,-1.1242006772922803,0.3169309169254274,0.1947115174695223,-0.4644200681711222,0.9675206298048247,2,left
3.79,0.5361825641979431,0.10894376484017705,0.18554451060614535,-1.1890194572571517,-1.2333893105251221,0.33336836308734696,0.2153347705984072,-0.46537363555002575,0.9144560498664042,2,left
3.7960000000000003,0.5339376954886204,0.10854336693620038,0.1838284588661826,-1.2092608076265587,-1.3418426333496176,0.3493738638348435,0.23587806485747626,-0.4660905832827426,0.8610150149701999,2,left
3.798,0.5316973664847753,0.10835643645987762,0.18212252373661975,-1.2299385530467524,-1.4495130988204912,0.36494116311025354,0.2563245403257577,-0.4665798830709555,0.8072266088872675,2,left
3.798,0.5294628598127055,0.10838009744268459,0.1804276698164087,-1.2510121718298597,-1.5563542578289118,0.38006497198525535,0.27665740634891284,-0.46685090822289893,0.7531199973464116,2,left
3.799,0.5272354327126584,0.10861146527686007,0.17874479048516412,-1.2724410041559358,-1.6623208128935028,0.3947409716112665,0.29685996611574206,-0.4669134119907335,0.6987243999677185,2,left
3.8,0.525016316133147,0.10904765021413414,0.17707470953535454,-1.294184340163405,-1.7673686734397704,0.4089658141822895,0.3169156399236881,-0.46677750593525763,0.6440690644663761,2,left
3.804,0.5228067138403685,0.10968576056088022,0.17541818283277397,-1.3162015078219382,-1.8714550104206122,0.4227371217851171,0.33680798719171173,-0.46645363831875675,0.5891832429714092,2,left
3.805,0.5206078015644772,0.11052290557876104,0.1737758999775874,-1.3384519584562662,-1.9745383073100018,0.4360534829543474,0.35652072727854073,-0.4659525725261912,0.5340961703031294,2,left
3.8089999999999997,0.5184207262048254,0.11155619810573368,0.17214848593983262,-1.3608953483385733,-2.0765784053173646,0.44891444680454334,0.3760377591638711,-0.4652853655143546,0.47883704405235294,2,left
3.81,0.5162466051205082,0.11278275691723141,0.17053650264273906,-1.3834916157547423,-2.1775365421399018,0.4613205147116821,0.3953431800496314,-0.46446334628809494,0.42343500630377695,2,left
3.8139999999999996,0.5140865255353448,0.11419970885036648,0.16894045046707679,-1.4062010534986347,-2.277375384385292,0.47327312957091516,0.41442130293790386,-0.46349809440218465,0.36791912684532563,2,left
3.8139999999999996,0.511941544086368,0.11580419071602081,0.16736076964958418,-1.4289843768587922,-2.3760590539578255,0.4847746626675845,0.4332566732415369,-0.462401418486946,0.312318387704786,2,left
3.818,0.5098126865414945,0.11759335102496463,0.16579784154925012,-1.4518027871623895,-2.4735531486979125,0.49582839819713753,0.4518340844828737,-0.46118533479529444,0.2566616688546386,2,left
3.819,0.5077009477054685,0.11956435155473961,0.1642519897595757,-1.4746180309415913,-2.5698247575617046,0.5064385154682836,0.4701385931353697,-0.4598620457684547,0.20097773492566517,2,left
3.825,0.5056072915263875,0.12171436878426775,0.16272348105270912,-1.4973924547876802,-2.6648424706242397,0.5166100688224388,0.488155532662175,-0.45844391861722306,0.14529522276966808,2,left
3.826,0.503532651410897,0.12404059522208367,0.1612125261500083,-1.5200890559584208,-2.7585763841861195,0.5263489653012238,0.5058705268050185,-0.45694346391531,0.08964262971147707,2,left
3.8280000000000003,0.501477930753975,0.12654024065054018,0.15971928032272414,-1.5426715288041275,-2.8509981012602097,0.5356619400925036,0.5232695021759457,-0.4553733142009868,0.03404830233034001,2,left
3.8289999999999997,0.49944400368860137,0.12921053330245408,0.1582438438363733,-1.5651043070777786,-2.9420807277112666,0.5445565297842037,0.5403387002036363,-0.45374620258299136,-0.021459574389202474,2,left
3.833,0.4974317160639244,0.13204872097975096,0.15678626225996473,-1.5873526021942963,-3.031798864317692,0.5530410434538944,0.5570646884851633,-0.4520749413464076,-0.07685298769677189,2,left
3.8339999999999996,0.49544188666828526,0.1350520721170594,0.15534652666357948,-1.6093824375037933,-3.1201285950208706,0.5611245316209128,0.5734343715931453,-0.4503724005540371,-0.1321041076655837,2,left
3.838,0.49347530872067213,0.1382178767872687,0.15392457372620727,-1.6311606786431527,-3.207047471623684,0.5688167530865915,0.5894350013872974,-0.44865148663861526,-0.18718529789125485,2,left
3.838,0.49153275165641314,0.14154344764102916,0.15252028577204646,-1.6526550600297842,-3.292534495195891,0.5761281396869885,0.6050541868784057,-0.4469251209810994,-0.2420691264590578,2,left
3.843,0.4896149632312447,0.14502612076877977,0.15113349074683255,-1.673834207560767,-3.3765700944400687,0.58306975898136,0.6202799036917181,-0.44520621847016484,-0.2967283773382827,2,left
3.844,0.4877226719646801,0.14866325647194878,0.14976396213619242,-1.6946676575798774,-3.459136101267771,0.5896532748984973,0.6351005031756958,-0.4435076660379937,-0.3511360623618831,2,left
3.8480000000000003,0.48585658993881975,0.15245223992876625,0.14841141881882486,-1.7151258721741744,-3.5402157238314373,0.5958909063619535,0.6495047212009654,-0.4418423011674244,-0.4052654339490121,2,left
3.8480000000000003,0.4840174159613064,0.15639048174028294,0.14707552484264586,-1.7351802508609289,-3.6197935172534246,0.6017953839141292,0.6634816866931881,-0.4402228903655521,-0.4590899987274137,2,left
3.852,0.4822058390905414,0.16047541834466278,0.14575588911325751,-1.7548031387246732,-3.697855352289324,0.6073799043581533,0.6770209299423957,-0.4386621075989276,-0.5125835322119088,2,left
3.853,0.48042254250778443,0.16470451229204894,0.14445206498896004,-1.7739678310630864,-3.7743883821584365,0.6126580834355069,0.6901123907301512,-0.4371725126855985,-0.5657200946944194,2,left
3.8569999999999998,0.4786682077045237,0.1690752523771643,0.1431635497825892,-1.7926485745992626,-3.8493810077699973,0.6176439065563818,0.7027464263146618,-0.43576652963936846,-0.6184740485000974,2,left
3.858,0.47694351893602455,0.1735851536319396,0.14188978417716866,-1.8108205653166791,-3.9228228415693605,0.6223516775988426,0.7149138193010797,-0.43445642497238696,-0.670820076695329,2,left
3.858,0.47524916787966476,0.17823175718568585,0.14063015156845893,-1.8284599429718624,-3.994704670223984,0.6267959657919886,0.7266057853647437,-0.43325428601524324,-0.7227332029931324,2,left
3.863,0.47358585843340933,0.18301263000531193,0.13938397735202962,-1.8455437823383638,-4.065018416364621,0.6309915506974673,0.7378139806890482,-0.43217199940911244,-0.774188811989752,2,left
3.864,0.47195431158550455,0.1879253645331208,0.13815052818001244,-1.8620500812341962,-4.133757099592688,0.6349533653028948,0.748530508920096,-0.4312212299776318,-0.8251626685258552,2,left
3.8680000000000003,0.470355270272848,0.19296757824439262,0.13692901122666412,-1.8779577454393817,-4.200914796943145,0.6386964373133915,0.7587479274971167,-0.4304134001336404,-0.8756309353037225,2,left
3.8689999999999998,0.4687895041360543,0.19813691314910814,0.1357185735138384,-1.8932465708888075,-4.266486602902104,0.6422358290937604,0.7684592533209992,-0.42975966988112363,-0.9255701885011224,2,left
3.8689999999999998,0.4672578140872552,0.20343103526105513,0.13451830134907852,-1.9078972240281695,-4.330468588919687,0.6455865773738314,0.7776579677800669,-0.42927091742022594,-0.9749574314604066,2,left
3.8739999999999997,0.4657610366193064,0.2088476340557188,0.13332721992838437,-1.9218912214992034,-4.392857762268486,0.6487636341959031,0.7863380211624347,-0.4289577203530346,-1.023770106597759,2,left
3.875,0.4643000477855888,0.2143844219373043,0.13214429316207288,-1.9352109100384933,-4.453652024179033,0.6517818102155937,0.7944938364828295,-0.4288303374882813,-1.0719861056760083,2,left
3.877,0.46287576677289033,0.22003913373304917,0.13096842378867565,-1.9478394469680693,-4.512850127333331,0.6546557208062003,0.802120312750289,-0.4288986912435794,-1.1195837785828358,2,left
3.878,0.4614891589879263,0.22580952622802353,0.12979845384010139,-1.9597607813739815,-4.570451632878523,0.6573997350491351,0.8092128277016608,-0.42917235064431897,-1.1665419407545525,2,left
3.8810000000000002,0.4601412385827687,0.2316933777470283,0.12863316551470286,-1.970959636011082,-4.626456867135351,0.6600279276191389,0.8157672400243199,-0.42966051491887625,-1.2128398793839146,2,left
3.8810000000000002,0.45883307035205995,0.23768848778412974,0.12747128250841303,-1.9814214899702556,-4.6808668781714555,0.6625540335725589,0.8217798910900058,-0.43037199769035295,-1.258457358548663,2,left
3.886,0.4575657709427803,0.24379267667584353,0.12631147184644267,-1.9911325621423162,-4.733683392405002,0.6649914060466049,0.8272476062201422,-0.43131521176565274,-1.303374623395644,2,left
3.887,0.45634050932563064,0.2500037853099376,0.12515234624668894,-2.0000797955107044,-4.784908771399512,0.6673529768771623,0.8321676955014619,-0.43249815452331497,-1.3475724035134675,2,left
3.891,0.455158506488034,0.2563196748565791,0.12399246703239518,-2.008250842303015,-4.83454596900622,0.6696512201424485,0.8365379541692038,-0.4339283939021692,-1.3910319156247082,2,left
3.892,0.45402103432336005,0.26273822650255446,0.12283034759928738,-2.0156340500292225,-4.882598489005679,0.6718981186395413,0.8403566625735817,-0.43561305499353536,-1.4337348657266409,2,left
3.8960000000000004,0.45292941370693646,0.26925734116429756,0.12166445743288463,-2.0222184484322767,-4.929070343395786,0.6741051333005922,0.8436225857436546,-0.4375588072403864,-1.4756634508074413,2,left
3.898,0.4518850117637932,0.27587493915194583,0.12049322666346006,-2.0279937373745254,-4.973966011468816,0.6762831755553507,0.8463349725611514,-0.4397718522475954,-1.5168003602626587,2,left
3.9019999999999997,0.45088923834608413,0.28258895975419324,0.11931505113771927,-2.032950275681142,-5.017290399815541,0.67844258264648,0.8484935545552145,-0.4422579122081224,-1.5571287771345967,2,left
3.903,0.4499435417517992,0.2893973607123093,0.11812829797838001,-2.0370790709594555,-5.0590488033899135,0.6805930959040278,0.8500985443274445,-0.4450222189507438,-1.596632379295013,2,left
3.906,0.4490494037304407,0.2962981175514742,0.11693131159681026,-2.0403717704107525,-5.099246867763321,0.6827438419853307,0.8511506336150374,-0.4480695036156934,-1.6352953406892805,2,left
3.907,0.44820833383329567,0.3032892227386964,0.11572242011976863,-2.042820652648769,-5.1378905526928715,0.6849033170865773,0.8516509909982156,-0.45140398696536904,-1.6731023327578245,2,left
3.912,0.44742186317450305,0.3103686846395157,0.11449994218838011,-2.044418620536715,-5.174986097123689,0.6870793741322277,0.851601259256564,-0.45502937033805485,-1.7100385261482873,2,left
3.9130000000000003,0.4466915376746178,0.31753452625108314,0.11326219408475309,-2.0451591950522783,-5.210539985740707,0.6892792129484859,0.8510035523772976,-0.45894882725342423,-1.7460895928294535,2,left
3.9189999999999996,0.4460189108610796,0.32478478369725444,0.11200749713781172,-2.045036510187622,-5.244558917180982,0.691509373427044,0.8498604522169003,-0.46316499567940894,-1.7812417087155143,2,left
3.92,0.44540553629990765,0.3321175044814521,0.11073418535432665,-2.0440453088889554,-5.277049774013118,0.6937757316853682,0.8481750048159971,-0.46767997097085634,-1.8154815569067493,2,left
3.9210000000000003,0.44485295972989913,0.3395307455042748,0.10944061321465509,-2.0421809400377917,-5.30801959458594,0.6960834992298573,0.8459507163657485,-0.4724952994912403,-1.8487963316501579,2,left
3.9210000000000003,0.44436271096451924,0.34702257086404026,0.10812516356803838,-2.039439356473528,-5.337475546844175,0.6984372251282954,0.8431915488224905,-0.47761197292954205,-1.8811737431209978,2,left
3.926,0.4439362956186169,0.35459104946791997,0.10678625556248535,-2.0358171140544936,-5.365424904204469,0.7008408011981178,0.8399019151657824,-0.48303042332527457,-1.9126020231235628,2,left
3.926,0.4435751867088557,0.36223425248739144,0.10542235255011408,-2.0313113717521,-5.391875023580753,0.7032974702171328,0.836086674296309,-0.4887505188119485,-1.9430699317658284,2,left
3.927,0.44328081616839204,0.36995025069366483,0.10403196991903614,-2.0259198927702045,-5.4168333256435695,0.7058098371634675,0.8317511255826582,-0.49477156007245776,-1.9725667649546639,2,left
3.93,0.4430545663084381,0.3777371117073238,0.10261368281487943,-2.019641046679286,-5.440307277393671,0.7083798834916475,0.8269010030898841,-0.5010922774688941,-2.0010823621861373,2,left
3.931,0.4428977612569016,0.3855928971938413,0.10116613372427,-2.0124738125524746,-5.462304377125904,0.7110089844518791,0.8215424695353767,-0.5077108287924799,-2.0286071138974426,2,left
3.935,0.4428116584092099,0.3935156600339868,0.09968803989627406,-2.0044177830540533,-5.482832141819256,0.7136979293949205,0.8156821100019415,-0.5146247975978583,-2.055131967849437,2,left
3.9360000000000004,0.4427974399304711,0.40150344149438494,0.09817820057940914,-1.9954731692589927,-5.501898096805571,0.7164469446809534,0.8093269254111153,-0.5218311921186716,-2.080648434375392,2,left
3.9360000000000004,0.4428562043456341,0.4095542684185861,0.09663550405470325,-1.9856408056744634,-5.519509767242793,0.7192557182275676,0.8024843257441555,-0.5293264447798992,-2.1051485905339624,2,left
3.9410000000000003,0.44298895825251483,0.41766615045419947,0.09505893444666086,-1.9749221547622144,-5.535674670735242,0.7221234244079909,0.7951621229938887,-0.5371064123268108,-2.12862508324255,2,left
3.9419999999999997,0.44319660819824275,0.42583707732681303,0.09344757829130017,-1.96331931042765,-5.550400310618352,0.7250487483350198,0.7873685238291737,-0.5451663765912281,-2.151071131464352,2,left
3.945,0.4434799527682834,0.4340650161659381,0.09180063083598235,-1.9508350002439752,-5.5636941697435365,0.7280299091497409,0.7791121219523413,-0.5535010459166209,-2.172480527519454,2,left
3.946,0.4438396749422198,0.44234790888258,0.09011740204256835,-1.9374725863467213,-5.575563704773809,0.7310646822584478,0.7704018901285907,-0.5621045572643726,-2.192847637587405,2,left
3.951,0.4442763347716626,0.45068366959340594,0.08839732226425742,-1.9232360649653275,-5.586016341032489,0.7341504205261541,0.7612471718649769,-0.5709704790243625,-2.2121674014657327,2,left
3.952,0.4447903624356369,0.459070182083376,0.0866399475668619,-1.9081300645559205,-5.595059467943187,0.7372840744352616,0.7516576727152854,-0.5800918145537922,-2.230435331645894,2,left
3.955,0.44538205172821743,0.4675052972966529,0.08484496466639024,-1.8921598424969164,-5.6027004350951835,0.7404622112180966,0.7416434511857946,-0.58946100646896,-2.2476475117651598,2,left
3.955,0.4460515540300581,0.47598683084423604,0.08301219545526976,-1.8753312803065534,-5.608946548964251,0.7436810329721723,0.731214909215647,-0.5990699417154359,-2.2638005944899278,2,left
3.9589999999999996,0.4467988728093257,0.4845125605163814,0.08114160108829396,-1.8576508773389737,-5.613805070314913,0.7469363937671698,0.7203827822043027,-0.6089099574428253,-2.278891798882924,2,left
3.96,0.4476238586916416,0.4930802237890683,0.07923328559720658,-1.8391257429129886,-5.6172832123060985,0.7502238157527631,0.7091581285573297,-0.6189718477110188,-2.292918907303743,2,left
3.965,0.44852620513502245,0.5016875153172182,0.0772874990015099,-1.8197635868251973,-5.619388139318169,0.7535385042765235,0.6975523187205956,-0.629245871055513,-2.305880261889119,2,left
3.966,0.4495054447423583,0.5103320844126951,0.07530463988343439,-1.799572708196683,-5.620126966515261,0.7568753620212461,0.6855770236717678,-0.6397217589400511,-2.3177747606562726,2,left
3.97,0.4505609462383749,0.5190115325108593,0.07328525739774439,-1.7785619826000845,-5.61950676015298,0.7602290021711313,0.6732442028368987,-0.6503887251254666,-2.328601853269634,2,left
3.971,0.45169191213141263,0.5277234106349857,0.07123005269301133,-1.75674084741144,-5.6175345386375,0.7635937606163354,0.6605660913987828,-0.6612354759842226,-2.3383615365081707,2,left
3.975,0.4528973770750585,0.5364652168730983,0.06913987972906756,-1.734119285328818,-5.614217274338194,0.7669637072054608,0.6475551869627084,-0.6722502217907182,-2.347054349467487,2,left
3.9760000000000004,0.4541762069408426,0.5452343938860501,0.06701574548338637,-1.7107078059973988,-5.609561896152039,0.7703326560556099,0.634224235544203,-0.6834206890179809,-2.354681368527797,2,left
3.9789999999999996,0.4555270986095476,0.5540283264680895,0.06485880954624085,-1.6865174256783415,-5.603575292814149,0.7736941749296555,0.6205862168423764,-0.6947341336718793,-2.3612442021158158,2,left
3.98,0.4569485804846761,0.5628443391811315,0.0626703831098695,-1.661559644896472,-5.596264316944913,0.7770415936903957,0.6066543287615135,-0.706177355694472,-2.366744985285539,2,left
3.985,0.4584390137279678,0.5716796940821163,0.060451927358929965,-1.635846423999563,-5.587635789820383,0.7803680118412565,0.5924419711426477,-0.7177367144685565,-2.371186374139822,2,left
3.986,0.4599965942145773,0.5805315885611924,0.05820505126858844,-1.6093901565597362,-5.577696506848727,0.7836663051631859,0.5779627286659658,-0.7293981454558871,-2.3745715401116216,2,left
3.99,0.46161935520479824,0.5893971533079684,0.05593150881505269,-1.5822036405453166,-5.566453243731767,0.7869291314573396,0.5632303528840499,-0.741147178001909,-2.3769041641207083,2,left
3.991,0.4633051707286794,0.5982734504228281,0.05363319560230562,-1.554300047189298,-5.553912763286812,0.7901489354030992,0.5482587433451575,-0.7529689543401835,-2.3781884306186103,2,left
3.9939999999999998,0.46505175967843315,0.6071574716897913,0.05131214490771361,-1.5256928874784452,-5.540081822900265,0.7933179525408836,0.533061927797216,-0.7648482498142456,-2.3784290215394694,2,left
3.995,0.46685669060210855,0.6160461370276963,0.04897052314815655,-1.496395976184962,-5.524967182580715,0.7964282123891088,0.517654041623692,-0.7767694942562432,-2.377631110211189,2,left
3.9960000000000004,0.4687173871913273,0.6249362931377411,0.046610624769193316,-1.4664233933605948,-5.5085756135754975,0.7994715407045293,0.5020493069519847,-0.7887167943203649,-2.375800355349747,2,left
3.998,0.47063113445381677,0.6338247123654613,0.044234866565174204,-1.435789443211021,-5.490913907511003,0.802439560895048,0.4862620120355555,-0.8006739564905841,-2.3729428952962706,2,left
3.9989999999999997,0.4725950855558252,0.642708091792846,0.04184578144801466,-1.4045086102663873,-5.471988886013344,0.8053236945939114,0.4703064913491928,-0.8126245105610069,-2.369065342613773,2,left
4.004,0.4746062693128924,0.6515830525738704,0.039446011691615226,-1.3725955128938019,-5.451807410779642,0.8081151614501102,0.4541971065460644,-0.8245517335287417,-2.3641747790859675,2,left
4.004,0.47666159830535954,0.6604461395271397,0.037038301681596525,-1.340064854855038,-5.430376394153305,0.8108049784200552,0.4379482282634789,-0.8364386739178787,-2.358278751117918,2,left
4.005,0.4787578775978775,0.6692938210020716,0.034625490195809815,-1.3069313767976978,-5.407702810409175,0.8133839592602032,0.42157421873155027,-0.848268176568871,-2.351385265527393,2,left
4.0089999999999995,0.48089181404278203,0.67812248903674,0.03221050223743127,-1.2732098102256275,-5.383793708037558,0.8158427151505128,0.40508941513851904,-0.8600229079275452,-2.343502785712899,2,left
4.01,0.4830600261394363,0.6869284598240127,0.02979634044572433,-1.238914835833247,-5.358656223225811,0.8181716571478432,0.3885081137060819,-0.8716853818678553,-2.3346402281814655,2,left
4.013999999999999,0.48525905440851275,0.6957079744991159,0.027386076117152904,-1.20406104689987,-5.33229759457646,0.8203610007532511,0.3718445544277229,-0.883237986082321,-2.3248069594163994,2,left
4.015,0.4874853722283582,0.7044572002581352,0.02498283987576577,-1.1686629177790464,-5.30472517901053,0.8224007726463192,0.3551129064227208,-0.8946630090738843,-2.3140127930623877,2,left
4.018,0.48973539707260993,0.7131722318128496,0.022589812035680217,-1.132734777384437,-5.275946468783892,0.8242808195931886,0.3383272538582282,-0.9059426677826501,-2.3022679874025025,2,left
4.019,0.49200550208325194,0.7218490931810847,0.020210212702202916,-1.0962907875721286,-5.245969109540908,0.8259908195345607,0.3215015823915846,-0.9170591358806568,-2.289583243098883,2,left
4.024,0.49429202791045806,0.7304837398039117,0.017847291662581005,-1.0593449263177275,-5.214800919326196,0.8275202948595083,0.3046497660848274,-0.927994572767462,-2.275969701166109,2,left
4.024,0.49659129474960106,0.7390720609747172,0.015504318121378405,-1.021910975585053,-5.182449908471859,0.8288586278704718,0.28778555474321055,-0.9387311532989088,-2.26143894114355,2,left
4.0280000000000005,0.4988996145062247,0.7476098825627749,0.01318457033767442,-0.9840025137817652,-5.1489243002740634,0.8299950784443337,0.2709225616294245,-0.9492510982809685,-2.246002979430271,2,left
4.0280000000000005,0.5012133030207384,0.7560929700140944,0.010891325221823405,-0.945632912695822,-5.114232552369463,0.8309188038939407,0.2540742515051373,-0.9595367057600352,-2.2296742677434183,2,left
4.033,0.503528692285861,0.7645170316123067,0.00862784794929783,-0.9068153388052567,-5.078383378718537,0.8316188810338938,0.23725392895143835,-0.9695703831404772,-2.212465691658359,2,left
4.034,0.5058421425917855,0.7728777219816084,0.006397381649127456,-0.8675627588524036,-5.041385772099559,0.8320843304538503,0.22047472691977274,-0.9793346801596285,-2.194390569186263,2,left
4.038,0.5081500545366011,0.7811706458135514,0.004203137225214714,-0.8278879495723754,-5.003249027013551,0.8323041430019655,0.2037495954649923,-0.9888123227497317,-2.175462649342248,2,left
4.039,0.5104488808423805,0.7893913618001507,0.0020482833692239996,-0.7878035114643057,-4.9639827628972535,0.8322673084804629,0.18709129061223248,-0.9979862478156164,-2.1556961106546777,2,left
4.042,0.5127351379205737,0.7975353867569389,-6.406317819600503e-05,-0.7473218864926252,-4.9235969475378605,0.8319628465546461,0.1705123633094408,-1.006839638956127,-2.13510555956372,2,left
4.043,0.5150054171342102,0.8055981999211133,-0.0021308470656710606,-0.7064553796044211,-4.882101920579968,0.8313798398759595,0.15402514841753662,-1.015355963156492,-2.113706028654821,2,left
4.047,0.5172563957091355,0.8135752474116832,-0.0041490834224492505,-0.6652161839477552,-4.839508417011967,0.8305074694189688,0.13764175369037518,-1.0235190084779486,-2.0915129746703367,2,left
4.048,0.5194848472520629,0.8214619468406111,-0.006115866562006757,-0.6236164096746735,-4.795827590515878,0.8293350520313636,0.12137404869691572,-1.031312922770025,-2.068542276240215,2,left
4.052,0.5216876518391218,0.8292536920671713,-0.008028378261622221,-0.5816681162115376,-4.751071036561455,0.8278520801952837,0.10523365363825558,-1.0387222534299063,-2.0448102312702736,2,left
4.053,0.5238618056442268,0.8369458580921418,-0.009883895585678983,-0.5393833478782314,-4.705250815122207,0.8260482639974385,0.08923192801249163,-1.045731988232304,-2.0203335539243623,2,left
4.058,0.5260044300818875,0.8445338060930179,-0.011679798225585522,-0.4967741727367662,-4.658379472887904,0.8239135753046322,0.07337995908070058,-1.0523275972521833,-1.9951293711344524,2,left
4.059,0.5281127804444815,0.8520128886067895,-0.013413575335983696,-0.4538527245488042,-4.610470064844989,0.8214382941404094,0.05768855008769604,-1.0584950759016019,-1.9692152185705132,2,left
4.062,0.5301842540199694,0.8593784548740587,-0.01508283185382494,-0.4106312477206514,-4.561536175093328,0.818613057257619,0.042168208191617325,-1.0642209891007643,-1.9426090359998962,2,left
4.063,0.5322163976823513,0.8666258563657728,-0.01668529429237478,-0.3671221451133435,-4.51159193676464,0.8154289089007434,0.026829132085755037,-1.069492516532553,-1.9153291619839257,2,left
4.064,0.5342069149529464,0.8737504525187911,-0.018218816006691556,-0.32333802859454835,-4.46065205090504,0.8118773537508599,0.01168119944108116,-1.0742974985802665,-1.8873943279576408,2,left
4.067,0.5361536725343288,0.880747616708518,-0.01968138193178327,-0.2792917722081476,-4.408731804181126,0.8079504120451021,-0.0032660454412751705,-1.0786244819200965,-1.8588236519171992,2,left
4.0680000000000005,0.5380547063194981,0.8876127424888864,-0.021071112799590078,-0.23499656783653525,-4.355847085266181,0.8036406768614527,-0.018003403233242926,-1.0824627633902781,-1.829636632037804,2,left
4.073,0.5399082268779675,0.8943412501344727,-0.022386268845607654,-0.19046598322988054,-4.302014399760177,0.7989413735586505,-0.03252203004840578,-1.0858024311057983,-1.7998531404428468,2,left
4.074,0.5417126244208511,0.9009285935247996,-0.023625253019515815,-0.14571402217578522,-4.247250883542646,0.7938464212491873,-0.04681344664537754,-1.0886344024131174,-1.7694934171625905,2,left
4.075,0.5434664732496792,0.9073702674132061,-0.02478661371536814,-0.10075518608172357,-4.191574314695582,0.7883504956286436,-0.06086954637935355,-1.090950458626247,-1.7385780642186448,2,left
4.077,0.5451685356972175,0.9136618151212845,-0.025869047036074115,-0.05560453534139024,-4.135003124564414,0.7824490914869621,-0.07468260194352791,-1.0927432765537615,-1.7071280397487232,2,left
4.077,0.54681776557211,0.919798836698949,-0.02687139860762481,-0.010277748355118674,-4.0775564087633125,0.7761385826724926,-0.08824527094141445,-1.0940064568248582,-1.675164652084505,2,left
4.082,0.5484133111220879,0.9257769975935931,-0.02779266496356014,0.03520882342573271,-4.019253938687559,0.7694162778321199,-0.10155060033043446,-1.0947345490211051,-1.6427095536938399,2,left
4.083,0.549954517532178,0.9315920378776985,-0.02863199452705488,0.0808381051604912,-3.9601161736595745,0.7622804712461612,-0.11459202977643626,-1.094923073619013,-1.6097847348969925,2,left
4.087,0.5514409289761201,0.9372397820886776,-0.02938868822250641,0.126592253217219,-3.9001642735917987,0.7547304886291697,-0.12736339395809373,-1.094568540747048,-1.5764125172651509,2,left
4.088,0.5528722902435134,0.9427161497366232,-0.030062199750478448,0.17245261483773527,-3.839420111998969,0.7467667278773317,-0.13985892385939247,-1.0936684657591687,-1.542615546608011,2,left
4.093,0.5542485479723526,0.9480171665357903,-0.03065213556194511,0.21839969300065287,-3.77790628918996,0.7383906947419545,-0.15207324708765455,-1.0922213816254172,-1.5084167854559012,2,left
4.093,0.5555698515228737,0.9531389764146764,-0.031158254572982828,0.26441311661382966,-3.7156461454670118,0.729605033407359,-0.16400138725377847,-1.090226848138547,-1.4738395049406274,2,left
4.0969999999999995,0.5568365535291383,0.9580778543575333,-0.031580467673966287,0.31047161616793617,-3.6526637741578822,0.7204135519503007,-0.1756387624505788,-1.0876854579340935,-1.438907275977998,2,left
4.0969999999999995,0.5580492101603569,0.9628302201247034,-0.031918837109954315,0.3565530049830902,-3.5889840343042736,0.7108212426568636,-0.1869811828643035,-1.08459883931973,-1.4036439596538315,2,left
4.102,0.5592085811238896,0.9673926528847436,-0.032173575829677836,0.40263416618069653,-3.524632562827719,0.700834297171597,-0.1980248475535853,-1.0809696559081827,-1.3680736967141731,2,left
4.103,0.5603156294555715,0.9717619067638412,-0.03234504689151691,0.44869104551275735,-3.459635785992053,0.6904601164524995,-0.2087663404292491,-1.0768016030464076,-1.3322208960594137,2,left
4.1080000000000005,0.5613715211680536,0.9759349272813124,-0.03243376295294381,0.4946986501809839,-3.3940209299795883,0.6797073155043087,-0.21920262546755137,-1.0720994010321638,-1.296110222141066,2,left
4.109,0.5623776248464709,0.9799088686050619,-0.03244038577308704,0.5406310537780358,-3.327816030396192,0.6685857228614228,-0.229331041188569,-1.0668687851075702,-1.2597665811590655,2,left
4.111000000000001,0.5633355112673953,0.9836811115361316,-0.03236572559529647,0.5864614074831431,-3.2610499405185975,0.657106374790669,-0.23914929443058897,-1.0611164922176803,-1.2232151059566512,2,left
4.112,0.564246953047858,0.9872492821123352,-0.03221074032242825,0.6321619576442248,-3.1937523380955213,0.6452815041830521,-0.24865545345047393,-1.0548502445205796,-1.1864811395091475,2,left
4.117,0.5651139241950033,0.990611270692596,-0.031976534559336946,0.677704069878394,-3.1259537305124563,0.6331245241025556,-0.2578479403790946,-1.048078729633993,-1.1495902169022902,2,left
4.117,0.565938599243352,0.9937652513315909,-0.031664358777977394,0.7230582598224516,-3.0576854581284105,0.6206500059590464,-0.2667255230600301,-1.0408115776018938,-1.1125680456951554,2,left
4.121,0.5667233514917702,0.9967097011715357,-0.031275608921414774,0.7681942306645907,-2.988979695591315,0.6078736522713405,-0.27528730629884174,-1.0330593345631338,-1.0754404845622143,2,left
4.122,0.5674707497495459,0.9994434194724884,-0.03081182665165274,0.8130809175880788,-2.9198694509374157,0.5948122639855382,-0.2835327225493247,-1.024833433102661,-1.0382335201085937,2,left
4.126,0.5681835530066675,1.0019655458061842,-0.03027470024030957,0.8576865392571438,-2.8503885622785945,0.5814837023128278,-0.29146152206223935,-1.0161461592644716,-1.0009732417522428,2,left
4.127,0.5688647025589673,1.0042755768965002,-0.029666065906131796,0.9019786564746587,-2.7805716918803194,0.5679068450500884,-0.29907376252111595,-1.0070106162040495,-0.9636858145664035,2,left
4.131,0.5695173113105257,1.0063733816339524,-0.0289879092637966,0.945924238140507,-2.71045431743176,0.5541015373458101,-0.3063697981970424,-0.99744068451696,-0.9263974500400852,2,left
4.132,0.5701446501726535,1.0082592139165276,-0.02824236648045617,0.9894897346386954,-2.640072720308542,0.540088536873083,-0.3133502686945523,-0.9874509795802823,-0.8891343750367333,2,left
4.133,0.5707501316166403,1.0099337231281693,-0.027431724741470133,1.0326411587803856,-2.5694639706276607,0.5258894533706938,-0.3200160874338292,-0.9770568067847031,-0.8519227998119626,2,left
4.136,0.5713372905229921,1.0113979622023914,-0.026558421645586573,1.0753441744290142,-2.498665908893186,0.5115266825127168,-0.3263684300546526,-0.9662741158351923,-0.8147888862738687,2,left
4.136,0.5719097625563819,1.0126533933038095,-0.02562504312903609,1.1175641929325808,-2.427717124030668,0.49702333406638965,-0.332408722885488,-0.9551194549956319,-0.7777587173468584,2,left
4.14,0.5724712603950182,1.0137018911982068,-0.024634319506657797,1.1592664772964905,-2.3566569276803766,0.48240315442920667,-0.33813863154621293,-0.9436099256091856,-0.7408582677193287,2,left
4.1419999999999995,0.5730255482078532,1.0145457443844423,-0.023589119286663823,1.2004162530765348,-2.2855253249834755,0.4676904442940652,-0.3435600497109526,-0.9317631369237394,-0.7041133759331043,2,left
4.1419999999999995,0.5735764147813124,1.0151876540458018,-0.022492440548452786,1.2409788232556829,-2.2143629827508997,0.45290997337596883,-0.34867508804838193,-0.9195971611904058,-0.6675497177083113,2,left
4.145,0.5741276457145839,1.015630730867131,-0.021347399812180447,1.2809196834143552,-2.1432111962688905,0.43808689479182866,-0.3534860633559579,-0.9071304890020645,-0.6311927803977376,2,left
4.146,0.5746829951783511,1.015878489772211,-0.020157218455704177,1.3202046344547793,-2.07211185563043,0.4232466610262666,-0.35799548790366104,-0.8943819848379467,-0.5950678384651772,2,left
4.151,0.5752461577961907,1.0159348426615793,-0.018925206869065497,1.3587998918528605,-2.0011074118256413,0.4084149422310615,-0.3622060590019456,-0.8813708427793541,-0.5591999298827751,2,left
4.152,0.5758207411753864,1.0158040892651141,-0.0176547466890246,1.3966721913617326,-1.930240842459738,0.3936175469473837,-0.3661206488077241,-0.868116542360737,-0.5236138333429838,2,left
4.155,0.5764102394937639,1.0154909062563449,-0.016349271605206838,1.43378889127977,-1.859555616894368,0.3788803452082424,-0.36974229438134687,-0.8546388045195532,-0.48833404618140874,2,left
4.156000000000001,0.5770180083970486,1.0150003347953955,-0.015012247339730923,1.4701180713938655,-1.7890956606084678,0.36422919397859277,-0.3730741880066779,-0.8409575476075697,-0.4533847629075567,2,left
4.16,0.5776472413220801,1.014337766664856,-0.013647151447678366,1.5056286287066958,-1.718905318575137,0.34968986489065085,-0.37611966778552,-0.8270928434255733,-0.4187898542413091,2,left
4.1610000000000005,0.5783009472659905,1.0135089291349175,-0.012257453564880696,1.5402903700545385,-1.6490293174515736,0.3352879742321338,-0.3788822085167988,-0.8130648732428177,-0.38457284655382507,2,left
4.165,0.578981929982189,1.0125198686478036,-0.010846596661708197,1.5740741017199331,-1.5795127263797462,0.32104891514539446,-0.3813654128700868,-0.7988938837619451,-0.35075690161252426,2,left
4.166,0.5796927685896052,1.011376933360073,-0.009417979770384097,1.6069517161411366,-1.5104009161962677,0.3069977919957361,-0.383573002862221,-0.7846001429895977,-0.31736479653081895,2,left
4.17,0.5804357996118781,1.010086754535346,-0.007974942553019006,1.638896275817884,-1.4417395168508262,0.2931593568675898,-0.38550881164496,-0.7702038959724629,-0.28441890382434826,2,left
4.17,0.5812131005060212,1.0086562267432757,-0.006520751966607517,1.6698820945104407,-1.373574372833572,0.2795579481477037,-0.3871767756108209,-0.7557253203580869,-0.25194117147662004,2,left
4.176,0.5820264747955851,1.0070924867966613,-0.005058591150827443,1.699884815826342,-1.3059514964130192,0.26621743115503194,-0.3885809268234472,-0.7411844817394392,-0.21995310291818146,2,left
4.177,0.582877438991941,1.0054028913535025,-0.003591550518146657,1.7288814892865338,-1.2389170184873135,0.2531611407776217,-0.38972538577807553,-0.7266012887419131,-0.18847573682472124,2,left
4.18,0.5837672115567777,1.0035949931245594,-0.0021226208840036836,1.7568506439598706,-1.172517136853147,0.24041182607747658,-0.3906143544969037,-0.711995447811213,-0.15752962664084974,2,left
4.18,0.584696704206735,1.0016765156526577,-0.0006546883611615705,1.7837723597521162,-1.106798061698153,0.2279915968251226,-0.3912521099634015,-0.697386417660401,-0.12713481973770877,2,left
4.186,0.5856665158672009,0.9996553266661604,0.0008094693300546096,1.809628336432698,-1.0418059581243106,0.21592187192641876,-0.3916429978988603,-0.6827933633342478,-0.09731083611402984,2,left
4.187,0.5866769295353694,0.9975394100628882,0.002267185515298572,1.8344019604795199,-0.9775868855117122,0.2042233297050342,-0.3917914268837462,-0.6682351098489755,-0.06807664655178385,2,left
4.189,0.5877279122113998,0.9953368366540266,0.0037159065581450113,1.8580783698191368,-0.9141867335339933,0.1929158600049584,-0.3917018628256963,-0.6537300953654623,-0.03945065013914796,2,left
4.19,0.588819117912155,0.9930557338757453,0.005153193520670867,1.880644516536527,-0.8516511546388238,0.18201851807841538,-0.39137882377529226,-0.6392963238540301,-0.011450651075154316,2,left
4.195,0.589949893619389,0.9907042547374341,0.006576723733759572,1.9020892276256012,-0.7900254928090764,0.1715494802256183,-0.39082687509004577,-0.6249513172090311,0.01590616532792188,2,left
4.196000000000001,0.5911192878666512,0.9882905463084211,0.007984292393801704,1.9224032638484365,-0.729354708422632,0.1615260011539221,-0.3900506249463493,-0.6107120667716042,0.04260325752663136,2,left
4.199,0.5923260615719838,0.9858227180510175,0.009373814175103454,1.941579376768038,-0.6696832990312797,0.1519643730251079,-0.3890547201946356,-0.5965949842969213,0.06862475353413858,2,left
4.2,0.5935687007073246,0.9833088102850157,0.010743324759333489,1.959612364016212,-0.6110552158817693,0.14287988616076203,-0.3878438425331444,-0.5826158527912385,0.09395547733745391,2,left
4.2,0.5948454304502786,0.980756763025831,0.012090982150014381,1.9764991228548905,-0.5535137760048221,0.13428679137698926,-0.3864227049405074,-0.5687897783440996,0.1185809751337011,2,left
4.204,0.5961542305174297,0.9781743854179479,0.013415067629222477,1.9922387020859884,-0.49710156970077485,0.1261982639210261,-0.38479604828754754,-0.5551311444701279,0.14248754027738178,2,left
4.205,0.5974928513810829,0.9755693260160028,0.014713986194876221,2.006832352361587,-0.4418603632535269,0.11862636898368653,-0.38296863806725573,-0.5416535700864976,0.1656622361243056,2,left
4.208,0.598858831066947,0.9729490442081957,0.015986266307778108,2.020283574805371,-0.38783099687740535,0.11158202880409972,-0.3809452612158456,-0.5283698715528861,0.1880929164880716,2,left
4.21,0.6002495122756099,0.9703207830721939,0.01723055880386079,2.0325981671650504,-0.3350532787539208,0.10507499159022489,-0.37873072301638677,-0.5152920288124431,0.20976824371861202,2,left
4.21,0.6016620596519483,0.9676915439021844,0.018445634878002416,2.0437842654739775,-0.2835658775471604,0.09911380285015524,-0.37632984407977693,-0.502431155595091,0.23067770446934735,2,left
4.2139999999999995,0.6030934770946651,0.9650680626010965,0.01963038309402023,2.0538523785089775,-0.23340621663915975,0.09370577993631504,-0.3737474573972503,-0.4897974736450188,0.25081162321736516,2,left
4.2139999999999995,0.6045406250340822,0.96245678812607,0.020783805411971817,2.0628154130160716,-0.18461037248107381,0.08885699040061572,-0.3709884054580716,-0.47740029093482544,0.27016117359886815,2,left
4.218999999999999,0.60600023762995,0.9598638631780496,0.02190501225776625,2.070688688910755,-0.1372129779312571,0.08457223439015736,-0.36805753742552766,-0.4652479838293887,0.2887183876199375,2,left
4.22,0.6074689398709835,0.9572951073018824,0.022993216696389977,2.0774899443442036,-0.09124713060605984,0.08085503110906908,-0.36495970636381014,-0.45334798316318586,0.3064761628004318,2,left
4.224,0.6089432645899806,0.954756002516322,0.02404772780208331,2.0832393306611863,-0.0467443061032366,0.07770760933256939,-0.3616997665078726,-0.441706764195471,0.3234282673065905,2,left
4.225,0.6104196694310312,0.9522516815443371,0.02506794333947101,2.087959397272345,-0.0037342759618789463,0.07513090196094493,-0.35828257056785323,-0.43032984040841454,0.33956934312563725,2,left
4.228,0.6118945538106922,0.9497869186738176,0.026053341878456867,2.0916750664604167,0.03775496977310797,0.07312454460277419,-0.35471296705917454,-0.4192217611140328,0.35489490733338147,2,left
4.228,0.6133642758995307,0.9473661232510877,0.027003474466048935,2.0944135981369696,0.07769729550976541,0.07168687817835608,-0.35099579764896555,-0.40838611283647885,0.36940135150350756,2,left
4.234,0.6148251696166829,0.9449933357949557,0.027917955974233674,2.0962045445632596,0.11606848871457372,0.07081495553594079,-0.3471358945090001,-0.3978255244370196,0.383085939304909,2,left
4.234,0.6162735615866828,0.9426722267135695,0.02879645623808318,2.097079695045947,0.1528463242838091,0.07050455207499554,-0.34313807766490695,-0.3875416759497976,0.3959468023310876,2,left
4.237,0.6177057879652353,0.9404060976042659,0.029638691094156636,2.0970730106155995,0.18801062479545588,0.0707501803723684,-0.3390071523309837,-0.3775353110972554,0.4079829342032842,2,left
4.238,0.619118211005756,0.9381978851134359,0.030444413424980415,2.0962205486931973,0.2215433167518566,0.07154510880883701,-0.33474790621953737,-0.3678062534548875,0.4191941829866488,2,left
4.243,0.6205072352128951,0.9360501673272089,0.031213404310251727,2.0945603777472233,0.2534284829187094,0.07288138419513814,-0.3303651068132756,-0.358353426235779,0.42958124195639485,2,left
4.244,0.6218693229114334,0.9339651726531526,0.03194546438117248,2.092132481941402,0.283652410861392,0.07474985839816946,-0.32586349858889374,-0.3491748756661855,0.4391456387485125,2,left
4.249,0.6232010090467293,0.9319447911367095,0.03264040547187683,2.0889786557707164,0.3122036377749074,0.07714021896962993,-0.3212478001796306,-0.34026779792420253,0.44788972292725016,2,left
4.249,0.6244989150252216,0.9299905881324615,0.033298042659480484,2.085142388681026,0.3390729916990205,0.08004102378091789,-0.3165227014642137,-0.3316285696143646,0.4558166519992073,2,left
4.253,0.6257597614019559,0.9281038202192776,0.03391818678043509,2.080668739665389,0.36425362920538534,0.08343973966963238,-0.31169286056927153,-0.32325278175180083,0.4629303759015185,2,left
4.254,0.6269803792292572,0.9262854532112471,0.03450063750527435,2.0756042018281367,0.38774106963866384,0.08732278510451975,-0.3067629007719636,-0.3151352772303517,0.4692356199892552,2,left
4.257,0.6281577198971396,0.9245361820745253,0.03504517704594405,2.0699965569057652,0.40953322598880987,0.09167557687717202,-0.3017374072892647,-0.3072701917498185,0.4747378665448262,2,left
4.258,0.6292888633212779,0.9228564525143605,0.03555156456032448,2.0638947197319006,0.42963043246684585,0.09648258083021109,-0.2966209239400374,-0.29965099817827395,0.47944333482982227,2,left
4.263,0.6303710243687629,0.9212464839479821,0.036019531309450396,2.057348572631885,0.4480354688516009,0.10172736663308257,-0.2914179496657417,-0.2922705543261013,0.48335895969743065,2,left
4.263999999999999,0.6314015574546202,0.9197062935304579,0.0364487766162757,2.0504087897309864,0.46475358167001435,0.1073926666179303,-0.2861329348953531,-0.28512115410915395,0.4864923687812385,2,left
4.2669999999999995,0.6323779592889278,0.918235720855176,0.03683896467151549,2.0431266511588024,0.4797925022687442,0.11346043868932516,-0.28077027773980184,-0.27819458207913234,0.48885185827395833,2,left
4.268,0.6332978697984125,0.9168344529188316,0.037189722230088984,2.03555384713117,0.4931624618299646,0.11991193332287799,-0.27533432001298946,-0.2714821712081661,0.4904463673369158,2,left
4.268,0.6341590712786994,0.9155020489478622,0.03750063723601409,2.0277422718897493,0.5048762033793964,0.12672776466897273,-0.2698293431361705,-0.26497486335628906,0.49128545132677354,2,left
4.274,0.6349594858522533,0.9142379647303036,0.03777125840293923,2.019743807478478,0.514948990829795,0.1338879857790105,-0.2642595640902105,-0.2586632710249982,0.4913792542899234,2,left
4.275,0.6356971713291534,0.9130415761237317,0.038001095766674944,2.0116100973352475,0.5233986150983307,0.14137216797265625,-0.2586291316399841,-0.25253773854173733,0.49073848132066294,2,left
4.277,0.6363703156051888,0.9119122013780016,0.03818962221857117,2.003392310083702,0.5302453972587059,0.14915948422312855,-0.25294212299501506,-0.24658840127969953,0.4893743712292231,2,left
4.277,0.636977229763236,0.9108491218859394,0.03833627602312019,1.9951408959456292,0.5355121883199284,0.15722879572607867,-0.24720254096232763,-0.24080524234403916,0.4872986696973935,2,left
4.2780000000000005,0.6375163400512388,0.9098516010141583,0.038440464317688265,1.9869053418590412,0.5392243645634371,0.16555873953606573,-0.24141431158733645,-0.23517814661508243,0.48452360294950525,2,left
4.281000000000001,0.6379861789230075,0.9089189007152164,0.03850156758410757,1.9787339334229188,0.5414098170014605,0.17412781444302197,-0.23558128226644776,-0.229696952131424,0.4810618519348772,2,left
4.282,0.6383853753786956,0.9080502956245161,0.0385189450675109,1.9706735297533642,0.5420989338791663,0.18291446297439465,-0.22970722031489096,-0.22435149879627464,0.47692652701578975,2,left
4.287,0.6387126449077362,0.9072450843435951,0.03849194109616436,1.9627693536709598,0.5413245757942775,0.19189714869186875,-0.2237958119731613,-0.21913167439087247,0.47213114315303994,2,left
4.288,0.6389667793779331,0.9065025976651665,0.03841989222835107,1.955064797603175,0.5391220433676556,0.2010544286647441,-0.21785066183532475,-0.21402745787919006,0.46668959557916384,2,left
4.292,0.639146637219834,0.9058222036035537,0.03830213512146831,1.9476012451787625,0.5355290374669012,0.21036502114516226,-0.21187529268231864,-0.20902895998856008,0.4606161359474733,2,left
4.293,0.6392511342292799,0.905203309230226,0.038138014989932814,1.940417908491538,0.5305856119808243,0.21980786847094186,-0.20587314570327386,-0.20412646105120186,0.4539253489431626,2,left
4.297,0.639279235252665,0.904645359454993,0.03792689449708332,1.9335516810114928,0.5243341191385377,0.22936219522228318,-0.19984758108778733,-0.19931044609196535,0.4466321293408828,2,left
4.298,0.6392299469339978,0.904147833015709,0.0376681629126993,1.9270370061218849,0.5168191473629381,0.23900756165904327,-0.19380187897198645,-0.19457163714791173,0.4387516594913682,2,left
4.302,0.6391023116072998,0.9037102360254459,0.03736124535996839,1.9209057612617535,0.5080874516444657,0.24872391246566344,-0.18773924072115022,-0.18990102280562682,0.4302993872179259,2,left
4.303,0.6388954023322949,0.9033320934722736,0.0370056119718701,1.9151871576542037,0.4981878764172778,0.25849162083115274,-0.18166279053158474,-0.18528988494241194,0.4212910041018697,2,left
4.309,0.6386083190086886,0.9030129390806769,0.036600786778395636,1.909907655601817,0.48717127091635093,0.2682915278917925,-0.17557557733439141,-0.18072982265771984,0.41174242413429324,2,left
4.31,0.638240185467676,0.9027523039373843,0.036146356158368184,1.9050908953316372,0.47509039699052996,0.278104977564432,-0.1694805769837189,-0.17621277338139915,0.4016697627099347,2,left
4.311,0.6377901474242219,0.9025497042691097,0.035641976718179716,1.9007576433733597,0.46199982934319755,0.28791384679839427,-0.16338069471204916,-0.17173103114548305,0.39108931593729007,2,left
4.311,0.6372573711729956,0.9024046287419378,0.03508738250379197,1.8969257544556068,0.4479558481690285,0.29770057127410426,-0.15727876783503714,-0.1672772620064044,0.38001754023757645,2,left
4.316,0.6366410429191224,0.9023165256319305,0.03448239150282519,1.8936101489065003,0.433016324152241,0.30744816657659185,-0.15117756868840077,-0.16284451660464505,0.368471032203647,2,left
4.3180000000000005,0.6359403686481656,0.9022847901908079,0.03382691143696855,1.8908228055461198,0.41724059578886136,0.31714024487200965,-0.14507980777934448,-0.1584262398489286,0.356466508688497,2,left
4.321000000000001,0.6351545744544561,0.9023087524983522,0.03312094487207016,1.8885727700598693,0.4006893389927818,0.3267610271152448,-0.13898813713499267,-0.15401627771214682,0.3440207870915907,2,left
4.322,0.6342829072608303,0.9023876660575515,0.03236459368360601,1.886866178843257,0.38342442894282136,0.3362953508165904,-0.13290515383031193,-0.14960888112627166,0.331150765809875,2,left
4.3260000000000005,0.6333246358746935,0.90252069735336,0.031558062913223626,1.8857062983100952,0.36550879412560144,0.3457286733952863,-0.12683340367801063,-0.145198706963547,0.3178734048190301,2,left
4.3260000000000005,0.6322790523336316,0.9027069165628695,0.030701664042988144,1.8850935796576729,0.3470062625268218,0.35504707114753375,-0.1207753850629215,-0.14078081609127954,0.3042057063492405,2,left
4.331,0.6311454734976752,0.9029452895732872,0.029795817702583403,1.8850257290840076,0.3279813999214753,0.3642372338563432,-0.11473355290339815,-0.1363506684875554,0.2901646956185509,2,left
4.332,0.6299232428454881,0.9032346714346509,0.028841055813561556,1.8854977934538397,0.30849934021167197,0.3732864550702834,-0.1087103227222882,-0.13190411540520286,0.2757674015857009,2,left
4.336,0.6286117324309262,0.9035738013462665,0.02783802316444284,1.8865022614116116,0.2886256077590579,0.3821826180778735,-0.10270807480679064,-0.12743738862795587,0.2610308377044297,2,left
4.337,0.6272103449584007,0.9039612992471349,0.026787478402815916,1.8880291799412192,0.2684259316573166,0.39091417760399055,-0.09672915842007808,-0.12294708714601649,0.24597198276625815,2,left
4.337,0.6257185159406979,0.9043956640516416,0.025690294427109163,1.890066286373878,0.24796605188892706,0.3994701372542636,-0.09077589599796577,-0.1184301620880702,0.23060776210869297,2,left
4.34,0.6241357159066829,0.9048752735464121,0.024547458158854993,1.8925991558469704,0.22731151730922744,0.407840022732985,-0.0848505872474964,-0.11388390103002856,0.21495502957091173,2,left
4.341,0.6224614526266355,0.9053983859414381,0.023360069673237574,1.8956113642182324,0.20652747539989819,0.4160138508595981,-0.07895551308084979,-0.10930591251742887,0.19903055047197254,2,left
4.345,0.620695273324772,0.9059631430444015,0.022129340664126446,1.8990846660545293,0.18567845407110817,0.4239820945127341,-0.07309293934771234,-0.10469411112844292,0.18285098569475458,2,left
4.346,0.6188367668549418,0.9065675750065044,0.020856592224048464,1.9029991853830348,0.1648281374803994,0.43173564415230925,-0.06726512034579468,-0.1000467031210853,0.1664328768519172,2,left
4.3469999999999995,0.616885565823292,0.9072096065761339,0.019543251930810447,1.907333613414859,0.14403914087691702,0.4392657675093665,-0.06147430209256725,-0.0953621726514656,0.14979263248816674,2,left
4.352,0.6148413486468548,0.9078870647809071,0.018190850250104338,1.9120654055196373,0.12337279116879583,0.44656406955483097,-0.0557227253413773,-0.09063926854983179,0.1329465152723867,2,left
4.353,0.6127038415379509,0.9085976879256572,0.016801016284995227,1.917170971663712,0.10288891822211557,0.4536224543356566,-0.05001262832521029,-0.08587699164105113,0.11591063013250263,2,left
4.355,0.6104728204014469,0.9093391357531413,0.015375472922660251,1.9226258580048832,0.0826456588591061,0.46043308932646876,-0.04434624921146486,-0.08107458259606821,0.09870091328531289,2,left
4.356,0.608148112627318,0.9101090005831542,0.013916031440390091,1.9284049192706971,0.0626992738342406,0.46698837242206404,-0.038725828251223685,-0.07623151030077047,0.08133312211292602,2,left
4.36,0.6057295987565171,0.9109048192292893,0.012424585637686033,1.9344824819348903,0.04310397772949739,0.47328090159103015,-0.033153609606621434,-0.0713474607285786,0.06382282583689962,2,left
4.361000000000001,0.6032172139944244,0.9117240854874752,0.010903105565617917,1.940832498207604,0.023911781710757894,0.4793034472100317,-0.02763184284003648,-0.06642232630296498,0.046185396940675215,2,left
4.365,0.6006109495439353,0.912564262992994,0.009353630931733348,1.9474286908559155,0.005172349088156741,0.4850489270975799,-0.02216278404896541,-0.061456195735986284,0.028436003290450207,2,left
4.367,0.5979108537310185,0.9134227982501086,0.007778264265157947,1.9542446888720897,-0.013067136375795863,0.49051038426534543,-0.01674869663057756,-0.0564493443287997,0.01058960090421726,2,left
4.37,0.5951170328994897,0.914297133649051,0.006179163926714136,1.9612541540077346,-0.030762089465346802,0.4956809674043017,-0.011391851660091972,-0.05140222472001405,-0.00733907268166377,2,left
4.371,0.5922296520568686,0.9151847202981194,0.00455853704142182,1.9684308981927574,-0.0478706298716195,0.5005539141221884,-0.006094527867270445,-0.04631545806761035,-0.025335504499318394,2,left
4.376,0.5892489352587666,0.916083030513239,0.002918632418730251,1.975748991858639,-0.06435367596602129,0.5051225369479696,-0.0008590111954783217,-0.04118982565004925,-0.04338541174087077,2,left
4.378,0.5861751657271299,0.9169895698230645,0.001261733514693327,1.9831828631861128,-0.08017502603768153,0.5093802121181257,0.004312406072070814,-0.03602626087206768,-0.061474746906090706,2,left
4.38,0.5830086857088141,0.917901888363933,-0.0004098485154707734,1.990707388297804,-0.09530142704398442,0.5133203711587634,0.009417426634099434,-0.03082584166055346,-0.07958970255784258,2,left
4.38,0.579749896093689,0.9188175915551908,-0.002093781626462945,1.9982979724168008,-0.10970263092147012,0.5169364952766542,0.014453749956114667,-0.025589783235775303,-0.09771671573715854,2,left
4.385,0.5763992558235643,0.9197343499624948,-0.0037877195056158423,2.005930622012458,-0.12335143850248284,0.520222112571418,0.019419074533172348,-0.020319431243137034,-0.115842472089872,2,left
4.386,0.5729572811337271,0.9206499082760312,-0.005489307964931574,2.0135820079549944,-0.13622373108095528,0.5231707980801571,0.024311100645216924,-0.015016255230519155,-0.13395390975682175,2,left
4.39,0.5694245446769294,0.9215620933519871,-0.007196191065563864,2.021229519700639,-0.14829848966864131,0.5257761766649142,0.029127533619460282,-0.00968184245616889,-0.15203822307967188,2,left
4.391,0.5658016745834875,0.9224688212884942,-0.008906016947494058,2.0288513105292054,-0.1595578019809543,0.5280319287523807,0.033866087614058606,-0.0043178920120015216,-0.17008286617439008,2,left
4.394,0.5620893535091999,0.9233681035316309,-0.010616443348703685,2.0364263338560202,-0.16998685718934464,0.5299317989343105,0.03852448993713579,0.0010737907529181506,-0.1880755564243862,2,left
4.395,0.558288317715455,0.9242580520318302,-0.012325142811209968,2.043934370640132,-0.1795739284748657,0.5314696074361114,0.04310048591498481,0.0064912995240349125,-0.20600427794523476,2,left
4.399,0.5543993562149679,0.9251368834938293,-0.014029807584221581,2.05135604791065,-0.18831034341524056,0.5326392644600806,0.04759184432305483,0.011932632043508137,-0.2238572850727931,2,left
4.401,0.550423310003833,0.926002922781741,-0.015728154244081916,2.0586728484329275,-0.19619044223536491,0.5334347874087293,0.051996363393101395,0.017395694878447422,-0.24162310592637726,2,left
4.4030000000000005,0.5463610713878736,0.9268546055522013,-0.017417928054082543,2.065867111536123,-0.20321152394876787,0.5338503209925993,0.056311877409640734,0.02287830795073765,-0.25929054609847474,2,left
4.404,0.5422135834012072,0.9276904801912592,-0.01909690708798107,2.07292202512341,-0.20937378041511648,0.5338801602259211,0.06053626390860566,0.028378208844080398,-0.27684869252225636,2,left
4.405,0.5379818393095354,0.9285092091259934,-0.020762906144239954,2.07982160888583,-0.21468021833639497,0.5335187763123845,0.06466745147128114,0.03389305690460983,-0.294286917547319,2,left
4.409,0.5336668821890779,0.929309569571567,-0.022413780481340243,2.0865506887404033,-0.2191365692119294,0.5327608454222038,0.06870342800848914,0.03942043715484102,-0.31159488315090694,2,left
4.41,0.5292698045714412,0.9300904537611476,-0.02404742940326787,2.0930948625127455,-0.22275118726996557,0.5316012803605519,0.0726422492535965,0.044957864046777624,-0.3287625450263225,2,left
4.414,0.5247917481440855,0.9308508686966841,-0.025661799720238004,2.0994404568839666,-0.22553493539105793,0.5300352651263119,0.07648204708479917,0.050502785083392565,-0.34578015618698965,2,left
4.415,0.5202339034965275,0.9315899354570288,-0.027254889105689354,2.105574475808945,-0.22750105927668418,0.5280582922757284,0.08022103739471573,0.056052584334387076,-0.36263826982716374,2,left
4.415,0.5155975099038229,0.932306888099843,-0.02882474936473588,2.1114845415514694,-0.2286650513170686,0.5256662025882147,0.08385752740117797,0.061604585866143174,-0.3793277413651021,2,left
4.419,0.5108838551399556,0.9330010721890688,-0.030369489620868325,2.1171588311712504,-0.2290445077751785,0.5228552257813167,0.0873899223906754,0.0671560571024617,-0.39583972969698117,2,left
4.42,0.5060942753145384,0.9336719429757129,-0.031887279418547465,2.1225860122361384,-0.22865898410449406,0.5196220206044847,0.09081673190519073,0.07270421213202326,-0.41216569770997,2,left
4.425,0.5012301547266749,0.9343190632620647,-0.033376351730102935,2.127755180593307,-0.22752985201287143,0.5159637130562774,0.09413657538286975,0.07824621497851571,-0.42829741210238503,2,left
4.425,0.49629292572908285,0.934942100984515,-0.0348350058472763,2.1326558013424006,-0.22568015971720734,0.5118779322175199,0.09734818726267011,0.08377918284936986,-0.44422694255834233,2,left
4.428999999999999,0.49128406859336127,0.9355408265519989,-0.036261610133984545,2.1372776532139977,-0.22313449562843957,0.5073628436078866,0.10045042156283021,0.08930018937903596,-0.45994666032378984,2,left
4.43,0.4862051113637353,0.9361151099756824,-0.03765460461886254,2.1416107763682155,-0.21991885546368892,0.5024171800553969,0.10344225594269245,0.09480626788271525,-0.4754492362302445,2,left
4.434,0.4810576296820831,0.936664917822996,-0.03901250341157688,2.14564542362752,-0.21606051278028213,0.4970402700670791,0.10632279525710457,0.10029441463643506,-0.4907276382119792,2,left
4.435,0.4758432465634766,0.9371903100256282,-0.040333896932965574,2.1493720151569886,-0.21158789292439859,0.4912320636878332,0.10909127461230896,0.10576159219932135,-0.5057751283618026,2,left
4.438,0.47056363210138225,0.9376914365667919,-0.04161745395560467,2.1527810966044547,-0.20653045038516185,0.48499315583327957,0.11174706193191224,0.11120473279387998,-0.5205852595699514,2,left
4.438,0.4652205030855788,0.9381685340695513,-0.04286192345865045,2.1558633007121095,-0.20091854954315322,0.47832480708114944,0.11428966004120913,0.11662074176004592,-0.5351518717899701,2,left
4.4430000000000005,0.45981562252228264,0.9386219223055252,-0.04406613630575949,2.1586093124102366,-0.19478334880056192,0.4712289619045328,0.11671870827781189,0.12200650109869966,-0.549469087974794,2,left
4.444,0.45435079905292586,0.9390520006409477,-0.04522900675457874,2.16100983740286,-0.18815668807850908,0.4637082643290632,0.11903398363621369,0.12735887312028074,-0.5635313097255656,2,left
4.448,0.4488278862733057,0.9394592444357553,-0.04634953380301625,2.1630555742541357,-0.18107097966549032,0.4557660709948871,0.12123540145358952,0.13267470421405045,-0.5773332126950198,2,left
4.448,0.44324878195666884,0.9398442014121978,-0.04742680237580818,2.16473718998336,-0.1735591023993811,0.4474064616030394,0.12332301564381207,0.13795082875346895,-0.5908697417865524,2,left
4.453,0.4376154271826137,0.9402074880110023,-0.0484599843552501,2.1660452991754644,-0.16565429916403826,0.4386342467246278,0.1252970184863335,0.14318407315305576,-0.604136106189361,2,left
4.454,0.4319298053698907,0.9405497857536653,-0.049448339459587834,2.1669704466128596,-0.15739007768021274,0.4294549729500184,0.1271577399762575,0.1483712600919979,-0.617127774289294,2,left
4.459,0.4261939412072834,0.94087183762845,-0.05039121597058091,2.1675030934334334,-0.14880011456926545,0.41987492535401755,0.12890564674159896,0.15350921291965564,-0.6298404684942854,2,left
4.459,0.4204098994744051,0.9411744445139951,-0.05128805130986983,2.1676336068184456,-0.13991816266705037,0.40990112725186295,0.13054134053340288,0.15859476025799288,-0.642270160012476,2,left
4.463,0.4145797837439228,0.9414584616472479,-0.052138372462694114,2.1673522532129557,-0.1307779615642962,0.39954133721966645,0.13206555629406885,0.16362474081582642,-0.6544130636203334,2,left
4.463,0.4087057349588939,0.9417247951333221,-0.05294179624564901,2.166649195080289,-0.1214131513488825,0.3888040433518042,0.1334791598089037,0.16859600842964764,-0.6662656324572818,2,left
4.468,0.4027899298843141,0.9419743984862186,-0.05369802941129357,2.1655144911908972,-0.11185718952456787,0.3776984547266175,0.13478314494560298,0.17350543734561916,-0.6778245528825427,2,left
4.468,0.3968345794398954,0.9422082691819355,-0.054406868577625604,2.16393810044479,-0.10214327107998483,0.36623449005068287,0.13597863048604134,0.17834992775718916,-0.6890867394290591,2,left
4.473,0.390841926929752,0.9424274451998084,-0.05506819996751218,2.161909889225485,-0.09230425168107098,0.35442276345082485,0.13706685655443526,0.18312641161259796,-0.7000493298885472,2,left
4.473,0.38481424619311055,0.9426330015243757,-0.0556819989441067,2.1594196422822036,-0.08237257395955638,0.3422745673819903,0.1380491806456265,0.18783185870637378,-0.7107096805608752,2,left
4.474,0.37875383970674675,0.9428260465785665,-0.05624832933258675,2.1564570771357587,-0.07238019686967206,0.32980185261807365,0.13892707326315304,0.1924632830559219,-0.7210653616921024,2,left
4.477,0.372663036670755,0.943007718560705,-0.056767342524214295,2.153011862002288,-0.06235852808488478,0.3170172052917848,0.13970211320761905,0.1970177495000852,-0.7311141530845932,2,left
4.478,0.3665441911044826,0.9431791816637829,-0.05723927636380836,2.149073637227654,-0.05233835940619596,0.3039338209486887,0.1403759826116414,0.2014923803410962,-0.7408540397896404,2,left
4.4830000000000005,0.360399679977246,0.9433416221627579,-0.057664453825161686,2.1446320402239816,-0.04234980515336677,0.2905654755796114,0.1409504618485038,0.2058843617870962,-0.7502832077521001,2,left
4.484,0.3542319014030499,0.9434962443606608,-0.058043281481014286,2.1396767338301492,-0.032422243517981404,0.2769264936565454,0.14142742441020206,0.21019095001620822,-0.7594000393157144,2,left
4.484,0.34804327293077997,0.9436442663874652,-0.05837624777553425,2.134197437675352,-0.022584260895439145,0.2630317135054862,0.1418088317942013,0.21440947679817499,-0.7682031085690278,2,left
4.487,0.3418362299547518,0.9437869158489889,-0.058663921107647045,2.1281839615090665,-0.012863599281771878,0.24889645090529297,0.14209672840678994,0.2185373546733672,-0.776691176550967,2,left
4.487,0.335613224263037,0.943925425327403,-0.05890694773326008,2.1216262391179863,-0.003287106859533201,0.23453646211004667,0.14229323648440498,0.22257208170152767,-0.7848631863422707,2,left
4.492,0.32937672273944807,0.9440610277407805,-0.05910604949497531,2.1145143617902806,0.006119308140915326,0.21996790718248901,0.14240055103402838,0.22651124579236478,-0.7927182580680595,2,left
4.493,0.3231292062351738,0.9441949515768551,-0.05926202138981791,2.1068386109003296,0.015330720286776678,0.20520731396895567,0.14242093479348644,0.23035252862984823,-0.8002556838359234,2,left
4.497,0.31687316862351167,0.9443284160253512,-0.059375728987611356,2.0985894895268116,0.024323226514669335,0.19027154273641758,0.1423567132122212,0.23409370920179215,-0.8074749226330016,2,left
4.498,0.3106111160468027,0.9444626260433402,-0.05944810571418215,2.0897577530836977,0.03307398245592515,0.1751777514298142,0.1422102694528473,0.23773266694603742,-0.8143755952046218,2,left
4.502,0.30434556635872867,0.9445987673987507,-0.05948015001438748,2.0803344389420797,0.041561235541744596,0.1599433615073116,0.1419840394135574,0.2412673845242624,-0.8209574789361461,2,left
4.502,0.29807904875674773,0.9447380017476789,-0.05947292240893529,2.070310895019113,0.049764354913993274,0.14458602431061618,0.14168050677119737,0.24469595023416602,-0.8272205027587657,2,left
4.5089999999999995,0.2918141035903482,0.9448814618101017,-0.0594275424559529,2.0596788073086856,0.057663858166731384,0.129123587927021,0.14130219804459532,0.2480165600704719,-0.8331647420990654,2,left
4.51,0.285553282323257,0.9450302467144934,-0.05934518562544179,2.048430226326722,0.06524143494281333,0.11357406449945814,0.14085167767750012,0.251227519444904,-0.8387904138912664,2,left
4.511,0.27929914762097235,0.9451854175840756,-0.05922708009448717,2.0365575924423145,0.07247996740908098,0.09795559794047831,0.14033154314026303,0.25432724457497935,-0.8440978716701407,2,left
4.511,0.2730542735273202,0.945347993436364,-0.05907450347401508,2.024053760064112,0.07936354763280415,0.08228643200577684,0.13974442004918083,0.2573142635511528,-0.849087600761671,2,left
4.519,0.26682124568617205,0.945518947463207,-0.05888877948300882,2.010912020649645,0.0858774918810999,0.06658487868263564,0.13909295730221216,0.2601872170915355,-0.8537602135876208,2,left
4.52,0.2606026615596883,0.9456992037501514,-0.05867127459124114,1.997126124503461,0.09200835186409076,0.05086928684845257,0.13837982222957826,0.2629448589930882,-0.8581164450992611,2,left
4.521,0.25440113059423025,0.945889634481881,-0.058423394653728276,1.982690301328135,0.09774392294154484,0.03515801115438439,0.13760769575756734,0.26558605628786697,-0.8621571483545897,2,left
4.522,0.2482192742895082,0.9460910576649942,-0.05814658155686608,1.967599279490389,0.10307324931168194,0.019469381089036383,0.1367792675836768,0.2681097891125726,-0.865883290252467,2,left
4.527,0.24205972613448845,0.9463042353805727,-0.05784230988826184,1.951848303962704,0.10798662619973133,0.0038216701770915932,0.13589723136105047,0.27051515029932316,-0.8692959474361859,2,left
4.5280000000000005,0.23592513138391305,0.9465298725578268,-0.05751208363301816,1.9354331528989477,0.1124755990626946,-0.011766934732215286,0.1349642798899982,0.2728013446952341,-0.8723963023780841,2,left
4.532,0.22981814666137465,0.9467686162393724,-0.05715743289185235,1.9183501528006501,0.11653295982560237,-0.027278364131809212,0.13398310031422445,0.27496768821805495,-0.8751856396559075,2,left
4.533,0.22374143938704738,0.9470210552917717,-0.0567799106122807,1.9005961922286718,0.12015274016336142,-0.04269469652358382,0.132956369319237,0.27701360665477043,-0.8776653424307289,2,left
4.5360000000000005,0.2176976870367272,0.9472877205032842,-0.05638108932212338,1.8821687340130986,0.12333020184107239,-0.05799818913005121,0.1318867483302622,0.27893863420973203,-0.8798368891353311,2,left
4.537,0.21168957624165136,0.9475690850039808,-0.055962557852563266,1.8630658259122834,0.12606182412446085,-0.07317130869535404,0.13077687870685337,0.2807424118085422,-0.8817018503810727,2,left
4.542,0.20571980173825524,0.9478655649411328,-0.05552591803564158,1.8432861096700273,0.12834528827081018,-0.08819676241988882,0.12962937693124865,0.28242468516356783,-0.8832618860903606,2,left
4.543,0.19979106517675504,0.9481775203451682,-0.05507278136040161,1.8228288284179575,0.1301794591095168,-0.10305752907246528,0.12844682979155445,0.28398530260966875,-0.8845187428587783,2,left
4.543,0.193906073795999,0.9485052561291082,-0.05460476557357674,1.8016938323682201,0.13156436372010974,-0.11773689032355335,0.12723178958142964,0.2854242127336631,-0.8854742515390597,2,left
4.545,0.18806753896801023,0.9488490231750536,-0.05412349121324357,1.779881582739668,0.13250116721429198,-0.13221846234274467,0.12598676937512515,0.28674146184821403,-0.8861303250184701,2,left
4.546,0.18227817461289442,0.9492090194668557,-0.05363057806694657,1.757393153858771,0.13299214562727282,-0.14648622770308412,0.12471423845734746,0.2879371913757555,-0.8864889561493096,2,left
4.551,0.17654069548664797,0.9495853912250902,-0.05312764155137773,1.7342302334157713,0.1330406559640043,-0.16052456759443412,0.12341661796660647,0.28901163519244266,-0.8865522158023653,2,left
4.551,0.17085781534726446,0.9499782339983227,-0.05261628901882145,1.710395121060817,0.13265110365281085,-0.1743182941476112,0.12209627677333458,0.28996511695425176,-0.8863222510320288,2,left
4.552,0.16523224500445474,0.9503875936710386,-0.052098116003252995,1.6858907258939704,0.13182890803231292,-0.1878526823106771,0.12075552759326924,0.29079804741172227,-0.8858012833519221,2,left
4.555,0.15966669025826527,0.9508134673574127,-0.051574702424987226,1.6607205636072042,0.13058046670443715,-0.20111350051825239,0.11939662333237673,0.29151092171642795,-0.8849916071212153,2,left
4.556,0.1541638497354698,0.9512558041550234,-0.051047608777517,1.63488875382841,0.12891311937688857,-0.2140870395938761,0.11802175365952888,0.292104316721917,-0.883895588040982,2,left
4.56,0.14872641263680506,0.9517145057387718,-0.05051837232217213,1.6084000178444355,0.12683511144252985,-0.22676013968443254,0.11663304180308637,0.2925788882815157,-0.8825156617591007,2,left
4.561,0.14335705640845517,0.9521894267890089,-0.049988503315814836,1.581259676672077,0.12435555733372926,-0.23912021522473925,0.115232541567489,0.29293536854504393,-0.8808543325813801,2,left
4.565,0.13805844434790396,0.952680375267506,-0.049459481297477716,1.5534736494028327,0.12148440364690502,-0.2511552779695376,0.11382223456590831,0.29317456325614893,-0.8789141722857665,2,left
4.566,0.13283322314971413,0.9531871125748849,-0.0489327514627432,1.5250484517453333,0.11823239203131633,-0.26285395812926515,0.11240402766497744,0.2932973490516223,-0.8766978190356728,2,left
4.57,0.127684020391614,0.9537093536394963,-0.04840972115793421,1.4959911946874955,0.11461102183499913,-0.27420552364509093,0.11097975063757905,0.29330467076372585,-0.8742079763876636,2,left
4.571000000000001,0.12261344195579774,0.9542467669987755,-0.047891756528477034,1.466309583198589,0.11063251249962182,-0.28519989763776316,0.10955115401964444,0.2931975387262155,-0.8714474123879282,2,left
4.575,0.11762406937650313,0.9547989749393786,-0.04738017935650887,1.4360119148895782,0.10630976569494349,-0.29582767406385285,0.10811990716689303,0.2929770260844179,-0.8684189587511809,2,left
4.5760000000000005,0.11271845710461,0.9553655537614433,-0.04687626412145278,1.4051070785482753,0.10165632718249791,-0.3060801316119826,0.10668759650742499,0.2926442661093829,-0.8651255101148394,2,left
4.581,0.10789912968363982,0.9559460342251566,-0.04638123531340564,1.3736045524640625,0.09668634839710141,-0.3159492458706031,0.10525572398606631,0.29220044951580665,-0.8615700233605592,2,left
4.581,0.10316857883901048,0.9565399022261908,-0.045896265022043733,1.341514402455159,0.0914145477337963,-0.32542769979782993,0.10382570569635821,0.2916468217830943,-0.8577555169944306,2,left
4.585,0.09852926049257851,0.9571465997326726,-0.045422470813389945,1.3088472795096764,0.08585617152689169,-0.33450889252277644,0.10239887069607953,0.29098468047860854,-0.8536850705763827,2,left
4.586,0.0939835917247631,0.9577655260013018,-0.044960913895469405,1.2756144169499837,0.0800269547068564,-0.34318694650671705,0.10097646000219171,0.29021537258183205,-0.8493618241885861,2,left
4.59,0.08953394771463863,0.9583960390753238,-0.04451259756437972,1.241827627028219,0.07394308111995192,-0.3514567130912967,0.09955962576110121,0.28934029180785653,-0.8447889779319043,2,left
4.591,0.0851826586929931,0.9590374575548123,-0.0440784659153764,1.2074992968591258,0.06762114349467181,-0.35931377645986173,0.09814943059014299,0.2883608759282979,-0.8399697914387072,2,left
4.596,0.08093200694321138,0.9596890626219865,-0.04365940279959207,1.1726423835947757,0.06107810303827655,-0.3667544560368298,0.09674684708620156,0.2872786040874319,-0.8349075833896328,2,left
4.5969999999999995,0.07678422387942128,0.9603501003001748,-0.043256231007494476,1.137270408744136,0.05433124864598223,-0.3737758073488481,0.09535275749740145,0.28609499411103867,-0.8296057310211686,2,left
4.6,0.07274148722215176,0.9610197839220956,-0.04286971166395026,1.1013974515389024,0.04739815570467834,-0.38037562137030073,0.09396795355381835,0.2848115998051464,-0.824067669610215,2,left
4.6,0.0688059182824677,0.9616972967799281,-0.042500543821537194,1.065038141245484,0.04029664447241549,-0.3865524223745363,0.09259313645318318,0.28343000824156755,-0.8182968919210967,2,left
4.604,0.06497957935971813,0.9623817949261201,-0.042149364236557595,1.0282076483215616,0.03304473801431893,-0.39230546431097946,0.09122891699757645,0.28195183702683113,-0.8122969475997968,2,left
4.604,0.061264471255719995,0.963072410089992,-0.0418167473108935,0.9909216743141962,0.025660619675049443,-0.39763472572708475,0.08987581587713579,0.28037873155082765,-0.8060714424995139,2,left
4.609,0.05766253090663953,0.9637682526707677,-0.04150320518582486,0.9531964403950667,0.018162590067449455,-0.4025409032528734,0.08853426409682885,0.27871236221120144,-0.7996240379209704,2,left
4.61,0.054175629131413834,0.9644684147643551,-0.04120918797800536,0.9150486744270722,0.010569023556580983,-0.40702540366458123,0.08720460354299715,0.27695442161343486,-0.7929584497570893,2,left
4.61,0.050805568492611114,0.9651719731827438,-0.04093508414982322,0.876495596455215,0.002898324217982028,-0.41109033454272864,0.0858870876895289,0.275106621767237,-0.7860784475652346,2,left
4.6160000000000005,0.047554081262644946,0.9658779924320393,-0.04068122100776215,0.8375549025134305,-0.004831118751358783,-0.41473849353870945,0.0845818824491656,0.27317069133727157,-0.7789878536511783,2,left
4.6160000000000005,0.04442282748544181,0.9665855276225294,-0.04044786532454757,0.7982447466378089,-0.012600976191084,-0.4179733562627863,0.08328906717860239,0.2711483730269359,-0.7716905422825586,2,left
4.62,0.04141339312120001,0.9672936272879668,-0.040235224083209724,0.7585837210362881,-0.02039302468121715,-0.42079906281698065,0.08200863584295594,0.2690414211527053,-0.7641904391147509,2,left
4.622,0.03852728826010013,0.9680013360951918,-0.04004344534336282,0.7185908346677254,-0.028189192541437515,-0.42322040305417585,0.08074049833959443,0.26685159942861225,-0.7564915208498595,2,left
4.622,0.035765945390314975,0.9687076974327189,-0.03987261923097837,0.6782854910293086,-0.03597160546739079,-0.42524280074981363,0.0794844819782394,0.2645806789592425,-0.7485978151147233,2,left
4.625,0.033130717706398305,0.9694117558754294,-0.03972277905032845,0.6376874662542045,-0.04372263091868726,-0.42687229693041306,0.07824033311366099,0.2622304364351997,-0.7405134005363975,2,left
4.625,0.03062287744537001,0.9701125595295813,-0.039593902510626715,0.5968168883164472,-0.051424920600174645,-0.4281155325429573,0.07700771892732318,0.259802652524751,-0.7322424069930009,2,left
4.631,0.028243614239583183,0.9708091622683093,-0.0394859130550938,0.5556942175920566,-0.059061450786496356,-0.42897973054180094,0.07578622935437034,0.2572991104551338,-0.7237890160172651,2,left
4.632,0.02599403347860789,0.9715006258727672,-0.03939868128244228,0.5143402287205966,-0.06661556046677965,-0.4294726774096002,0.07457537915238012,0.2547215947767767,-0.715157461329565,2,left
4.633,0.02387515467693382,0.9721860220978809,-0.039332026460280674,0.4727759936498039,-0.07407098733154376,-0.42960270411585116,0.07337461010834119,0.25207189030346244,-0.7063520294766836,2,left
4.6339999999999995,0.021887909848734295,0.9728644346847359,-0.03928571814079546,0.4310228657451994,-0.08141190162372967,-0.4293786665155365,0.07218329338034525,0.2493517812212463,-0.6973770605520354,2,left
4.638999999999999,0.020033141893501298,0.9735349613435811,-0.03925947789513549,0.3891024648459278,-0.08862293787551764,-0.4288099251893145,0.07100073197051392,0.24656305035872828,-0.6882369489725588,2,left
4.64,0.018311602996875856,0.9741967157316865,-0.039252981182201024,0.3470366631474688,-0.09568922455231567,-0.4279063247256429,0.06982616332570983,0.2437074786110717,-0.678936144286993,2,left
4.643,0.016723953050132467,0.9748488294493467,-0.039265859361157035,0.3048475717913202,-0.10259641162497449,-0.42667817244421435,0.06865876206260788,0.24078684450995738,-0.669479151989766,2,left
