time,gFx,gFy,gFz,ax,ay,az,wx,wy,wz,subject_number,foot
7.782,0.5889031556484361,0.45267859344660843,0.4456818800244601,-2.21649364430635,5.721157263657381,-1.4178089770765252,-1.0860768258926035,0.18031786515149129,1.9647635821454903,3,left
7.782,0.5896113631084862,0.4369845166107803,0.445914193691084,-2.1820883381432,5.648565257413227,-1.377883882394559,-1.0797021568047325,0.1670053493631063,1.9570947271295618,3,left
7.7860000000000005,0.5902134501761581,0.4214436255124609,0.4459890788712884,-2.14751524235297,5.57313746706079,-1.3374909356282356,-1.072796453906302,0.1536463671553282,1.9485710267660872,3,left
7.787000000000001,0.5907114132728483,0.4060635359840617,0.4459085938352267,-2.1128161294414047,5.494887108548921,-1.2966594178701099,-1.0653583283904675,0.14024722177799354,1.9391904038409735,3,left
7.791,0.5911072038714658,0.39085172146766595,0.44567501118899483,-2.0780318360778107,5.413829686802308,-1.2554194154131533,-1.0573868321236286,0.12681452377453917,1.9289513975086539,3,left
7.792999999999999,0.5914027260299369,0.3758155079198286,0.4452908103573196,-2.0432021866942556,5.329983020643049,-1.2138017926507254,-1.0488814617568885,0.11335518505294231,1.9178531660777949,3,left
7.797000000000001,0.5915998345677367,0.36096206894944677,0.4447586694454585,-2.008365922897318,5.243367264106048,-1.1718381627081,-1.039842162398439,0.09987641068352988,1.905895488986166,3,left
7.797999999999999,0.5917003338948598,0.3462984212007031,0.4440814565230725,-1.9735606385925515,5.154004923915395,-1.1295608556871415,-1.0302693308239723,0.08638568838508354,1.8930787679352559,3,left
7.801,0.5917059774931566,0.33183141999523086,0.4432622203788074,-1.9388227207216826,5.061920872880902,-1.0870028844046422,-1.0201638182006842,0.07289077566059113,1.8794040271527503,3,left
7.8020000000000005,0.5916184680403646,0.31756775524911834,0.44230418079945516,-1.9041872955125572,4.967142358966035,-1.0441979075038426,-1.009526932298904,0.059399684543939305,1.8648729127485244,3,left
7.806,0.5914394581590293,0.30351394768110673,0.4412107184321877,-1.86968818014192,4.869699009770563,-1.00118018981775,-0.9983604391638493,0.045920663918809064,1.8494876911273281,3,left
7.806,0.5911705517657111,0.2896763453289235,0.43998536429180674,-1.8353578397113148,4.769622832163473,-0.9579845598620744,-0.986666564218481,0.03246217937102416,1.8332512464188901,3,left
7.811,0.5908133059893509,0.27606112039107805,0.4386317889764282,-1.801227349436676,4.666948206793918,-0.9146463643348868,-0.9744479927669044,0.019032890535613595,1.8161670768836968,3,left
7.812,0.5903692336202893,0.2626742664112662,0.437153791655069,-1.7673263619525772,4.561711877200347,-0.8712014194994938,-0.9617078698662435,0.005641625899885116,1.7982392902502562,3,left
7.817,0.5898398060440087,0.24952159582098873,0.4355552888912015,-1.7336830796325844,4.453952933230407,-0.8276859593265207,-0.948449799533399,-0.007702644976134541,1.7794725979372112,3,left
7.817,0.5892264566096718,0.23660873785232966,0.4338403033684047,-1.7003242318277234,4.343712788476728,-0.7841365802707753,-0.9346778432515985,-0.020990841860452268,1.7598723081112346,3,left
7.822,0.5885305843854708,0.22394113682792355,0.4320129525850461,-1.6672750569257377,4.231035151426363,-0.7405901825581686,-0.9203965177401455,-0.034213806909504374,1.7394443175292091,3,left
7.822,0.5877535582591817,0.21152405083000694,0.4300774375799195,-1.6345592891345453,4.115965990014411,-0.6970839078577608,-0.9056107919678202,-0.04736234034994766,1.7181951021472348,3,left
7.8229999999999995,0.5868967213500337,0.19936255074402623,0.42803803173806343,-1.6021991498941206,3.9985534892652264,-0.6536550732139075,-0.8903260834815522,-0.06042723836062247,1.6961317066587673,3,left
7.8260000000000005,0.5859613957034652,0.18746151966509647,0.4258990697099858,-1.5702153438219044,3.8788480016976234,-0.6103411011134893,-0.8745482542872857,-0.07339933204421147,1.6732617334497384,3,left
7.827000000000001,0.5849488872374106,0.17582565265282454,0.42366493646710074,-1.5386270590978137,3.7569019901636045,-0.5671794455633201,-0.8582836066111585,-0.08626952599508965,1.6495933316383133,3,left
7.831,0.5838604908943557,0.16445945682455812,0.42134005651495676,-1.507451972195929,3.632769962783442,-0.52420751405306,-0.841538878775033,-0.09902883535243535,1.625135186682437,3,left
7.831,0.5826974959343556,0.15336725178380928,0.41892888328838424,-1.4767062568710219,3.5065083996333346,-0.4814625852792798,-0.8243212412522425,-0.1116684209164711,1.5998965107080914,3,left
7.835,0.5814611912922498,0.1425531703817306,0.41643588875299936,-1.4464045972892539,3.3781756710781767,-0.4389817226548532,-0.806638292875375,-0.12417962228822448,1.5738870335267248,3,left
7.836,0.5801528709251752,0.1320211598027231,0.41386555323392,-1.4165602050937576,3.247831948849387,-0.39680168436881796,-0.7884980571480021,-0.13655398906944433,1.547116994271613,3,left
7.837000000000001,0.5787738390918943,0.12177498295470912,0.41122235548734964,-1.3871848400173923,3.1155391131462578,-0.35495883209526674,-0.7699089786109126,-0.14878331015896376,1.5195971335806655,3,left
7.841,0.5773254155214987,0.11181822013632028,0.4085107630303339,-1.358288833556437,2.981360660247038,-0.31348904119100723,-0.7508799192120661,-0.16085964118143314,1.4913386862509845,3,left
7.8420000000000005,0.5758089404380219,0.10215427094910622,0.40573522275226037,-1.3298811153200898,2.845361613896485,-0.2724276144821731,-0.7314201546281749,-0.17277533008395352,1.4623533742882922,3,left
7.845,0.5742257794141775,0.0927863564204532,0.40290015184267114,-1.301969241851648,2.707608441546409,-0.2318092004081685,-0.7115393704845314,-0.18452304093572486,1.432653400272197,3,left
7.847,0.5725773280370318,0.08371752130029039,0.4000099290750843,-1.2745594278184136,2.568168975306627,-0.19166771555197587,-0.6912476584184335,-0.19609577596538533,1.402251440956145,3,left
7.85,0.5708650163770527,0.07495063649236512,0.39706888648386324,-1.2476565794887347,2.4271123372157755,-0.15203627143894288,-0.6705555119303288,-0.20748689587025568,1.3711606410188126,3,left
7.851,0.5690903132530937,0.06648840158003896,0.3940813014649158,-1.22126433041601,2.284508868436403,-0.11294710548743572,-0.649473821965587,-0.2186901384312221,1.339394606881651,3,left
7.857,0.567254730278384,0.05833334740782003,0.3910513893260977,-1.1953850792509289,2.1404300619739236,-0.07443151599611421,-0.628013872168628,-0.22969963546648856,1.3069674005052725,3,left
7.858,0.5653598256616978,0.0504878386833214,0.38798329631119266,-1.1700200296046672,1.9949484985143584,-0.03651980105404756,-0.6061873337499883,-0.24050992815690886,1.2738935330753935,3,left
7.86,0.5634072077289505,0.042954076569142505,0.3848810931200765,-1.1451692318872309,1.8481377849713598,0.0007587987385545265,-0.584006259905788,-0.2511159807750694,1.2401879584871047,3,left
7.861000000000001,0.5613985381238552,0.03573410123875561,0.38174876894467336,-1.1208316270465997,1.7000724953287736,0.03737615384957522,-0.5614830797279734,-0.2615131928497389,1.2058660665343526,3,left
7.865,0.5593355346409619,0.028829794374182878,0.3785902260353575,-1.0970050921358088,1.5508281133609707,0.07330529580303559,-0.5386305915426606,-0.27169740979672846,1.1709436757096459,3,left
7.8660000000000005,0.5572199736431536,0.022242881586370822,0.3754092748072335,-1.0736864876365737,1.4004809768093556,0.10852046368298235,-0.5154619556128862,-0.2816649320466213,1.1354370255171946,3,left
7.869,0.5550536920200709,0.015974934741542587,0.37220962949213027,-1.05087170646954,1.2491082225898689,0.14299714725835208,-0.4919906861410888,-0.2914125226992307,1.0993627682009204,3,left
7.87,0.5528385886501628,0.01002737417786745,0.36899490433979104,-1.0285557246227033,1.0967877326029036,0.1767121268319713,-0.46823064250570107,-0.30093741373403565,1.0627379597870472,3,left
7.874,0.5505766253341775,0.004401470797088007,0.36576861036800595,-1.0067326533310008,0.9435980797138965,0.2096435099148033,-0.44419601966532546,-0.31023731080522093,1.025580050339309,3,left
7.875,0.5482698271738,-0.0009016519834328206,0.3625341526548647,-0.9853957927415278,0.7896184734699082,0.2417707648244343,-0.41990133766309456,-0.3193103966493174,0.9879068733231785,3,left
7.879,0.5459202823781565,-0.0058810164314587595,0.3592948281588886,-0.9645376870002521,0.6349287051147859,0.2730747513046058,-0.3953614301629916,-0.3281553331328007,0.9497366339739418,3,left
7.88,0.5435301414934868,-0.010535788865967078,0.3560538240483007,-0.944150180697526,0.47960909146300357,0.3035377482603516,-0.3705914319491171,-0.3367712619663607,0.9110878965619134,3,left
7.885,0.5411016160669511,-0.01486527820144673,0.3528142165204088,-0.9242244766110791,0.323740417190012,0.3331434787009925,-0.3456067653181418,-0.3451578041119022,0.871979570446603,3,left
7.886,0.5386369767724348,-0.018868934683242525,0.3495789700928525,-0.9047511946865602,0.16740387509488902,0.3618771319808767,-0.32042312529448097,-0.35331505790768575,0.8324308948102246,3,left
7.891,0.5361385510411516,-0.022546348824541814,0.3463509373461795,-0.8857204321970366,0.010681003889270334,0.3897253834253446,-0.2950564635970669,-0.3612435959363577,0.7924614219595579,3,left
7.892,0.5336087202496691,-0.025897250551281524,0.34313285909218855,-0.8671218250241933,-0.14634637693503197,0.41667641142693457,-0.26952297132633507,-0.3689444606637826,0.7520909991421892,3,left
7.892,0.5310499165193007,-0.02892150855732375,0.33992736493976494,-0.8489446100052671,-0.3035962356086614,0.44271991209434547,-0.2438390605412583,-0.37641915889503186,0.7113397491135368,3,left
7.893,0.5284646191743405,-0.03161912987022943,0.3367369742320226,-0.8311776882910223,-0.4609864004076461,0.46784711153413083,-0.21802134525895292,-0.3836696551276046,0.6702280502148343,3,left
7.895,0.525855350901879,-0.03399025962572928,0.3335640973308495,-0.8138096896613181,-0.618434636247546,0.49205077584252604,-0.19208662261068957,-0.3906983639004037,0.6287765170127405,3,left
7.9,0.5232246736606486,-0.036035181043541885,0.33041103722318077,-0.7968290377460244,-0.7758587260003788,0.5153252188822048,-0.1660518546859226,-0.39750814121724093,0.5870059822585002,3,left
7.901,0.5205751843961632,-0.037754315589468554,0.3272799914197427,-0.7802240161002223,-0.9331765569862855,0.5376663079161343,-0.13993415123235178,-0.40410227508862495,0.5449374803985781,3,left
7.905,0.5179095106258793,-0.03914822330292266,0.3241730541150339,-0.7639828350125795,-1.09030621284557,0.5590714671377213,-0.11375075317790637,-0.41048447521584935,0.5025922325760617,3,left
7.906000000000001,0.515230305956358,-0.04021760326817714,0.3210922185773664,-0.7480936985709573,-1.2471660697641798,0.5795396789821492,-0.08751901689989743,-0.41665886183695083,0.4599916330028821,3,left
7.906000000000001,0.5125402455855712,-0.04096329421067763,0.31803937973817836,-0.7325448708696719,-1.4036748938069075,0.5990714828282037,-0.061256399166346585,-0.422629953753488,0.4171572365820482,3,left
7.909,0.5098420218376907,-0.041386275201819804,0.3150163369465572,-0.7173247398879277,-1.559751934879558,0.6176689705455666,-0.034980442674310476,-0.42840265555648466,0.37411074765829133,3,left
7.91,0.5071383397818371,-0.04148766645193259,0.312024796845834,-0.7024218779259067,-1.7153170140730463,0.6353357784915021,-0.008708762109881646,-0.43398224406928476,0.33087400977478926,3,left
7.912999999999999,0.5044319129922572,-0.041268730163183234,0.30906637631899536,-0.6878250981266784,-1.8702906033598676,0.6520770758310975,0.017540969345541564,-0.4393743540244823,0.2874689963129624,3,left
7.915,0.5017254595054733,-0.04073087140729501,0.30614260544533667,-0.6735235069689943,-2.0245938978446394,0.6678995492041647,0.04375103313816221,-0.4445849629915216,0.24391780189173007,3,left
7.917999999999999,0.499021698020992,-0.03987563899067135,0.30325493041394797,-0.6595065526881311,-2.1781488810154377,0.6828113837895682,0.06990367816930244,-0.4496203755710078,0.2002426344020648,3,left
7.919,0.4963233443804946,-0.03870472627164375,0.30040471634739535,-0.6457640695828246,-2.3308783834409588,0.6968222408150851,0.09598113340290201,-0.4544872068712323,0.1564658075522023,3,left
7.922999999999999,0.49363310834785035,-0.037219971900014255,0.29759324999834513,-0.6322863181671897,-2.482706135356609,0.7099432315582702,0.12196562032825387,-0.4591923652818933,0.11260973379844355,3,left
7.925,0.4909536906997865,-0.03542336045611458,0.2948217422916487,-0.6190640211273346,-2.6335568135804777,0.7221868878811827,0.14783936535306821,-0.463743034559493,0.06869691753612996,3,left
7.928999999999999,0.48828778062511624,-0.03331702297300068,0.2920913306936221,-0.6060883950431722,-2.7833560831977824,0.7335671293392512,0.17358461220174015,-0.4681466552384062,0.024749948425080957,3,left
7.93,0.4856380534188142,-0.030903237330173774,0.289403081397869,-0.5933511778366903,-2.9320306344497826,0.7440992269019933,0.19918363439342943,-0.47241090538115244,-0.01920850527644439,3,left
7.935,0.4830071684463976,-0.028184428511310134,0.2867579913240921,-0.5808446519086756,-3.07950821526036,0.7537997633207946,0.2246187478742422,-0.47654368068096137,-0.06315570349536317,3,left
7.936,0.4803977673455675,-0.025163168723225972,0.2841569899351437,-0.5685616629266008,-3.2257176598304302,0.7626865901764722,0.24987232387743555,-0.4805530739292979,-0.1070688413711606,3,left
7.937,0.4778124724269375,-0.021842177378565517,0.2816009408879596,-0.5564956342270662,-3.3705889137271523,0.7707787816369146,0.2749268020851464,-0.48444735386061366,-0.15092505665329023,3,left
7.938,0.4752538852332685,-0.018224320949471438,0.27909064354387847,-0.5446405767968522,-3.514053055891421,0.7780965849527016,0.2997647041646752,-0.48823494338621587,-0.19470143759478184,3,left
7.943,0.47272458521574195,-0.014312612704059228,0.2766268343710625,-0.5329910947972838,-3.6560423179835353,0.7846613677162781,0.32436864775183266,-0.4919243972287877,-0.2383750314681586,3,left
7.943,0.47022712848694725,-0.010110212341935307,0.2742101882743356,-0.5215423865972311,-3.796490101483056,0.7904955619079693,0.3487213609532873,-0.49552437896876667,-0.2819228538296012,3,left
7.9479999999999995,0.46776404661516285,-0.0056204255473508566,0.27184131988488036,-0.5102902412806776,-3.9353309929548477,0.795622604749906,0.3728056974392292,-0.49904363751347935,-0.3253218986570675,3,left
7.949,0.4653378454324397,-0.0008467034780493305,0.2695207848351625,-0.4992310305953806,-4.072500777889052,0.8000668763867675,0.39660465219699204,-0.5024909829996516,-0.3685491494877808,3,left
7.952999999999999,0.46295100383718163,0.004207357794208077,0.2672490810360788,-0.4883616963097248,-4.207936453518331,0.8038536344101539,0.42010137801555747,-0.5058752621396526,-0.41158159168013814,3,left
7.954,0.4606059725799542,0.009538017878299868,0.2650266499667617,-0.47767973294543814,-4.3415762410110865,0.8070089452413657,0.44327920277009114,-0.5092053330216032,-0.4543962259246639,3,left
7.957999999999999,0.45830517302985835,0.015141392683814845,0.2628538779835042,-0.46718316585439146,-4.473359597434579,0.8095596123854161,0.46612164757484364,-0.5124900393732699,-0.4969700831281378,3,left
7.96,0.4560509959263457,0.021013455059618,0.2607310976520304,-0.45687052460825334,-4.603227227876865,0.8115331015672068,0.48861244587187885,-0.5157381842994867,-0.5392802407944702,3,left
7.961,0.45384580012594433,0.02715003544563643,0.2586585891069176,-0.44674081167030827,-4.7311210981113705,0.8129574627589933,0.5107355634834194,-0.5189585035270812,-0.5813038409692246,3,left
7.961,0.4516919113543248,0.03354682253400162,0.256636581442517,-0.436793466319282,-4.856984448182507,0.813861249106522,0.5324752194608376,-0.5221596383131064,-0.6230181095337686,3,left
7.9639999999999995,0.44959162097188177,0.04019936393794609,0.25466525413923646,-0.4270283237955461,-4.980761807285319,0.8142734327595724,0.5538159072134754,-0.5253501083916007,-0.6644003761298733,3,left
7.965,0.44754718475846883,0.04710306686850993,0.2527447385281817,-0.41744556964060014,-5.102399010306423,0.8142233176110557,0.5747424152056239,-0.5285382854559681,-0.7054280937145285,3,left
7.97,0.44556082172279565,0.054253198818800356,0.25087511929706496,-0.40804568932562235,-5.221843216278904,0.8137404490603841,0.5952398467026889,-0.5317323675520665,-0.7460788570240809,3,left
7.971,0.4436347129426472,0.06164488825612499,0.24905643603954686,-0.39882941388723864,-5.339042928453879,0.8128545214806929,0.6152936383952609,-0.5349403545375319,-0.7863304197302559,3,left
7.971,0.4417710004408318,0.06927312532661811,0.2472886848483555,-0.3897976634084848,-5.453948014706194,0.8115952850856653,0.6348895779224109,-0.5381700246409075,-0.8261607103498295,3,left
7.974,0.4399717860992154,0.07713276258271842,0.24557181995122582,-0.38095149080529916,-5.566509726441423,0.8099924544557486,0.6540138203530689,-0.5414289121297717,-0.8655478470246839,3,left
7.975,0.43823913061069875,0.08521851574782753,0.24390575538760698,-0.3722920277575759,-5.676680714708905,0.8080756204171168,0.6726529036830593,-0.5447242860970964,-0.9044701512878287,3,left
7.98,0.43657505246628,0.09352496453529825,0.2422903667213697,-0.3638204335050367,-5.784415043198019,0.8058741659481528,0.6907937634040593,-0.5480631303751288,-0.9429061609297643,3,left
7.982,0.43498152697136416,0.1020465535428973,0.2407254927802853,-0.3555378466068767,-5.8896681983322,0.8034171862219707,0.7084237461993905,-0.5514521245861763,-0.9808346420782885,3,left
7.984,0.43346048528286907,0.11077759324977851,0.23921093740871496,-0.3474453396403122,-5.992397096777073,0.8007334127795332,0.7255306228201605,-0.5548976263397765,-1.0182346006035132,3,left
7.985,0.4320138134565866,0.11971226114956647,0.23774647121826578,-0.33954387681369463,-6.092560090672097,0.797851141827101,0.7421026001938398,-0.5584056545858546,-1.0550852929584627,3,left
7.99,0.4306433514926593,0.1288446030584851,0.236331833323017,-0.33183427447040004,-6.190116970887992,0.7947981666510189,0.7581283328158952,-0.5619818741336219,-1.0913662365641668,3,left
7.9910000000000005,0.42935089236604335,0.13816853464045142,0.23496673304857327,-0.32431716446024916,-6.285028968604981,0.7916017141421916,0.7735969334735983,-0.5656315813461243,-1.127057219846643,3,left
7.994,0.42813818102866424,0.1476778431917461,0.23365085160412088,-0.3169929603557597,-6.377258755499502,0.7882883854220253,0.78849798334959,-0.5693596910205307,-1.1621383120315882,3,left
7.994,0.4270069133702957,0.15736618972656505,0.23238384370372697,-0.3098618264910852,-6.466770442819551,0.7848841005611272,0.8028215415512158,-0.5731707244644467,-1.1965898728009583,3,left
8.0,0.4259587351251832,0.16722711140112176,0.23116533912024773,-0.3029236498020472,-6.553529579621224,0.781414047381635,0.8165581541100472,-0.5770687987787484,-1.2303925619139269,3,left
8.001,0.4249952407114927,0.17725402430781478,0.22999494415493074,-0.2961780144462196,-6.637503150431371,0.7779026343337144,0.8296988624943735,-0.5810576173576558,-1.2635273488929577,3,left
8.005,0.4241179719925467,0.1874402266632255,0.22887224300868902,-0.2896241791825792,-6.718659572593385,0.7743734474364996,0.8422352116757925,-0.5851404616170035,-1.2959755228739192,3,left
8.005,0.42332841695329276,0.19777890240537271,0.22779679904676908,-0.28326105749079117,-6.796968693545319,0.770849211273561,0.854159257789342,-0.5893201839619139,-1.3277187027173065,3,left
8.008,0.42262800829131447,0.20826312520691675,0.22676815595602662,-0.2770872004107479,-6.8724017882714925,0.7673517540328642,0.8654635754249029,-0.5935992020053397,-1.3587388474757205,3,left
8.009,0.4220181219266048,0.21888586290231968,0.2257858388013287,-0.2711007820835324,-6.944931557160654,0.7639019765811285,0.8761412645858719,-0.5979794940492097,-1.3890182673107736,3,left
8.013,0.4215000754360784,0.22963998231867985,0.22484935499405168,-0.2652995879755233,-7.014532124495606,0.7605198255625102,0.8861859573493407,-0.6024625958401916,-1.418539634950578,3,left
8.014,0.42107512641652733,0.2405182544913461,0.22395819519166024,-0.2596810057679016,-7.081179037790932,0.7572242705116066,0.8955918242602423,-0.6070495986123668,-1.4472859977768895,3,left
8.017999999999999,0.4207444707747743,0.25151336023651866,0.22311183415226488,-0.2542420188943574,-7.1448492681871265,0.7540332849709153,0.904353580490125,-0.6117411484294064,-1.475240790628854,3,left
8.019,0.4205092409390577,0.2626178960453682,0.22230973157077738,-0.24897920271032475,-7.2055212121010275,0.7509638316030708,0.9124664917893959,-0.6165374468391265,-1.5023878494081282,3,left
8.023,0.4203705039833746,0.2738243802586893,0.22155133292376875,-0.24388872327759883,-7.263174694323942,0.7480318512884336,0.9199263802600449,-0.621438252853604,-1.5287114255679153,3,left
8.024,0.4203292596566782,0.2851252594782944,0.22083607034921643,-0.23896633874870177,-7.3177909727503465,0.7452522561988987,0.9267296299740081,-0.6264428862683302,-1.5541962015661954,3,left
8.029,0.4203864383101942,0.29651291517195133,0.22016336358583488,-0.2342074033358716,-7.369352744911403,0.7426389268391407,0.9328731924604668,-0.631550232334179,-1.5788273073610957,3,left
8.03,0.42054289871715195,0.3079796704317958,0.21953262099444293,-0.2296068738500405,-7.417844156478871,0.7402047130469055,0.9383545920835075,-0.6367587477962682,-1.6025903380239912,3,left
8.031,0.4207994257792138,0.3195177968508665,0.2189432406798931,-0.22515931879565226,-7.463250811896282,0.7379614389443921,0.9431719313175487,-0.642066468291322,-1.6254713725027177,3,left
8.033999999999999,0.42115672811353244,0.3311195214906933,0.21839461172667837,-0.22085893000763673,-7.505559787285464,0.7359199118332469,0.9473238958654109,-0.647471016981604,-1.647456993360839,3,left
8.033999999999999,0.4216154355146897,0.3427770339243542,0.21788611555712295,-0.21669953681731352,-7.5447596457676935,0.7340899350262011,0.9508097594528446,-0.6529696140988839,-1.6685343069492458,3,left
8.038,0.422176096286649,0.35448249334612986,0.21741712742091193,-0.2126746227344359,-7.580840455329868,0.7324803246089315,0.9536293880707898,-0.6585590869583517,-1.6886909632598415,3,left
8.039,0.4228391744413852,0.36622803573507673,0.2169870180274622,-0.20877734463300757,-7.613793809357238,0.7310989301263008,0.9557832434953628,-0.6642358801165041,-1.7079151749124863,3,left
8.039,0.42360504676430016,0.37800578105189453,0.21659515533384324,-0.2050005543725859,-7.6436128498720635,0.7299526591173605,0.9572723860228202,-0.669996065552191,-1.7261957350909387,3,left
8.042,0.4244739997514956,0.3898078404471047,0.21624090649839917,-0.20133682250555365,-7.670292293142513,0.7290475050722472,0.9580984764154669,-0.6758353528641095,-1.7435220344448756,3,left
8.043,0.4254462264284259,0.40162632346534843,0.21592364000535696,-0.19777846321429393,-7.693828456658169,0.7283885777513538,0.9582637770647018,-0.6817490995010393,-1.7598840770131967,3,left
8.048,0.4265218230638839,0.41345334523564076,0.21564272796035328,-0.19431755934093306,-7.71421928609343,0.7279801344559471,0.9577711523754825,-0.6877323210413641,-1.7752724952210992,3,left
8.049,0.4277007857995364,0.42528103363307684,0.21539754855122362,-0.19094598665425666,-7.731464381237152,0.7278256111919804,0.956624068374584,-0.6937797015386378,-1.78967856400068,3,left
8.052,0.4289830072227155,0.4371015363901931,0.21518748866185286,-0.18765543700561793,-7.745565020516816,0.727927653302953,0.9548265915431354,-0.6998856039501774,-1.8030942140820474,3,left
8.052999999999999,0.4303682729173433,0.44890702813540845,0.2150119466192463,-0.1844374403075556,-7.756524184102594,0.7282881455002719,0.9523833868720263,-0.7060440806658569,-1.8155120444991295,3,left
8.057,0.43185625803355293,0.4606897173409484,0.21487033504637681,-0.18128338532541746,-7.764346575640854,0.728908241290678,0.9492997151368956,-0.7122488841544643,-1.8269253343515488,3,left
8.058,0.433446523919268,0.4724418531683248,0.21476208378665573,-0.1781845392725186,-7.769038642657612,0.7297883918010347,0.9455814293875496,-0.7184934777451493,-1.8373280538610863,3,left
8.062000000000001,0.4351385148573553,0.4841557322043533,0.2146866428599674,-0.1751320661995713,-7.770608595663433,0.730928374001516,0.9412349706448014,-0.7247710465616379,-1.8467148747583895,3,left
8.062999999999999,0.43693155495275715,0.4958237050855137,0.2146434854059158,-0.1721170441693073,-7.76906642598226,0.7323273183289767,0.9362673627958872,-0.7310745086270279,-1.8550811800327072,3,left
8.068999999999999,0.43882484521617987,0.5074381830134637,0.2146321105686894,-0.16913048120737054,-7.764423922317665,0.733983735713033,0.9306862066777891,-0.7373965261570868,-1.862423073074514,3,left
8.07,0.4408174608933787,0.5189916441690664,0.21465204627902815,-0.16616333002069342,-7.756694686061068,0.735895544008127,0.9244996733359965,-0.7437295170600721,-1.868737386237988,3,left
8.072000000000001,0.44290834909085186,0.5304766400353734,0.2147028518899328,-0.16320650147467436,-7.745894145337493,0.7380600938355891,0.9177164964444504,-0.7500656666611657,-1.874021688847364,3,left
8.073,0.4450963267488509,0.5418858016413244,0.21478412062296942,-0.16025087682055872,-7.732039567775579,0.7404741938404543,0.9103459638706537,-0.7563969396696685,-1.8782742946682465,3,left
8.079,0.44738007901065485,0.5532118457377893,0.2148954817811964,-0.1572873186644793,-7.715150071979666,0.7431341353685164,0.9023979083681956,-0.7627150924071298,-1.8814942688620184,3,left
8.08,0.44975815803398383,0.5644475809166832,0.21503660268259425,-0.15430668066964245,-7.695246637672973,0.7460357165698344,0.8938826973772246,-0.7690116853145975,-1.8836814344385222,3,left
8.082,0.45222898228694797,0.5755859136836253,0.21520719026494148,-0.15129981598314962,-7.67235211447208,0.7491742659356151,0.8848112219117152,-0.7752780957571589,-1.8848363782192232,3,left
8.083,0.45479083636686213,0.5866198544954467,0.215406992311837,-0.14825758437892095,-7.646491229244278,0.7525446652761065,0.8751948845107195,-0.7815055311439052,-1.8849604563201139,3,left
8.087,0.4574418713761189,0.5975425237746038,0.21563579825293647,-0.14517085810813884,-7.617690591990641,0.7561413721478268,0.8650455862291662,-0.7876850423813876,-1.8840557991606348,3,left
8.087,0.46018010588651953,0.6083471579121315,0.21589343949997136,-0.14203052644855368,-7.585978700189104,0.7599584417391327,0.8543757126421694,-0.7938075376785504,-1.882125316001937,3,left
8.091000000000001,0.46300342752310913,0.6190271152694078,0.21617978929182868,-0.13882749894389274,-7.551385941523311,0.7639895482237997,0.8431981188352498,-0.7998637967210086,-1.8791726990148483,3,left
8.092,0.46590959520031894,0.6295758821876603,0.2164947620342079,-0.13555270732448485,-7.513944594914568,0.7682280055929327,0.8315261133513375,-0.8058444852324061,-1.875202426874947,3,left
8.096,0.4688962420448669,0.6399870790131748,0.21683831212957655,-0.13219710610006055,-7.473688829765851,0.7726667879761578,0.8193734410639318,-0.8117401699404192,-1.8702197678792092,3,left
8.097000000000001,0.47196087903852,0.650254466145259,0.21721043229974238,-0.1287516718155062,-7.430654703318578,0.7772985494636645,0.806754264970166,-0.8175413339619673,-1.8642307825759057,3,left
8.097999999999999,0.47510089940822947,0.6603719501141482,0.21761115140605303,-0.12520740096014535,-7.384880156014648,0.7821156434412543,0.7936831470252403,-0.8232383926078758,-1.8572423258972741,3,left
8.102,0.4783135837827191,0.670333589698306,0.21804053177211125,-0.12155530652088783,-7.336405004748187,0.7871101414511359,0.7801750283707589,-0.828821709581627,-1.8492620487829532,3,left
8.103,0.4815961061262079,0.6801336020924061,0.21849866601418613,-0.11778641316932963,-7.285270933883451,0.7922738515917536,0.7662452094373029,-0.8342816135324644,-1.840298399280039,3,left
8.106,0.4849455404530062,0.6897663691354005,0.21898567338889258,-0.11389175107260233,-7.2315214839074935,0.79759833647047,0.7519093302711369,-0.8396084149369132,-1.8303606231019973,3,left
8.107000000000001,0.48835886831946546,0.6992264436041661,0.21950169567644726,-0.10986234831746126,-7.175202037578396,0.8030749307234358,0.7371833512012431,-0.8447924233078211,-1.8194587636244364,3,left
8.107999999999999,0.4918329870807242,0.7085085555767271,0.2200468926266001,-0.10568922198888818,-7.116359803468752,0.8086947581249735,0.722083533832528,-0.8498239647437681,-1.8076036612921655,3,left
8.113,0.4953647188925912,0.7176076188718006,0.22062143699783077,-0.10136336820473377,-7.055043797028777,0.8144487483468378,0.7066264223240524,-0.8546933998341222,-1.7948069524090118,3,left
8.113999999999999,0.49895082043673245,0.726518737575742,0.22122550921832793,-0.09687575187663762,-6.991304819704181,0.8203276534957756,0.6908288249100156,-0.8593911419346161,-1.7810810672790984,3,left
8.116,0.5025879933436759,0.7352372126690616,0.22185929169606852,-0.0922172972276612,-6.9251954368689175,0.8263220645957912,0.674707795620153,-0.8639076758278769,-1.7664392276655587,3,left
8.116,0.5062728952761111,0.7437585487614422,0.2225229628102973,-0.08737887983601977,-6.856769955093552,0.8324224281443343,0.6582806161551784,-0.8682335767828766,-1.750895443529941,3,left
8.121,0.5100021516190726,0.7520784609404679,0.2232166906260458,-0.0823513205047348,-6.786084398845014,0.838619062804366,0.6415647778719245,-0.8723595300267795,-1.734464509012913,3,left
8.122,0.5137723677115583,0.7601928817383093,0.22394062638252835,-0.07712538099592697,-6.713196486474354,0.8449021762570134,0.6245779638319084,-0.8762763506421385,-1.7171619976142252,3,left
8.125,0.5175801415459764,0.7680979682224249,0.224694897813672,-0.07169176161583057,-6.638165605296079,0.8512618822323192,0.6073380308661694,-0.8799750039018504,-1.6990042565273187,3,left
8.127,0.5214220768541638,0.775790109219223,0.2254796023656959,-0.06604110063606629,-6.5610527855561145,0.8576882177358655,0.5898629916083955,-0.8834466260537003,-1.6800084000814037,3,left
8.13,0.5252947964916226,0.783265932682322,0.2262948003832726,-0.06016397553613989,-6.4819206730791405,0.8641711604892985,0.5721709964475801,-0.8866825455657315,-1.6601923022413438,3,left
8.131,0.5291949560273266,0.7905223132198729,0.22714050834157357,-0.0540509060515372,-6.400833500379899,0.8707006466030071,0.5542803153507209,-0.8896743048430413,-1.6395745881132144,3,left
8.135,0.5331192574452986,0.7975563797986683,0.22801669220589835,-0.04769235901116221,-6.317857056017064,0.8772665884993894,0.5362093195053987,-0.8924136824259644,-1.6181746244010093,3,left
8.136000000000001,0.5370644628644069,0.8043655236451711,0.22892326100406254,-0.04107875494721444,-6.233058651962508,0.8838588931053136,0.5179764627314527,-0.8948927156789147,-1.5960125087576054,3,left
8.141,0.5410274081836381,0.8109474063636911,0.2298600606982883,-0.03420047645992394,-6.1465070887531414,0.8904674803325054,0.49960026261039436,-0.8971037239784662,-1.5731090579708005,3,left
8.141,0.5450050165627829,0.8172999682892164,0.23082686843841568,-0.027047878318856695,-6.0582726181871225,0.8970823018647056,0.48109928128068924,-0.8990393324085246,-1.54948579492299,3,left
8.147,0.5489943116550446,0.8234214370861589,0.23182338725968482,-0.019611299281770744,-5.968426903320964,0.9036933602705117,0.4624921058465657,-0.9006924959696947,-1.5251649342608633,3,left
8.148,0.5529924305200037,0.829310336592598,0.23284924125041126,-0.011881075611242688,-5.877042975519069,0.9102907284608687,0.4437973283476022,-0.9020565243091787,-1.500169366709365,3,left
8.151,0.5569966361625661,0.834965495889631,0.2339039711586573,-0.003847556268496327,-5.784195188302362,0.9168645695101872,0.42503352523598487,-0.9031251069767517,-1.4745226419621145,3,left
8.152000000000001,0.5610043296631539,0.840386058545476,0.23498703034678714,0.004498880236950717,-5.689959167738055,0.923405156860064,0.40621923630802087,-0.9038923392115483,-1.4482489500784568,3,left
8.156,0.5650130618797723,0.8455714919451798,0.2360977809656843,0.01316780736405006,-5.594411759108239,0.9299028949245305,0.3873729430362436,-0.9043527482635654,-1.4213731013153965,3,left
8.157,0.5690205447040966,0.8505215965722176,0.23723549022698845,0.022168730446494162,-5.497630969590668,0.9363483401156981,0.3685130462482457,-0.9045013202529383,-1.393920504320787,3,left
8.16,0.573024661832006,0.8552365150590053,0.2383993266888746,0.031511065012494205,-5.399695906681242,0.942732222308566,0.34965784309823134,-0.9043335275691827,-1.3659171426123518,3,left
8.161,0.5770234789628861,0.8597167407635226,0.23958835649253973,0.04120411354298822,-5.300686712083845,0.9490454667636391,0.3308255032771869,-0.9038453568117147,-1.3373895492653871,3,left
8.166,0.5810152532892081,0.8639631255599332,0.24080153946158062,0.051257040694156965,-5.200684490789696,0.9552792165258507,0.31203404444686855,-0.9030333372132405,-1.3083647797730857,3,left
8.167,0.584998442110131,0.8679768864845808,0.2420377249324329,0.06167884701110565,-5.099771235065035,0.9614248553181116,0.2933013070795111,-0.9018945691925854,-1.278870383255592,3,left
8.168,0.588971710407071,0.8717596108744808,0.24329564716982166,0.07247834116057682,-4.9980297430629,0.9674740309476008,0.27464492923927364,-0.9004267521531933,-1.2489343725771458,3,left
8.171,0.5929339372110982,0.8753132596169793,0.2445739202497869,0.08366411071159305,-4.895543531771885,0.9734186792426882,0.2560823220382481,-0.8986282103484878,-1.2185851941429853,3,left
8.172,0.5968842205251013,0.8786401680523946,0.2458710323737444,0.09524449149398764,-4.792396744012163,0.9792510485381257,0.23763064630333094,-0.8964979159284588,-1.187851697932595,3,left
8.175,0.6008218804425022,0.8817430440156785,0.24718533974574727,0.1072275355658657,-4.688674049186685,0.9849637247258667,0.2193067906364328,-0.8940355088103149,-1.1567631079398544,3,left
8.176,0.6047464599737454,0.8846249625753871,0.24851506038540414,0.11962097788576953,-4.5844605376786225,0.9905496568388865,0.2011273508540755,-0.8912413133092077,-1.1253489929757168,3,left
8.177,0.6086577230189861,0.887289357221902,0.24985826844435466,0.13243220210456522,-4.479841609710853,0.9960021828866067,0.18310861075340623,-0.8881163515229086,-1.093639237745195,3,left
8.18,0.6125556489430064,0.889740007492537,0.2512128896604957,0.14566820646582238,-4.374902861149455,1.0013150552129775,0.16526652415202486,-0.8846623534633626,-1.061664014109403,3,left
8.181000000000001,0.6164404232512101,0.8919810232594134,0.25257669859166915,0.1593355711227476,-4.269729969658409,1.0064824643994659,0.147616698149435,-0.8808817639270973,-1.0294537524424783,3,left
8.184,0.6203124238946024,0.8940168261366263,0.2539473182863778,0.17344042786282063,-4.164408583684888,1.0114990609832615,0.13017437755839012,-0.876777746095511,-0.9970391129923533,3,left
8.185,0.6241722028521692,0.8958521286379809,0.2553222229843994,0.18798843265990356,-4.0590242150858105,1.0163599747078107,0.11295443045491248,-0.8723541818551258,-0.9644509571535856,3,left
8.19,0.6280204629328144,0.8974919117864305,0.2566987442235613,0.20298474115672105,-3.9536621352789885,1.021060831270826,0.09597133479631507,-0.8676156688269484,-0.9317203185597827,3,left
8.191,0.631858030118012,0.8989414018540962,0.25807408044403446,0.21843398711824327,-3.848407274616514,1.0255977665841698,0.07923916605715088,-0.8625675140931598,-0.8988783739025678,3,left
8.195,0.6356858220877744,0.9002060468430088,0.2594453099391009,0.23434026389777501,-3.743344124677823,1.0299674385595676,0.0627715858336525,-0.8572157246084345,-0.8659564133835382,3,left
8.196,0.6395048137680222,0.9012914932333121,0.2608094068380053,0.2507071089588415,-3.638556643179943,1.0341670364336475,0.0465818313679047,-0.8515669942822892,-0.8329858107052543,3,left
8.2,0.6433160008116976,0.9022035634407488,0.2621632597123857,0.26753749149726125,-3.53412816120273,1.0381942876453298,0.030682705943712144,-0.8456286877179708,-0.7999979925069834,3,left
8.201,0.6471203619142292,0.9029482343431917,0.2635036923514862,0.28483380320910784,-3.430141292427472,1.0420474622781168,0.015086570106883832,-0.8394088205925263,-0.7670244071506871,3,left
8.204,0.6509188208047512,0.9035316171587091,0.26482748623094066,0.3025978522515852,-3.326677844087993,1.04572537507934,-0.00019466633654705734,-0.83291603666184,-0.7340964927626066,3,left
8.204,0.6547122086785168,0.9039599388848217,0.26613140418867925,0.32083086044517,-3.223818729334455,1.0492273850679312,-0.015149551589815163,-0.8261595813735981,-0.701245644435747,3,left
8.209,0.6585012277632203,0.9042395254369602,0.26741221481122796,0.3395334637667135,-3.1216438807113076,1.0525533927417827,-0.02976709844740469,-0.8191492720703305,-0.668503180498605,3,left
8.209,0.6622864166514741,0.9043767865499631,0.2686667170235638,0.358705716184536,-3.0202321644523233,1.0557038348952639,-0.04403679023339517,-0.811895464763898,-0.6359003077556126,3,left
8.214,0.66606811798349,0.9043782024280116,0.2698917643685623,0.37834709688789464,-2.919661295297417,1.0586796770569502,-0.057948586139109005,-0.8044090174620362,-0.6034680856049944,3,left
8.215,0.6698464490238598,0.9042503120467577,0.2710842884620613,0.39845652096455175,-2.8200077515378927,1.0614824035571233,-0.07149292600203035,-0.7967012500268402,-0.5712373889400458,3,left
8.219,0.6736212756383719,0.9039997029324854,0.2722413211232598,0.41903235358152,-2.721346689998962,1.0641140052340936,-0.08466073456696681,-0.7887839005443745,-0.5392388697402372,3,left
8.22,0.6773921901308788,0.9036330021767875,0.2733600147146243,0.44007242772540556,-2.62375186067077,1.066576964787898,-0.09744342526939827,-0.7806690781839272,-0.5075029172590433,3,left
8.222999999999999,0.6811584933311056,0.9031568683970476,0.27443766028076805,0.46157406556011565,-2.5272955207018346,1.0688742397894266,-0.10983290357990247,-0.7723692125247891,-0.4760596167159742,3,left
8.224,0.6849191812172648,0.9025779843191097,0.27547170314490854,0.4835341034610341,-2.432048347471612,1.0710092433525473,-0.12182156994746655,-0.7638969993278422,-0.4449387064009471,3,left
8.228,0.6886729362054174,0.9019030496322361,0.276459755701019,0.5059489207861019,-2.3380793504619906,1.0729858224763063,-0.13340232237838834,-0.7552653427286693,-0.4141695330998988,3,left
8.229,0.6924181230486842,0.901138773748384,0.27739960723657076,0.5288144724455647,-2.2454557816507696,1.0748082340638128,-0.1445685586863426,-0.7464872938283725,-0.3837810057513709,3,left
8.234,0.6961527890899066,0.9002918680976308,0.2782892307437164,0.5521263253334647,-2.154243044153652,1.0764811186239494,-0.15531417844803747,-0.7375759856577869,-0.3538015472447322,3,left
8.235,0.6998746684456942,0.8993690376227618,0.27912678681310965,0.5758796986852595,-2.0645045988449473,1.0780094716615964,-0.16563358468680286,-0.7285445646259109,-0.3242590443602132,3,left
8.235,0.7035811896244598,0.8983769712057889,0.279910624808748,0.6000695084272455,-1.9763018686910419,1.0793986127616146,-0.17552168525070472,-0.7194061192408955,-0.2951807962945606,3,left
8.238,0.7072694861030311,0.8973223308554533,0.2806392815676517,0.6246904155847445,-1.8896941405347436,1.080654152371402,-0.18497389375236284,-0.7101736081118498,-0.26659346301385467,3,left
8.238999999999999,0.7109364094145649,0.8962117395817841,0.281311477900969,0.649736878817279,-1.8047384640728426,1.0817819562864281,-0.19398612988186906,-0.7008597899173146,-0.23852301511882293,3,left
8.243,0.7145785442657584,0.8950517679714963,0.2819261132415187,0.6752032111502168,-1.7214895477736263,1.0827881078427484,-0.20255481895752317,-0.6914771573480106,-0.21099468646678163,3,left
8.244,0.7181922251694925,0.893848919566808,0.2824822588500609,0.7010836409735999,-1.6399996514856763,1.0836788678201164,-0.21067689067605969,-0.6820378758108954,-0.1840329299991785,3,left
8.245,0.7217735541327176,0.8926096152343272,0.2829791499968074,0.7273723771821656,-1.5603184757283002,1.084460632136971,-0.21834977707733594,-0.6725537270033879,-0.15766137678266004,3,left
8.247,0.7253184190627349,0.8913401767561243,0.2834161774691863,0.7540636773420857,-1.4824930488303234,1.08513988780833,-0.22557140974809045,-0.6630360573308358,-0.13190279818463455,3,left
8.248,0.7288225126854788,0.8900468098712878,0.28379287865890335,0.7811519159897249,-1.406567615197658,1.08572316833949,-0.2323402162880984,-0.6534957311401315,-0.10677907110592738,3,left
8.253,0.7322813518601309,0.8887355869903738,0.2841089283986001,0.8086316491792075,-1.3325835291667223,1.0862170101182211,-0.2386551160607618,-0.6439430887422566,-0.08231114619481945,3,left
8.254,0.7356902972143349,0.8874124298379037,0.2843641296696133,0.8364976723864223,-1.2605791577346448,1.0866279109777532,-0.24451551524887744,-0.6343879091964377,-0.0585190189685183,3,left
8.258,0.7390445730371772,0.886083092322707,0.2845584042640145,0.8647450706596541,-1.1905897933539902,1.0869622914003656,-0.24992130123502426,-0.6248393778285276,-0.035421703769933116,3,left
8.259,0.7423392873766197,0.8847531439499943,0.2846917834413648,0.8933692608978376,-1.1226475768138493,1.0872264584410407,-0.25487283632471114,-0.6153060584561906,-0.013037210489507149,3,left
8.263,0.7455694522983923,0.8834279540700695,0.2847643985901271,0.9223660263364751,-1.0567814300005152,1.087426572372373,-0.25937095082911893,-0.6057958702934639,0.00861747601620021,3,left
8.264,0.7487300042735434,0.8821126772226069,0.284776471898169,0.9517315433223549,-0.993016998336757,1.0875686160517077,-0.26341693552296763,-0.596316069507282,0.029526413875495212,3,left
8.267000000000001,0.751815824674037,0.8808122397925127,0.2847283070493029,0.9814624004592915,-0.9313766027045759,1.0876583670112818,-0.26701253349173515,-0.5868732353985932,0.04967471958636351,3,left
8.267999999999999,0.7548217603706416,0.8795313281487792,0.28462027997911205,1.0115556102081784,-0.8718792006622773,1.0877013722719546,-0.27015993138115135,-0.5774732611807663,0.06904858089728971,3,left
8.272,0.7577426444414075,0.878274378394346,0.2844528297320099,1.0420086130257071,-0.8145403567727331,1.0877029258809485,-0.27286175006059527,-0.5681213493280666,0.08763526724411645,3,left
8.273,0.7605733170066861,0.8770455678146012,0.2842264494599088,1.0728192741271532,-0.7593722218657964,1.08766804917387,-0.27512103471072885,-0.5588220114670885,0.10542313780079404,3,left
8.279,0.7633086462038331,0.8758488080751828,0.28394167759521616,1.1039858729596732,-0.7063835210639845,1.087601473761145,-0.2769412443444143,-0.5495790727841511,0.12240164719964897,3,left
8.28,0.7659435492996456,0.874687740185639,0.283599089221235,1.1355070854735954,-0.6555795504067335,1.0875076272388868,-0.2783262407686836,-0.540395680921801,0.1385613489745411,3,left
8.282,0.7684730139103026,0.8735657312150462,0.2831992876551819,1.167381959280204,-0.6069621819147637,1.0873906216241018,-0.27928027699425784,-0.5312743193377185,0.1538938967779864,3,left
8.283,0.7708921192572253,0.87248587272007,0.2827428962592414,1.1996098817855545,-0.560529876942341,1.0872542445140545,-0.2798079850978534,-0.5222168250994775,0.16839204342099998,3,left
8.286,0.7731960573359576,0.8714509808258215,0.28223055050942164,1.2321905413908667,-0.5162777076714957,1.0871019529695312,-0.2799143635412635,-0.5132244110887864,0.1820496377820631,3,left
8.287,0.7753801538197619,0.8704635978864429,0.28166289038104864,1.2651238818510606,-0.4741973866085279,1.0869368701216717,-0.2796047639499651,-0.5042976925890085,0.19486161962924586,3,left
8.292,0.7774398884651403,0.8695259956467865,0.28104055314651527,1.2984100498840216,-0.4342773039494026,1.0867617845019895,-0.27888487735277806,-0.49543671822994656,0.20682401239712125,3,left
8.293,0.7793709147362015,0.8686401798277117,0.280364166712668,1.3320493361241865,-0.3965025726868923,1.0865791520951433,-0.277760719882894,-0.4866410052640588,0.21793391395769401,3,left
8.297,0.7811690783238524,0.8678078960619802,0.27963434364008655,1.3660421095150594,-0.36085508133855526,1.0863911011139984,-0.2762386179393975,-0.4779095791484624,0.22818948542214135,3,left
8.298,0.7828304342118989,0.8670306371110551,0.27885167597988963,1.400388745236282,-0.3273135541808386,1.086199439496474,-0.2743251928072243,-0.46924101740726887,0.2375899380077242,3,left
8.302,0.7843512619448255,0.8663096512934627,0.2780167310376769,1.4350895462618947,-0.2958536188807499,1.086005665123661,-0.27202734474983764,-0.4606334976448939,0.2461355180203368,3,left
8.302999999999999,0.7857280787920786,0.8656459520563927,0.2771300481350933,1.4701446586474423,-0.26644788142264675,1.0858109787586723,-0.26935223667524544,-0.4520848490607328,0.2538274900934906,3,left
8.302999999999999,0.7869576505737779,0.8650403286253393,0.27619213639860685,1.5055539806445928,-0.2390660082337346,1.0856162997056773,-0.2663072776323266,-0.44359260587898575,0.260668118989079,3,left
8.306000000000001,0.7880369999754899,0.8644933576608675,0.27520347357299824,1.541317065742956,-0.21367481541783903,1.0854222841885688,-0.26290010648081624,-0.43515406058715805,0.26666065035559644,3,left
8.307,0.788963412214283,0.8640054158264088,0.2741645058331555,1.5774330197398059,-0.1902383650129115,1.0852293464487017,-0.25913857598973183,-0.4267663153973631,0.2718092907442544,3,left
8.312000000000001,0.7897344379553836,0.8635766931336436,0.2730756485431375,1.6139003919394272,-0.16871806819353663,1.085037682561149,-0.25503073746048965,-0.4184263312815033,0.2761191870139888,3,left
8.312999999999999,0.7903478934456554,0.8632072069001624,0.2719372878857745,1.6507170608099095,-0.14907279525628625,1.0848472968889342,-0.25058482588243797,-0.4101309744519929,0.2795964051611387,3,left
8.312999999999999,0.7908018579046941,0.8628968161437575,0.2707497832739678,1.6878801155516627,-0.13125899178569655,1.0846580306947864,-0.2458092456100176,-0.4018770602639228,0.28224790858859916,3,left
8.317,0.7910946682700796,0.8626452362491441,0.26951347046484314,1.725385737058726,-0.1152307996019253,1.0844695917101201,-0.24071255654976736,-0.39366139451469867,0.2840815358268413,3,left
8.318,0.7912249114469886,0.8624520537466909,0.26822866531346934,1.7632290828803812,-0.10094018065084857,1.0842815830610308,-0.2353034608444206,-0.3854808121173184,0.28510597771680424,3,left
8.322000000000001,0.7911914142889106,0.862316741014524,0.26689566810238746,1.8014041796661369,-0.08833704244829121,1.08409353035101,-0.22959079004039187,-0.37733221312356846,0.28533075406229225,3,left
8.322000000000001,0.7909932316207409,0.8622386706751215,0.26551476836664756,1.8399038245523411,-0.0773693644974292,1.0839049064199424,-0.22358349272403147,-0.3692125960735326,0.28476618975716456,3,left
8.326,0.7906296326779753,0.8622171294354761,0.2640862501153774,1.878719495824212,-0.06798332554906789,1.0837151536988578,-0.21729062261112767,-0.3611190886479043,0.28342339039027986,3,left
8.327,0.7901000863676783,0.8622513311178015,0.2626103973401458,1.9178412729629393,-0.06012343166847825,1.0835237041599,-0.2107213270732654,-0.3530489755996886,0.2813142173288646,3,left
8.331,0.7894042457632634,0.8623404286370601,0.2610874996995482,1.9572577661884347,-0.053732645077168295,1.0833299968609647,-0.20388483608380287,-0.34499972394196077,0.2784512622787064,3,left
8.332,0.7885419322309585,0.8624835247035622,0.25951785827445945,1.9969560556092183,-0.048752513742506366,1.083133493084466,-0.19679045156540856,-0.33696900536842656,0.274847821317341,3,left
8.336,0.7875131195564972,0.862679681066576,0.25790179129327073,2.036921640091804,-0.04512330169249425,1.0829336890696761,-0.1894475371203065,-0.32895471588359454,0.27051786839420033,3,left
8.337,0.7863179184015224,0.8629279261655672,0.2562396397280048,2.077138395962786,-0.042784120037205164,1.08273012633808,-0.18186550812361044,-0.3209549926194326,0.265476028289527,3,left
8.341000000000001,0.7849565613758464,0.8632272611145037,0.2545317726619818,2.1175885456576404,-0.041673058682451386,1.0825223996111826,-0.1740538221593869,-0.31296822781543393,0.2597375490217317,3,left
8.341000000000001,0.7834293889684932,0.8635766640081914,0.2527785923326062,2.158252636431018,-0.04172731872512461,1.0823101623201934,-0.1660219697783728,-0.30499307993906505,0.25331827369078797,3,left
8.346,0.7817368365392372,0.8639750926040508,0.25098053876301796,2.1991095292440175,-0.04288334552335599,1.0820931297069987,-0.15777946555558756,-0.29702848192361186,0.24623461174321226,3,left
8.347000000000001,0.779879422533417,0.8644214854928087,0.24913809391408515,2.240136397944605,-0.04507696243816872,1.0818710795158293,-0.14933583942541837,-0.28907364650047684,0.23850350964217856,3,left
8.352,0.7778577380457242,0.8649147619218515,0.24725178531005254,2.2813087388579523,-0.0482435052466423,1.0816438502750099,-0.14070062827112642,-0.28112806860301476,0.23014242092436218,3,left
8.353,0.7756724378228798,0.8654538204717005,0.24532218911097436,2.3226003909040083,-0.052317957229771034,1.0814113371681668,-0.1318833677451159,-0.27319152481902464,0.2211692756231997,3,left
8.357999999999999,0.7733242327610373,0.8660375368088482,0.24334993261747412,2.363983566360116,-0.05723508494117943,1.0811734854942572,-0.12289358429572983,-0.26526406986904527,0.2116024490363932,3,left
8.359,0.7708138839218818,0.8666647607487891,0.24133569619880024,2.4054288923868965,-0.06292957466565101,1.0809302817157644,-0.11374078737578706,-0.25734603008762785,0.20146072981367794,3,left
8.36,0.768142198060945,0.8673343128631379,0.23928021463864016,2.4469054634359546,-0.06933616957903485,1.0806817420943946,-0.10443446180755069,-0.24943799388478646,0.19076328733911638,3,left
8.36,0.7653100246315446,0.8680449808554799,0.23718427789809646,2.488380904658232,-0.07638980762351484,1.0804278989135883,-0.09498406027832355,-0.2415407991648538,0.17952963838047514,3,left
8.365,0.7623182541980112,0.86879551591343,0.2350487313019395,2.529821446431998,-0.08402576011445988,1.0801687842871488,-0.08539899594039771,-0.23365551767999654,0.16777961297659227,3,left
8.367,0.7591678181642996,0.8695846292211902,0.23287447516249077,2.5711920101295624,-0.09217977109711933,1.0799044115532757,-0.07568863508864349,-0.22578343629567496,0.15553331953204594,3,left
8.37,0.7558596897036407,0.8704109887890505,0.23066246386356198,2.6124563052417824,-0.10078819747328761,1.0796347542532707,-0.06586228989756937,-0.2179260352198424,0.14281110912746853,3,left
8.371,0.7523948857694565,0.8712732167228666,0.22841370443070771,2.6535769379793415,-0.10978814991973557,1.0793597226941758,-0.05592921124409349,-0.21008496362011547,0.1296335392552323,3,left
8.371,0.7487744700758875,0.8721698870201698,0.22612925461280986,2.6945155314695604,-0.11911763462169596,1.0790791380945808,-0.045898581722541486,-0.20226201372350594,0.11602133755396324,3,left
8.376,0.7449995569385844,0.8730995239510612,0.22381022050041344,2.7352328576672083,-0.1287156958459972,1.078792704312826,-0.03577950900284922,-0.19445909486574733,0.10199536631683705,3,left
8.377,0.7410713158498231,0.874060601066709,0.22145775371362658,2.7756889810973586,-0.1385225593795665,1.0784999771568107,-0.025581019637844857,-0.18667820858489645,0.08757658834443952,3,left
8.38,0.7369909766426725,0.8750515408667873,0.21907304820165419,2.8158434141991084,-0.1484797766927252,1.078200331363273,-0.015312053344570734,-0.17892142518362136,0.07278603434656918,3,left
8.382,0.732759835100625,0.8760707151418432,0.21665733669855752,2.8556552822948813,-0.15853036885123847,1.077892925777757,-0.004981457739554435,-0.1711908618122447,0.057644771893307405,3,left
8.382,0.7283792588905865,0.8771164459908566,0.21421188687571358,2.895083493070993,-0.1686189676964619,1.077576668064522,0.005402016501249299,-0.16348866205019374,0.04217387587398005,3,left
8.386000000000001,0.7238506937132659,0.8781870075006749,0.21173799723031891,2.934086903710837,-0.17869195097712726,1.077250180718998,0.015829720087326703,-0.15581697696357985,0.026394400421566423,3,left
8.387,0.7191756695602696,0.8792806280596944,0.20923699275718854,2.9726244805645243,-0.18869756895281659,1.0769117697119965,0.0262931091929414,-0.14817794761670233,0.010327352259104477,3,left
8.389,0.7143558069549064,0.8803954932632134,0.20671022046122528,3.0106554493759767,-0.19858606149450939,1.0765593962968054,0.03678374920074938,-0.1405736890153565,-0.0060063345763064395,3,left
8.39,0.7093928230507346,0.8815297493569423,0.2041590447721996,3.0481394358307443,-0.2083097655437813,1.076190652066902,0.04729331813963022,-0.1330062754599109,-0.02258582267719011,3,left
8.395,0.7042885374673468,0.8826815071613762,0.2015848429237564,3.0850365965351596,-0.21782321295929083,1.0758027372633054,0.057813609846774805,-0.1254777272862139,-0.039390393923176614,3,left
8.395,0.6990448777499808,0.8838488464221523,0.198989000358913,3.121307740535999,-0.22708321877885826,1.0753924423305503,0.06833653688414851,-0.1179899989724888,-0.05639947089916146,3,left
8.399,0.6936638843465712,0.8850298205368659,0.19637290622352002,3.156914441488244,-0.23604895992497255,1.074956132720218,0.07885413323950334,-0.11054496859048271,-0.07359263712172465,3,left
8.4,0.6881477150042294,0.8862224616145342,0.19373794900505956,3.191819140576857,-0.2446820443809629,1.0744897369409039,0.08935855684214361,-0.10314442857924587,-0.09094965612204027,3,left
8.404,0.6824986484985446,0.887424785829202,0.19108551236778257,3.2259852402966835,-0.2529465708643484,1.0739887378534334,0.09984209192365749,-0.09579007782003526,-0.10845048943409537,3,left
8.405,0.6767190876238109,0.8886347990331571,0.18841697122889806,3.2593771891926897,-0.2608091790230395,1.0734481672100638,0.11029715125381195,-0.08848351499095881,-0.12607531353756554,3,left
8.408999999999999,0.6708115613890598,0.8898505025957302,0.18573368811533367,3.2919605576607265,-0.2682390901791142,1.0728626034363258,0.12071627828177066,-0.08122623318010377,-0.14380453580516667,3,left
8.41,0.6647787263826982,0.8910698994302108,0.1830370098365642,3.3237021049068987,-0.27520813864383914,1.072226172654052,0.13109214921273504,-0.07401961573602617,-0.16161880950471497,3,left
8.414,0.65862336728779,0.8922910001663829,0.1803282645069298,3.3545698371613875,-0.281690793626457,1.071532552944026,0.141417575050027,-0.06686493333461417,-0.17949904790648455,3,left
8.415,0.652348396551047,0.8935118294213367,0.17760875895070138,3.3845330572402545,-0.287664171758022,1.0707749818465622,0.15168550363252903,-0.05976334224148053,-0.19742643754675243,3,left
8.419,0.6459568532309456,0.8947304321165199,0.17487977652181605,3.4135624055463523,-0.29310804025025083,1.0699462670981696,0.16188902169727304,-0.052715883749183894,-0.21538245069866532,3,left
8.419,0.6394519010712509,0.8959448797845879,0.17214257536529012,3.4416298925979394,-0.29800481070796103,1.0690388006022975,0.17202135699682522,-0.0457234847687281,-0.233348857101753,3,left
8.423,0.6328368258619088,0.8971532768065142,0.1693983871405769,3.468708923171027,-0.30233952361221406,1.0680445756319648,0.18207588050094872,-0.03878695955494057,-0.25130773500154857,3,left
8.424,0.626115032158852,0.8983537665189372,0.1666484162187781,3.4947743121387758,-0.30609982348976367,1.0669552072618815,0.19204610871184188,-0.031907012545486606,-0.26924148155085986,3,left
8.429,0.6192900394389348,0.8995445371343478,0.16389383935070917,3.519802292088524,-0.30927592478284427,1.0657619560274367,0.20192570612204538,-0.02508424229343377,-0.28713282262426526,3,left
8.43,0.6123654777664269,0.9007238274214812,0.16113580577974093,3.543770512794181,-0.3118605684317254,1.0644557548076767,0.2117084878438875,-0.018319146473441243,-0.3049648220973877,3,left
8.435,0.6053450830435599,0.9018899320993232,0.15837543775008542,3.5666580326188173,-0.3138489691808133,1.0630272389291273,0.22138842243909654,-0.01161212794181112,-0.3227208906424284,3,left
8.436,0.5982326919111952,0.9030412069065691,0.15561383134794796,3.588445301919295,-0.31523875361740844,1.061466779487013,0.2309596349769481,-0.004963501830802737,-0.3403847940913207,3,left
8.439,0.5910322363595215,0.9041760733196749,0.15285205761121634,3.6091141385217576,-0.3160298889505329,1.0597645198800991,0.24041641034903755,0.0016264963422233983,-0.35794066141769465,3,left
8.44,0.5837477381041511,0.9052930229040191,0.1500911638460884,3.6286476953336817,-0.3162246025355354,1.0579104155550323,0.24975319685376368,0.008157701591150623,-0.37537299237664673,3,left
8.44,0.5763833027768926,0.9063906212910755,0.1473321750916578,3.647030420155034,-0.3158272921484657,1.0558942769556767,0.2589646099897512,0.014630009548349835,-0.3926666647811417,3,left
8.443,0.5689431139703739,0.9074675117802676,0.1445760956765205,3.6642480077478803,-0.3148444270124961,1.0537058156725332,0.2680454362647271,0.021043366057529087,-0.4098069412857441,3,left
8.443,0.5614314271684849,0.9085224185691406,0.14182391081183449,3.6802873442205333,-0.31328443957695934,1.0513346937868955,0.27699063675247576,0.027397756711986274,-0.42677947548812123,3,left
8.448,0.5538525635966791,0.9095541496198917,0.13907658816082769,3.6951364437789995,-0.3111576080478747,1.048770576403925,0.2857953502036842,0.03369319667263426,-0.44357031721826345,3,left
8.449,0.5462109040302757,0.9105615991735639,0.13633507932481054,3.708784378091192,-0.30847592989338,1.0460031872648081,0.29445489564849725,0.03992972091053279,-0.4601659169927488,3,left
8.45,0.5385108825945395,0.911543749924721,0.1336003211983474,3.721221199485999,-0.3052529876769507,1.0430223668099765,0.3029647745017607,0.0461073749132334,-0.47655312967079905,3,left
8.452,0.5307569805789185,0.9124996748693187,0.13087323716327567,3.7324378609700095,-0.30150381060567033,1.039818131133045,0.31132067219623527,0.0522262058730226,-0.4927192173603338,3,left
8.453,0.522953720279844,0.9134285388388603,0.12815473809974404,3.7424261370212797,-0.2972447363103446,1.0363807297468803,0.31951845936864876,0.05828625437497927,-0.5086518516216696,3,left
8.458,0.5151056588868455,0.9143295997363626,0.1254457231908305,3.7511785481360023,-0.2924932762415805,1.0327007006002575,0.32755419262302327,0.06428754660259299,-0.5243391150159117,3,left
8.459,0.5072173824291993,0.9152022094922743,0.12274708049375556,3.7586882903363446,-0.28726798602843606,1.0287689217146954,0.3354241148952735,0.07023008707852132,-0.5397695020444535,3,left
8.463,0.49929349979939075,0.916045814758015,0.12005968725281671,3.7649491698641473,-0.28158834101366614,1.0245766593280448,0.34312465544261694,0.07611385195789501,-0.5549319195253283,3,left
8.464,0.49133863686840085,0.9168599573498358,0.11738440993927524,3.769955543085605,-0.27547461695195385,1.020115612534237,0.35065242948087266,0.08193878289141096,-0.5698156864514525,3,left
8.469,0.4833574307103251,0.9176442744468236,0.11472210401912553,3.7737022616284914,-0.2689477758561597,1.01537795440788,0.35800423749224947,0.08770478147528471,-0.5844105333750662,3,left
8.47,0.4753545239595988,0.9183984985357706,0.1120736134667893,3.7761846227699074,-0.2620293569753154,1.0103563696016424,0.3651770642257376,0.09341170430496429,-0.5987066013619032,3,left
8.472000000000001,0.46733455933068085,0.9191224570839053,0.10943977005817593,3.7773983250889165,-0.2547413728868443,1.0050440884035892,0.37216807741172225,0.0990593586493391,-0.6126944405578281,3,left
8.472999999999999,0.45930217433592585,0.9198160719095199,0.10682139248849148,3.777339429394823,-0.24710621068430527,0.999434917240847,0.37897462621193223,0.10464749876200753,-0.6263650084098431,3,left
8.479,0.45126199624226043,0.920479358211517,0.10421928536891355,3.776004324938219,-0.2391465382408321,0.9935232656151581,0.3855942394253231,0.11017582284599729,-0.639709667582516,3,left
8.48,0.44321863731041133,0.9211124232126168,0.10163423816405102,3.7733897009082726,-0.2308852155273804,0.9873041694550474,0.39202462346997236,0.11564397068816222,-0.652720183609991,3,left
8.482000000000001,0.4351766903600431,0.9217154643687946,0.09906702413980195,3.7694925232160816,-0.22234521096389742,0.980773310868478,0.39826366016053594,0.12105152197930821,-0.6653887223228366,3,left
8.482999999999999,0.42714072469871533,0.9222887671012803,0.09651839939622871,3.7643100165602528,-0.21354952278059763,0.9739270342790014,0.4043094043002759,0.12639799533592874,-0.6777078470880501,3,left
8.488,0.41911528244188423,0.9228327020168398,0.09398910205861519,3.7578396517671853,-0.2045211053656606,0.9667623589275285,0.410160081106128,0.13168284803925773,-0.6896705158995734,3,left
8.488,0.41110487523702993,0.9233477215944067,0.09147985168936454,3.750079138394858,-0.195282800574868,0.9592769877209498,0.4158140834847284,0.1369054765071731,-0.7012700783557012,3,left
8.492,0.4031139813904123,0.9238343563295365,0.08899134896390588,3.741026422585235,-0.1858572739779614,0.9514693124079339,0.4212699691767633,0.14206521751430898,-0.7125002725587548,3,left
8.494,0.39514704338175266,0.9242932103433157,0.08652427562852669,3.730679690146678,-0.17626695601583375,0.9433384150613143,0.42652645778644516,0.14716135017555693,-0.7233552219713719,3,left
8.496,0.3872084657403164,0.9247249564805535,0.08407929473146086,3.7190373748440884,-0.166533988042064,0.9348840658455596,0.4315824277123556,0.15219309870795833,-0.7338294322627235,3,left
8.497,0.3793026132457025,0.9251303309430915,0.08165705109421706,3.7060981718707566,-0.1566801732217664,0.9261067170468948,0.4364369129953247,0.15715963598580882,-0.743917788176903,3,left
8.501,0.37143380940923465,0.9255101275262438,0.07925817197149797,3.6918610564721925,-0.1467269322602515,0.9170074933427148,0.44108910009844526,0.16206008790361273,-0.7536155504546632,3,left
8.502,0.3636063351879319,0.9258651915465717,0.0768832678385867,3.6763253076884954,-0.13669526393358594,0.9075881782860051,0.44553832463374393,0.16689353856134106,-0.7629183528385771,3,left
8.507,0.355824427882875,0.9261964135618399,0.0745329332454333,3.6594905371780837,-0.12660571039278926,0.897851196979557,0.4497840680485562,0.1716590362649999,-0.7718221991823349,3,left
8.508,0.3480922801774596,0.9265047229826467,0.07220774768418786,3.6413567230818877,-0.11647832721312015,0.88779959491384,0.4538259542795811,0.17635560022903596,-0.7803234606424715,3,left
8.508,0.34041403927716785,0.9267910816618492,0.06990827642668726,3.6219242488833734,-0.10633265815967846,0.8774370129414802,0.4576637463739304,0.18098222767558925,-0.7884188728553573,3,left
8.513,0.33279380611835163,0.9270564775378146,0.06763507129445559,3.601193947216032,-0.09618771464038095,0.8667676583603761,0.4612973430714137,0.1855379009191154,-0.796105532959835,3,left
8.514,0.3252356346187325,0.9273019184102217,0.0653886713252921,3.579167148566249,-0.0860619598172599,0.8557962720765866,0.46472677534620416,0.19002159413099456,-0.8033808963660346,3,left
8.516,0.3177435309489256,0.9275284259310592,0.06316960330321975,3.5558457346996732,-0.07597329728192145,0.8445280919137952,0.46795220291352374,0.1944322796698667,-0.8102427732440609,3,left
8.517000000000001,0.31032145281111323,0.9277370298846436,0.06097838212497669,3.5312321960552473,-0.0659390638757087,0.8329688126180947,0.4709739107108877,0.19876893396951908,-0.8166893247463703,3,left
8.517999999999999,0.3029733087151131,0.9279287628116515,0.058815510983033704,3.505329691302879,-0.05597602564964338,0.8211245439750509,0.4737923053637612,0.20303054299720563,-0.8227190589847327,3,left
8.521,0.2957029572451477,0.9281046550161535,0.05668148135093572,3.4781421066767737,-0.04610037563403233,0.8090017689379706,0.47640791164489477,0.20721610729506523,-0.8283308267814854,3,left
8.523,0.2885142063155194,0.928265729987297,0.0545767727648219,3.4496741132729873,-0.036327732413072786,0.7966073031826456,0.4788213689360185,0.21132464661709557,-0.8335238172135976,3,left
8.526,0.2814108124183902,0.928413000261635,0.05250185240782134,3.419931221540501,-0.02667313908551952,0.7839482566339444,0.4810334276999947,0.21535520417392326,-0.838297552966863,3,left
8.527000000000001,0.27439647986879356,0.9285474637405047,0.05045717451826579,3.388919832771672,-0.017151062518019025,0.7710319970260079,0.4830449459709425,0.219306850497391,-0.8426518855163402,3,left
8.532,0.2674748600503676,0.9286701004612045,0.048443179652333114,3.356647287510294,-0.007775392863068828,0.7578661154604562,0.484856885869271,0.2231786869367633,-0.8465869901479569,3,left
8.533,0.26064955066086326,0.9287818698058247,0.04646029383570759,3.323121910791836,0.0014405566861018819,0.7444583939262572,0.4864703101479753,0.22696984879812754,-0.8501033608349945,3,left
8.536,0.2539240949496279,0.9288837081189294,0.04450892764028128,3.2883530541267896,0.010484049931054801,0.7308167747441684,0.48788637877597846,0.23067950813833984,-0.8532018049819591,3,left
8.537,0.2473019809314475,0.9289765266951543,0.04258947522296027,3.2523511341344293,0.01934292752097335,0.716949331897945,0.4891063455637246,0.23430687622463725,-0.8558834380471454,3,left
8.54,0.2407866405551417,0.9290612100906154,0.040702313363913036,3.2151276677307026,0.028005606649249334,0.7028642442138183,0.4901315548356624,0.23785120567080503,-0.8581496780539969,3,left
8.541,0.2343814488022259,0.9291386147078287,0.03884780053997852,3.176695303770383,0.036461080619778756,0.6885697703490691,0.49096343815368837,0.24131179226055455,-0.8600022400001665,3,left
8.547,0.22808972268895314,0.9292095676028144,0.03702627606552854,3.1370678510400936,0.044698918308391074,0.6740742255498776,0.4916035110950585,0.2446879764685301,-0.8614431301719829,3,left
8.548,0.22191472014214106,0.9292748654661025,0.03523805932919479,3.09626030249529,0.052709263544273695,0.6593859601380061,0.4920533700877157,0.24797914468912594,-0.8624746403708393,3,left
8.552,0.21585963871492725,0.9293352737376295,0.03348344915035051,3.0542888556308316,0.060482834435659605,0.6445133396852668,0.49231468930542643,0.25118473018305254,-0.8630993420568257,3,left
8.552,0.2099276141038188,0.9293915258286909,0.031762723271350185,3.0111709288713273,0.06801092266342194,0.6294647268341508,0.49238921762456916,0.2543042137513503,-0.8633200804137552,3,left
8.555,0.20412171842524016,0.9294443224390726,0.030076137989812856,2.966925173864069,0.07528539276556719,0.6142484647224414,0.4922787756438695,0.2573371241463035,-0.8631399683385478,3,left
8.556000000000001,0.1984449582108999,0.9294943309706957,0.02842392792458471,2.9215714835540165,0.08229868143493957,0.5988728619691056,0.491985252767837,0.2602830382284628,-0.8625623803567761,3,left
8.561,0.19290027208751642,0.9295421850500526,0.026806305904194742,2.875130995916999,0.08904379685174531,0.5833461791782486,0.4915106043541221,0.2631415808787365,-0.8615909464650116,3,left
8.562000000000001,0.18749052811567543,0.9295884841808232,0.02522346296673309,2.8276260932240835,0.09551431807177803,0.5676766169174391,0.49085684892447967,0.26591242467426196,-0.8602295458994622,3,left
8.566,0.1822185207729227,0.9296337935539127,0.02367556846028364,2.7790803967068536,0.10170439449047775,0.551872305126252,0.49002606543849975,0.26859528933652005,-0.8584823008292499,3,left
8.567,0.17708696757857262,0.9296786440437614,0.02216277022944763,2.7295187564902452,0.10760874540218629,0.5359412939104429,0.4890203906287472,0.2711899409599029,-0.8563535699715448,3,left
8.57,0.17209850537282395,0.9297235324179148,0.02068519486723001,2.6789672366565154,0.1132226596731747,0.5198915456767571,0.48784201639543545,0.2736961910286949,-0.8538479421246555,3,left
8.571,0.16725568627808052,0.9297689217820607,0.01924294800815042,2.6274530953009423,0.11854199554621368,0.5037309285629886,0.48649318725825363,0.27611389523017316,-0.8509702296140647,3,left
8.576,0.16256097338313993,0.9298152422750955,0.017836114641786843,2.5750047594369327,0.12356318059363872,0.4874672111175413,0.48497619786246193,0.2784429520712808,-0.8477254616453038,3,left
8.576,0.15801673620100176,0.9298628920189353,0.016464759435348073,2.521651794605379,0.12828321183502797,0.47110805818240215,0.48329339053587506,0.2806833013060729,-0.8441188775564813,3,left
8.577,0.1536252459578024,0.929912238317054,0.015128927067285955,2.4674248690403315,0.13269965603476652,0.45466102793311813,0.48144715289461004,0.28283492218535083,-0.8401559199678976,3,left
8.579,0.14938867076984463,0.9299636190867069,0.013828642588019654,2.4123557122403887,0.13681065019391472,0.43813357002907216,0.4794399155037218,0.2848978315619994,-0.8358422278535883,3,left
8.58,0.145309070758195,0.9300173445043424,0.01256391183237586,2.3564770677926,0.14061490224993525,0.42153302482707844,0.47727414961408915,0.2868720819255235,-0.8311836296098187,3,left
8.585,0.141388393147025,0.9300736988385895,0.011334721908428299,2.299822640293168,0.14411169199696153,0.40486662361106585,0.47495236500517424,0.28875775946137916,-0.8261861362229922,3,left
8.586,0.137628467399918,0.9301329424366398,0.010141041780784649,2.242427036206825,0.14730087223841515,0.3881414897903865,0.47247710795408504,0.2905549822080856,-0.8208559346099635,3,left
8.587,0.13403100045715308,0.9301953138212793,0.008982822954185536,2.184325698678587,0.1501828701535298,0.37136464100972044,0.4698509593352021,0.2922638983446136,-0.8151993811515398,3,left
8.591000000000001,0.13059757213297632,0.930261031854024,0.007860000249588791,2.125554837180168,0.1527586887116113,0.3545429920665892,0.4670765328454503,0.29388468461793865,-0.8092229954105145,3,left
8.592,0.12732963071700304,0.9303302979256025,0.0067724926577783845,2.066151354438637,0.15502990770265862,0.3376833584481299,0.4641564733481113,0.2954175449159229,-0.8029334540189393,3,left
8.595,0.12422848881147851,0.9304032981412658,0.0057202042575739505,2.006152773963677,0.1569986838052425,0.3207924602518646,0.4610934553276379,0.2968627089904341,-0.7963375847183962,3,left
8.596,0.12129531943351184,0.9304802054686241,0.004703025192039673,1.9455971706170843,0.1586677492585069,0.30387692630183794,0.4578901814475052,0.29822043133535864,-0.7894423605361144,3,left
8.6,0.11853115241232616,0.9305611818139907,0.0037208327002729363,1.8845231050988978,0.16004040896860694,0.28694329835558047,0.4545493812027165,0.29949099022391323,-0.7822548940788817,3,left
8.6,0.11593687110767993,0.9306463799982374,0.0027734921990743133,1.8229695623520354,0.16112053602587614,0.26999803534403305,0.4510738096581698,0.3006746869094067,-0.7747824319258144,3,left
8.604,0.11351320946682207,0.9307359456160182,0.0018608583968537924,1.7609758937115663,0.1619125656375246,0.25304751759585337,0.4474662462636894,0.3017718449933529,-0.7670323491001952,3,left
8.605,0.11126074942768564,0.9308300187773297,0.0009827764072096103,1.6985817626232445,0.16242148747981972,0.23609805099747264,0.44372949373613146,0.3027828099645857,-0.7590121435997453,3,left
8.61,0.10917991866857113,0.9309287357433704,0.00013908281925310612,1.635827093754573,0.16265283647286224,0.21915587104023657,0.43986637699858366,0.30370794891277686,-0.7507294309638798,3,left
8.611,0.10727098870159997,0.9310322304785087,-0.0006703933221466685,1.5727520253203813,0.16261268198024317,0.20222714670595046,0.4358797421663031,0.30454765041951004,-0.7421919388557009,3,left
8.613999999999999,0.10553407330910625,0.931140636146481,-0.0014458296731994314,1.5093968644437703,0.16230761543505595,0.1853179841421502,0.4317724555686627,0.30530232462981466,-0.7334075016357043,3,left
8.615,0.10396912732587252,0.9312540865802137,-0.002187409929957511,1.4458020453722273,0.16174473639294124,0.1684344300784419,0.42754740279601555,0.30597240350681953,-0.7243840549034201,3,left
8.62,0.10257594577228782,0.9313727177502301,-0.002895323388301335,1.3820080903678027,0.16093163701206342,0.15158247493529212,0.4232074877600295,0.3065583412719385,-0.7151296299824798,3,left
8.62,0.10135416334385187,0.9314966692489196,-0.003569764755020146,1.3180555730894297,0.15987638495915746,0.13476805557670588,0.4187556317557002,0.30706061503275744,-0.7056523483238932,3,left
8.624,0.1003032542620678,0.9316260858007637,-0.004210934227676372,1.2539850842847906,0.15858750474004552,0.11799705765830347,0.41419477251291104,0.3074797256005486,-0.6959604158016286,3,left
8.625,0.09942253249014416,0.9317611188039151,-0.004819037847931529,1.189837199608546,0.15707395745230526,0.1012753175223976,0.4095278632250783,0.3078161984990956,-0.6860621168739268,3,left
8.629,0.09871115231329491,0.9319019279061859,-0.005394288122012457,1.1256524493833,0.15534511895707614,0.08460862359178044,0.40475787154210013,0.30807058516627456,-0.6759658085831455,3,left
8.63,0.09816810927833655,0.9320486826178747,-0.005936904894647505,1.0614712901193308,0.15341075646632063,0.06800271721405426,0.3998877785145128,0.30824346434959554,-0.6656799143663044,3,left
8.635,0.0977922414813333,0.9322015639640767,-0.0064471164565982056,0.9973340776088934,0.15128100354121304,0.05146329290848113,0.39492057747545306,0.3083354436966723,-0.6552129176479182,3,left
8.636000000000001,0.09758223118636944,0.9323607661787687,-0.006925160858056797,0.9332810414107976,0.14896633349670937,0.034995997967485155,0.3898592728467318,0.3083471615413522,-0.644573355186128,3,left
8.639,0.09753660675620096,0.9325264984408551,-0.007371287393312833,0.8693522605409705,0.1464775312067643,0.018606431365115146,0.3847068788550334,0.3082792888860044,-0.6337698101426034,3,left
8.64,0.09765374487801595,0.9326989866478148,-0.007785758220490844,0.8055876401848433,0.1438256633040988,0.002300141924966456,0.37946641814397924,0.3081325315802325,-0.6228109048461633,3,left
8.644,0.09793187307210788,0.9328784752160033,-0.008168850083219704,0.742026889247639,0.14102204676789254,-0.013917374299732053,0.37414092027371487,0.30790763269145777,-0.6117052932348002,3,left
8.645,0.098369072475328,0.9330652288909055,-0.008520856105643926,0.6787094985589995,0.13807821589227512,-0.030040677480936834,0.36873342013039306,0.30760537503965696,-0.6004616530364696,3,left
8.645,0.0989632808943221,0.9332595345483478,-0.008842087635866658,0.6156747195488562,0.13500588762802257,-0.04606438835234604,0.36324695632341963,0.3072265838270228,-0.5890886778856321,3,left
8.649,0.09971229612520292,0.9334617029659036,-0.009132876111894919,0.5529615432120377,0.13181692528942962,-0.06198319347427035,0.35768456967905576,0.3067721292701548,-0.5775950696482626,3,left
8.651,0.10061377953596805,0.9336720705382208,-0.009393574916653092,0.4906086791798048,0.12852330061792638,-0.07779185147312467,0.3520493019077651,0.3062429291651032,-0.5659895311514932,3,left
8.652999999999999,0.10166525990526337,0.9338910009032834,-0.009624561181445775,0.4286545347173145,0.12513705419363885,-0.09348520030156096,0.3463441944667161,0.30563995135665534,-0.55428075937662,3,left
8.654,0.10286413750541896,0.9341188864445957,-0.009826237498622502,0.36713719350073304,0.12167025425036311,-0.10905816552968528,0.3405722876076617,0.3049642161059731,-0.5424774390977021,3,left
8.655,0.10420768841137511,0.9343561496389772,-0.00999903351344684,0.306094394197728,0.11813495427214786,-0.12450576950110435,0.334736619594014,0.3042167983550642,-0.530588236932432,3,left
8.658999999999999,0.10569306901291932,0.9346032442290905,-0.010143407375648849,0.24556350918036865,0.11454315033085992,-0.1398231408697294,0.3288402260707318,0.3033988298863564,-0.5186217957716622,3,left
8.66,0.10731732070183918,0.9348606562102961,-0.010259847037447587,0.18558152386969384,0.11090673944690102,-0.15500552385653815,0.32288613957044554,0.3025115013754361,-0.5065867295536963,3,left
8.663,0.1090773746938196,0.9351289046304889,-0.01034887138656534,0.12618501704359264,0.10723747993202211,-0.17004828674151712,0.31687738913906255,0.3015560643348062,-0.49449161834920924,3,left
8.664,0.11097005693133882,0.9354085422102769,-0.010411031204388308,0.06741014213695924,0.10354695409157293,-0.18494692942311944,0.31081700006392027,0.30053383294631747,-0.48234500372243955,3,left
8.669,0.11299209300559732,0.9357001558008389,-0.010446909943594616,0.009292609395683226,0.0998465333403708,-0.1996970900535665,0.30470799368738904,0.29944618577972515,-0.47015538433409876,3,left
8.67,0.11514011303553154,0.936004366706484,-0.01045712432320388,-0.04813233128607712,0.09614734572167292,-0.21429455079319784,0.29855338728867004,0.29829456739462995,-0.45793121175126933,3,left
8.674,0.11741065644967053,0.9363218309050323,-0.010442324740325939,-0.10482990701410616,0.09246024581867451,-0.22873524272665952,0.29235619401638435,0.29708048982286955,-0.44568088642941606,3,left
8.675,0.11980017662911115,0.9366532392007548,-0.010403195500176453,-0.16076583819470708,0.08879578704792664,-0.24301524998329554,0.2861194228544106,0.2958055339282395,-0.4334127538315118,3,left
8.679,0.12230504538300604,0.9369993173432498,-0.01034045487081786,-0.21590635465253463,0.08516419632407016,-0.25713081310366753,0.27984607860329724,0.29447135064023805,-0.4211351006491777,3,left
8.68,0.12492155723883179,0.9373608261419183,-0.010254854974129445,-0.2702182117284875,0.08157535108531665,-0.27107833169367923,0.2735391618594524,0.29307966205835073,-0.40885615109066575,3,left
8.683,0.12764593353789683,0.9377385615998719,-0.010147181528614886,-0.32366870651827667,0.07803875866917105,-0.2848543664073198,0.2672016689742017,0.29163226242321594,-0.39658406320045725,3,left
8.684,0.1304743263329485,0.9381333550849397,-0.010018253463928444,-0.3762256944100022,0.07456353802798506,-0.2984556402985689,0.2608365919746991,0.2901310189508421,-0.3843269251752242,3,left
8.687000000000001,0.13340282209013613,0.9385460735505323,-0.009868922430678858,-0.42785760607669143,0.0711584037740516,-0.31187903958252294,0.25444691842857803,0.2885778725258824,-0.37209275164089817,3,left
8.687999999999999,0.13642744520173403,0.938977619815129,-0.009700072229819135,-0.4785334650772783,0.06783165254410056,-0.32512161384531113,0.2480356312341449,0.2869748382498135,-0.3598894798556085,3,left
8.693,0.13954416131795258,0.9394289329048372,-0.009512618183414137,-0.5282229062169381,0.0645911516732311,-0.33818057574186705,0.24160570831783507,0.28532400583970896,-0.34772496580329637,3,left
8.695,0.14274888050541087,0.9399009884585634,-0.009307506464264086,-0.5768961948150357,0.06144433016851624,-0.35105330022011116,0.23516012222058202,0.28362753987315076,-0.3356069801428765,3,left
8.697000000000001,0.14603746023704606,0.9403947991907509,-0.009085713396778843,-0.6245242470261997,0.0583981719727401,-0.36373732330958075,0.22870183955468898,0.2818876798746775,-0.3235432039779058,3,left
8.697000000000001,0.14940570821512372,0.940911415402826,-0.008848244736367741,-0.6710786513572037,0.05545921150897431,-0.3762303405120169,0.22223382031273703,0.28010674023903265,-0.311541224411831,3,left
8.701,0.15284938502757378,0.9414519255308241,-0.008596134930003128,-0.716531691519417,0.05263353149696902,-0.38853020483088224,0.21575901701002,0.27828710998634326,-0.29960852985401937,3,left
8.702,0.15636420663828768,0.9420174567133146,-0.008330446356389026,-0.7608563707535858,0.04992676303262159,-0.40063492447624305,0.20928037364195992,0.27643125234423643,-0.28775250504193367,3,left
8.707,0.1599458467131531,0.9426091753613635,-0.00805226854062014,-0.8040264377606247,0.04734408792209323,-0.41254266028090003,0.2028008244379277,0.27454170415178175,-0.27598042574498843,3,left
8.708,0.16358993878559128,0.9432282877104398,-0.00776271733670222,-0.846016414368933,0.04489024326246829,-0.4242517228630979,0.19632329239287602,0.272621075080039,-0.26429945311582426,3,left
8.713,0.16729207826855663,0.9438760403330396,-0.007462934071983973,-0.8868016250655154,0.042569528261191696,-0.435760569570583,0.18985068755817866,0.270672046663884,-0.2527166276549564,3,left
8.714,0.17104782432295487,0.9445537205920932,-0.00715408464830945,-0.9263582285148649,0.040385813286875155,-0.447067801240213,0.18338590508174046,0.2686973711428595,-0.2412388627713295,3,left
8.715,0.1748527015939171,0.9452626570196468,-0.006837358594231747,-0.9646632511861825,0.03834255114443233,-0.4581721588067532,0.17693182303080898,0.26669987012455415,-0.2298729380032423,3,left
8.716000000000001,0.1787022018271541,0.9460042196110744,-0.006513968062271889,-1.0016946232060469,0.03644279056788449,-0.46907251979391723,0.1704913001089805,0.2646824331124493,-0.21862549211139534,3,left
8.717,0.1825917853793251,0.946779820029234,-0.006185146766365771,-1.0374312165501207,0.034689191924570845,-0.47976789472013287,0.1640671734222765,0.2626480159559487,-0.20750301633778784,3,left
8.722000000000001,0.1865168826391464,0.9475909117145923,-0.005852148857213881,-1.071852885683886,0.03308404512490034,-0.4902574234509301,0.15766225640583678,0.2605996392643924,-0.19651184804283903,3,left
8.722999999999999,0.19047289537890605,0.9484389898987118,-0.005516247736057271,-1.104940510758744,0.03162928973219332,-0.5005403715292626,0.1512793369447657,0.2585403867982801,-0.18565816478644256,3,left
8.722999999999999,0.19445519805842953,0.9493255915214078,-0.005178734808698398,-1.1366760433564183,0.030326537226580852,-0.5106161265178399,0.1449211756793551,0.2564734038350356,-0.1749479788373494,3,left
8.726,0.1984591391044595,0.9502522950545603,-0.004840918181344547,-1.1670425542224228,0.029177095172359165,-0.5204841944037205,0.1385905044762902,0.25440189550343306,-0.16438713207931832,3,left
8.727,0.20248004218841176,0.9512207202364373,-0.0045041213005389885,-1.1960242814384079,0.028181992669634042,-0.530144196144998,0.13229002504750786,0.252329125080778,-0.15398129128286725,3,left
8.732000000000001,0.20651320752796917,0.9522325277206645,-0.004169681542124681,-1.2236066769309135,0.02734200626652967,-0.5395958644555862,0.12602240769844802,0.25025841224691064,-0.14373594371186982,3,left
8.732000000000001,0.21055391324446046,0.9532894186447695,-0.0038389487559798837,-1.2497764497585309,0.026657685713672705,-0.5488390409067461,0.11979029018751763,0.24819313128908865,-0.1336563930346717,3,left
8.736,0.21459741681521932,0.9543931341234707,-0.0035132837703100517,-1.2745216056026156,0.026129379312098855,-0.5578736733932224,0.11359627667867328,0.24613670925180112,-0.1237477555098447,3,left
8.737,0.2186389566650289,0.9555454546703328,-0.0031940568511043257,-1.297831482431082,0.025757258811170768,-0.5666998139944942,0.10744293676912303,0.2440926240255731,-0.11401495641715818,3,left
8.741,0.2226737539429378,0.956748199548748,-0.00288264610252755,-1.3196967824104298,0.02554134385454214,-0.5753176172576927,0.10133280457424984,0.24206440236883503,-0.10446272670482303,3,left
8.741,0.22669701453036437,0.9580032260507082,-0.0025804357869592064,-1.34010960013707,0.025481525972650725,-0.5837273389281419,0.09526837785196826,0.24005561785695623,-0.09509559982455375,3,left
8.745,0.2307039313227284,0.9593124286996568,-0.002288814541573309,-1.3590634472548888,0.025577592120671365,-0.591929335152875,0.08925211714884308,0.23806988875257903,-0.0859179087264991,3,left
8.746,0.23468968681852276,0.9606777383717104,-0.002009173471665958,-1.3765532735218475,0.025829247761308446,-0.5999240621818859,0.08328644495042267,0.23611087579143403,-0.07693378298661012,3,left
8.751,0.23864945603655047,0.962101121328675,-0.001742904107243296,-1.3925754843842468,0.0262361394922556,-0.6077120765912747,0.07737374481837044,0.23418227987787335,-0.06814714603954565,3,left
8.751,0.24257840976583547,0.963584578157171,-0.0014913962165410076,-1.4071279551130906,0.026797877218597926,-0.6152940360518501,0.07151636049711685,0.23228783968442612,-0.059561712490759144,3,left
8.757,0.24647171813663674,0.9651301426086712,-0.001256035478125832,-1.4202100415527878,0.027514055870878965,-0.6226707006661565,0.06571659497289924,0.2304313291497561,-0.05118098548196621,3,left
8.758,0.250324554488247,0.9667398803320242,-0.001038201022936503,-1.4318225875282131,0.028384276670000465,-0.6298429348963018,0.05997670946820873,0.22861655486948848,-0.04300825408475916,3,left
8.761000000000001,0.2541320995009933,0.9684158874833071,-0.0008392628686925304,-1.4419679289519334,0.029408167940567803,-0.636811710104366,0.05429892235482286,0.22684735337447284,-0.035046590697712585,3,left
8.762,0.2578895455552847,0.9701602891914322,-0.0006605792802415521,-1.4506498946691802,0.03058540547473764,-0.6435781077265845,0.04868540796876715,0.22512758829115626,-0.027298848422911276,3,left
8.767000000000001,0.26159210127928145,0.9719752378540155,-0.0005034940997991697,-1.457873804073934,0.03191573244906687,-0.6501433231019139,0.04313829531072165,0.2234611473788623,-0.019767658398429245,3,left
8.767999999999999,0.26523499624899627,0.9738629112355406,-0.00036933410003531366,-1.4636464615252756,0.03339897889730357,-0.6565086699749986,0.03765966661556604,0.22185193943890127,-0.012455427063894062,3,left
8.77,0.2688134858091627,0.975825510338173,-0.00025940641760224754,-1.4679761475889512,0.03503508074250134,-0.6626755856929825,0.03225155577494199,0.22030389109057974,-0.005364333336885059,3,left
8.771,0.2723228559871545,0.9778652570153221,-0.00017499611878245438,-1.4708726071249265,0.03682409839227833,-0.6686456371150268,0.0269159465969018,0.21882094340933053,0.001503674321464529,3,left
8.775,0.2757584284732449,0.9799843912991384,-0.00011736392845143934,-1.472347034237523,0.0387662349014817,-0.6744205272528226,0.021654770886908994,0.21740704842234895,0.00814688097266288,3,left
8.776,0.27911556563851847,0.9821851684156016,-8.774412351021114e-05,-1.4724120541005998,0.040861853706957885,-0.6800021026598186,0.016469906334659147,0.21606616545729623,0.014563808419218992,3,left
8.78,0.2823896755590189,0.9844698554652318,-8.734256475141903e-05,-1.4710817016661266,0.04311149593956841,-0.685392361586317,0.01136317419139733,0.2148022573398192,0.02075321859489246,3,left
8.781,0.28557621701404545,0.9868407277540057,-0.00011733482652660718,-1.468371397260408,0.04551589731903128,-0.6905934629170326,0.006336336722622247,0.2136192864358325,0.026714117145914554,3,left
8.782,0.28867070442953596,0.9893000647672852,-0.0001788643821004105,-1.4642979190681764,0.048076004637609325,-0.6956077359071529,0.0013910944285757873,0.2125212105377721,0.03244575721150369,3,left
8.785,0.2916687127445472,0.9918501457872493,-0.0002730408094931061,-1.4588793725007665,0.05079299183910964,-0.7004376907323885,-0.003470916938411086,0.21151197860951193,0.03794764336080302,3,left
8.786,0.29456588218888996,0.9944932451591004,-0.00040093799377815853,-1.4521351564406213,0.053668275700103414,-0.7050860298679603,-0.008248129464809812,0.2105955264323376,0.043219535551736264,3,left
8.792,0.29735792297022345,0.9972316272133672,-0.0005635923136970605,-1.4440859263504648,0.056703531120723266,-0.7095556603109346,-0.01293904614343468,0.20977577220987675,0.04826145292607733,3,left
8.793,0.300040619877542,1.0000675408526478,-0.0007620008099197745,-1.434753554308932,0.05990070602904434,-0.7138497066285493,-0.017542243822252706,0.20905661217487997,0.05307367730491246,3,left
8.794,0.30260983681495646,1.0030032138123324,-0.0009971193380540057,-1.424161086417201,0.0632620358845014,-0.7179715246584715,-0.02205637600444602,0.20844191621354077,0.05765675633898897,3,left
8.795,0.3050615212847701,1.0060408466066073,-0.001269860711469093,-1.412332698713234,0.06679005773203736,-0.7219247154052885,-0.026480175505909885,0.20793552350806155,0.06201150631832678,3,left
8.796,0.30739170884321204,1.0091826061738434,-0.0015810928369124624,-1.3992936531131202,0.07048762374013517,-0.7257131385208431,-0.03081245698340719,0.20754123819540687,0.06613901465491834,3,left
8.8,0.30959652755772316,1.012430619240109,-0.0019316368396594978,-1.3850702545088271,0.07435791417536641,-0.7293409249117141,-0.03505211934634463,0.20726282504048704,0.07004064205168443,3,left
8.801,0.3116722025000753,1.0157869654254852,-0.002322265165992075,-1.3696898094523127,0.07840444980078634,-0.7328124882977908,-0.039198148064876356,0.20710400512232516,0.07371802437019852,3,left
8.805,0.31361506031233477,1.0192536701228152,-0.0027536996438328716,-1.3531805864659074,0.08263110370500278,-0.7361325357015935,-0.04324961738677828,0.20706845153208325,0.0771730742090395,3,left
8.806000000000001,0.31542153388246824,1.0228326971814545,-0.003226609482138748,-1.3355717779381666,0.08704211257304452,-0.7393060768787741,-0.04720569247527024,0.20715978508215557,0.08040798220398498,3,left
8.809,0.31708816716418115,1.0265259414302745,-0.003741609195391331,-1.3168934635610665,0.09164208741066239,-0.7423384326997773,-0.05106563147969445,0.20738157002588087,0.08342521806061319,3,left
8.81,0.31861162017270206,1.030335221075037,-0.00429925644734255,-1.297176575261186,0.09643602373421398,-0.7452352424922124,-0.054828787550687236,0.20773730978777943,0.08622753132924373,3,left
8.814,0.319988674185329,1.034262270005591,-0.004900049818148969,-1.2764528635743477,0.10142931123881374,-0.7480024703530644,-0.058494610811207236,0.20823044270458432,0.08881795193151551,3,left
8.815,0.321216237171546,1.0383087300489655,-0.0055444265134952835,-1.254754865410131,0.10662774295797388,-0.7506464104394657,-0.06206265029450732,0.20886433777771235,0.09119979044727552,3,left
8.818999999999999,0.32229134947199595,1.0424761432047047,-0.006232760049502584,-1.2321158731496817,0.11203752392851901,-0.7531736912463649,-0.06553255585985933,0.20964229043820318,0.09337663816983524,3,left
8.82,0.3232111897405819,1.046765943896332,-0.006965357953360101,-1.208569905017357,0.11766527937513165,-0.7555912788790551,-0.0689040800965619,0.2105675183255515,0.09535236693704345,3,left
8.824,0.3239730811618136,1.051179451267433,-0.007742459511651164,-1.1841516766639437,0.1235180624294756,-0.7579064793281698,-0.07217708022648052,0.2116431570822596,0.09713112874502551,3,left
8.825,0.3245744979560063,1.055717861545499,-0.008564233581494198,-1.1588965738964863,0.1296033613994525,-0.7601269397544255,-0.07535152001508734,0.2128722561663521,0.09871735515085098,3,left
8.83,0.3250130721850314,1.0603822404935541,-0.00943077646245632,-1.1328406264871593,0.13592910660477342,-0.7622606487900677,-0.07842747170068601,0.21425777468451848,0.10011575646981437,3,left
8.831,0.32528660086753625,1.0651735159685793,-0.010342109814729668,-1.1060204829911147,0.14250367679567572,-0.7643159358636894,-0.0814051179512239,0.21580257724897867,0.10133132077244832,3,left
8.836,0.32539305340304786,1.0700924706067683,-0.011298178603564437,-1.078473386500827,0.14933590517228293,-0.7663014695548189,-0.08428475385781115,0.21750942986161004,0.10236931268583606,3,left
8.837,0.32533057928888076,1.075139734659821,-0.012298849051679115,-1.0502371512621667,0.15643508502279854,-0.7682262549844234,-0.08706678897378338,0.21938099582932155,0.10323527200325162,3,left
8.839,0.3250975160933925,1.0803157790141285,-0.013343906586533052,-1.0213501400752332,0.16381097499943947,-0.7700996302472514,-0.08975174940786274,0.22141983171511892,0.10393501210563047,3,left
8.84,0.32469239762680474,1.0856209084344963,-0.014433053772370107,-0.9918512424008937,0.1714738040517565,-0.7719312618917376,-0.0923402799796904,0.2236283833297701,0.10447461819786492,3,left
8.844,0.324113962230501,1.0910552550828854,-0.015565908216087018,-0.9617798530919955,0.1794342760377564,-0.7737311394530197,-0.09483314644572374,0.22600898176945297,0.10486044536242428,3,left
8.844,0.32336116109088053,1.0966187723665268,-0.016742000433724022,-0.9311758516663521,0.18770357403403742,-0.7755095690444703,-0.09723123780321312,0.22856383950524772,0.10509911643232303,3,left
8.849,0.32243316647789333,1.1023112291666515,-0.017960771662822957,-0.9000795820368424,0.19629336436697364,-0.7772771660130247,-0.09953556867392757,0.23129504652803973,0.1051975196815266,3,left
8.85,0.3213293798151885,1.1081322044905078,-0.019221571605682303,-0.8685318326123255,0.2052158003878415,-0.7790448466634997,-0.10174728174018577,0.23420456653898006,0.10516280631307227,3,left
8.85,0.3200494395059915,1.1140810825790723,-0.020523656090390804,-0.8365738166815391,0.2144835260156684,-0.7808238190570359,-0.10386765015356444,0.23729423315110237,0.10500238769349234,3,left
8.853,0.31859322845278304,1.120157048493634,-0.02186618464008648,-0.8042471529907362,0.22410967907250598,-0.7826255728887628,-0.10589807980754852,0.24056574605428704,0.10472393226435348,3,left
8.854,0.31696088120999644,1.1263590841956406,-0.023248217945519484,-0.7715938464245249,0.23410789443678745,-0.7844618684497892,-0.10784011139396038,0.24402066711019074,0.10433536207871544,3,left
8.857999999999999,0.3151527907056977,1.13268596512425,-0.0246687152433962,-0.7386562687037768,0.24449230700090602,-0.7863447246859495,-0.10969542221465559,0.24766041636932326,0.10384484894121924,3,left
8.859,0.313169614472931,1.139136257267687,-0.026126531613215407,-0.7054771390413654,0.25527755421761006,-0.7882864064022714,-0.11146582774855292,0.25148626801688984,0.10326081014754801,3,left
8.86,0.3110122803424606,1.145708314721002,-0.027620415214016338,-0.6720995047458427,0.2664787776562499,-0.7902994107278748,-0.11315328297958147,0.25549934625732684,0.10259190382216171,3,left
8.863,0.30868199155514336,1.1524002777200837,-0.02914900448618206,-0.6385667217902914,0.2781116227884494,-0.7923964529926201,-0.11475988349087854,0.2597006211479907,0.10184702385291494,3,left
8.863999999999999,0.3061802312508333,1.1592100711340576,-0.030710825340280898,-0.6049224353349615,0.2901922364264999,-0.7945904521305212,-0.1162878663303283,0.26409090439299177,0.10103529442089841,3,left
8.868,0.30350876629018686,1.1661354033874378,-0.03230428834298446,-0.5712105601414226,0.302737261603601,-0.7968945156594979,-0.11773961065229348,0.2686708451087048,0.10016606412360178,3,left
8.869,0.30066965037304005,1.173173765774708,-0.03392768589426109,-0.5374752607875906,0.3157638298888874,-0.7993219242508128,-0.11911763814016028,0.27344092557302624,0.09924889968927772,3,left
8.874,0.29766522642985793,1.1803224321245678,-0.03557918938220283,-0.5037609315870668,0.329289551171981,-0.8018861158945244,-0.120424613214091,0.278401456970992,0.09829357928019547,3,left
8.875,0.29449812827695276,1.187578458768102,-0.03725684630801684,-0.470112176116043,0.343332500953144,-0.8046006696676042,-0.12166334302816025,0.2835525751499144,0.09731008538230723,3,left
8.88,0.29117128154024674,1.1949386847643364,-0.03895857738893797,-0.4365737862509535,0.35791120517649355,-0.8074792891117205,-0.12283677726083946,0.2888942363977408,0.0963085972787141,3,left
8.881,0.28768790386400134,1.2023997323374058,-0.0406821736661742,-0.40319072062011907,0.37304462264517146,-0.8105357852280828,-0.12394800770258992,0.29442621325888557,0.09529948310420817,3,left
8.883,0.284051504425975,1.2099580074811584,-0.04242529367098403,-0.37000808237281485,0.3887521250588517,-0.8137840590971749,-0.12500026764412966,0.3001480904023327,0.09429329147808763,3,left
8.884,0.28026588277763903,1.2176097006907736,-0.04418546073312475,-0.3370710961695118,0.4050534747155058,-0.8172380841316781,-0.1259969310687515,0.30605926055735383,0.09330074271239037,3,left
8.887,0.27633512702227236,1.2253507877899295,-0.045960060536167004,-0.3044250842974897,0.421968799920944,-0.8209118879713916,-0.12694151165189166,0.31215892053273225,0.09233271959266973,3,left
8.888,0.2722636113419309,1.2331770308362797,-0.0477463390182571,-0.2721154418165928,0.43951856815129703,-0.8248195340295145,-0.12783766157097892,0.31844606733592995,0.09140025772844475,3,left
8.892999999999999,0.2680559928891988,1.2410839791027102,-0.04954140069264684,-0.2401876106406068,0.45772355701531114,-0.8289751027002403,-0.1286891701284353,0.3249194944091762,0.09051453547049754,3,left
8.894,0.26371720806893323,1.2490669701420292,-0.05134220744439698,-0.20868705246057231,0.47660482306509405,-0.833392672238249,-0.12949996219054935,0.3315777879999988,0.08968686339226017,3,left
8.898,0.2592524682449925,1.2571211309475978,-0.05314557786254411,-0.17765922041731505,0.4961836685057728,-0.8380862993213517,-0.13027409644480478,0.3384193236842563,0.08892867333263672,3,left
8.899,0.2546672549152075,1.265241379224647,-0.05494818718509453,-0.14714952943157092,0.5164816058564061,-0.8430699993082573,-0.13101576347811922,0.3454422630602651,0.08825150699774036,3,left
8.902000000000001,0.24996731440383976,1.2734224247900372,-0.05674656795603958,-0.11720332510131114,0.5375203206164388,-0.8483577262041814,-0.13172928367833056,0.3526445506331449,0.08766700411919232,3,left
8.902999999999999,0.24515865212088891,1.281658771124555,-0.058537111510462446,-0.08786585107723024,0.5593216319939888,-0.8539633523478105,-0.13241910496116424,0.36002391090903296,0.08718689016682972,3,left
8.907,0.24024752642641684,1.2899447171122977,-0.06031607040383523,-0.05918221482884877,0.5819074517543235,-0.8599006478339698,-0.13308980032482107,0.367577845719337,0.0868229636139018,3,left
8.908,0.2352404421152533,1.2982743590143808,-0.062079561872416575,-0.03119735171530046,0.605299741249013,-0.8661832596872125,-0.13374606523424531,0.3753036317957127,0.08658708275310076,3,left
8.912,0.23014414351055826,1.3066415927351422,-0.06382357235513407,-0.003955987276622465,0.6295204666884346,-0.8728246908024672,-0.1343927148370642,0.3831983186169598,0.08649115206207349,3,left
8.913,0.2249656071334244,1.3150401164444268,-0.06554396304421876,0.022497402336755058,0.6545915527225605,-0.8798382786698243,-0.13503468101313573,0.39125872654953003,0.08654710811739406,3,left
8.918,0.21971203390534658,1.3234634336181361,-0.06723647638858882,0.0481186318766168,0.6805348343972744,-0.8872371739015447,-0.13567700925960072,0.39948144530383606,0.08676690505634535,3,left
8.919,0.2143908408405781,1.3319048565522713,-0.0688967434641062,0.07286385052982894,0.7073720075558455,-0.895034318580392,-0.1363248554120098,0.40786283272207524,0.08716249959264227,3,left
8.919,0.20900965219223225,1.3403575103959353,-0.07052029214132104,0.09668958754736284,0.7351245777576283,-0.9032424244494701,-0.13698348219559747,0.41639901387897277,0.08774583562458065,3,left
8.923,0.20357629002461045,1.348814337739009,-0.07210255600567407,0.11955280004298445,0.7638138077885636,-0.9118739509648467,-0.1376582555891008,0.42508588041469697,0.08852882853201152,3,left
8.923,0.19809876419183206,1.3572681037817405,-0.07363888400260772,0.14141092303260214,0.7934606638406217,-0.9209410832333885,-0.13835464097705133,0.43391908998486706,0.08952334929096033,3,left
8.927,0.19258526171022863,1.3657114021062589,-0.07512455078867458,0.16222192173652225,0.8240857604545722,-0.9304557098441826,-0.13907819907298513,0.4428940657478063,0.090741208503335,3,left
8.927999999999999,0.1870441355197059,1.374136661064735,-0.07655476777588395,0.18194434593358358,0.8557093043962036,-0.9404294005269578,-0.13983458160773812,0.4520059958722424,0.09219414038229512,3,left
8.927999999999999,0.18148389263540834,1.3825361507961393,-0.07792469486067723,0.20053738573832927,0.8883510377703641,-0.9508733834350614,-0.14062952678354193,0.4612498330838619,0.0938937867025475,3,left
8.932,0.17591318169631776,1.3909019908809246,-0.07922945282147413,0.21796092793885347,0.9220301807530529,-0.9617985217756622,-0.14146885449601093,0.4706202942764923,0.0958516807190918,3,left
8.932,0.1703407799253321,1.3992261586382058,-0.08046413634185581,0.23417561226034944,0.9567653742516137,-0.9732152895873365,-0.14235846132620592,0.4801118602140764,0.09807923105861543,3,left
8.937000000000001,0.16477557952479263,1.4075004980639976,-0.08162382757492402,0.2491428873310676,0.9925746226745006,-0.9851337466036582,-0.14330431530507035,0.4897187753499823,0.100587705588445,3,left
8.937999999999999,0.15922657353765837,1.4157167294027078,-0.08270361012366444,0.26282506635454944,1.0294752369220213,-0.9975635122189647,-0.14431245045266333,0.4994350477905571,0.10338821526870352,3,left
8.941,0.15370284120612546,1.4238664593363834,-0.08369858328787742,0.27518538253463426,1.0674837776978807,-1.0105137385891185,-0.14538896109475752,0.5092544494301776,0.10649169799409666,3,left
8.942,0.1482135328586251,1.4319411917665572,-0.08460387642720273,0.28618804429615546,1.1066159992444335,-1.023993082901524,-0.1465399959595323,0.5191705162853838,0.10990890243255834,3,left
8.948,0.14276785435426406,1.439932339152959,-0.08541466330864751,0.29579829034055155,1.1468867936076852,-1.0380096788501247,-0.1477717520572714,0.5291765490559935,0.11365037186882415,3,left
8.949,0.13737505111073386,1.4478312343643285,-0.08612617633684433,0.303982444571823,1.188310135541264,-1.0525711073526052,-0.14909046834617073,0.5392656139413936,0.1177264280618714,3,left
8.951,0.13204439173847857,1.4556291429913166,-0.086733720594404,0.3107079709243679,1.230899028161815,-1.0676843665485338,-0.15050241918757648,0.5494305437404785,0.12214715512606512,3,left
8.952,0.12678515130242088,1.4633172760701894,-0.08723268763625358,0.31594352812023174,1.2746654494715315,-1.083355841118734,-0.15201390759420522,0.5596639392639662,0.12692238344678036,3,left
8.957,0.1216065942328415,1.4708868031671345,-0.08761856898068038,0.3196590243792114,1.3196202998668483,-1.0995912709677245,-0.15363125827514815,0.5699581710880598,0.1320616736422323,3,left
8.958,0.11651795690733814,1.478328865774767,-0.08788696922734913,0.3218256721010674,1.3657733507556729,-1.1163957193126608,-0.15536081048172887,0.58030538167864,0.13757430058423453,3,left
8.962,0.11152842992504841,1.4856345909731186,-0.08803361872018242,0.3224160425348195,1.4131331944089052,-1.1337735402238134,-0.1572089106585707,0.5906974879153685,0.14346923749162413,3,left
8.963,0.10664714009330467,1.492795105304036,-0.08805438566778144,0.321404120445737,1.4617071951754097,-1.1517283456632283,-0.15918190490453332,0.6011261840452595,0.14975514011113777,3,left
8.965,0.10188313214756496,1.499801548798036,-0.08794528763768167,0.3187653587861896,1.511501442193047,-1.1702629720698572,-0.1612861312485008,0.6115829450954264,0.15644033100159382,3,left
8.966000000000001,0.09724535022918214,1.5066450890773886,-0.08770250235364359,0.3144767333719984,1.5625207037318272,-1.189379446541085,-0.16352791174534415,0.6220590307748386,0.16353278393833393,3,left
8.971,0.09274261915267529,1.5133169354430918,-0.08732237774752044,0.3085167975613267,1.6147683833087423,-1.209078952662245,-0.1659135443977395,0.6325454898950298,0.17104010845599996,3,left
8.972000000000001,0.08838362550477481,1.5198083528407955,-0.08680144124604008,0.30086573692848173,1.668246477717336,-1.2293617960373635,-0.16844929490990068,0.6430331653397782,0.17896953454886796,3,left
8.976,0.08417689863105303,1.5261106755937546,-0.08613640830189047,0.29150542392026,1.7229555371185759,-1.2502273695760588,-0.17114138827967973,0.6535126996138347,0.1873278975491303,3,left
8.977,0.08013079158043,1.5322153207897964,-0.08532419020178636,0.2804194724776726,1.7788946273431314,-1.2716741185931841,-0.17399600023590198,0.6639745410008036,0.19612162320470813,3,left
8.98,0.0762534620906319,1.538113801214548,-0.08436190119771445,0.2675932926010321,1.8360612945586858,-1.2936995057794816,-0.177019248528234,0.6744089503602831,0.20535671297938835,3,left
8.981,0.07255285370634851,1.5437977377361558,-0.08324686500875669,0.2530141448314762,1.8944515324594453,-1.316299976103184,-0.18021718407733117,0.6848060085943534,0.21503872959930945,3,left
8.985,0.06903667712313684,1.5492588710675659,-0.08197662072969632,0.2366711946170498,1.9540597521385341,-1.3394709217041711,-0.18359578199202847,0.6951556248035833,0.22517278287166012,3,left
8.986,0.06571239184008984,1.5544890728584406,-0.08054892816423012,0.21855556652647068,2.014878754807498,-1.3632066468439439,-0.18716093245357415,0.7054475451033717,0.23576351580566002,3,left
8.987,0.06258718818552651,1.5594803560949457,-0.07896177258288685,0.1986603982686756,2.0768997075306377,-1.3875003329763327,-0.1909184314543578,0.7156713619826112,0.24681509107246774,3,left
8.991,0.059667969765559804,1.564224884807338,-0.07721336889097799,0.17698089447117665,2.140112122145402,-1.4123440040054929,-0.1948739713718553,0.7258165240372416,0.2583311778448992,3,left
8.992,0.05696133638350768,1.5687149831026732,-0.07530216517726268,0.1535143801651734,2.204503837543529,-1.4377284917993554,-0.19903313136629686,0.7358723459603852,0.2703149390562094,3,left
8.996,0.05447356747986421,1.572943143555113,-0.07322684560133697,0.12826035386156245,2.2700610054274315,-1.4636434020825335,-0.20340136760416572,0.7458280187592633,0.28276901911322233,3,left
8.997,0.05221060613711981,1.5769020349958511,-0.07098633257418445,0.1012205398033983,2.3367680793414434,-1.4900770811053647,-0.2079840033174535,0.7556726202181618,0.29569553209748534,3,left
8.997,0.05017804368425668,1.5805845097456876,-0.06857978819373581,0.07239893844698841,2.4046078062080087,-1.5170165839753365,-0.2127862187106316,0.7653951256363103,0.3090960504888815,3,left
9.0,0.04838110493350141,1.5839836103320164,-0.06600661490996516,0.04180187392520736,2.4735612192839476,-1.5444476458097733,-0.21781304072789873,0.7749844188692485,0.3229715944474804,3,left
9.002,0.046824634091314155,1.5870925757345555,-0.06326645540835424,0.009438037534957353,2.5436076317735186,-1.5723546565990367,-0.2230693326938809,0.7844293037019402,0.33732262169076566,3,left
9.005,0.045513081400780114,1.5899048472073314,-0.06035919171773239,-0.024681473186169138,2.6147246309111845,-1.6007206401829315,-0.22855978384158984,0.7937185155815389,0.35214901800473736,3,left
9.005,0.044450490588457625,1.5924140737235981,-0.057284943566937654,-0.06054311994059669,2.6868880726484585,-1.629527237473313,-0.23428889874209113,0.8028407337373308,0.36745008842875165,3,left
9.01,0.043640487205742824,1.5946141170863801,-0.05404406602754685,-0.09813089380179292,2.7600720771460017,-1.6587546940030287,-0.24026098665099224,0.8117845937149588,0.3832245491553235,3,left
9.011000000000001,0.043086267972436004,1.5964990567428918,-0.050637146480919555,-0.1374262900936003,2.8342490252752315,-1.6883818518826392,-0.2464801507875326,0.820538700351596,0.399470520187483,3,left
9.014,0.04279059124542534,1.5980631943385206,-0.04706500093893732,-0.1784082881208601,2.9093895563366825,-1.7183861462476304,-0.25295027756274313,0.8290916412182421,0.4161855187976389,3,left
9.015,0.04275576874423479,1.5993010580460087,-0.0433286697405316,-0.22105333585926837,2.985462567205299,-1.7487436062800386,-0.2596750257738406,0.8374320005548167,0.433366453833261,3,left
9.02,0.042983658662815234,1.6002074067062606,-0.039429412651107276,-0.2653353397173039,3.0624352131156933,-1.7794288608895454,-0.2666578157827306,0.8455483737231716,0.4510096209160469,3,left
9.021,0.04347566028249217,1.6007772338171262,-0.03536870340935015,-0.31122565948790737,3.1402729103031564,-1.8104151491401868,-0.2739018186972148,0.853429382202567,0.469110698582583,3,left
9.024,0.04423271017946786,1.6010057714050168,-0.03114822378753329,-0.3586931086123642,3.2189393407188858,-1.8416743355098313,-0.2814099455742274,0.861063689151548,0.4876647454158486,3,left
9.026,0.04525528009523795,1.600888493811087,-0.026769857248677177,-0.40770395988353897,3.2983964590404846,-1.87317693007052,-0.28918483666516775,0.8684400155595117,0.5066661982182387,3,left
9.03,0.04654337650818515,1.6004211214201625,-0.022235682293137327,-0.4582219567202248,3.3786045022012527,-1.9048921136786228,-0.2972288507241455,0.8755471570105828,0.5261088712780935,3,left
9.031,0.04809654190950446,1.599599624359569,-0.01754796559112881,-0.5102083301488975,3.459522001664182,-1.9367877682645445,-0.30554405440071297,0.8823740010817016,0.5459859567830234,3,left
9.035,0.049913857751278184,1.5984202261967395,-0.012709155000399517,-0.5636218216335901,3.5411057986688235,-1.9688305123124188,-0.3141322117394245,0.888909545396092,0.5662900264346025,3,left
9.036,0.051993949003353454,1.5968794076650357,-0.007721872569078145,-0.6184187118989297,3.6233110626813647,-2.0009857416208265,-0.32299477380933583,0.8951429163525044,0.5870130343202701,3,left
9.039,0.054334990229292064,1.5949739104444902,-0.0025889076190987507,-0.6745528558955911,3.7060913132802593,-2.0332176754360907,-0.33213286848733475,0.9010633885498183,0.6081463210995253,3,left
9.04,0.05693471306911125,1.5927007410208351,0.0026867900040451766,-0.7319757240615149,3.7893984457117007,-2.06548940805013,-0.3415472904199778,0.9066604049257575,0.6296806195627246,3,left
9.044,0.0597904149980942,1.5900571746449004,0.008102116438526428,-0.7906364500362079,3.873182760350982,-2.0977629659551655,-0.35123849118929423,0.911923597627603,0.6516060616219974,3,left
9.045,0.06289896921874362,1.5870407594140832,0.013653819997586818,-0.8504818849892808,3.9573929963074486,-2.12999937064779,-0.3612065697088118,0.9168428096318845,0.6739121867949684,3,left
9.049,0.06625683553965861,1.5836493204949904,0.01933850697213585,-0.911456658728072,4.04197636941225,-2.1621587071750326,-0.37145126287684904,0.9214081171291127,0.6965879522431287,3,left
9.05,0.06986007210159048,1.579880964500074,0.025152646971852804,-0.9735032477527614,4.12687861482948,-2.1942001985150483,-0.3819719365149154,0.9256098526886467,0.7196217444278185,3,left
9.054,0.07370434782533554,1.5757340840221965,0.031092577736167422,-1.0365620504307742,4.212044034532497,-2.226082285884946,-0.39276757661985434,0.9294386292178056,0.7430013924478763,3,left
9.055,0.07778495547590154,1.571207362321531,0.03715450935595657,-1.1005714694655149,4.2974155498882975,-2.257762715068059,-0.4038367809580979,0.9328853646886294,0.7667141830814638,3,left
9.056000000000001,0.08209682526140254,1.566299778150416,0.043334527863764995,-1.1654680018375478,4.3829347595937165,-2.2891986288526134,-0.41517775102589866,0.9359413074061775,0.7907468773425401,3,left
9.059,0.08663453891017488,1.561010610692429,0.04962859817594087,-1.2311863363992426,4.468542003208004,-2.320346665673289,-0.42678828439065924,0.9385980612339493,0.8150857279799671,3,left
9.06,0.0913923441871671,1.555339444576674,0.05603256640255259,-1.2976594593066246,4.554176430526889,-2.3511630645465975,-0.4386657674239679,0.9408476099924462,0.839716497135119,3,left
9.062999999999999,0.09636416981767147,1.5492861749046871,0.06254216157642001,-1.3648187673022676,4.639776076873784,-2.3816037762029376,-0.4508071684430247,0.9426823404442414,0.8646244735878461,3,left
9.064,0.10154364079271037,1.5428510122048926,0.06915299688195364,-1.4325941880030888,4.725277943534556,-2.4116245793806685,-0.46320903128745106,0.9440950636350128,0.889794489405019,3,left
9.065,0.10692409404401239,1.5360344872167537,0.07586057048048486,-1.5009143047969227,4.810618081033307,-2.4411811995604884,-0.47586746936453783,0.9450790345572916,0.9152109360197657,3,left
9.07,0.11249859449425133,1.5288374553928297,0.08266026604226563,-1.5697064830913945,4.895731672097021,-2.4702294264806204,-0.48877816019780357,0.9456279701421811,0.9408577798129233,3,left
9.072000000000001,0.11825995150455909,1.5212611009804675,0.08954735311990827,-1.6388969955227035,4.980553112006152,-2.498725227708811,-0.5019363405144809,0.9457360655830922,0.9667185772689803,3,left
9.073,0.1242007357533819,1.5133069405208555,0.09651698752225607,-1.7084111452856434,5.065016085556784,-2.5266248572318983,-0.5153368019082871,0.9453980089943052,0.9927764897794854,3,left
9.074,0.13031329658458293,1.5049768256029947,0.10356421185017953,-1.7781733876098642,5.149053640708836,-2.5538849589589656,-0.5289738871145572,0.9446089944059255,1.019014298167568,3,left
9.079,0.13658977985484164,1.496272944734809,0.11068395633207463,-1.8481074495809775,5.232598259163851,-2.580462665219839,-0.5428414869355281,0.9433647330955311,1.0454144170078221,3,left
9.08,0.14302214629296026,1.487197824232813,0.11787104005624782,-1.9181364485060388,5.315581924114857,-2.606315690338992,-0.5569330378542581,0.9416614632555298,1.0719589088163752,3,left
9.083,0.149602190364292,1.4777543280773708,0.12512017265256445,-1.9881830090236534,5.397936185409572,-2.6314024193630696,-0.5712415203763433,0.9394959579939498,1.0986294981864797,3,left
9.084,0.15632155962042893,1.4679456567260905,0.13242595643859595,-2.058169379159437,5.479592222366796,-2.6556819920182915,-0.5857594581392563,0.936865531665085,1.1254075859454264,3,left
9.088,0.16317177451138207,1.4577753449181257,0.13978288902253738,-2.128017545527845,5.560480904484267,-2.679114381971919,-0.6004789178297708,0.9337680445250887,1.152274263408998,3,left
9.089,0.1701442486420043,1.4472472585343235,0.14718536634463456,-2.197649347881422,5.640532850274373,-2.701660471469763,-0.6153915099505642,0.9302019057062942,1.1792103268100376,3,left
9.093,0.17723030945959953,1.4363655905995178,0.15462768613418873,-2.2669865932083657,5.719678484462179,-2.723282121419388,-0.6304883904776833,0.9261660745026998,1.2061962919780216,3,left
9.094,0.18442121936004688,1.4251348565217683,0.16210405175597783,-2.335951169578879,5.797848093777969,-2.7439422369862565,-0.6457602634511427,0.9216600599577145,1.2332124093467738,3,left
9.097000000000001,0.19170819719303686,1.4135598886608483,0.16960857641788676,-2.404465159940184,5.874971881574142,-2.7636048287674906,-0.6611973845414751,0.916683918743921,1.2602386793676565,3,left
9.097999999999999,0.1990824401323814,1.4016458303096002,0.1771352877111423,-2.4724509560592134,5.950980021493655,-2.7822350696052887,-0.6767895656355852,0.9112382513232575,1.2872548684057263,3,left
9.103,0.2065351458547686,1.389398129160855,0.1846781324557898,-2.539831372810934,6.025802710414434,-2.7997993470992637,-0.692526180485755,0.9053241963746771,1.314240525196414,3,left
9.104,0.21405753494068344,1.3768225303226984,0.19223098182778364,-2.606529763008951,6.099370220891157,-2.8162653118741248,-0.7083961714661282,0.8989434234749885,1.3411749979403302,3,left
9.107000000000001,0.22164087337698082,1.363925068939419,0.19978763675135808,-2.672470132973532,6.1716129533126205,-2.8316019216561426,-0.7243880574814409,0.8920981240172381,1.3680374521137602,3,left
9.107999999999999,0.22927649500660846,1.3507120624752365,0.20734183354971888,-2.7375772590304592,6.242461487989461,-2.845779481208783,-0.7404899430731832,0.8847910003496464,1.394806889072325,3,left
9.113,0.23695582374286964,1.3371901027188218,0.21488724985485838,-2.8017768051321434,6.311846637383445,-2.8587696781747547,-0.7566895287687573,0.877025253116774,1.4214621655251443,3,left
9.113999999999999,0.2446703953475344,1.3233660475639524,0.22241751078279262,-2.864995441790274,6.379699498685697,-2.8705456148684534,-0.7729741227195447,0.8688045667832582,1.447982013956617,3,left
9.117,0.25241187856671937,1.3092470126137936,0.22992619538725426,-2.927160966506876,6.445951506947255,-2.881081836059478,-0.7893306536741159,0.8601330933191351,1.4743450640726832,3,left
9.117,0.26017209542674263,1.294840362643882,0.2374068434144369,-2.9882024258880455,6.5105344889611185,-2.8903543527844757,-0.8057456853330892,0.8510154340244469,1.5005298653480896,3,left
9.122,0.26794304051244316,1.2801537029435377,0.24485296239042403,-3.0480502396218174,6.573380718090577,-2.8983406622210883,-0.8222054321323939,0.8414566194695272,1.5265149107508003,3,left
9.123,0.27571689907981944,1.2651948705392286,0.2522580350770872,-3.1066363264986046,6.634422970233997,-2.90501976365422,-0.8386957764673065,0.8314620875856497,1.5522786616752353,3,left
9.124,0.2834860638912861,1.2499719252879138,0.25961552733034166,-3.1638942326494046,6.693594581111436,-2.910372170561211,-0.855202287196849,0.8210376602373797,1.5777995738955033,3,left
9.127,0.29124315069950235,1.2344931408160995,0.26691889638859434,-3.2197592621735596,6.7508295050534946,-2.914379918838818,-0.8717102389569613,0.8101895191429829,1.6030561239531933,3,left
9.128,0.29898101233134644,1.2187669952748326,0.2741615996109604,-3.274168610324225,6.80606237546761,-2.9170265711911463,-0.8882046316379988,0.7989241823059251,1.6280268351736507,3,left
9.133,0.30669275133127916,1.2028021618830849,0.2813371036741022,-3.3270614994158985,6.859228567151647,-2.918297217693866,-0.9046702095550987,0.7872484818213338,1.6526903027239712,3,left
9.135,0.3143717311243935,1.1866074992397075,0.2884388942223945,-3.37837931761436,6.910264260619052,-2.9181784725462006,-0.9210914801512692,0.7751695433837908,1.6770252175212077,3,left
9.136000000000001,0.32201158566544147,1.1701920413944442,0.29546048595156843,-3.428065760526004,6.959106508522256,-2.9166584670918123,-0.9374527322459646,0.7626947675236982,1.7010103890184773,3,left
9.136000000000001,0.3296062275509914,1.153564987676609,0.3023954330983545,-3.4760669743032673,7.005693303895866,-2.9137268395535947,-0.9537380538764119,0.7498318125386877,1.7246247669397736,3,left
9.137,0.33714985458280106,1.1367356922828877,0.30923734030913114,-3.5223316968256593,7.049963649288425,-2.9093747225854787,-0.9699313497788294,0.7365885790853924,1.747847462033349,3,left
9.142000000000001,0.34463695477592804,1.119713653631073,0.3159798738587645,-3.5668113923152847,7.091857625486011,-2.903594730108146,-0.9860163585565072,0.7229731963957592,1.77065776591252,3,left
9.142999999999999,0.35206230980262077,1.1025085035034665,0.3226167731798805,-3.6094603759368384,7.131316458883716,-2.896380944523675,-1.0019766695814938,0.7089940100809683,1.7930351700516913,3,left
9.148,0.3594209968582117,1.0851299960264402,0.32914186264994727,-3.650235927079766,7.16828258720096,-2.8877289047379886,-1.0177957396763768,0.6946595714849326,1.8149593840042684,3,left
9.149,0.36670838893537244,1.0675879965496555,0.3355490635757614,-3.689098391211079,7.202699723589023,-2.877635595048051,-1.0334569096223287,0.6799786285482816,1.836410352907936,3,left
9.151,0.3739201535002313,1.0498924704972352,0.34183240630968575,-3.7260112704212447,7.234512919244038,-2.8660994348730826,-1.048943420539231,0.664960118142689,1.857368274341551,3,left
9.152000000000001,0.3810522495771903,1.0320534722661237,0.3479860424269244,-3.7609413027802137,7.26366862463151,-2.8531202693049282,-1.0642384301832861,0.6496131598343854,1.8778136145965816,3,left
9.156,0.38810092326761375,1.0140811342444713,0.3540042568910819,-3.7938585306151436,7.290114749421102,-2.8386993604485813,-1.0793250292070722,0.6339470510346992,1.8977271244246803,3,left
9.157,0.3950627017485654,0.9959856560158369,0.35988148013877713,-3.8247363578157896,7.31380072122298,-2.822839379519727,-1.0941862574264898,0.6179712634945025,1.917089854321547,3,left
9.161,0.4019343858188421,0.9777772938060154,0.3656123000226538,-3.8535515962678346,7.334677543209358,-2.8055443996620135,-1.1088051201385052,0.6016954410984933,1.935883169405784,3,left
9.163,0.4087130410791528,0.959466350220295,0.3711914735641712,-3.8802845015086755,7.352697850697098,-2.7868198894426373,-1.1231646045329933,0.5851293989143307,1.9540887639499,3,left
9.166,0.41539598785129606,0.9410631643094057,0.3766139384817248,-3.904918797694308,7.3678159667593155,-2.7666727069806845,-1.1372476962413358,0.5682831234507494,1.9716886756190528,3,left
9.166,0.4219807899575659,0.9225781019915369,0.38187482447482257,-3.9274416919600563,7.379987956925854,-2.745111094658557,-1.1510373960637332,0.551166774077918,1.9886652994714746,3,left
9.171,0.4284652424950924,0.9040215468455026,0.386969464260139,-3.9478438782519047,7.389171683024298,-2.72214467436271,-1.1645167369164457,0.5337906855624739,2.0050014017728457,3,left
9.172,0.43484735875084185,0.8854038912769325,0.3918934043681787,-3.966119530699169,7.395326856204863,-2.6977844431958404,-1.1776688010393828,0.5161653716688603,2.020680133675135,3,left
9.175,0.4411253564145456,0.8667355280469733,0.3966424157168229,-3.9822662865931933,7.398415089184034,-2.6720427695986073,-1.1904767375036212,0.4983015297778189,2.0356850448086394,3,left
9.176,0.4472976432588026,0.848026842143229,0.40121250397759717,-3.9962852190306655,7.398399947733258,-2.644933389814928,-1.2029237800575332,0.48021004647214127,2.0500000968341188,3,left
9.182,0.4533628024632252,0.8292882029655086,0.40559991974069043,-4.008180799274054,7.395247001430276,-2.616471404630897,-1.2149932653492759,0.46190200403907233,2.0636096770000303,3,left
9.183,0.459319577758538,0.8105299567935071,0.40980116846561965,-4.0179608488755525,7.388923873681909,-2.5866732763134124,-1.226668651562397,0.4433886878380693,2.0764986117479305,3,left
9.187000000000001,0.46516685855671386,0.791762419499907,0.4138130201772101,-4.025636481604801,7.379400291018145,-2.555556825670657,-1.2379335375002767,0.4246815944819682,2.0886521804071365,3,left
9.187999999999999,0.47090366521753807,0.7729958694710711,0.41763251883266883,-4.031222035214597,7.366648131648433,-2.5231412291527158,-1.2487716821540447,0.40579244077898846,2.1000561290177093,3,left
9.191,0.4765291345836162,0.7542405406982671,0.4212569912487701,-4.034734993072696,7.350641473261946,-2.4894470159067583,-1.2591670247874778,0.38673317338241636,2.1106966843187545,3,left
9.192,0.4820425058951872,0.7355066160042747,0.4246840554491568,-4.036195895681789,7.331356640044388,-2.4544960646974383,-1.2691037055521024,0.36751597905954625,2.1205605679163684,3,left
9.193,0.48744310717249245,0.7168042203714139,0.4279116282851294,-4.035628242103743,7.308772248874651,-2.418311600599437,-1.27856608654901,0.3481532953174043,2.129635010540609,3,left
9.195,0.4927303421305639,0.6981434143363869,0.4309379321986573,-4.0330583812982415,7.282869254655299,-2.3809181913654,-1.2875387730807235,0.32865782080993516,2.137907766113661,3,left
9.196,0.4979036776766396,0.6795341874182838,0.43376150100797917,-4.028515393380061,7.25363099472143,-2.342341743368914,-1.2960066347396462,0.30904252477734867,2.1453671252463433,3,left
9.2,0.5029626320356042,0.6609864515526684,0.43638118458774783,-4.022030960793425,7.2210432322629865,-2.3026094970186324,-1.3039548260737523,0.28932065494143727,2.1520019278806335,3,left
9.201,0.5079067635479576,0.642510034514115,0.43879615230905644,-4.013639229396108,7.185094198686091,-2.261750021536172,-1.3113688067406684,0.26950574359264884,2.1578015749786017,3,left
9.203,0.5127356601838191,0.6241146733157934,0.44100589512467253,-4.003376659671411,7.145774634809548,-2.219793208967982,-1.3182343611553409,0.2496116117778881,2.162756039258596,3,left
