time,gFx,gFy,gFz,ax,ay,az,wx,wy,wz,subject_number,foot
3.227,0.13809281672305865,0.9491636776469864,0.006019542725604955,1.5901134868943023,0.276680360569102,0.4244451615776305,0.4321132763255014,0.27385577841030734,-0.6633433513869389,4,left
3.228,0.1354657112739283,0.948088167734281,0.004632963666674608,1.5419579672281107,0.2801044479007076,0.40680106312142894,0.4300676210812007,0.2778532464999183,-0.6568046038431079,4,left
3.2319999999999998,0.13298453620781842,0.9470171198042041,0.0032882467321367023,1.493424823020392,0.28335911074660436,0.3889959025798785,0.42787685554655697,0.2817276777334547,-0.6500114430089239,4,left
3.233,0.1306509353288581,0.9459518862593896,0.0019861030334685573,1.4445364885019696,0.2864354845896469,0.37103095837182226,0.42554164240045506,0.2854762707644304,-0.6429699224963514,4,left
3.239,0.12846644743705288,0.9448938071591034,0.0007272298721667772,1.3953157753147116,0.2893251936506971,0.35290799551861435,0.42306272027068154,0.28909629248617763,-0.6356862222292418,4,left
3.239,0.12643250304451117,0.9438442085315298,-0.0004876896312831484,1.3457858795586406,0.2920203627079422,0.3346292683836948,0.4204409048444117,0.29258508413356404,-0.6281666445865846,4,left
3.242,0.12455042123284861,0.9428044009109571,-0.0016579871570953433,1.2959703879303648,0.2945136269811271,0.31619752159634495,0.41767708985153257,0.2959400677638529,-0.6204176104480538,4,left
3.2430000000000003,0.12282140667810752,0.9417756781097272,-0.0027830100513492706,1.245893282811475,0.2967981400889847,0.29761598910756704,0.4147722479136809,0.29915875312709966,-0.6124456551209364,4,left
3.2460000000000004,0.12124654686484006,0.9407593162207591,-0.0038621224259597037,1.195578946164679,0.2988675800875914,0.2788883913255831,0.4117274312514676,0.3022387449361023,-0.604257424126856,4,left
3.247,0.11982680950343137,0.9397565728370758,-0.004894706485706585,1.1450521620946141,0.3007161535967952,0.2600189302780104,0.40854377224588256,0.30517775053199514,-0.5958596688344113,4,left
3.248,0.1185630401565071,0.938768686471599,-0.005880164079280164,1.0943381179295328,0.3023385980212661,0.24101228274734296,0.4052224838691285,0.30797358787347434,-0.5872592419650441,4,left
3.2510000000000003,0.11745596007307195,0.9377968761609576,-0.006817918470500636,1.043462403679378,0.30373018187210055,0.22187359132594733,0.401764860035122,0.3106241936553643,-0.57846309307413,4,left
3.2510000000000003,0.11650616422220907,0.9368423412364509,-0.007707416318811903,0.9924510097251487,0.30488670319427946,0.20260845333637634,0.3981722759391585,0.3131276312941186,-0.5694782641505205,4,left
3.2560000000000002,0.11571411951086565,0.9359062612406563,-0.008548129848385615,0.9413303225939248,0.30580448610463046,0.18322290756241133,0.39444618843618434,0.31548209858514836,-0.5603118854353458,4,left
3.2560000000000002,0.11508016316378321,0.9349897959615755,-0.00933955917699546,0.8901271186734554,0.30648037544428264,0.16372341873586366,0.39058813647133767,0.3176859349583359,-0.5509711714850268,4,left
3.261,0.11460450123935154,0.9340940855517451,-0.010081234770610957,0.838868555719823,0.3069117295489289,0.1441168597238056,0.3865997415563726,0.3197376283253784,-0.5414634174610657,4,left
3.262,0.11428720725273202,0.9332202506988344,-0.010772719986175848,0.7875821620113872,0.30709641113952496,0.12441049136055478,0.38248270828126735,0.32163582152572207,-0.5317959956203002,4,left
3.262,0.11412822087709332,0.9323693928169733,-0.011413613663768094,0.736295823058171,0.30703277637017956,0.10461193993204972,0.3782388248499349,0.32337931837741474,-0.5219763519788021,4,left
3.267,0.11412734669631794,0.9315425942347395,-0.01200355273299291,0.6850377660566822,0.3067196622433818,0.08472917263814891,0.37386996362858355,0.3249670893387677,-0.5120120031221239,4,left
3.267,0.11428425298688862,0.9307409183645311,-0.012542214806934468,0.6338365427858683,0.3061563729153676,0.06477047193085801,0.369378081694904,0.32639827678627725,-0.5019105331341368,4,left
3.2739999999999996,0.11459847050897594,0.929965409846286,-0.013029320745024857,0.5827210119208888,0.3053426655878096,0.04474440994442737,0.36476522137589396,0.3276721999138124,-0.4916795906162676,4,left
3.2739999999999996,0.11506939128614399,0.9292170946669202,-0.013464637169916418,0.5317203214604829,0.30427873650720577,0.02465982391482027,0.3600335107617765,0.3287883592576283,-0.4813268857685257,4,left
3.275,0.11569626735308955,0.9284969802670784,-0.013847978925872731,0.48086389145809627,0.30296520727925846,0.004525792913074302,0.3551851641831096,0.3297464408513148,-0.4708601875033183,4,left
3.2760000000000002,0.11647820945312296,0.9278060556570746,-0.014179211470839453,0.43018139696618507,0.30140311153072474,-0.01564838410131457,0.35022248263784234,0.3305463200143396,-0.46028732056267835,4,left
3.283,0.11741418567062321,0.9271452915713366,-0.014458253199140568,0.37970275104724904,0.2995938819156839,-0.03585320896466336,0.3451478541547289,0.3311880647773905,-0.44961616260918297,4,left
3.284,0.11850301998933607,0.9265156406941544,-0.014685077693580332,0.3294580877055622,0.29753933746245026,-0.05607900378884851,0.33996375407917656,0.33167193894727054,-0.43885464126051016,4,left
3.286,0.11974339077712563,0.9259180379889509,-0.014859715904751297,0.2794777445940659,0.2952416712566467,-0.07631592929446199,0.33467274526727725,0.33199840481364185,-0.42801073103727816,4,left
3.286,0.12113382921078206,0.9253534011592002,-0.014982258252564069,0.2297922453514791,0.2927034384552462,-0.09655400205539934,0.3292774781734494,0.3321681254994643,-0.41709245019352914,4,left
3.29,0.12267271766723459,0.9248226312624411,-0.015052856641058243,0.18043228142535137,0.2899275446256835,-0.11678311071296178,0.32378069081680344,0.33218196695651897,-0.40610785739895916,4,left
3.2910000000000004,0.1243582881171921,0.9243266134900727,-0.015071726373651681,0.13142869323754366,0.28691723440344125,-0.1369930312175862,0.318185208611037,0.33204099960695593,-0.3950650482417601,4,left
3.295,0.12618862056349,0.9238662181153444,-0.015039147952249279,0.08281245054947069,0.2836760804608265,-0.15717344115631957,0.3124939440423659,0.33174649963135533,-0.38397215152072567,4,left
3.295,0.1281616415698112,0.9234423016019521,-0.014955468738851072,0.03461463188537225,0.28020797277896875,-0.1773139332241292,0.3067098961797071,0.331299949903345,-0.3728373252950837,4,left
3.3,0.13027512292555996,0.9230557078582323,-0.014821104453999022,-0.013133597127093184,0.2765171082144004,-0.19740402789708364,0.3008361500010453,0.33070304057037125,-0.3616687526603477,4,left
3.3,0.13252668048871638,0.9227072696183759,-0.014636540486393346,-0.060401006638527606,0.2726079803509164,-0.21743318536535516,0.2948758755196394,0.3299576692797804,-0.3504746372183402,4,left
3.306,0.13491377324058534,0.9223978099317096,-0.014402332992490387,-0.10715632682013766,0.26848536962675973,-0.23739081678387955,0.28883232669346104,0.329065941048932,-0.33926319820941636,4,left
3.307,0.13743370257633566,0.9221281437422489,-0.014119109770345912,-0.15336827360384442,0.26415433372653907,-0.25726629489836383,0.2827088401009963,0.32803016777763305,-0.3280426652748221,4,left
3.3110000000000004,0.14008361184634302,0.921899079542509,-0.013787570897169614,-0.19900557605587813,0.2596201982266592,-0.27704896410415747,0.27650883336629695,0.3268528674007563,-0.31682127281704725,4,left
3.312,0.1428604861578092,0.9217114210879596,-0.0134084891271858,-0.2440370055181062,0.254888547482432,-0.2967281499952973,0.2702358033159263,0.32553676267848636,-0.30560725392598254,4,left
3.315,0.1457611524432718,0.9215659691601971,-0.012982710056228329,-0.2884314066497815,0.24996521574443734,-0.31629316846079986,0.2638933238502158,0.3240847796212223,-0.294408833838666,4,left
3.315,0.1487822798003917,0.9214635233656058,-0.012511152069113048,-0.3321577305007479,0.24485627849112085,-0.33573333438500924,0.257485043511029,0.32250004554576245,-0.2832342229003992,4,left
3.3160000000000003,0.15192038010535064,0.9214048839525827,-0.011994806090937294,-0.3751850697453984,0.23956804396404813,-0.3550379700085098,0.2510146827357226,0.3207858867622814,-0.27209160901046014,4,left
3.32,0.1551718089013806,0.9213908536281279,-0.011434735161953032,-0.4174826962048534,0.23410704489168527,-0.37419641300578566,0.24448603082530665,0.3189458259076487,-0.2609891496127981,4,left
3.32,0.15853276656428153,0.921422239355527,-0.010832073849828221,-0.45902010078290595,0.22848003038704223,-0.39319802433545115,0.23790294272394177,0.31698357896982976,-0.2499349634309706,4,left
3.325,0.16199929974673571,0.9214998541155901,-0.010188027507510852,-0.49976703593927363,0.2226939580040022,-0.41203219591848556,0.2312693357452424,0.314903052064166,-0.23893712222379085,4,left
3.326,0.16556730310194387,0.9216245186111968,-0.009503871381238612,-0.5396935608216019,0.2167559859366624,-0.4306883581994872,0.22458918634217828,0.3127083380055415,-0.22800364276115326,4,left
3.3289999999999997,0.16923252128550598,0.9217970628914028,-0.00878094956991453,-0.5787700890894585,0.21067346534889952,-0.4491559876432698,0.21786652694788605,0.3104037126905211,-0.21714247908083634,4,left
3.33,0.17299055123445495,0.9220183278718752,-0.008020673833677994,-0.6169674390311873,0.2044539328377248,-0.46742461420744524,0.21110544287604527,0.3079936312867792,-0.20636151501012995,4,left
3.3310000000000004,0.17683684472453118,0.9222891667323045,-0.007224522247037894,-0.6542568847979507,0.19810510306381604,-0.48548382881096735,0.20431006926163753,0.3054827242235217,-0.1956685569208946,4,left
3.3339999999999996,0.18076671120916143,0.9226104461732585,-0.006394037690041421,-0.6906102071467444,0.19163486159900983,-0.503323290806869,0.19748458802278462,0.3028757929762913,-0.1850713266868687,4,left
3.3339999999999996,0.1847753209446308,0.9229830475128877,-0.005530826169363666,-0.7259997425117479,0.1850512580233332,-0.5209327354780541,0.19063322482425224,0.3001778056392426,-0.17457745481226977,4,left
3.339,0.18885770840733404,0.9234078676023799,-0.004636554961818388,-0.7603984299949513,0.17836249927352504,-0.5383019815945626,0.1837602460231069,0.297393892277684,-0.16419447370098825,4,left
3.339,0.19300877601242364,0.9238858195415011,-0.0037129505777370774,-0.7937798562944092,0.17157694322783956,-0.5554209390812941,0.1768699555769271,0.2945293400534074,-0.15392981103594727,4,left
3.345,0.19722329814705614,0.9244178331808504,-0.0027617965507668193,-0.8261182986717303,0.1647030925082366,-0.5722796168467558,0.16996669189489638,0.2915895881150676,-0.1437907832384985,4,left
3.346,0.20149592553362547,0.9250048554039365,-0.0017849310711505035,-0.8573887660575641,0.15774958848076137,-0.5888681308227102,0.16305482461204238,0.28858022224562335,-0.13378458897804235,4,left
3.3510000000000004,0.2058211899388464,0.9256478501897173,-0.0007842444879478577,-0.8875670383909234,0.15072520543463924,-0.6051767122638789,0.15613875126683804,0.28550696925862523,-0.12391830270240103,4,left
3.352,0.2101935092444116,0.9263477984644285,0.00023832329024431274,-0.9166297042851899,0.14363884492035736,-0.6211957163561127,0.1492228938623431,0.2823756911349147,-0.1141988681598332,4,left
3.3539999999999996,0.21460719289463426,0.9271056977595481,0.0012807854669516282,-0.944554197110582,0.13649953022677624,-0.6369156311806591,0.1423116952910389,0.2791923788911032,-0.10463309188395989,4,left
3.3539999999999996,0.21905644773516086,0.9279225617015926,0.002341111076264917,-0.9713188295797294,0.12931640097711145,-0.6523270870813597,0.1354096156034984,0.2759631461710151,-0.09522763661327392,4,left
3.358,0.22353538425274713,0.9287994193704167,0.003417227726895532,-0.996902826919795,0.12209870782344781,-0.6674208664807733,0.12852112810103347,0.2726942225511109,-0.0859890146173259,4,left
3.359,0.22803802321826563,0.9297373145735153,0.0045070243549578184,-1.0212863587113152,0.11485580721929618,-0.6821879141903638,0.12165071523247489,0.2693919465507612,-0.07692358090212113,4,left
3.364,0.23255830272457204,0.9307373050899184,0.0056083539730120225,-1.044450569470603,0.10759715624957751,-0.6966193482590064,0.11480286427526705,0.26606275833810544,-0.06803752626772246,4,left
3.365,0.23709008559953737,0.9318004619362347,0.006719036407780503,-1.0663776080491678,0.10033230749732,-0.710706471403153,0.10798206278109813,0.26271319212212074,-0.05933687019153223,4,left
3.3680000000000003,0.24162716716380273,0.9329278687007381,0.007836861025004095,-1.087050655920158,0.0930709039262828,-0.7244407830610602,0.10119279376633854,0.2593498682214268,-0.050827453511224356,4,left
3.3680000000000003,0.24616328329287232,0.9341206209818571,0.008959589448336792,-1.1064539544183312,0.08582267375867444,-0.7378139921125167,0.09443953062762525,0.25597948480027743,-0.04251493088181218,4,left
3.375,0.2506921187328879,0.9353798259565249,0.010084958289119145,-1.1245728309965088,0.07859742532711703,-0.750818030304523,0.08772673176300749,0.2526088092621305,-0.03440476298186994,4,left
3.3760000000000003,0.25520731560781634,0.9367066020924145,0.011210681911683543,-1.1413937245578678,0.07140504188001699,-0.763445066422358,0.08105883487915923,0.24924466929114883,-0.026502208444474828,4,left
3.378,0.25970248204421315,0.9381020790069259,0.012334455262875856,-1.1569042099197788,0.06425547631954132,-0.7756875212444352,0.07444025096526832,0.24589394353196467,-0.01881231548900167,4,left
3.378,0.26417120083163614,0.9395673974650319,0.013453956796882436,-1.1710930214612125,0.05715874585146415,-0.7875380833182876,0.06787535791432735,0.24256355189803855,-0.011339913230483268,4,left
3.384,0.2686070380364635,0.9411037094986959,0.014566851526605074,-1.1839500760020076,0.050124926526243826,-0.7989897255939381,0.061368493785325204,0.23926044550937792,-0.004089602659025886,4,left
3.386,0.27300355149822036,0.9427121786254778,0.015670794226218056,-1.1954664949585372,0.0431641476508126,-0.8100357229498113,0.05492394976320262,0.2359915963124855,0.0029342526417171118,4,left
3.386,0.2773542991584066,0.9443939801436378,0.016763432796669177,-1.2056346258165078,0.03628658605071413,-0.8206696706452133,0.04854596298738932,0.23276398652919097,0.009727535830760725,4,left
3.388,0.2816528471915572,0.9461503014800124,0.017842411793604605,-1.2144480629578116,0.02950246016240417,-0.8308855037322626,0.04223870948313021,0.22958459813316437,0.016286385917899694,4,left
3.389,0.2858927779210738,0.9479823425599433,0.018905376110910085,-1.2219016678744956,0.022822023935739854,-0.8406775174589903,0.036006297366763654,0.226460402500941,0.022607206436175586,4,left
3.3939999999999997,0.2900676975163007,0.9498913161571412,0.01994997481288937,-1.227991588799046,0.016255560526922223,-0.8500403886941478,0.02985276038250595,0.22339835029068286,0.02868667360712291,4,left
3.3939999999999997,0.294171243489751,0.9518784481694769,0.020973865109861406,-1.2327152797762944,0.009813375762425101,-0.8589691984030529,0.02378205176527617,0.22040536154997176,0.034521744002447785,4,left
3.397,0.29819709203888345,0.9539449777567938,0.021974716471288007,-1.236071519184099,0.0035057913709274097,-0.8674594551602908,0.017798038411666037,0.21748831604367333,0.04010966172029002,4,left
3.3989999999999996,0.3021389652942954,0.9560921572737325,0.0229502148677483,-1.2380604276347817,-0.0026568619384762147,-0.8755071194723208,0.011904495341385856,0.21465404379309147,0.04544796509352675,4,left
3.3989999999999996,0.3059906385425114,0.9583212519362322,0.02389806713063785,-1.238683485057115,-0.008664251327480077,-0.8831086283010487,0.006105100431755355,0.21190931581782954,0.05053449294687426,4,left
3.403,0.3097459474970466,0.9606335391651117,0.024816005415181412,-1.237943546683472,-0.014506048303563947,-0.8902609189666356,0.00040342940805699826,0.2092608350719928,0.05536739041883538,4,left
3.405,0.3133987957046575,0.9630303075455278,0.025701791746175356,-1.2358448577340877,-0.020171934593671968,-0.8969614518180714,-0.005197048927170793,0.20671522756660524,0.05994511436382326,4,left
3.407,0.3169431621863973,0.965512855335385,0.026553222620015044,-1.2323930667147134,-0.025651607336693017,-0.9032082314395129,-0.010692977242552986,0.20427903367036962,0.06426643834906971,4,left
3.408,0.32037310941331426,0.9680824884605805,0.027368133636252154,-1.2275952373112997,-0.030934783595316068,-0.9089998263706193,-0.01608111402038173,0.20195869958117707,0.06833045726019858,4,left
3.4139999999999997,0.3236827917036977,0.9707405179507381,0.028144404138002118,-1.2214598588756918,-0.03601120420351507,-0.9143353873601311,-0.02135833770928608,0.19976056896106745,0.07213659152861196,4,left
3.4139999999999997,0.32686646410792386,0.9734882567916915,0.028879961849153566,-1.2139968554924336,-0.04087063696538269,-0.9192146641706357,-0.026521650702848943,0.1976908747276558,0.0756845909931013,4,left
3.418,0.3299184918222359,0.9763270161977977,0.029572787501783854,-1.2052175936129206,-0.045502879220468105,-0.9236380209511525,-0.03156818315964331,0.19575573099537286,0.07897453840735716,4,left
3.4189999999999996,0.3328333601466439,0.9792581013340599,0.03022091944447033,-1.1951348882392905,-0.049897759790179914,-0.9276064501928681,-0.03649519667984126,0.19396112516021802,0.08200685260431093,4,left
3.4219999999999997,0.33560568497633353,0.9822828065398029,0.030822458210790382,-1.183763007636643,-0.05404514031919208,-0.9311215852820369,-0.04130008785322243,0.192312910122093,0.08478229132750116,4,left
3.423,0.3382302237925451,0.985402410120609,0.03137557101274497,-1.1711176765483946,-0.0579349160251382,-0.9341857116627575,-0.04598039169307345,0.19081679663916917,0.08730195373891665,4,left
3.427,0.34070188709910654,0.9886181687855008,0.03187849611248614,-1.1572160778858325,-0.06155701586919751,-0.9368017766210278,-0.050533784970126616,0.1894783458091463,0.08956728261202884,4,left
3.428,0.34301575023382613,0.9919313118133282,0.0323295470188084,-1.1420768528592333,-0.06490140215946529,-0.9389733977001828,-0.0549580894603358,0.18830296167267982,0.09158006621798914,4,left
3.432,0.34516706546839276,0.9953430350350339,0.03272711645060882,-1.12572009951426,-0.06795806959826008,-0.9407048697565235,-0.05925127511992966,0.18729588393469096,0.09334243991223232,4,left
3.4330000000000003,0.3471512742963165,0.9988544947164465,0.03306968000804804,-1.1081673696337369,-0.0707170437837517,-0.9420011706626583,-0.06341146320081847,0.18646218079972582,0.09485688742799801,4,left
3.438,0.34896401979667857,1.0024668014199714,0.033355799496066756,-1.0894416639613587,-0.07316837917549568,-0.9428679656648091,-0.06743692931905967,0.18580674191799884,0.09612624188255652,4,left
3.4389999999999996,0.3506011589532044,1.0061810139137575,0.033584125858395285,-1.0695674257003893,-0.07530215653263392,-0.9433116103990603,-0.0713261064887115,0.18533427143923797,0.0971536865012074,4,left
3.4419999999999997,0.352058774803911,1.0099981331851933,0.033753401705639126,-1.0485705322369783,-0.07710847983266578,-0.9433391525702934,-0.07507758813302207,0.18504928117194697,0.0979427550634078,4,left
3.443,0.3533331882944663,1.0139190966040053,0.033862463453601915,-1.0264782850343506,-0.07857747267781026,-0.9429583322963075,-0.0786901310845146,0.18495608384621268,0.09849733207468334,4,left
3.447,0.3544209697056411,1.0179447722701247,0.03391024311631249,-1.0033193976408334,-0.0796992741950678,-0.9421775811184143,-0.08216265858513828,0.1850587864787093,0.09882165266728124,4,left
3.447,0.35531894952195064,1.022075953572713,0.03389576981182481,-0.9791239817514608,-0.08046403443514943,-0.9410060196786064,-0.08549426329725925,0.18536128383909012,0.09892030223184059,4,left
3.452,0.3560242286084732,1.0263133539788991,0.03381817103531559,-0.9539235312597516,-0.08086190927447218,-0.9394534540622211,-0.08868421033586701,0.1858672520175081,0.09879821578168196,4,left
3.4530000000000003,0.3565341875695381,1.03065760206433,0.033676673740824975,-0.9277509042331971,-0.08088305482342183,-0.9375303708038782,-0.09173194033197031,0.1865801420935686,0.0984606770506583,4,left
3.4530000000000003,0.35684649517733275,1.0351092367931511,0.033470605261446414,-0.9006403027430198,-0.08051762134305922,-0.9352479305533445,-0.09463707253036392,0.18750317391269497,0.09791331732293511,4,left
3.4560000000000004,0.3569591157799981,1.039668703052489,0.03319939409219522,-0.8726272504758784,-0.07975574667139153,-0.9326179603968895,-0.09739940789260539,0.18863933000198885,0.097162113982807,4,left
3.457,0.3568703156252575,1.0443363474452783,0.032862570556823616,-0.8437485680524069,-0.0785875491592482,-0.9296529448286326,-0.10001893211814575,0.18999134970419493,0.09621338875470853,4,left
3.463,0.35657866806082483,1.0491124143434098,0.032459767378327044,-0.814042345974782,-0.07700312011469038,-0.9263660153653485,-0.10249581846421284,0.19156172363449916,0.09507380559334737,4,left
3.464,0.35608305759331044,1.053997042198898,0.031990720175087674,-0.7835479151229244,-0.07499251575374392,-0.9227709387972033,-0.10483043027657213,0.1933526885399845,0.09375036819293081,4,left
3.466,0.3553826828071839,1.0589902601053103,0.03145526790866344,-0.7523058147536326,-0.0725457486764233,-0.9188821040765254,-0.10702332320036707,0.19536622259625475,0.09225041710122084,4,left
3.467,0.35447705816480546,1.0640919845986931,0.030853353310060658,-0.7203577581404395,-0.06965277899754019,-0.9147145078987569,-0.10907524707176741,0.19760404115084668,0.09058162643323352,4,left
3.467,0.3533660147229967,1.069302016687501,0.03018502330849867,-0.6877465963243081,-0.06630350546166627,-0.9102837391241874,-0.1109871474971336,0.20006759291857926,0.08875200018079664,4,left
3.472,0.3520496998156794,1.0746200390998324,0.02945042948495851,-0.654516280629002,-0.062487756982089596,-0.9056059622411952,-0.11276016712599844,0.20275805663462787,0.08676986811367302,4,left
3.4730000000000003,0.35052857577230356,1.0800456137296073,0.028649828573550352,-0.620711824407069,-0.05819528493059911,-0.9006979000179548,-0.11439564662376261,0.20567633817175576,0.084643881267473,4,left
3.477,0.34880341776156276,1.0855781792543273,0.027783583031331112,-0.5863792641458991,-0.05341575630252073,-0.8955768153934758,-0.115895125349599,0.20882306812878226,0.08238300701311792,4,left
3.478,0.3468753108605287,1.0912170488913588,0.026852161687699518,-0.5515656198756694,-0.048138747768365804,-0.8902604926051655,-0.11726034174466218,0.2121985998980185,0.07999652370217887,4,left
3.4810000000000003,0.34474564645215544,1.096961408258964,0.025856140471908803,-0.5163188547821603,-0.04235374059973843,-0.8847672175388531,-0.1184932334353045,0.21580300822005546,0.07749401488200303,4,left
3.4819999999999998,0.34241611805387423,1.1028103133116294,0.024796203208911096,-0.48068783392591957,-0.036050116455749064,-0.8791157572865996,-0.11959593705561017,0.21963608823494507,0.07488536307415236,4,left
3.485,0.3398887166788102,1.1087626883256283,0.02367314247303973,-0.44472228196786395,-0.029217154014752087,-0.8733253388970643,-0.12057078779317339,0.22369735503947136,0.07218074310931977,4,left
3.487,0.33716572582966736,1.1148173239189108,0.022487860493918165,-0.4084727398001716,-0.021844026434765865,-0.8674156273026847,-0.12142031866166718,0.2279860437608657,0.06939061501155487,4,left
3.49,0.3342497162238444,1.1209728750972388,0.02124137011751317,-0.3719905199802125,-0.013919799624443391,-0.8614067024074774,-0.12214725950337539,0.23250111015797661,0.06652571642432742,4,left
3.491,0.33114354034662585,1.127227859324881,0.01993479583742169,-0.3353276608643067,-0.005433431304941051,-0.8553190353188675,-0.1227545357244938,0.23724123176155923,0.06359705457068111,4,left
3.4960000000000004,0.32785032692572946,1.1335806546237888,0.018569374922820108,-0.29853687933728584,0.0036262291585191886,-0.8491734637066127,-0.12324526676564695,0.24220480956600268,0.060615897739485836,4,left
3.497,0.32437347541207373,1.140029497710574,0.017146458670724955,-0.2616715220331662,0.013270440178182078,-0.8429911662716042,-0.12362276430971522,0.24738997028546306,0.05759376628958176,4,left
3.5010000000000003,0.3207166505364841,1.1465724821854684,0.015667513797168436,-0.22478551494172433,0.023510566642789006,-0.8367936363071014,-0.1238905302287232,0.25279456918801546,0.05454242316342644,4,left
3.502,0.3168837769921134,1.1532075567911197,0.014134123960469508,-0.1879333112953997,0.03435807792015578,-0.8306026543347916,-0.12405225427120663,0.25841619352208023,0.051473863901705566,4,left
3.5069999999999997,0.3128790342726121,1.1599325237602343,0.012547991389875248,-0.15116983763073627,0.045824545191027986,-0.8244402597979603,-0.12411181149114933,0.26425216655001443,0.04840030615025101,4,left
3.508,0.30870685168099854,1.166745037268643,0.01091093858044608,-0.11455043791851732,0.05792163814365582,-0.8183287217940148,-0.12407325941926789,0.2702995522043893,0.045334178650526184,4,left
3.51,0.3043719035145607,1.173642602004999,0.009224910008918851,-0.07813081565684411,0.07066112106027533,-0.8122905088286242,-0.12394083497711664,0.27655516038309713,0.042288109704890095,4,left
3.51,0.2998791044240087,1.1806225718618721,0.0074919738191696035,-0.0419669738216668,0.08405484832846132,-0.8063482575738212,-0.12371895113419303,0.283015552900047,0.03927491510783709,4,left
3.515,0.2952336049362033,1.1876821487489486,0.005714323416119206,-0.006115152569689506,0.09811475941212887,-0.8005247406125571,-0.12341219330794145,0.28967705010881406,0.03630758553443154,4,left
3.515,0.29044078711708887,1.1948183815307705,0.00389427889784773,0.029368235410853687,0.11285287331880643,-0.7948428331524107,-0.12302531550628505,0.29653573821720697,0.03339927337721444,4,left
3.52,0.28550626033767373,1.202028165098298,0.0020342882549698794,0.06442667200531974,0.12828128260168245,-0.7893254786914329,-0.1225632362153387,0.30358747729038615,0.03056327903106925,4,left
3.5210000000000004,0.2804358570972445,1.2093082395910508,0.0001369282765105688,0.0990036033365459,0.1444121469368421,-0.7839956536194449,-0.1220310340511197,0.31082790983615943,0.02781303666624378,4,left
3.522,0.2752356288571022,1.2166551897909605,-0.001795094882747902,0.13304251208931986,0.1612576863180587,-0.7788763307385167,-0.12143394322337327,0.3182524696783927,0.025162099602934154,4,left
3.525,0.26991184183868466,1.2240654447095365,-0.003758945507000415,0.16648699259602234,0.17883017391348788,-0.7739904416868256,-0.12077734887582024,0.3258563907204421,0.022624125441622057,4,left
3.525,0.26447097273501163,1.2315352773877621,-0.005751658527938698,0.19928082878265088,0.19714192863063007,-0.7693608382506334,-0.12006678235052767,0.3336347153056412,0.02021286106302594,4,left
3.529,0.2589197042760805,1.2390608049248268,-0.007770140172144434,0.23136807507288804,0.21620530743798122,-0.7650102525497252,-0.11930791639438547,0.3415823020706599,0.01794212753877292,4,left
3.53,0.2532649205823598,1.2466379887481955,-0.009811169083406124,0.26269314034617,0.23603269749387873,-0.7609612560823237,-0.11850656030909638,0.34969383329265036,0.01582580495364556,4,left
3.534,0.24751370223717795,1.2542626351350084,-0.011871397951788,0.2932008749388219,0.2566365081047633,-0.7572362176549818,-0.11766865504264998,0.3579638217525144,0.01387781713250637,4,left
3.535,0.24167332101006217,1.2619303959949024,-0.013947355674561783,0.3228366601501938,0.27802916238518494,-0.7538572604175352,-0.11680026822011326,0.3663866171371126,0.01211211626540674,4,left
3.536,0.2357512341692366,1.269636769926264,-0.016035450070226505,0.3515464987683535,0.30022308822037885,-0.7508462185728552,-0.11590758911144843,0.37495641200370466,0.010542667424830647,4,left
3.54,0.22975507832636344,1.2773771035587018,-0.01813197117042458,0.3792771046024427,0.3232307079824162,-0.748224594525849,-0.1149969235339641,0.38366724733036656,0.009183432969507124,4,left
3.5410000000000004,0.2236926627566363,1.2851465931927861,-0.02023309512303703,0.4059759895314024,0.3470644266052534,-0.7460135170433709,-0.11407468868691856,0.39251301767656954,0.008048356829749222,4,left
3.545,0.21757196213978997,1.292940286745325,-0.02233488874084795,0.43159154752130413,0.3717366178999999,-0.7442337006489707,-0.11314740791572403,0.4014874759785254,0.007151348669840888,4,left
3.5460000000000003,0.21140110867939887,1.3007530860057006,-0.024433314715128614,0.45607313558581486,0.39725960914611597,-0.7429054062837492,-0.11222170540314969,0.41058423800430927,0.006506267923597098,4,left
3.549,0.205188383576279,1.308579749204783,-0.026524237490917542,0.4793711517663844,0.42364566402703463,-0.7420484032270138,-0.11130430078488851,0.41979678649415836,0.0061269076998664435,4,left
3.55,0.19894220785073954,1.3164148938920381,-0.02860342978805381,0.5014371102056318,0.4509069639811112,-0.7416819322716636,-0.11040200368683795,0.4291184750117138,0.006026978555429124,4,left
3.554,0.19267113252470275,1.3242530001107116,-0.030666579755512194,0.5222237133841532,0.4790555880412473,-0.7418246701505319,-0.10952170818144986,0.43854253153232453,0.00622009213346695,4,left
3.555,0.1863838281877101,1.332088413858308,-0.03270929875679199,0.5416849215875768,0.508103491239016,-0.7424946952112655,-0.10867038716052893,0.44806206179486335,0.006719744666545048,4,left
3.56,0.1800890739808366,1.3399153508218908,-0.03472712978785251,0.5597760196671505,0.5380624816516285,-0.7437094543387285,-0.1078550866219021,0.4576700524438198,0.0075393003438475525,4,left
3.5610000000000004,0.17379574604000927,1.3477279003856666,-0.03671555652200385,0.5764536811534802,0.5689441961726318,-0.7454857311253773,-0.1070829198674455,0.4673593739887283,0.008691974543251093,4,left
3.5639999999999996,0.16751280544494226,1.3555200299207861,-0.038670012963485025,0.5916760297792265,0.6007600750898082,-0.747839615291573,-0.10636106161003833,0.47712278360826155,0.01019081692970024,4,left
3.5639999999999996,0.16124928572120337,1.363285589380781,-0.040585893678965285,0.60540269846264,0.6335213355563684,-0.7507864733593532,-0.1056967419871167,0.4869529278265779,0.012048694422267733,4,left
3.569,0.15501427994183595,1.371018316235664,-0.04245856456302678,0.6175948857997534,0.6672389440441757,-0.7543409205848038,-0.1050972404786249,0.4968423450897399,0.014278274033238931,4,left
3.57,0.14881692747397188,1.378711840779649,-0.044283374075773235,0.6282154101088738,0.7019235878704256,-0.7585167941558238,-0.10456987972730575,0.5067834682702362,0.016892005583553964,4,left
3.573,0.14266640041591763,1.3863596918404542,-0.04605566486950206,0.6372287610667263,0.7375856458919164,-0.7633271276637813,-0.1041220192594376,0.5167686271278309,0.01990210429997207,4,left
3.574,0.13657188977022341,1.3939553029035978,-0.04777078570555178,0.6446011489711908,0.7742351584637984,-0.7687841268592999,-0.10376104910431128,0.5267900507551322,0.02332053330038989,4,left
3.5780000000000003,0.13054259139772584,1.401492018646217,-0.04942410355913018,0.6503005516610681,0.8118817967624617,-0.7748991467042029,-0.10349438331094782,0.5368398700364237,0.02715898597484864,4,left
3.5789999999999997,0.1245876917974417,1.4089631018555246,-0.05101101581625017,0.6542967591186942,0.8505348315750336,-0.7816826697334572,-0.1033294533607866,0.5469101201484253,0.031428868270903056,4,left
3.583,0.1187163537587119,1.4163617406899989,-0.05252696247424617,0.6565614157765123,0.8902031016607883,-0.7891442857428189,-0.10327370147532267,0.5569927431317558,0.036141280893197646,4,left
3.5839999999999996,0.11293770193465931,1.4236810562285174,-0.053967438261479234,0.657068060543912,0.9308949817926399,-0.7972926728197705,-0.10333457381794325,0.5670795905619515,0.0413070014283015,4,left
3.588,0.1072608083867361,1.4309141102443863,-0.055328004593915944,0.6557921645657524,0.9726183505897756,-0.8061355797372568,-0.1035195135895058,0.57716242634895,0.046936466407091995,4,left
3.589,0.10169467814513382,1.4380539131379315,-0.056604301289208174,0.6527111667190199,1.015380558255406,-0.8156798097316753,-0.10383595401564143,0.5872329296923604,0.05303975332288472,4,left
3.59,0.09624823481772009,1.4450934319657451,-0.05779205796694845,0.6478045068490222,1.059188394336544,-0.825931205688543,-0.1042913112147442,0.5972826982116993,0.05962656264799258,4,left
3.593,0.09093030626472527,1.4520255985156116,-0.058887105076692974,0.6410536567414058,1.1040480556256895,-0.836894636761259,-0.10489297691911728,0.6073032512561022,0.06670619993445923,4,left
3.594,0.0857496103457549,1.4588433173811959,-0.05988538450288602,0.632442148821099,1.1499651143272782,-0.8485739864503954,-0.10564831101276516,0.6172860333898327,0.07428755810925634,4,left
3.597,0.08071474074447606,1.4655394739814496,-0.06078295969211804,0.6219556025640484,1.1969444866147578,-0.8609721421729727,-0.10656463385908002,0.6272224180580016,0.08237910005243843,4,left
3.5980000000000003,0.07583415288137667,1.4721069424564805,-0.06157602524544629,0.6095817486023186,1.244990401707171,-0.8740909863532259,-0.1076492184089358,0.6371037114514868,0.09098884150643284,4,left
3.603,0.07111614993082611,1.4785385933681057,-0.06226091593047402,0.5953104505179927,1.2941063715618564,-0.8879313890475949,-0.10890928208950362,0.6469211565980854,0.10012433434289932,4,left
3.603,0.06656886896099233,1.4848273011431115,-0.06283411509021382,0.5791337244169702,1.344295161106392,-0.9024932020146255,-0.1103519784764366,0.656665937708422,0.10979265021042113,4,left
3.605,0.06220026721262808,1.4909659512155917,-0.06329226244448781,0.5610457565502122,1.3955587586181921,-0.9177752539551223,-0.11198438875255569,0.6663291848049824,0.12000036458777745,4,left
3.6069999999999998,0.05801810853013566,1.4969474468406552,-0.06363216128766953,0.5410429193455762,1.4478983456867092,-0.9337753465458628,-0.11381351295667139,0.6759019786624555,0.1307535412690563,4,left
3.608,0.054029949960856395,1.5027647155592356,-0.06385078508518346,0.5191237861068754,1.5013142663728114,-0.9504902509963542,-0.11584626102670127,0.6853753560873586,0.1420577173083964,4,left
3.613,0.05024312854377924,1.5084107152992157,-0.06394528346319037,0.4952891444494392,1.555805995500753,-0.9679157050475953,-0.11808944364178788,0.6947403155646867,0.15391788845369514,4,left
3.614,0.04666474831162936,1.5138784401083014,-0.06391298757458597,0.4695420084349184,1.6113721061977935,-0.9860464104379771,-0.12054976286868628,0.7039878232990676,0.1663384951001859,4,left
3.617,0.04330166753001446,1.5191609255268752,-0.06375141481425338,0.4418876293423671,1.6680102368349115,-1.0048760308843314,-0.12323380261827566,0.7131088196776174,0.17932340879636866,4,left
3.6180000000000003,0.040160486196358945,1.5242512536211223,-0.06345827284998168,0.412333505007139,1.725717057525151,-1.0243971906281728,-0.12614801891865338,0.7220942261813784,0.19287591933637552,4,left
3.622,0.03724753382074184,1.5291425577086297,-0.06303146293209616,0.3808893876536435,1.784488236339221,-1.0446014735992062,-0.12929873001189365,0.7309349527718875,0.20699872247445966,4,left
3.623,0.03456885750943351,1.5338280268215998,-0.06246908244372542,0.3475672901425345,1.8443184054010464,-1.0654794232501774,-0.13269210628219502,0.7396219057790578,0.2216939082989174,4,left
3.6289999999999996,0.03213021036885992,1.5383009099656781,-0.06176942665593682,0.312381490547452,1.9052011270290432,-1.0870205431191255,-0.13633416002380228,0.7481459963161654,0.23696295030438239,4,left
3.6289999999999996,0.029937040243382285,1.5425545202431152,-0.06093098966069151,0.2753485349710117,1.9671288600919326,-1.1092132981770602,-0.14023073505776704,0.756498149247318,0.2528066952030664,4,left
3.633,0.027994478795902663,1.546582238916595,-0.059952464470717275,0.23648723850434755,2.0300929267509615,-1.1320451170210166,-0.14438749620730845,0.7646693127323434,0.2692253535171664,4,left
3.633,0.02630733093752523,1.5503775194930103,-0.05883274229621227,0.19581868422916385,2.0940834797634107,-1.155502394974347,-0.148809918642249,0.7726504683735653,0.2862184909963026,4,left
3.638,0.024880064614468685,1.5539338919020207,-0.05757091103100667,0.15336622015595158,2.159089470525271,-1.1795704981579715,-0.1535032771037316,0.7804326419884389,0.30378502090550347,4,left
3.639,0.023716800970225126,1.5572449668318997,-0.056166253004071305,0.10915545398677605,2.2250986180339534,-1.2042337685981557,-0.15847263502117093,0.7880069150315007,0.3219231972309031,4,left
3.641,0.022821304918593414,1.5603044402675021,-0.054618242072397204,0.06321424558585627,2.292097378954831,-1.2294755304381615,-0.1637228335341549,0.7953644366885425,0.3406306088519651,4,left
3.642,0.022196976186242525,1.5631060982555616,-0.052926540142496765,0.015572697036036804,2.360070918978331,-1.255278097322886,-0.16925848043278993,0.8024964366653462,0.35990417473069336,4,left
3.6460000000000004,0.021846840907958496,1.5656438219038356,-0.05109099320726404,-0.03373685984579389,2.429003085657176,-1.2816227810272987,-0.17508393903077604,0.8093942386927164,0.3797401401699305,4,left
3.647,0.021773543877690423,1.5679115926060312,-0.04911162697505367,-0.08467987866625046,2.49887638291621,-1.3084899014011544,-0.181203316986304,0.816049274768932,0.40013407419447916,4,left
3.6519999999999997,0.02197934156855827,1.5699034974772634,-0.04698864215438627,-0.13721961642275488,2.5696719474300513,-1.3358587977040655,-0.18762045508668676,0.8224531001600841,0.42108086811040535,4,left
3.653,0.022466096033348197,1.5716137349860002,-0.04472240944633632,-0.1913171544221767,2.6413695270665474,-1.3637078414065702,-0.19433891601346842,0.8285974091780985,0.442574735299498,4,left
3.656,0.023235269783626996,1.5730366207751678,-0.04231346428910409,-0.24693142229707596,2.713947461596727,-1.3920144505343355,-0.2013619731055091,0.8344740517299515,0.46460921227869223,4,left
3.657,0.024287921721145925,1.5741665936730789,-0.039762501392608764,-0.30401922527039726,2.787382665874581,-1.4207551056340737,-0.20869259913794921,0.8400750505029196,0.48717716091201274,4,left
3.658,0.025624704164545254,1.5749982219021628,-0.03707036909430259,-0.3625352748239349,2.861650615692587,-1.4499053674411244,-0.21633345513501379,0.8453926184196516,0.510270771405252,4,left
3.661,0.027245860985398968,1.5755262095020794,-0.03423806356822188,-0.4224322229302405,2.936725336521439,-1.479439896329969,-0.2242868792350436,0.8504191758681299,0.5338815655713136,4,left
3.662,0.02915122684382337,1.5757454029958604,-0.03126672293536973,-0.483660700011874,3.01257939534487,-1.5093324736301892,-0.232554875627471,0.8551473673387496,0.55800039999952,4,left
3.6660000000000004,0.031340227493358734,1.575650798340785,-0.028157621351542286,-0.5461693567959964,3.089183895802882,-1.539556024891558,-0.24113910358315666,0.8595700773302355,0.5826174690226,4,left
3.667,0.033811881107519426,1.5752375482146166,-0.024912163176958938,-0.6099049102362675,3.166508476858981,-1.5700826451830476,-0.25004086660085,0.8636804455132314,0.6077223075203979,4,left
3.673,0.036564800569530695,1.5745009696893366,-0.021531877349275783,-0.6748121936778282,3.2445213152092682,-1.600883626511573,-0.2592611016935291,0.8674718811651304,0.6333037936295686,4,left
3.674,0.03959719666461719,1.573436552337483,-0.018018412081017933,-0.7408342113706381,3.3231891315601487,-1.631929487411149,-0.2688003688392825,0.8709380768888343,0.6593501514299562,4,left
3.675,0.04290688212110591,1.5720399668019176,-0.014373529983667007,-0.8079121970690131,3.4024772004372963,-1.6631900045735908,-0.2786588406223073,0.8740730216272391,0.6858489536797507,4,left
3.677,0.04649127645896299,1.5703070738427443,-0.010599103692414423,-0.8759856757908757,3.482349362351331,-1.6946342460679094,-0.28883629209051276,0.8768710129843224,0.7127871246728854,4,left
3.677,0.050347411612560206,1.568233933858217,-0.006697112043968507,-0.9449925274424913,3.5627680366813705,-1.7262306055158438,-0.2993320908571327,0.8793266688627768,0.7401509432934738,4,left
3.681,0.054471938292735916,1.5658168168578448,-0.002669636851360012,-1.014869051388428,3.6436942341055754,-1.7579468367720001,-0.31014518747466696,0.8814349384271851,0.7679260463433808,4,left
3.6830000000000003,0.058861133047728505,1.5630522128422282,0.00148113968675882,-1.0855500317170363,3.725087568248634,-1.7897500889823574,-0.32127410611038854,0.8831911124007623,0.7960974322202861,4,left
3.6860000000000004,0.06351090598021572,1.5599368425157851,0.005752936920947989,-1.1569688033253593,3.8069062666838818,-1.8216069420757508,-0.33271693555356496,0.8845908327027076,0.8246494650248164,4,left
3.687,0.0684168090775527,1.5564676682286749,0.010143377035321572,-1.2290573190240712,3.8891071815224443,-1.8534834427793778,-0.3444713205854544,0.8856301014322147,0.8535658791765051,4,left
3.6919999999999997,0.07357404511214949,1.5526419050161808,0.014649985720621261,-1.301746217865348,3.97164579982315,-1.8853451412496152,-0.3565344537440423,0.8863052892041725,0.8828297846194751,4,left
3.6919999999999997,0.07897747706949293,1.5484570315809432,0.019270192309975672,-1.374964894898689,4.054476254058144,-1.9171571284095892,-0.368903067516386,0.8866131428405732,0.9124236726998327,4,left
3.696,0.0846216380638885,1.5439108010505829,0.024001329478289243,-1.4486415725616335,4.137551332870257,-1.948884074085001,-0.381573426992328,0.8865507924206008,0.942329422797802,4,left
3.697,0.09050074170665105,1.5390012513455205,0.028840632620394446,-1.5227033739140332,4.220822492359153,-1.9804902660296597,-0.39454132301422584,0.8861157576913358,0.9725283097986341,4,left
3.701,0.09660869289569458,1.5337267150114773,0.03378523902437431,-1.5970763979260685,4.304239868134077,-2.0119396499320312,-0.4078020658582222,0.8853059538399531,1.0030010124872646,4,left
3.701,0.10293909899508923,1.5280858284050818,0.03883218694485887,-1.6716857970314984,4.387752288371785,-2.043195870493877,-0.4213504794834435,0.88411969662723,1.0337276229525902,4,left
3.7060000000000004,0.1094852813676965,1.5220775401600761,0.04397841465607575,-1.7464558571587512,4.471307288118727,-2.0742223136716933,-0.4351808963863711,0.8825557068811073,1.0646876570880786,4,left
3.707,0.11624028721883316,1.5157011188959637,0.0492207595316471,-1.8213100804533446,4.554851125077045,-2.104982150171224,-0.44928715309846934,0.880613114347977,1.095860066276204,4,left
3.7110000000000003,0.12319690171014956,1.5089561601542707,0.054555957172945785,-1.8961712709058065,4.638328797114159,-2.135438380284756,-0.4636625863659776,0.8782914608982824,1.127223250344939,4,left
3.7110000000000003,0.13034766031336686,1.5018425925573688,0.05998064060586891,-1.9709616230997247,4.721684061735859,-2.165553880160247,-0.47830003005158495,0.8755907030819395,1.1587550718851947,4,left
3.716,0.13768486139271766,1.4943606831827063,0.06549133958919838,-2.045602814294798,4.804859457762792,-2.1952914495905773,-0.4931918127984966,0.872511214027995,1.190432872018712,4,left
3.717,0.14520057902815833,1.4865110421381083,0.07108448011274479,-2.1200161000597766,4.887796329450026,-2.224613861410329,-0.5083297564981739,0.8690537846818532,1.2222334877064556,4,left
3.721,0.15288667611058435,1.478294626319623,0.07675638419233848,-2.1941224136699744,4.970434853289024,-2.253483912586533,-0.5237051756037796,0.8652196243723141,1.2541332706880428,4,left
3.721,0.16073481774856624,1.4697127423366463,0.082503270080366,-2.267842469483608,5.052714067730846,-2.2818644770887344,-0.5393088773320923,0.8610103606995759,1.2861081081431633,4,left
3.725,0.16873648502060443,1.4607670485997013,0.08832125300314299,-2.341096870510562,5.134571906068702,-2.30971856062252,-0.5551311627973575,0.8564280387342742,1.3181334451662876,4,left
3.7260000000000004,0.1768829890901887,1.4514595565801398,0.09420634651507206,-2.4138062203863013,5.215945232717136,-2.337009357309377,-0.571161829110435,0.8514751195253986,1.3501843090985786,4,left
3.727,0.18516548568297928,1.4417926312604434,0.10015446453283158,-2.485891239962529,5.2967698831240435,-2.3637003083943213,-0.5873901724233024,0.8461544779581065,1.3822353355227344,4,left
3.73,0.19357498991455918,1.4317689907955928,0.10616142408763479,-2.5572728887248717,5.376980707550579,-2.3897551630612477,-0.603804991802485,0.8404694000810526,1.4142607952975361,4,left
3.7310000000000003,0.2021023914490333,1.421391705408002,0.11222294881059841,-2.627872491246282,5.456511618952548,-2.415138041434305,-0.6203945937616291,0.8344235800660418,1.44623462177055,4,left
3.735,0.21073846995605403,1.4106641955471222,0.11833467314182056,-2.697611868883077,5.535295645195355,-2.43981349984191,-0.6371467973379487,0.8280211169175025,1.4781304375458237,4,left
3.735,0.21947391082003084,1.3995902293537865,0.1244921472265963,-2.7664134769185047,5.6132649858327754,-2.4637465984181603,-0.6540489396949372,0.8212665109685688,1.5099215806124573,4,left
3.74,0.22829932104508377,1.388173919471412,0.13069084243604775,-2.834200547356481,5.690351073677878,-2.4869029711144934,-0.6710878822881814,0.8141646601552591,1.541581129878159,4,left
3.74,0.23720524529212159,1.376419719242345,0.1369261574312177,-2.9008972373390445,5.766484641282469,-2.5092488980873924,-0.6882500176423758,0.8067208560503717,1.5730819301993626,4,left
3.741,0.2461821819837546,1.3643324183196608,0.14319342468720328,-2.9664287820252526,5.841595791890011,-2.5307513799007424,-0.7055212767880645,0.7989407796377035,1.6043966169991732,4,left
3.745,0.25522059941999,1.351917137713943,0.14948791740601,-3.030721648726679,5.915614073436072,-2.5513782120341095,-0.7228871374070294,0.7908304968062011,1.6354976405640302,4,left
3.7460000000000004,0.26431095184822123,1.3391793242886094,0.15580485675661898,-3.0937036879584072,5.9884685536186,-2.5710980576608296,-0.7403326327355967,0.7823964535426713,1.6663572901095245,4,left
3.75,0.27344369541359137,1.3261247447215214,0.16213941937684057,-3.1553042781942113,6.060087894606407,-2.589880517182428,-0.7578423612754469,0.7736454708007154,1.6969477177052703,4,left
3.7510000000000003,0.2826093038937261,1.312759478956952,0.1684867450656798,-3.215454463150695,6.130400426939462,-2.60769619394849,-0.7754004973617816,0.7645847390226029,1.7272409621481135,4,left
3.7539999999999996,0.29179828411276454,1.2990899131704339,0.17484194460235578,-3.2740870815545438,6.19933422272031,-2.624516756113552,-0.7929908026389333,0.7552218122898682,1.7572089728722717,4,left
3.755,0.3010011909347435,1.2851227322601453,0.1812001076480353,-3.3311368895697093,6.266817168302214,-2.640314994684908,-0.8105966384936814,0.7455646020775091,1.7868236339842227,4,left
3.759,0.310208641749923,1.270864911868513,0.1875563107097217,-3.3865406760571632,6.332777036675846,-2.6550648778124484,-0.8282009794966815,0.7356213705857738,1.8160567885093017,4,left
3.759,0.31941133038612357,1.2563237099308344,0.19390562516543766,-3.4402373708355283,6.397141559752417,-2.668741601368798,-0.8457864279025042,0.7254007236226545,1.8448802629360428,4,left
3.764,0.3286000403982327,1.2415066577460077,0.20024312536167993,-3.4921681461063367,6.459838500736921,-2.6813216358650744,-0.8633352292588232,0.7149116030093641,1.873265892143276,4,left
3.765,0.33776565771064354,1.2264215505690896,0.20656389679581633,-3.5422765112029415,6.520795726780848,-2.6927827697445914,-0.8808292891752876,0.7041632784802503,1.9011855447938972,4,left
3.7689999999999997,0.3468991826070234,1.211076437736539,0.21286304438806658,-3.590508400817207,6.579941282099114,-2.7031041490937455,-0.8982501913025587,0.6931653390478063,1.9286111492780549,4,left
3.77,0.35599174107654546,1.1954796123503497,0.21913570083483389,-3.6368122568530548,6.637203461731138,-2.712266313806175,-0.9155792165718855,0.681927683802663,1.955514720287236,4,left
3.773,0.36503459553390777,1.1796396005627798,0.22537703502392312,-3.681139104050679,6.692510886121051,-2.720251230233071,-0.932797363745435,0.6704605121177081,1.9818683860993969,4,left
3.775,0.37401915493228893,1.163565150515762,0.2315822604845763,-3.723442619519888,6.745792576686784,-2.727042320349253,-0.9498853713273828,0.6587743132247588,2.0076444166538647,4,left
3.778,0.38293698428425965,1.1472652209966763,0.23774664383768224,-3.7636791963154814,6.796978032542382,-2.7326244874612864,-0.9668237408855033,0.6468798551315273,2.0328152524932364,4,left
3.779,0.3917798135963524,1.1307489698750308,0.24386551320061023,-3.8018080011819055,6.845997308532257,-2.7369841384805484,-0.9835927618326836,0.63478817284596,2.0573535346479224,4,left
3.785,0.400539546212549,1.1140257423848487,0.2499342664886213,-3.8377910265886164,6.892781094730314,-2.7401092027807126,-1.0001725377174062,0.622510555874401,2.081232135537325,4,left
3.786,0.4092082665563964,1.0971050593174247,0.2559483795462807,-3.871593137171653,6.937260797550843,-2.741989147655669,-1.0165430140718186,0.6100585349594352,2.1044241909598993,4,left
3.7889999999999997,0.41777824726236223,1.0799966051884697,0.2619034140424979,-3.90318211069087,6.979368622611832,-2.7426149903903685,-1.0326840078655193,0.5974438680226993,2.1269031332425308,4,left
3.7889999999999997,0.4262419556914264,1.0627102164413518,0.26779502507251524,-3.9325286736061313,7.019037659484953,-2.74197930695355,-1.0485752386126477,0.584678525277415,2.1486427256177696,4,left
3.7939999999999996,0.43459205983261345,1.0452558697438996,0.2736189684260111,-3.959606531369494,7.056201968459858,-2.740076237317731,-1.0641963611792606,0.5717746734748972,2.169617097895488,4,left
3.795,0.4428214336024175,1.027643670429827,0.27937110749751526,-3.984392393524062,7.090796669443611,-2.7369014874082476,-1.079527000337321,0.5587446592488252,2.189800783493479,4,left
3.7960000000000003,0.450923161566118,1.0098838411256954,0.285047419829848,-4.006865993693768,7.122758033109058,-2.732452327679494,-1.094546787059875,0.5456009915412898,2.209168757833578,4,left
3.798,0.4588905431137524,0.991986710588389,0.29064400329164713,-4.02701010454181,7.152023574398775,-2.726727588312901,-1.109235396296063,0.5323563231975121,2.2276964778285717,4,left
3.799,0.46671709612727974,0.9739627027594783,0.2961570818951491,-4.044810547768915,7.178532148483825,-2.719727651027516,-1.1235725855044838,0.5190234320016811,2.2453599216805165,4,left
3.803,0.4743965601782074,0.9558223260314498,0.3015830112593987,-4.060256199215942,7.202224049269011,-2.711454437490401,-1.1375382329673938,0.5056152015293144,2.262135627929641,4,left
3.803,0.48192289929939447,0.9375761627205343,0.3069182837189774,-4.073338989128666,7.223041110528564,-2.70191139431041,-1.151112375162421,0.49214460208797156,2.2780007329696823,4,left
3.8080000000000003,0.4892903043783156,0.9192348587427411,0.3121595330739033,-4.0840538976488325,7.240926809631405,-2.6911034746429197,-1.1642752429267473,0.4786246718319883,2.292933006745433,4,left
3.8089999999999997,0.4964931952185577,0.9008091134848181,0.31730353897589575,-4.092398945653738,7.255826373222537,-2.6790371166678506,-1.177007296402806,0.4650684980333951,2.306910886624819,4,left
3.81,0.503526222312249,0.8823096698519439,0.3223472309488846,-4.098375181176605,7.267686883166872,-2.6657202196288234,-1.1892892588044464,0.45148919847035374,2.3199135094910317,4,left
3.813,0.5103842683620616,0.8637473044667283,0.3272876920430689,-4.101986661698172,7.276457380468858,-2.651162118356066,-1.201102149041336,0.4378999028942991,2.3319207420975716,4,left
3.8139999999999996,0.517062449589659,0.8451328179940337,0.332122162118052,-4.103240432528172,7.282088965457228,-2.635373556953675,-1.2124273132381376,0.42431373453687155,2.3429132097263063,4,left
3.8169999999999997,0.5235561168659242,0.8264770255708781,0.33684804074309416,-4.102146501371782,7.284534893567451,-2.6183666618990884,-1.2232464551836972,0.4107437916176587,2.3528723231858573,4,left
3.819,0.5298608566946466,0.807790747325863,0.3414628896973288,-4.098717809104398,7.283750666630095,-2.6001549145606573,-1.2335416657441445,0.3972031288137367,2.361780304184766,4,left
3.823,0.5359724920767128,0.7890847989762974,0.34596443505416047,-4.092970196758378,7.279694119681163,-2.5807531230879865,-1.243295451272395,0.3837047386520085,2.369620209110978,4,left
3.823,0.5418870832781402,0.7703699824927305,0.3503505688403157,-4.084922368718609,7.272325503301362,-2.560177393626213,-1.2524907610451028,0.3702615327853856,2.376375951246216,4,left
3.83,0.5476009285228709,0.7516570768201658,0.35461935026681585,-4.074595852117121,7.261607561481919,-2.5384451008019377,-1.2611110137565924,0.3568863231139428,2.3820323214407915,4,left
3.8310000000000004,0.5531105646303831,0.7329568286438917,0.3587690065347087,-4.062014952410242,7.247505605005242,-2.515574857425116,-1.269140123097762,0.34359180271229495,2.3865750072713543,4,left
3.832,0.5584127676190106,0.7142799431859543,0.36279793322133175,-4.047206705115237,7.22998758031916,-2.4915864833478256,-1.2765625224463317,0.3303905265246061,2.3899906107009428,4,left
3.833,0.5635045532968089,0.6956370750160744,0.36670469425063584,-4.030200823676825,7.209024133873891,-2.4665009734175256,-1.2833631886931696,0.31729489178883413,2.3922666642575567,4,left
3.8369999999999997,0.5683831778601427,0.6770388188596888,0.37048802144589993,-4.011029643427468,7.184588671881129,-2.4403404644591515,-1.2895276652277243,0.3043171181520465,2.393391645744276,4,left
3.838,0.573046138514915,0.6584957003863383,0.37414681366107405,-3.989728061598982,7.1566574154449,-2.4131282012171753,-1.2950420841038581,0.2914692274389102,2.3933549914907095,4,left
3.842,0.5774911741281611,0.6400181669629422,0.3776801354891522,-3.9663334733366673,7.12520945100388,-2.384888501185616,-1.2998931874055824,0.2787630230357616,2.3921471081522836,4,left
3.844,0.5817162659113517,0.6216165783585726,0.38108721554864594,-3.9408857036609724,7.090226776014936,-2.355646718250898,-1.3040683478303776,0.2662100688530012,2.3897593830605883,4,left
3.847,0.5857196381329601,0.6033011973907872,0.3843674443509887,-3.9134269353155653,7.051694339797606,-2.325429205069438,-1.3075555885059074,0.253821667828929,2.3861841931246466,4,left
3.8480000000000003,0.5894997588560639,0.5850821805082451,0.38752037175482074,-3.884001632434703,7.009600079449147,-2.2942632740988853,-1.3103436020540382,0.2416088399385446,2.3814149122796247,4,left
3.852,0.5930553406957156,0.5669695683102435,0.39054570401868005,-3.852656459956878,6.963934950729596,-2.2621771571990745,-1.3124217689141322,0.22958229967127475,2.3754459174760987,4,left
3.853,0.5963853415904684,0.5489732760112194,0.3934433004687286,-3.819440198705963,6.9146929538061555,-2.229199963715938,-1.3137801749356062,0.2177524329420641,2.368272593199604,4,left
3.8569999999999998,0.5994889655825774,0.5311030838665304,0.3962131697994194,-3.784403656055412,6.86187115373594,-2.1953616369589093,-1.3144096282477438,0.20612927340076695,2.359891334506747,4,left
3.858,0.6023656636000387,0.5133686275842508,0.3988554660236891,-3.747599572085591,6.805469695555893,-2.1606929089797045,-1.3143016754127077,0.1947224781053145,2.3502995485607237,4,left
3.861,0.6050151342290684,0.4957793887564863,0.4013704840896378,-3.7090825211389147,6.745491813838402,-2.125225253557814,-1.3134486168656379,0.18354130252469425,2.3394956546456314,4,left
3.862,0.6074373244596158,0.47834468535113706,0.4037586551830762,-3.668908808672254,6.681943836560887,-2.0889908372955572,-1.311843521635857,0.1725945748826665,2.3274790826596425,4,left
3.863,0.6096324303836096,0.461073662304946,0.4060205417358525,-3.627136363301011,6.6148351831273144,-2.052022468723177,-1.3094802413022666,0.16189067007523283,2.314250270204406,4,left
3.866,0.6116008978265933,0.44397528224938343,0.40815683215799425,-3.5838246239243237,6.544178356369384,-2.0143535453121593,-1.3063534230639868,0.15143748379416463,2.299810658601932,4,left
3.867,0.6133434228922996,0.4270583163956057,0.41016833531169444,-3.539034421816121,6.469988928344817,-1.9760179982927446,-1.3024585217663094,0.1412424077110414,2.284162688287521,4,left
3.872,0.6148609523930907,0.4103313356154514,0.4120559747496791,-3.4928278575621614,6.392285519740012,-1.9370502351695142,-1.2977918107586812,0.13131230635547658,2.267309793903025,4,left
3.873,0.6161546841320782,0.39380270177337073,0.41382078274876455,-3.4452681727187486,6.311089772674119,-1.8974850798269067,-1.2923503915291363,0.12165349592328051,2.249256399193896,4,left
3.8760000000000003,0.6172260670002865,0.3774805593724243,0.41546389417856106,-3.396419616253121,6.226426316841456,-1.8573577102032373,-1.2861322020962116,0.11227172502958217,2.230007911689222,4,left
3.877,0.6180768008543152,0.36137282756932076,0.4169865402498673,-3.346347306764014,6.138322729669184,-1.8167035939531255,-1.2791360241449345,0.10317215737839637,2.2095707171163537,4,left
3.878,0.6187088361435316,0.3454871925951382,0.4183900421855903,-3.2951170931736886,6.04680949250727,-1.7755584233141688,-1.271361488891248,0.09435935632090181,2.1879521734982657,4,left
3.8810000000000002,0.6191243732561397,0.32983110060722154,0.4196758048565506,-3.2427954175216187,5.951919945607873,-1.7339580508352295,-1.2628090816570043,0.08583727127548961,2.1651606048783707,4,left
3.8810000000000002,0.6193258615483864,0.3144117510043995,0.42084531043044965,-3.189449182543904,5.853690243891363,-1.6919384271790534,-1.2534801451354327,0.07760922598345163,2.141205294614096,4,left
3.886,0.6193159980151242,0.29923609024990755,0.4219001120871928,-3.1351456250224965,5.752159314136228,-1.649535541412857,-1.243376881324742,0.06967790857500022,2.116096478177128,4,left
3.887,0.6190977255574763,0.28431080624878635,0.4228418278493813,-3.0799521949425994,5.647368813470363,-1.6067853637560943,-1.2325023521052978,0.06204536342114494,2.0898453353948803,4,left
3.891,0.6186742308032507,0.26964232332077775,0.4236721345653503,-3.023936440305132,5.539363088881666,-1.563723790664762,-1.2208604784335768,0.05471298474779489,2.062463982064384,4,left
3.892,0.6180489414346441,0.2552367978035937,0.42439276207115073,-2.9671658974384036,5.428189137456327,-1.5203865921305117,-1.20845603812388,0.04768151198930666,2.033965460866493,4,left
3.8960000000000004,0.617225522975267,0.24110011431582412,0.4250054875519804,-2.909707986650592,5.313896567043889,-1.4768093610718345,-1.195294662186577,0.04095102685955457,2.004363731505019,4,left
3.897,0.6162078749875652,0.22723788270179232,0.42551213012255623,-2.8516299130622453,5.1965375570389085,-1.4330274646936911,-1.1813828296894433,0.03452095211946071,1.9736736599921685,4,left
3.9,0.6150001266347317,0.21365543567297912,0.42591454564685005,-2.792998572455875,5.076166818959942,-1.3890759976911708,-1.1667278611064729,0.028390052020785678,1.941911006998441,4,left
3.9010000000000002,0.6136066315671848,0.20035782715411846,0.42621462181793157,-2.733880461977714,4.952841556497644,-1.3449897371720652,-1.1513379101163648,0.02255643440684353,1.9090924151819786,4,left
3.905,0.612031962100082,0.1873498313376304,0.4264142735170526,-2.674341595524949,4.826621424694949,-1.300803099172661,-1.1352219538107415,0.017017554451666715,1.8752353954092411,4,left
3.907,0.6102809026537669,0.17463594244797068,0.4265154384673582,-2.6144474236501383,4.697568487913682,-1.256550096640566,-1.1183897812700117,0.01177022002000426,1.8403583117757958,4,left
3.912,0.6083584424343113,0.16222037521759644,0.42652007319272756,-2.5542627578131167,4.565747176233426,-1.2122642987579941,-1.1008519804626868,0.006810598631389419,1.80448036533298,4,left
3.912,0.6062697673387197,0.15010706607656843,0.4264301492876911,-2.4938516988094994,4.431224239920193,-1.1679787914786448,-1.082619923421877,0.0021342260123581,1.767621576423214,4,left
3.915,0.6040202510807099,0.13829967505540905,0.426247650000913,-2.4332775692038613,4.294068701594307,-1.123726139151125,-1.0637057496506344,-0.0022639837782643174,1.7298027655238122,4,left
3.9160000000000004,0.6016154455472942,0.12680158839545191,0.4259745671329804,-2.3726028495948346,4.154351805718938,-1.0795383471017603,-1.0441223477057848,-0.006389726665265084,1.6910455324962712,4,left
3.9210000000000003,0.5990610704103069,0.11561592185440375,0.42561289825086945,-2.3118891185387165,4.01214696502301,-1.0354468250496474,-1.0238833349079,-0.010249295327580019,1.6513722341351893,4,left
3.9219999999999997,0.5963630020298177,0.10474552468705778,0.42516464422839184,-2.251196995957709,3.867529703464616,-0.9914823512268891,-1.0030030351231025,-0.013849564436110438,1.6108059599082245,4,left
3.925,0.5935272617016607,0.09419298427051825,0.42463180713354187,-2.1905860898586185,3.7205775953337126,-0.9476750370771427,-0.9814964545604761,-0.017197974370686788,1.5693705057757983,4,left
3.926,0.5905600033202361,0.08396063133088774,0.4240163884944727,-2.1301149461877364,3.571370200085765,-0.9040542924058802,-0.9593792555269671,-0.02030251342728128,1.5270903459766245,4,left
3.93,0.5874675005434868,0.07405054571795394,0.42332038797747107,-2.069841001647672,3.4199889924910534,-0.8606487908561303,-0.9366677281346688,-0.02317169854296135,1.4839906027342908,4,left
3.931,0.5842561335486519,0.06446456267005077,0.4225458024997783,-2.0098205393021464,3.266517287677652,-0.8174864355839192,-0.9133787602277614,-0.02581455465101917,1.440097014196209,4,left
3.931,0.580932375453975,0.05520427951278967,0.42169462578307304,-1.9501086467951543,3.111040160639626,-0.7745943250081582,-0.8895298062881769,-0.028240592932211553,1.3954359015592508,4,left
3.9339999999999997,0.5775027784689278,0.046271062736039564,0.4207688483352539,-1.8907591770114642,2.9536443597757596,-0.7319987185103486,-0.8651388563515338,-0.030459788313035342,1.3500341366926136,4,left
3.935,0.5739739598366125,0.03766605538871488,0.4197704578284593,-1.8318247110061507,2.7944182140180938,-0.6897250019601667,-0.8402244056890443,-0.03248255647564837,1.3039191112076034,4,left
3.94,0.5703525876395165,0.029390184725886948,0.4187014398211278,-1.773356523031742,2.633451533103832,-0.6477976529437688,-0.8148054255159495,-0.03431973048922584,1.2571187072763865,4,left
3.9410000000000003,0.5666453665433295,0.021444170043745235,0.4175637787568833,-1.715404547492597,2.470835500538645,-0.6062402055725038,-0.7889013347112874,-0.035982537086282886,1.209661270141056,4,left
3.945,0.5628590235531934,0.013828530643388239,0.41635945916742934,-1.658017347675505,2.3066625590545455,-0.5650752148388445,-0.7625319724774675,-0.03748257258979754,1.1615755821805946,4,left
3.946,0.5590002938518852,0.006543593870984351,0.41509046701202007,-1.601242086197755,2.141026289662493,-0.5243242209283245,-0.7357175718666656,-0.0388317784964359,1.1128908384013525,4,left
3.947,0.5550759067802682,-0.0004104968112041267,0.41375879109985364,-1.545124497279046,1.9740212877386973,-0.48400771469110854,-0.708478734099672,-0.04004241672068132,1.0636366232147703,4,left
3.951,0.5510925720194404,-0.007033773763896545,0.41236642455394046,-1.4897088610361566,1.8057430408811093,-0.44414510591893286,-0.6808364036014797,-0.04112704450420264,1.0138428883642696,4,left
3.9530000000000003,0.5470569660510478,-0.0133264371623252,0.41091536627783865,-1.4350379799101203,1.6362878119664057,-0.4047546956333563,-0.6528118436766294,-0.04209848899436358,0.9635399318615184,4,left
3.9539999999999997,0.5429757189970817,-0.0192888470878273,0.4094076223841847,-1.3811531571738982,1.4657525284902793,-0.36585365279872906,-0.6244266127461054,-0.042969821495378355,0.9127583777906421,4,left
3.955,0.5388554019584966,-0.024921515770991293,0.4078452075423269,-1.3280941773796255,1.294234677968222,-0.32745799543360016,-0.5957025410664194,-0.04375433139525682,0.8615291568373991,4,left
3.9589999999999996,0.5347025149790299,-0.030225100038140766,0.4062301462005796,-1.2758992885884681,1.1218322089102106,-0.28958257600744447,-0.5666617078504206,-0.04446549977135819,0.8098834873988835,4,left
3.96,0.5305234757566737,-0.0352003940098585,0.4045644736342723,-1.2246051862283762,0.9486434368796005,-0.2522410710109897,-0.5373264187083373,-0.045116972677084866,0.7578528571279353,4,left
3.964,0.5263246092098997,-0.03984832209408617,0.4028502367651405,-1.1742469984273964,0.7747669551437144,-0.21544597458987577,-0.5077191833265798,-0.04572253411199915,0.7054690047651608,4,left
3.965,0.5221121379805608,-0.04416993230744058,0.40108949469366384,-1.1248582726726766,0.6003015494210722,-0.1792085961328697,-0.4778626933009276,-0.04629607867743533,0.6527639021102662,4,left
3.97,0.5178921739233107,-0.0481663899473541,0.39928431888668414,-1.0764709636478833,0.42534611622794644,-0.14353906170739109,-0.447779800039875,-0.046851583919508215,0.5997697359833014,4,left
3.97,0.513670710596167,-0.05183897162593849,0.3974367929711216,-1.0291154221044445,0.2499995843249591,-0.10844631923666949,-0.4174934926531318,-0.04740308236128768,0.5465188900253989,4,left
3.9739999999999998,0.5094536167348881,-0.05518905966684876,0.3955490121030073,-0.9828203846248003,0.07436083876273751,-0.07393814731445561,-0.3870268757395572,-0.04796463322581701,0.49304392618766923,4,left
3.975,0.5052466306727583,-0.05821813686082141,0.3936230819082244,-0.9376129641387237,-0.10147135297575756,-0.040021167554836354,-0.35640314698815756,-0.048550293851600985,0.43937756575608466,4,left
3.9789999999999996,0.5010553556605861,-0.06092778157361251,0.391661117020835,-0.8935186410567372,-0.27739841323974124,-0.006700860376358482,-0.325645574505193,-0.04917409080217842,0.38555266975944535,4,left
3.9789999999999996,0.4968852560455208,-0.06331966320062501,0.38966523926622054,-0.8505612548876863,-0.45332202538630323,0.0260184158786576,-0.2947774737799198,-0.04984999067142249,0.33160221860687983,4,left
3.984,0.4927416542745283,-0.06539553796464946,0.38763757554142436,-0.8087629962106574,-0.6291442043722019,0.05813340258703675,-0.26382218420104525,-0.05059187058628159,0.2775592908007814,4,left
3.984,0.48862972869392723,-0.06715724505538044,0.38558025543501767,-0.768144398874621,-0.8047673672669334,0.08964191534561149,-0.23280304503558674,-0.05141348840878273,0.22345704057062626,4,left
3.989,0.484554512118612,-0.06860670311042884,0.3834954086132619,-0.7287243323024417,-0.9800944041922472,0.1205428154240146,-0.2017433707815102,-0.052328452639269066,0.16932867427275977,4,left
3.99,0.4805208911436706,-0.06974590703774207,0.381385161988387,-0.6905199937792242,-1.155028750192987,0.1508359782616552,-0.17066642580527058,-0.05335019202303249,0.11520742540097152,4,left
3.9930000000000003,0.47653360616829504,-0.07057692517961824,0.37925163668108336,-0.6535469006083505,-1.3294744585435678,0.18052225909939112,-0.13959539817519617,-0.05449192486273074,0.06112652805250894,4,left
3.9939999999999998,0.47259725209864367,-0.0711018968190127,0.37709694479048467,-0.6178188820220006,-1.5033362759935471,0.20960345583466752,-0.1085533726015396,-0.055766628039246424,0.00711918869410489,4,left
3.9989999999999997,0.4687162796925683,-0.0713230300293134,0.37492318599026625,-0.5833480707364401,-1.676519720454625,0.23808226918714784,-0.07756330239397055,-0.05718700574395167,-0.04678144392738499,4,left
4.0,0.46489499750488716,-0.07124259986891301,0.3727324439783461,-0.5501448940458905,-1.8489311616300028,0.2659622602601213,-0.04664798040149205,-0.05876545795637061,-0.10054231080681819,4,left
4.001,0.46113757439012387,-0.07086294692162871,0.3705267828144093,-0.518218064352371,-2.020477905085358,0.293247805581236,-0.01583000917080303,-0.060514048855035224,-0.15413047632091764,4,left
4.003,0.45744804252127474,-0.07018647618406258,0.368308243179019,-0.48757456903250923,-2.191068280258738,0.3199440497043764,0.014868228952998561,-0.06244447562590735,-0.20751316246842597,4,left
4.004,0.45383030088155624,-0.06921565630215482,0.3660788385843106,-0.4582196595459555,-2.360611732904471,0.3460568554527872,0.045424600788306506,-0.06456803828661511,-0.2606577823005179,4,left
4.008,0.45028811917525935,-0.06795301916032827,0.3638405515640746,-0.4301568396936984,-2.5290189224637043,0.3715927518818381,0.07581724961710298,-0.06689561099181794,-0.3135319715222595,4,left
4.0089999999999995,0.4468251420866371,-0.06640115982527663,0.36159532986750204,-0.40338785293826235,-2.696201824851432,0.3965588800381341,0.1060246205862529,-0.06943761500937638,-0.3661036179491642,4,left
4.013,0.44344489379943264,-0.06456273684190478,0.35934508267476817,-0.37791266879827284,-2.8620738408496424,0.4209629366498421,0.13602548424353758,-0.07220399340413503,-0.4183408888932402,4,left
4.013999999999999,0.44015078268271757,-0.0624404728737418,0.3570916768491834,-0.3537294688176157,-3.026549908806819,0.4448131161806634,0.16579895829569163,-0.0752041874360274,-0.470212256630354,4,left
4.015,0.43694610605440115,-0.06003715567723832,0.3548369332437404,-0.330834633484389,-3.189546617665431,0.46811805221682945,0.19532452767517458,-0.07844711467982676,-0.5216865220998651,4,left
4.018,0.43383405494073124,-0.05735563939801613,0.3525826230909763,-0.30922273196259403,-3.350982314849162,0.4908867594540964,0.22458206300181713,-0.08194114887451025,-0.5727328369865295,4,left
4.019,0.43081771874778874,-0.054398846174414955,0.3503304645218072,-0.28888651601918436,-3.5107772050237505,0.5131285772509128,0.253551837524829,-0.08569410151087427,-0.6233207243336155,4,left
4.023,0.4279000897575513,-0.051169768028955766,0.3480821192719112,-0.2698169186615309,-3.6688534384161358,0.5348531151737838,0.2822145426299441,-0.08971320516673514,-0.6734200978350366,4,left
4.024,0.42508406736710713,-0.04767146902269261,0.3458391896364409,-0.25200305752000807,-3.825135188858277,0.5560702006601039,0.3105513019957094,-0.09400509859976956,-0.7230012799530819,4,left
4.0280000000000005,0.4223724620022205,-0.04390708764069659,0.34360321572823754,-0.23543224291726156,-3.979548722014517,0.5767898288623723,0.33854368448209876,-0.09857581360879138,-0.7720350190070002,4,left
4.03,0.41976799864985925,-0.03987983936926964,0.3413756730859212,-0.22008999056935222,-4.132022454246447,0.5970221147362218,0.3661737158337512,-0.10343076367502489,-0.8204925053762999,4,left
4.033,0.4172733199666983,-0.035593019418770244,0.33915797066725795,-0.20596003886757405,-4.28248700256406,0.616777247433234,0.39342388927919764,-0.10857473439571712,-0.8683453869611325,4,left
4.034,0.4148909889302735,-0.031050005540635,0.3369514492497593,-0.19302437069331185,-4.430875226106638,0.6360654470580842,0.4202771751064525,-0.11401187572323121,-0.9155657840405593,4,left
4.043,0.4126234910053447,-0.02625426088132613,0.33475738024439505,-0.1812632397218291,-4.577122259591232,0.6548969238481592,0.44671702929430596,-0.11974569602357828,-0.9621263036678476,4,left
4.044,0.4104732358018742,-0.021209336808119744,0.3325769649103732,-0.17065520117435576,-4.721165539160845,0.6732818398324228,0.4727274012775622,-0.12577905796917369,-1.0080000537402005,4,left
4.045,0.4084425582041637,-0.01591887563263691,0.33041133394152994,-0.161177146981273,-4.862944821058435,0.6912302730249587,0.49829274092333115,-0.132114176281445,-1.0531606568785186,4,left
4.045,0.4065337189536158,-0.01038661315047553,0.3282615473817249,-0.15280434532256143,-5.002402193546762,0.7087521842073127,0.5233980047942934,-0.1387526173397695,-1.0975822642508857,4,left
4.048,0.40474890467390884,-0.004616380913943373,0.32612859482197276,-0.1455104845149896,-5.139482082487721,0.7258573863524701,0.5480286617736254,-0.14569530067407813,-1.1412395694715107,4,left
4.0489999999999995,0.4030902273416698,0.0013878918358431653,0.32401339583719113,-0.13926772121876146,-5.274131250988354,0.7425555167420498,0.5721706981249953,-0.15294250235932833,-1.1841078227047988,4,left
4.052,0.4015597232271282,0.007622176631761421,0.3219168006314711,-0.13404673293951286,-5.406298793514025,0.7588560118270727,0.5958106220597197,-0.1604938603309185,-1.2261628451021123,4,left
4.053,0.4001593513512922,0.014082344668482624,0.3198395908719504,-0.12981677480464435,-5.535936124862445,0.7747680848814645,0.618935467881806,-0.16834838164098898,-1.2673810436965836,4,left
4.058,0.3988909915222272,0.02076416612220839,0.31778248070003984,-0.12654574059599316,-5.662996964385258,0.7903007064962814,0.641532799780207,-0.1765044516764278,-1.3077394268790759,4,left
4.059,0.3977564420191515,0.027663309889950242,0.31574611791472673,-0.12420022802377952,-5.787437315836745,0.8054625879615063,0.6635907153361712,-0.18495984536027277,-1.3472156205760535,4,left
4.062,0.3967574169885256,0.03477534372154809,0.31373108532566596,-0.12274560822960674,-5.909215443221982,0.820262167581147,0.6850978488120913,-0.19371174035906955,-1.385787885247722,4,left
4.063,0.3958955436038473,0.04209573470879807,0.311737902274374,-0.12214609950904638,-6.028291843009347,0.8347075999662731,0.706043374286745,-0.2027567323196119,-1.4234351338223306,4,left
4.067,0.39517235902577014,0.04961985009334918,0.3097670263224573,-0.12236484524699563,-6.144629213064789,0.848806748349568,0.7264170086859333,-0.2120908521130562,-1.460136950629337,4,left
4.067,0.3945893071857712,0.0573429583592754,0.307818855107768,-0.12336399606155157,-6.258192418657602,0.86256717996393,0.7462090146842882,-0.2217095848337967,-1.4958736111382702,4,left
4.0680000000000005,0.3941477354071217,0.06526023058472362,0.30589372837145534,-0.1251047961546003,-6.368948455879695,0.8759961645266338,0.7654102033234117,-0.23160788988470526,-1.5306261018515892,4,left
4.071000000000001,0.3938488908730134,0.07336674203097154,0.30399193016018505,-0.127547673869668,-6.476866412812497,0.8891006758695748,0.7840119361182097,-0.24178022124971235,-1.5643761394438314,4,left
4.072,0.3936939169537996,0.08165747394273783,0.30211369120873616,-0.13065233645982074,-6.581917428767655,0.9018873967551406,0.8020061264932742,-0.2522205472869795,-1.5971061884898676,4,left
4.077,0.39368384941116763,0.0901273155287848,0.30025919150783115,-0.13437786907052873,-6.684074651919629,0.9143627269163036,0.8193852405184614,-0.26292236979333794,-1.6287994775781223,4,left
4.078,0.39381961250336345,0.09877106609416166,0.29842856305875337,-0.13868283794442596,-6.783313195640159,0.9265327943585936,0.8361422969827539,-0.27387874232291115,-1.6594400138550283,4,left
4.081,0.3941020150196257,0.10758343730310213,0.2966218928104053,-0.14352539785679605,-6.879610093836305,0.9384034699606981,0.8522708668580834,-0.28508228778990014,-1.6890125960947038,4,left
4.082,0.3945317462718314,0.11655905556041764,0.2948392257677499,-0.14886340362849,-6.972944255575855,0.949980385325254,0.8677650722030243,-0.29652521538625964,-1.71750282638486,4,left
4.082,0.39510937206725405,0.12569246450746505,0.2930805682548667,-0.15465452474510843,-7.063296419227231,0.9612689534090756,0.8826195845544831,-0.30819933684572404,-1.7448971205169335,4,left
4.086,0.39583533068137916,0.13497812763538358,0.29134589131226124,-0.16085636063765812,-7.15064910624583,0.9722743907026195,0.8968296228537035,-0.32009608208635093,-1.7711827171653627,4,left
4.087,0.3967099288478638,0.14441043102144874,0.289635134205114,-0.16742655336177759,-7.234986574681926,0.9830017393061959,0.9103909509510872,-0.33220651426443787,-1.796347685937826,4,left
4.092,0.3977333377845539,0.1539836861936768,0.28794820801435445,-0.17432289523346642,-7.316294772524973,0.9934558876710521,0.923299874732493,-0.34452134427332964,-1.820380934375112,4,left
4.093,0.39890558927668235,0.1636921331266029,0.2862849992766201,-0.18150343045559852,-7.394561291077348,1.0036415895312247,0.9355532389078257,-0.35703094472127334,-1.8432722139761024,4,left
4.096,0.40022657183824506,0.17352994336935892,0.28464537363593084,-0.18892655059009542,-7.469775318590137,1.0135634809727048,0.9471484235008665,-0.36972536342309137,-1.865012125320141,4,left
4.0969999999999995,0.40169602696983187,0.1834912233062267,0.28302917947149303,-0.19655108389548073,-7.541927594394483,1.0232260956699541,0.9580833400774211,-0.38259433644102864,-1.8855921223558068,4,left
4.102,0.40331354552690524,0.19357001755001058,0.2814362514714416,-0.20433637855035408,-7.611010363753366,1.0326338783190454,0.9683564277469808,-0.3956273007106901,-1.9050045159218296,4,left
4.102,0.4050785642087531,0.20376031246876056,0.2798664141293115,-0.21224237978402005,-7.677017333649816,1.0417911962959374,0.9779666489712009,-0.4088134062885122,-1.9232424765625842,4,left
4.1080000000000005,0.40699036217660406,0.21405603984490035,0.2783194851470725,-0.22022970093608835,-7.739943629718839,1.0507023495676566,0.9869134852106078,-0.42214152825771706,-1.940300036697267,4,left
4.109,0.4090480578096412,0.22445108066295244,0.27679527873366505,-0.22825968846732358,-7.799785754521489,1.059371578883416,0.9951969324390436,-0.4356002783301648,-1.9561720921985086,4,left
4.11,0.4112506056100143,0.2349392690188434,0.2752936087891723,-0.2362944809443722,-7.856541547350713,1.067803072271989,1.0028174965534546,-0.44917801618196046,-1.9708544034327993,4,left
4.111000000000001,0.41359679327229365,0.2455143961406735,0.27381429196251267,-0.24429706202122786,-7.91021014574972,1.0760009698709474,1.0097761887047259,-0.46286286056107945,-1.9843435958117202,4,left
4.1160000000000005,0.4160852389372104,0.2561702145087501,0.2723571505667698,-0.2522313074404229,-7.960791948914776,1.083969367112678,1.0160745205733588,-0.4766427002056492,-1.9966371598995665,4,left
4.1160000000000005,0.4187143886526441,0.2669004420626286,0.27092201533237276,-0.2600620260769469,-8.008288583145468,1.0917123162914038,1.0217144996118854,-0.49050520461186736,-2.007733451119534,4,left
4.121,0.42148251406775145,0.27769876648428005,0.2695087279754106,-0.2677549950478048,-8.05270286949663,1.0992338265347732,1.0266986242740146,-0.5044378346908432,-2.0176316890972164,4,left
4.122,0.4243877103901026,0.28855884954742494,0.26811714355766064,-0.27527698890993085,-8.094038793777214,1.1065378622029158,1.031029879248606,-0.5184278533539208,-2.0263319566767204,4,left
4.125,0.4274278946401268,0.29947433152314923,0.26674713261707045,-0.2825958029688806,-8.132301479032588,1.1136283397372175,1.0347117307146803,-0.5324623360662811,-2.0338351986412815,4,left
4.126,0.4306008042408772,0.31043883563257035,0.2653985830515253,-0.2896802707203296,-8.167497160637831,1.1205091229804272,1.0377481216317905,-0.5465281814088201,-2.0401432201668084,4,left
4.13,0.4339039959835655,0.32144597253827284,0.2640714017429314,-0.2965002754459174,-8.19963316412081,1.1271840169890917,1.040143467078204,-0.5606121216884643,-2.0452586850333554,4,left
4.131,0.437334845410602,0.3324893448658132,0.2627655159121352,-0.303026755984395,-8.228717885824956,1.1336567603586922,1.041902649647479,-0.5747007336372133,-2.049185113616081,4,left
4.135,0.4408905466579279,0.3435625517456141,0.26148087419802996,-0.30923170669836325,-8.254760776512862,1.1399310160812568,1.043031014912173,-0.5887804492402878,-2.05192688067382,4,left
4.136,0.4445681127966133,0.35465919336716545,0.260217447455646,-0.3150881716561307,-8.277772328003039,1.146010360954636,1.043534366953407,-0.602837566735353,-2.0534892129481848,4,left
4.137,0.44836437670935575,0.3657728755434979,0.25897522926762345,-0.3205702330473795,-8.297764062923408,1.1518982735620409,1.043418963912394,-0.6168582618324996,-2.0538781865737645,4,left
4.14,0.45227599253111783,0.37689721429227013,0.25775423616326765,-0.32565299385040786,-8.314748527656365,1.1575981208398753,1.0426915134447812,-0.6308285992184928,-2.0531007242805157,4,left
4.141,0.456299437676931,0.3880258404454712,0.2565545075422394,-0.3303125547677146,-8.328739288541552,1.163113143251336,1.041359167916051,-0.6447345444164355,-2.051164592357114,4,left
4.146,0.4604310154752704,0.39915240430067317,0.2553761053057758,-0.33452598544562373,-8.339750931393782,1.1684464385827005,1.0394295192152678,-0.6585619760641859,-2.0480783973496037,4,left
4.147,0.464666858421021,0.4102705803263695,0.2542191132045242,-0.33827128999249634,-8.347799064384944,1.1736009443786857,1.0369105931361273,-0.6722966986608716,-2.0438515824824064,4,left
4.15,0.46900293205688803,0.42137407193506643,0.2530836359168608,-0.34152736680886786,-8.352900324330113,1.1785794190327252,1.0338108433133395,-0.6859244558229568,-2.0384944237943623,4,left
4.15,0.473435039487113,0.4324566163394939,0.2519697978748122,-0.34427396274156613,-8.355072386409535,1.1833844215474942,1.0301391447088188,-0.6994309440895535,-2.032018025980957,4,left
4.151,0.4779588265239007,0.4435119895082129,0.25087774185558764,-0.3464916217238731,-8.354333977274944,1.1880182900370737,1.025904786640463,-0.7128018273164038,-2.0244343179306123,4,left
4.154,0.48256978746618323,0.4545340112374045,0.24980762735396972,-0.34816162881912865,-8.350704891106766,1.1924831193245378,1.0211174653446358,-0.7260227516976504,-2.01575604793968,4,left
4.155,0.48726327151163984,0.4655165503554921,0.24875962874619062,-0.34926595194584825,-8.344206007508108,1.196780738497465,1.0157872760618263,-0.7390793614541658,-2.00599677858755,4,left
4.159,0.4920344898032206,0.4764535300741461,0.2477339332540424,-0.3497871843176475,-8.334859309739665,1.2009126895662758,1.0099247046333388,-0.751957315226819,-1.9951708812501283,4,left
4.16,0.49687852310933794,0.4873389334923411,0.24673073872051102,-0.3497084898729555,-8.322687902164754,1.204880208086918,1.0035406185952853,-0.7646423032126303,-1.9832935302267662,4,left
4.164,0.5017903301342719,0.49816680925267626,0.245750251211713,-0.34901355260574,-8.307716026437737,1.2086842060997254,0.9966462577545894,-0.7771200650812908,-1.9703806964526527,4,left
4.166,0.5067647564537812,0.5089312773439875,0.2447926824605376,-0.34768652995005467,-8.289969076334339,1.212325257452901,0.9892532242301841,-0.7893764087090109,-1.956449140765593,4,left
4.17,0.511796544069886,0.5196265350406355,0.24385824716476517,-0.34571201021814685,-8.26947361118894,1.215803585522028,0.9813734719410886,-0.8013972297661064,-1.9415164066930894,4,left
4.17,0.5168803415768556,0.5302468629649774,0.2429471601485654,-0.34307497409009485,-8.246257367895884,1.2191190533365315,0.9730192955215807,-0.8131685321941399,-1.925600812722664,4,left
4.1739999999999995,0.522010714926839,0.5407866312555225,0.2420596333936695,-0.33976076015112955,-8.220349271423883,1.222271156123558,0.9642033186422556,-0.8246764496077934,-1.9087214440154445,4,left
4.175,0.5271821587795833,0.5512403058203953,0.24119587294715625,-0.33575503447093635,-8.191779443784705,1.2252590162792576,0.9549384817143581,-0.8359072676559766,-1.8908981435201488,4,left
4.178999999999999,0.5323891084179049,0.5616024546543227,0.24035607571700598,-0.33104376421732945,-8.160579211389505,1.2280813807769995,0.9452380289534197,-0.8468474473759547,-1.8721515024417918,4,left
4.18,0.5376259522087625,0.5718677541971336,0.23954042617248028,-0.32561319529474714,-8.126781110718438,1.2307366210215671,0.9351154947768985,-0.8574836495735281,-1.8525028500166671,4,left
4.186,0.5428870445880684,0.5820309957130667,0.23874909297209862,-0.3194498339960303,-8.09041889222155,1.23322273515792,0.9245846895092386,-0.8678027602614945,-1.8319742425424421,4,left
4.187,0.5481667195449119,0.5920870916736829,0.2379822255470632,-0.31254043265392023,-8.051527522361388,1.2355373528426212,0.9136596843665091,-0.8777919171877966,-1.8105884516095656,4,left
4.189,0.5534593045768462,0.602031082132732,0.23723995067194753,-0.30487197927664705,-8.010143183700311,1.2376777424855583,0.9023547956915737,-0.8874385374838798,-1.7883689514775847,4,left
4.19,0.5587591350830896,0.611858141087991,0.2365223690573662,-0.2964316911498726,-7.966303272928099,1.239640820969091,0.8906845684095683,-0.8967303464628779,-1.7653399055374472,4,left
4.195,0.5640605691584814,0.6215635828323368,0.23582955200318553,-0.28720701238511276,-7.920046396718248,1.2414231658512713,0.8786637586723348,-0.9056554075962931,-1.741526151798408,4,left
4.196000000000001,0.5693580027478288,0.6311428683042722,0.23516153815483068,-0.2771856153925808,-7.871412365294121,1.2430210300592766,0.8663073156593648,-0.9142021536968592,-1.7169531873357557,4,left
4.199,0.5746458851176176,0.640591611455767,0.23451833040146233,-0.2663554062541792,-7.820442183579099,1.2444303590786898,0.8536303625017598,-0.9223594193342524,-1.6916471516332603,4,left
4.2,0.5799187346019966,0.6499055856601396,0.2338998929390381,-0.25470453397011233,-7.76717803979795,1.2456468106437382,0.8406481762947078,-0.9301164745092665,-1.6656348087519863,4,left
4.204,0.5851711545870345,0.6590807301828853,0.23330614850483725,-0.24222140355030605,-7.711663291389763,1.2466657769330696,0.8273761671630122,-0.9374630596109805,-1.6389435282549338,4,left
4.206,0.5903978497147153,0.668113156734199,0.23273697578414568,-0.2288946929194956,-7.653942448086152,1.2474824092751091,0.8138298563779405,-0.9443894216081186,-1.6116012648377072,4,left
4.207,0.5955936423113537,0.6769991561163285,0.23219220698715382,-0.21471337360248735,-7.594061152001774,1.248091645366479,0.8000248536960453,-0.9508863510636131,-1.5836365367275724,4,left
4.21,0.6007534890627472,0.6857352049748682,0.23167162558020885,-0.19966673515370922,-7.532066154577792,1.2484882390063985,0.7859768344016506,-0.9569452189103211,-1.555078403116863,4,left
4.211,0.6058724979625423,0.6943179726594004,0.231174964122471,-0.1837444132927423,-7.468005290212576,1.2486667923493993,0.771701516707167,-0.9625580115635948,-1.5259564410090092,4,left
4.213,0.6109459455470427,0.7027443281922905,0.23070190210601108,-0.16693642170507061,-7.401927446407703,1.248621790678095,0.7572146399913989,-0.9677173633062185,-1.4963007217394932,4,left
4.2139999999999995,0.6159692943924759,0.7110113473352957,0.23025206363847445,-0.1492331874648029,-7.333882530251271,1.2483476396971327,0.7425319440434343,-0.9724165855298481,-1.466141787226785,4,left
4.218,0.6209382107878171,0.7191163197321759,0.22982501477068099,-0.13062559003360305,-7.263921431054603,1.2478387053488273,0.7276691493057942,-0.9766496927768509,-1.435510625892497,4,left
4.22,0.6258485824258173,0.7270567560893798,0.22942026027470405,-0.11110500372063473,-7.192095979063484,1.247089356077586,0.71264193807526,-0.9804114255973541,-1.4044386481656392,4,left
4.22,0.6306965359116224,0.7348303953397349,0.22903723971349427,-0.09066334315130503,-7.118458900713682,1.24609400710581,0.6974659366192304,-0.9836972702349882,-1.3729576614843935,4,left
4.223,0.6354784538802717,0.7424352117161513,0.22867532269048896,-0.06929311068798646,-7.043063771892766,1.2448471656285212,0.6821566981649468,-0.9865034751534745,-1.3410998447074878,4,left
4.224,0.6401909914891561,0.7498694216205375,0.2283338032173795,-0.04698744440882657,-6.965964971219079,1.2433434754695099,0.666729686718452,-0.988827064414854,-1.3088977218459708,4,left
4.23,0.6448310919576746,0.757131490084915,0.22801189321333462,-0.023740165582558398,-6.887217634789305,1.2415777601048497,0.6512002616697177,-0.9906658479187878,-1.2763841350250216,4,left
4.231,0.6493960006811544,0.7642201365051239,0.22770871529242714,0.0004541748234327328,-6.806877612843293,1.239545063613678,0.6355836631399957,-0.9920184285109857,-1.2435922165843494,4,left
4.232,0.6538832772920106,0.7711343392282671,0.2274232952160108,0.025600250732767407,-6.725001428235622,1.237240689479157,0.6198949980271079,-0.9928842059674322,-1.2105553602247412,4,left
4.2330000000000005,0.6582908048942759,0.7778733385355213,0.22715455463074322,0.05170191671425032,-6.64164623648782,1.234660237234533,0.6041492267040959,-0.9932633778596895,-1.1773071911074269,4,left
4.237,0.6626167955758385,0.7844366376114725,0.22690130490267,0.07876216497008239,-6.5568697871905455,1.2317996369484447,0.5883611503264011,-0.9931569373051615,-1.1438815348121325,4,left
4.238,0.6668597912498387,0.7908240012335099,0.22666224293024864,0.10678308363035306,-6.470730386520654,1.2286551815428497,0.5725453987025374,-0.9925666676048064,-1.110312385058988,4,left
4.243,0.6710186589438351,0.7970354521197389,0.22643594974268264,0.13576581642880228,-6.3832868606338184,1.2252235569361491,0.5567164186830545,-0.9914951337693915,-1.0766338700988465,4,left
4.244,0.6750925798726034,0.8030712650940793,0.2262208924738548,0.16571052383759363,-6.2945985196892895,1.2215018700032858,0.5408884630224704,-0.9899456709339834,-1.0428802176760699,4,left
4.247,0.6790810319874918,0.8089319594220555,0.22601542999975438,0.19661634574159761,-6.204725122259472,1.2174876743437715,0.5250755796687674,-0.9879223696589889,-1.009085718467415,4,left
4.248,0.6829837661340478,0.8146182898130209,0.22581782221554708,0.22848136573544506,-6.113726839873226,1.2131789938477822,0.5092916014350111,-0.9854300581146721,-0.9752846879003465,4,left
4.252,0.686800776378657,0.8201312366566026,0.22562624267728484,0.261302577129372,-6.021664221438264,1.2085743440496242,0.4935501360076537,-0.9824742811447056,-0.9415114262538856,4,left
4.253,0.6905322654020911,0.8254719960579804,0.22543879418499238,0.29507585075263604,-5.928598157284566,1.2036727512570347,0.4778645562461236,-0.9790612762029554,-0.9078001769449837,4,left
4.258,0.6941786060698809,0.8306419701724456,0.22525352684298047,0.32979590464603753,-5.834589842567561,1.198473769443936,0.4622479907283888,-0.9751979461563502,-0.8741850829033959,4,left
4.2589999999999995,0.6977403003876096,0.8356427582419329,0.2250684581675467,0.36545627573782313,-5.739700739766711,1.192977494893413,0.44671331449730095,-0.9708918289453584,-0.8407001409381052,4,left
4.262,0.7012179370565569,0.8404761486292138,0.2248815948707628,0.40204929359998176,-5.643992540012279,1.1871845785768338,0.43127313996268934,-0.9661510640922809,-0.8073791539985281,4,left
4.263,0.7046121487773888,0.8451441120425215,0.22469095598750033,0.4395660563846612,-5.547527122970362,1.1810962362541746,0.41593980791436835,-0.960984356046282,-0.7742556812340079,4,left
4.268,0.7079235703207472,0.8496487960489059,0.22449459700970795,0.4779964090431306,-5.450366515013722,1.1747142562797663,0.4007253786014597,-0.9554009343527993,-0.7413629857554729,4,left
4.268,0.7111527982142412,0.8539925208870193,0.2242906346463586,0.5173289239323925,-5.352572845403608,1.1680410050968197,0.38564162283369996,-0.949410510633739,-0.7087339800036134,4,left
4.274,0.7143003527107278,0.8581777765046814,0.22407727174667333,0.5575508839171971,-5.254208300205587,1.1610794304032428,0.3707000130607123,-0.9430232323636292,-0.6764011686284905,4,left
4.275,0.7173666425289955,0.862207220659445,0.22385282182032706,0.598648268077836,-5.15533507366039,1.1538330619704245,0.35591171438555863,-0.9362496334257137,-0.644396588786157,4,left
4.275,0.7203519327168243,0.8660836778388389,0.22361573249778413,0.6406057401366784,-5.056015316728979,1.1463060100958196,0.3412875754906501,-0.9291005815347748,-0.612751747871387,4,left
4.277,0.7232563158831304,0.8698101387103442,0.22336460726360968,0.6834066397189662,-4.9563110825294014,1.1385029616693412,0.32683811956142106,-0.9215872231322099,-0.5814975592702519,4,left
4.2780000000000005,0.7260796869741695,0.8733897598106192,0.22309822488196512,0.7270329765658992,-4.856284268381502,1.1304291738327574,0.3125735354860646,-0.9137209272935471,-0.5506642777320626,4,left
4.282,0.728821721732218,0.8768258631726541,0.22281555602025174,0.771465427820504,-4.75599655417435,1.1220904652104744,0.29850366971701914,-0.9055132307073935,-0.5202814365250203,4,left
4.284,0.7314818589743096,0.8801219355130835,0.2225157765950374,0.8166833385092059,-4.655509336770048,1.1134932046893047,0.28463801907347824,-0.8969757852638742,-0.49037778797724696,4,left
4.287,0.7340592868368856,0.883281626503239,0.22219827739296819,0.8626647253145244,-4.554883660312036,1.1046442977648887,0.27098572457226905,-0.8881203088538447,-0.46098124799123824,4,left
4.288,0.7365529331201819,0.8863087456188181,0.22186266963981838,0.9093862835873131,-4.454180143081731,1.0955511706759349,0.2575555662680849,-0.8789585394592966,-0.4321188445572786,4,left
4.289,0.7389614598320835,0.8892072571177602,0.22150878636571505,0.9568233972804518,-4.353458902944493,1.086221752914365,0.24435595906326044,-0.8695021925104541,-0.40381667017997297,4,left
4.292,0.7412832619890629,0.8919812727478535,0.2211366795871611,1.0049501513387733,-4.252779484202038,1.076664458902982,0.23139494944788744,-0.859762921484151,-0.37609983813350567,4,left
4.292,0.7435164706851929,0.8946350417846467,0.2207466134973469,1.0537393462314455,-4.152200787891673,1.0668881694273238,0.2186802131317088,-0.8497522817171901,-0.3489924424627677,4,left
4.297,0.7456589603814018,0.8971729380218884,0.22033905403369336,1.1031625145838508,-4.051781006174958,1.0569022130400259,0.20621905352988915,-0.8394816974075464,-0.3225175216491027,4,left
4.298,0.7477083602945752,0.8995994434677999,0.21991465535432836,1.153189940017294,-3.951577560681984,1.0467163474511096,0.1940184010654448,-0.8289624317754613,-0.29669702586109936,4,left
4.302,0.7496620696827047,0.9019191287337931,0.2194742438714626,1.2037906783366377,-3.8516470445224673,1.0363407408761292,0.18208481325182316,-0.8182055603556929,-0.2715517877126095,4,left
4.303,0.7515172767264732,0.9041366303792197,0.21901880053493808,1.2549325812077812,-3.752045167675307,1.0257859533135127,0.1704244755198486,-0.8072219473914446,-0.24710149645198176,4,left
4.308,0.7532709806078554,0.9062566257334838,0.2185494420192395,1.3065823224686302,-3.652826705468856,1.0150629177218595,0.15904320275399952,-0.7960222252997718,-0.2233646755083812,4,left
4.309,0.7549200163083535,0.9082838058993119,0.21806740134711022,1.3587054272188515,-3.5540454498649683,1.0041829210674056,0.14794644150374842,-0.7846167771775951,-0.20035866332300173,4,left
4.311,0.7564610816145986,0.910222847724423,0.2175740083144394,1.411266303835257,-3.4557541632608015,0.9931575852113648,0.1371392728364802,-0.7730157223167842,-0.1780995973949717,4,left
4.311,0.7578907658248168,0.9120783855309705,0.2170706699102593,1.4642282790611205,-3.358004534523466,0.9819988476063614,0.12662641579930495,-0.7612289046961646,-0.15660240147380083,4,left
4.315,0.7592055796774609,0.9138549833464902,0.21655885079205903,1.5175536363190831,-3.260847136973855,0.970718941770727,0.11641223145789838,-0.7492658844177026,-0.1358807758323131,4,left
4.319,0.7604019860567608,0.9155571083116465,0.21604005380184452,1.5712036573985677,-3.164331388037413,0.9593303775090125,0.10650072748133371,-0.7371359320535628,-0.11594719055615267,4,left
4.321000000000001,0.7614764310636811,0.9171891058608703,0.21551580049343444,1.6251386676697575,-3.0685055102811347,0.9478459208466863,0.09689556324271396,-0.7248480258701997,-0.0968128817881378,4,left
4.322,0.7624253750769038,0.9187551771836219,0.21498761166966374,1.6793180849772555,-2.973416493557798,0.9362785736466416,0.08760005540627062,-0.7124108518951352,-0.0784878508679609,4,left
4.3260000000000005,0.7632453234725024,0.9202593593712808,0.2144569879746676,1.7337004723674534,-2.8791100579802684,0.9246415528748234,0.07861718397246326,-0.6998328067915952,-0.060980866309995545,4,left
4.327,0.7639328567287511,0.9217055085348854,0.21392539063127528,1.788243594804467,-2.7856306174506935,0.9129482694820114,0.0699495987534945,-0.6871220035057264,-0.04429946856426423,4,left
4.33,0.7644846597126236,0.9230972860489156,0.21339422244878156,1.8429044800301921,-2.6930212434715224,0.9012123068685578,0.061599626252543095,-0.6742862796506804,-0.028449977507942495,4,left
4.331,0.7648975500129049,0.9244381479490728,0.21286480925314488,1.8976394837246142,-2.6013236289675308,0.88944739889868,0.05356927692091526,-0.6613332085914502,-0.013437502617123252,4,left
4.336,0.7651685052292795,0.9257313374016597,0.21233838191597712,1.9524043591229707,-2.5105780518503944,0.8776674074307426,0.04586025276821995,-0.6482701131939603,0.0007340442290667325,4,left
4.336,0.7652946891285826,0.9269798800809121,0.21181605918816873,2.007154331246692,-2.420823338059869,0.8658862993298475,0.03847395530158488,-0.6351040822015557,0.014061933357518246,4,left
4.34,0.765273476533827,0.9281865822432855,0.21129883157882512,2.0618441759052715,-2.332096823818234,0.8541181229289618,0.031411493770848016,-0.6218419892016909,0.02654459936647747,4,left
4.342,0.7651024767374097,0.9293540312723574,0.21078754654423437,2.1164283036262894,-2.2444343168373977,0.8423769839047742,0.024673693691315474,-0.6084905140848887,0.0381816207162526,4,left
4.342,0.7647795551715642,0.9304845984846133,0.21028289523996002,2.1708608486707774,-2.1578700562209034,0.8306770205344659,0.018261105585272403,-0.5950561665956311,0.04897369705383675,4,left
4.346,0.7643028530509205,0.9315804440256823,0.20978540103927035,2.22509576329093,-2.0724366708060256,0.8190323782996192,0.012174013827967848,-0.58154531103077,0.05892262473296379,4,left
4.3469999999999995,0.7636708046797601,0.9326435237152001,0.2092954099672464,2.2790869173868757,-1.9881651356941985,0.8074571838035657,0.006412445453395835,-0.5679641908386884,0.06803127113057324,4,left
4.35,0.7628821520490585,0.9336755976920894,0.20881308316695177,2.332788203718777,-1.9050847267211717,0.7959655179685935,0.0009761788074594404,-0.5543189521743028,0.07630354821634902,4,left
4.351,0.7619359562831269,0.934678240686546,0.20833839148304123,2.386153648829961,-1.8232229726215308,0.784571388479591,-0.0041352480065656476,-0.5406156660085792,0.08374438557418235,4,left
4.354,0.7608316055018477,0.9356528537265962,0.20787111220097793,2.4391375296174043,-1.7426056048397063,0.7732887014693461,-0.00892252891308611,-0.5268603486931402,0.09035970293011088,4,left
4.356,0.7595688187483135,0.9366006770871806,0.20741082793344828,2.4916944943916417,-1.6632565059137456,0.7621312325831601,-0.013386581895382459,-0.5130589809407754,0.09615638221050903,4,left
4.356,0.7581476457554892,0.937522804303228,0.20695692761745993,2.543779685299081,-1.585197659108947,0.7511125978166716,-0.017528541287622264,-0.4992175251825026,0.10114223915191757,4,left
4.359,0.7565684624508551,0.93842019706417,0.20650860956595538,2.595348857885176,-1.5084491029527638,0.7402462246633129,-0.021349750341449664,-0.4853419412616789,0.10532599448153147,4,left
4.36,0.7548319622152475,0.9392937007623713,0.20606488648832053,2.6463584946691134,-1.433028893355289,0.7295453239659726,-0.024851754079977664,-0.4714382004255238,0.10871724468501495,4,left
4.365,0.7529391430403433,0.9401440604073591,0.20562459235495564,2.696765911567452,-1.3589530742560056,0.7190228626118847,-0.028036292451084854,-0.4575122975743081,0.1113264323759857,4,left
4.3660000000000005,0.7508912908740322,0.9409719365776128,0.20518639094552685,2.746529357096081,-1.2862356567705078,0.7086915370679927,-0.03090529379099717,-0.44357026172835784,0.11316481627920773,4,left
4.37,0.7486899595822,0.9417779210652482,0.2047487858997163,2.7956081044969427,-1.21488860662057,0.6985637477260772,-0.033460868608218786,-0.4296181646729447,0.11424444083725752,4,left
4.371,0.7463369480684244,0.9425625518657245,0.20431013209019186,2.8439625369342365,-1.1449218396347918,0.6886515740274473,-0.035705303696964626,-0.4156621277410725,0.1145781054481831,4,left
4.375,0.7438342751727299,0.9433263271729151,0.20386864816066544,2.891554225902975,-1.076343225110946,0.6789667503375412,-0.037641056588340875,-0.40170832669411843,0.11417933333946331,4,left
4.376,0.7411841530141579,0.9440697180626433,0.20342243010424355,2.938346002990797,-1.0091585968350905,0.6695206425413696,-0.03927075034661995,-0.38776299466026376,0.1130623400813961,4,left
4.379,0.7383889594475116,0.9447931795859305,0.20296946577800637,2.9843020251318593,-0.943371771556467,0.6603242253313496,-0.04059716871706283,-0.3738324230906337,0.11124200174090369,4,left
4.38,0.7354512102737292,0.9454971600439626,0.2025076502463511,3.029387833489453,-0.8789845747211884,0.6513880601597348,-0.041623251630855375,-0.35992296069307567,0.10873382267463966,4,left
4.3839999999999995,0.7323735317826058,0.9461821082772657,0.20203480181921865,3.073570406101684,-0.8159968732717198,0.6427222738285264,-0.04235209107184623,-0.346041010303527,0.10555390295822094,4,left
4.385,0.7291586341261503,0.9468484788705699,0.20154867861086495,3.1168182044221573,-0.754406615323172,0.6343365376904714,-0.04278692730890314,-0.33219302365496806,0.10171890544638906,4,left
4.39,0.7258092859312028,0.9474967352494432,0.20104699540318965,3.1591012138851244,-0.694209876531436,0.6262400474354961,-0.042931145496841946,-0.31838549400401533,0.09724602245692968,4,left
4.391,0.7223282904709236,0.9481273507195569,0.2005274405680226,3.2003909786219467,-0.635400912972209,0.6184415034377032,-0.042788272648029084,-0.3046249465752907,0.09215294206925133,4,left
4.394,0.7187184636353401,0.9487408075701512,0.19998769279252346,3.2406606304530405,-0.5779722203539727,0.6109490916388612,-0.04236197497591396,-0.2909179267837978,0.08645781402664375,4,left
4.395,0.7149826138770274,0.9493375944273088,0.19942543736073295,3.2798849122767253,-0.5219145993919789,0.6037704649451474,-0.04165605561091317,-0.27727098619565477,0.08017921522940413,4,left
4.398,0.7111235242598065,0.9499182020960858,0.19883838176817764,3.318040195973517,-0.4672172271742879,0.5969127251147558,-0.040674452688244,-0.2636906661876676,0.07333611480423935,4,left
4.4,0.70714393670245,0.9504831181688137,0.19822427047974656,3.35510449494151,-0.4138677343548577,0.5903824051148664,-0.03942123780649074,-0.2501834792663804,0.0659478387336238,4,left
4.4030000000000005,0.7030465384811362,0.9510328206978734,0.1975808986775342,3.391057471375469,-0.3618522880126266,0.5841854519273659,-0.037900614854884385,-0.23675588800741373,0.05803403402711674,4,left
4.404,0.6988339510307374,0.9515677712358819,0.19690612487995324,3.4258804383991905,-0.3111556800194295,0.5783272097836353,-0.036116919206484674,-0.22341428157609222,0.04961463241502253,4,left
4.408,0.694508721064007,0.9520884075370016,0.19619788234550342,3.45955635715758,-0.26176142076345915,0.5728124038096568,-0.03407461727367326,-0.2101649497905722,0.040709813543211376,4,left
4.409,0.6900733140074529,0.9525951361902668,0.19545418920603724,3.4920698289716694,-0.21365183807881363,0.5676451240636488,-0.03177830641364521,-0.19701405477291015,0.03133996768155991,4,left
4.41,0.6855301097337905,0.9530883254148698,0.19467315730348364,3.5234070826565898,-0.16680818123545668,0.56282880994941,-0.029232715131061043,-0.18396760065376194,0.02152565813277198,4,left
4.415,0.6808814005549298,0.9535682981939767,0.19385299972720585,3.5535559570992006,-0.12121072984765621,0.5583662349895411,-0.026442703452694075,-0.1710314025526717,0.011287583843301018,4,left
4.416,0.6761293914210524,0.954035325884965,0.19299203706885795,3.5825058791887536,-0.07683890756265466,0.5542594919437032,-0.023413263308408847,-0.15821105647619554,0.0006465428925131608,4,left
4.419,0.6712762022421199,0.9544896224349062,0.1920887024328854,3.610247837190581,-0.03367140039495948,0.5505099782580862,-0.020149518791860162,-0.14551191135640054,-0.010376602640799471,4,left
4.42,0.6663238722095801,0.9549313393275032,0.19114154526210075,3.6367743496494045,0.008313720424779856,0.5471183818332709,-0.01665672624518521,-0.13293904369659287,-0.021760960253018224,4,left
4.4239999999999995,0.6612743659602989,0.9553605613672604,0.19014923405213854,3.6620794299460764,0.04913887137907228,0.5440846671301058,-0.012940274151043154,-0.12049723487145703,-0.03348563902678346,4,left
4.425,0.656129581408681,0.9557773033731324,0.18911055803051693,3.6861585468315,0.08882682648661579,0.5414080617913262,-0.009005682822637662,-0.1081909510451359,-0.04552978011018778,4,left
4.426,0.6508913590789676,0.9561815078222246,0.1880244278680594,3.709008581624056,0.12740058661846135,0.5390870442404101,-0.004858603881700109,-0.09602432567114393,-0.05787258569673615,4,left
4.428999999999999,0.6455614927690245,0.9565730434606005,0.186889875486708,3.7306277829567347,0.16488325172962914,0.5371193328772786,-0.0005048195137689875,-0.08400114453838037,-0.07049334653970984,4,left
4.43,0.6401417413462647,0.9569517048799606,0.1857060530387329,3.751015719753298,0.201297898598982,0.5355018773343866,0.004049758510525354,-0.07212483332789932,-0.08337146803548912,4,left
4.433,0.634633841436259,0.9573172130401527,0.18447223115000735,3.770173232743153,0.2366674651797153,0.534230851975027,0.008799090060071629,-0.06039844764549303,-0.0964864949112474,4,left
4.433,0.6290395207442524,0.957669216697223,0.18318779653313505,3.7881023846177255,0.2710146418334397,0.5333016516596071,0.013737008126278705,-0.048824665495556356,-0.10981813455322904,4,left
4.437,0.6233605117491998,0.9580072946788472,0.18185224908583195,3.8048064088869,0.3043617695525164,0.532708889775241,0.018857220577537956,-0.03740578216212166,-0.12334627901256166,4,left
4.438,0.6175985655167552,0.9583309589356697,0.18046519860040736,3.8202896574905667,0.3367307452723001,0.5324463985249969,0.024153312198777168,-0.026143707463383094,-0.13705102572623554,4,left
4.442,0.6117554653855677,0.9586396582881456,0.17902636121948243,3.834557547216788,0.3681429343720091,0.5325072314741186,0.02961874703027773,-0.015039965346466658,-0.15091269699150492,4,left
4.444,0.6058330402886957,0.9589327827840195,0.17753555577609334,3.8476165049745843,0.39861909046006627,0.5328836683515054,0.03524687102045031,-0.004095695789646977,-0.16491185823253124,4,left
4.449,0.5998331774803196,0.9592096685810393,0.17599270015032561,3.8594739119658197,0.42817928253694454,0.5335672221056802,0.04103091500776921,0.0066883410203390494,-0.17902933509859564,4,left
4.449,0.593757834449425,0.9594696032708697,0.1743978077613346,3.870138046797201,0.4568428296258007,0.534548648215406,0.04696399804755182,0.01731175826777725,-0.19324622943366024,4,left
4.453,0.587609049817174,0.9597118315627235,0.17275098429689525,3.8796180275699124,0.48462824295849055,0.5358179562560116,0.0530391310997366,0.027774533875698205,-0.2075439341574523,4,left
4.454,0.5813889530331247,0.9599355612496426,0.17105242476426447,3.8879237529809694,0.511553175801925,0.5373644237233708,0.05924922109426088,0.038076999692815146,-0.22190414709858677,4,left
4.458,0.5750997727079654,0.9601399693863691,0.16930241092537301,3.8950658424669506,0.5376343810071507,0.5391766121183352,0.06558707539106765,0.04821982853019584,-0.2363088838205282,4,left
4.459,0.5687438434480526,0.9603242086144305,0.16750130915644537,3.901055575417357,0.5628876763610112,0.5412423852952412,0.07204540665217798,0.05820401907772599,-0.25074048948142597,4,left
4.462,0.5623236110908905,0.9604874135775736,0.16564956874984454,3.905904829481479,0.5873279178177769,0.5435489300789095,0.07861683814365397,0.06803087872996193,-0.2651816497690374,4,left
4.4639999999999995,0.555841636280623,0.9606287073789876,0.1637477206573396,3.909626017989326,0.6109689806856979,0.5460827791553183,0.0852939094856431,0.07770200435051217,-0.27961540095208176,4,left
4.467,0.5493005963658555,0.9607472080393852,0.1617963766595189,3.9122320265038337,0.6338237488410595,0.5488298362418566,0.09206908286904142,0.08721926100363271,-0.29402513908944566,4,left
4.468,0.5427032856453555,0.9608420349212291,0.15979622893293163,3.913736148518324,0.6559041120399818,0.551775403543753,0.09893474975763736,0.09658475868126946,-0.30839462843868926,4,left
4.473,0.5360526140288001,0.960912315089998,0.15774804997241512,3.914152020309917,0.6772209713959034,0.5549042115039311,0.10588323809490133,0.10580082705333428,-0.32270800910528147,4,left
4.475,0.5293516042190332,0.9609571895880881,0.15565269281306285,3.913493554956424,0.6977842530884322,0.5582004508541496,0.11290682003486803,0.11486998826855985,-0.33694980397392477,4,left
4.477,0.5226033875578117,0.9609758195986113,0.15351109148850864,3.9117748755210653,0.7176029303670155,0.5616478069758576,0.11999772021681834,0.12379492783284271,-0.35110492496321555,4,left
4.478,0.5158111987062618,0.9609673924740588,0.15132426166014373,3.9090102474062416,0.7366850539106927,0.5652294965797178,0.12714812460370511,0.13257846359155542,-0.3651586786447243,4,left
4.478,0.5089783693484947,0.9609311276010488,0.14909330135349774,3.905214009874496,0.7550377906030177,0.5689283067132326,0.13435018988729136,0.1412235128992248,-0.37909677126313485,4,left
4.481,0.5021083211008585,0.9608662820712264,0.14681939174358855,3.9004005067317555,0.7726674707791054,0.5727266361063401,0.14159605337720566,0.14973305834624903,-0.3929053131726245,4,left
4.482,0.495204557780982,0.9607721561305084,0.14450379793914678,3.894584016164946,0.7895796439996352,0.5766065388652323,0.1488778431365657,0.15811011292796237,-0.40657082266619954,4,left
4.486000000000001,0.48827065716975515,0.960648098379195,0.14214786971756904,3.887778679723105,0.8057791434045475,0.5805497705249827,0.15618768804101293,0.16635768582764757,-0.4200802291531616,4,left
4.488,0.4813102624077414,0.9604935106905648,0.13975304215379733,3.8799984304281967,0.8212701586970895,0.584537836471857,0.16351772752408378,0.17447874969801844,-0.4334208756607183,4,left
4.493,0.4743270731821385,0.9603078528107528,0.1373208360778357,3.8712569201229656,0.836056317585897,0.5885520426760443,0.17086012092667002,0.1824762098092713,-0.4465805206735152,4,left
4.494,0.46732483684787063,0.9600906466053593,0.13485285829926585,3.8615674467804055,0.8501407744062066,0.5925735483238872,0.1782070564543593,0.19035287514474278,-0.459547339345631,4,left
4.495,0.4603073395900237,0.9598414799277042,0.13235080154939513,3.8509428836127806,0.8635263026510762,0.5965834193054973,0.18555075976369606,0.19811143146751034,-0.4723099241233314,4,left
4.498,0.45327839770557665,0.9595600100931423,0.12981644409960377,3.839395612435448,0.8762153870369216,0.6005626811618797,0.19288350219843864,0.2057544163809153,-0.48485728481636203,4,left
4.499,0.4462418490773346,0.959245966949275,0.12725164901202007,3.8269374631179325,0.8882103118302072,0.6044923704475486,0.20019760869690156,0.21328419640564256,-0.4971788481550059,4,left
4.501,0.43920154491944347,0.9588991555343707,0.124658362971414,3.813579659835849,0.8995132441482959,0.6083535840979025,0.20748546539146334,0.2207029460956504,-0.5092644568695439,4,left
4.502,0.43216134187625793,0.9585194583171149,0.12203861464330491,3.7993327742145517,0.9101263120500075,0.6121275267423816,0.21473952692128792,0.22801262921491147,-0.5211043683281426,4,left
4.507,0.42512509455435965,0.9581068370100271,0.11939451250691284,3.7842066853287406,0.9200516774503471,0.6157955559746539,0.2219523234792546,0.23521498199660104,-0.5326892527685421,4,left
4.508,0.41809664856381606,0.957661333948357,0.1167282421231448,3.768210546519675,0.9292916038918803,0.6193392255908837,0.22911646761401672,0.24231149850604847,-0.5440101911582442,4,left
4.512,0.41107983413824273,0.957183073028306,0.11404206281402096,3.7513527589890896,0.9378485192032461,0.6227403268068832,0.2362246608080119,0.2493034181284549,-0.5550586727171911,4,left
4.512,0.40407846039355866,0.9566722602023132,0.11133830374706277,3.73364095212638,0.945725073073328,0.6259809274646431,0.24326969985212807,0.25619171520207035,-0.5658265921361968,4,left
4.5169999999999995,0.3970963102727564,0.9561291835330282,0.10861935943616845,3.715081970523118,0.9529241895676308,0.629043409238386,0.2502444830375906,0.2629770908172194,-0.5763062465236354,4,left
4.518,0.3901371362078972,0.955554212811429,0.10588768468982154,3.695681867626494,0.9594491146114511,0.6319105028498725,0.2571420161854747,0.2696599668012641,-0.5864903321121078,4,left
4.521,0.3832046565108989,0.9549477987487799,0.1031457890548172,3.675445905980812,0.9653034584624743,0.6345653213022313,0.2639554185340665,0.27624048190929223,-0.5963719407560031,4,left
4.522,0.3763025524833221,0.9543104717561312,0.10039623081579772,3.654378564003737,0.9704912331934874,0.6369913911410748,0.27067792850409417,0.2827184902400268,-0.6059445562500442,4,left
4.525,0.369434466215054,0.95364284032833,0.09764161061829052,3.632483549241579,0.9750168852039579,0.6391726817511,0.2773029093616296,0.2890935618961527,-0.6152020504980603,4,left
4.526,0.3626039990245971,0.952945589052324,0.0948845647871851,3.609763818045485,0.9788853227773091,0.6410936326957649,0.2838238547982186,0.2953649859079661,-0.6241386795603577,4,left
4.531000000000001,0.3558147104801713,0.9522194762622723,0.09212775841477282,3.5862216016080315,0.9821019386987998,0.6427391791069769,0.29023439444753746,0.3015317754389546,-0.6327490796071762,4,left
4.532,0.3490701179317491,0.9514653313661521,0.08937387829379123,3.5618584382973184,0.9846726279470236,0.6440947751310241,0.29652829935759384,0.30759267529162004,-0.6410282628048133,4,left
4.535,0.3423736964810863,0.9506840518692465,0.08662562577015412,3.536675212223312,0.9866038004701506,0.6451464154362376,0.3026994874371907,0.3135461717315588,-0.6489716131600757,4,left
4.5360000000000005,0.3357288793189139,0.9498766001190974,0.08388570958449669,3.510672197968799,0.9879023890561656,0.6458806547870782,0.30874202889505625,0.3193905046475119,-0.6565748823477849,4,left
4.542,0.32913905836125346,0.9490439997953776,0.08115683876169075,3.483849111414971,0.9885758523045003,0.6462846256885132,0.3146501516897075,0.3251236820647934,-0.6638341855451093,4,left
4.543,0.3226075851168928,0.9481873321676092,0.07844171559601935,3.4562051665892883,0.9886321727046247,0.6463460541036756,0.320418247007762,0.33074349702919564,-0.6707459972955327,4,left
4.546,0.3161377717169102,0.9473077321431441,0.07574302876920258,3.427739138460939,0.9880798498253401,0.646053273246887,0.32604087477930566,0.3362475468254326,-0.6773071474190426,4,left
4.546,0.3097328920396007,0.9464063841257945,0.07306344662985725,3.3984494316068155,0.9869278886167309,0.6453952354531771,0.33151276919483996,0.34163325423024554,-0.683514816957873,4,left
4.547,0.30339618287202685,0.945484517701653,0.07040561065735745,3.3683341546686063,0.9851857828249494,0.6443615221244533,0.33682884410927627,0.34689789002545407,-0.6893665340988757,4,left
4.551,0.29713084505732434,0.9445434031662031,0.06777212913397589,3.337391200519214,0.9828634935182722,0.642942351751453,0.34198419817433034,0.3520385957322876,-0.6948601699863288,4,left
4.552,0.29094004457996425,0.9435843469090268,0.06516557105688518,3.305618332054367,0.979971422721135,0.641128586009568,0.3469741195839345,0.3570524057916067,-0.6999939343642322,4,left
4.556,0.28482691354271705,0.9426086866782302,0.06258846032813327,3.273013273522897,0.976520382151164,0.6389117339255492,0.35179409039549225,0.361936268888792,-0.7047663710333874,4,left
4.5569999999999995,0.278794550993761,0.9416177867534805,0.06004327025875709,3.239573807306791,0.9725215570525556,0.6362839541109953,0.35643979043303614,0.3666870683853369,-0.7091763531337877,4,left
4.559,0.2728460235695353,0.9406130330629044,0.05753241841346825,3.2052978759047646,0.9679864652395077,0.6332380550904596,0.36090710078661237,0.37130164187154197,-0.7132230782670632,4,left
4.56,0.26698436592599445,0.9395958282822336,0.055058261809452176,3.1701836880959045,0.9629269120717387,0.6297674939161709,0.3651921069217315,0.37577679985433415,-0.7169060634726879,4,left
4.56,0.2612125809366715,0.9385675869526948,0.05262309247099647,3.1342298268628097,0.9573549431804519,0.6258663735577535,0.3692911014122204,0.3801093435938512,-0.7202251400706159,4,left
4.565,0.25553363964058073,0.9375297306522445,0.05022913333338236,3.097435355876449,0.9512827973715,0.6215294397194502,0.3732005863093009,0.3842960821020416,-0.7231804483819708,4,left
4.566,0.2499504809276117,0.9364836832578467,0.04787853448526503,3.05979992211736,0.9447228615210632,0.6167520775708156,0.37691727515919826,0.38833384831612877,-0.72577243233837,4,left
4.571000000000001,0.24446601095413129,0.9354308663407566,0.045573369739284136,3.0213238536001157,0.9376876281797839,0.611530308578043,0.3804380946810451,0.39221951445937886,-0.7280018339894143,4,left
4.571000000000001,0.2390831022862796,0.9343726947368888,0.04331563352676103,2.9820082519403805,0.9301896559899319,0.6058607874565166,0.3837601861163057,0.39595000660119295,-0.7298696879168406,4,left
4.575,0.23380459277241092,0.9333105723306943,0.041107238122424075,2.9418550796564538,0.9222415328967802,0.59974079923086,0.38688090626039057,0.399522318428116,-0.7313773155627783,4,left
4.5760000000000005,0.22863328414904777,0.9322458880860388,0.03895001121407611,2.900867242094757,0.9138558421340097,0.5931682563874704,0.38979782818657127,0.4029335242369181,-0.7325263194785198,4,left
4.581,0.22357194038624364,0.9311800123531274,0.036845693833457316,2.8590486638663335,0.905045130961629,0.5861416961032468,0.39250874167173017,0.40618079116045946,-0.7333185774991748,4,left
4.582,0.21862328577845938,0.9301142934769241,0.0347959386550029,2.8164043596790176,0.8958218821336045,0.5786602775329261,0.3950116533329082,0.4092613906365941,-0.7337562368485403,4,left
4.585,0.2137900027860459,0.9290500547286551,0.032802308652688725,2.772940499447532,0.8861984880711369,0.5707237791361427,0.3973047864830227,0.4121727091299061,-0.7338417081774912,4,left
4.586,0.20907472963070947,0.9279885915771255,0.030866276090232687,2.728664467561393,0.8761872277163008,0.5623325960240247,0.3993865807135404,0.4149122581156008,-0.7335776595381746,4,left
4.59,0.2044800576479314,0.9269311693110487,0.028989221812773,2.6835849161881296,0.8658002460395784,0.5534877373038349,0.40125569121129134,0.4174776833343951,-0.7329670102952678,4,left
4.59,0.200008528402119,0.9258790210177428,0.027172434808862233,2.6377118124869696,0.8550495361736684,0.5441908233988562,0.40291098781600826,0.4198667733267655,-0.7320129249745522,4,left
4.595,0.19566263057625025,0.9248333459175746,0.0254171120163731,2.591056479605826,0.8439469241448346,0.5344440833194182,0.4043515538245684,0.422077467254418,-0.7307188070480511,4,left
4.596,0.19144479665555833,0.9237953080471053,0.02372435835124767,2.5436316313320977,0.8325040561719844,0.524250351859662,0.405576684547305,0.4241078620163451,-0.7290882926539838,4,left
4.599,0.1873573994327017,0.9227660352762801,0.022095186941915687,2.4954514002655257,0.8207323885026158,0.5136130666933375,0.40658588562114284,0.4259562186663287,-0.7271252442488014,4,left
4.6,0.18340274836866688,0.9217466186364343,0.020530519553595968,2.446531359379113,0.808643179753764,0.5025362653406411,0.4073788710836924,0.4276209681382366,-0.7248337441875975,4,left
4.605,0.1795830858484723,0.92073811192862,0.019031187186946238,2.396888536831889,0.796247485725101,0.4910245819768163,0.4079555612118231,0.42910071628493934,-0.7222180882282133,4,left
4.606,0.17590058337249767,0.9197415315781592,0.01759793083777848,2.3465414238951485,0.7835561566503941,0.47908324405196906,0.4083160801276129,0.4303942482361564,-0.7192827789534106,4,left
4.609,0.17235733772232514,0.9187578567014223,0.016231402409333854,2.2955099758516684,0.7705798368526201,0.4667180686902861,0.4084607531739529,0.43150053208000877,-0.7160325191045384,4,left
4.61,0.1689553671348482,0.9177880293533315,0.014932165773067475,2.243815605725329,0.7573289667671457,0.45393545883559816,0.4083901040614636,0.4324187218725282,-0.7124722048191876,4,left
4.614,0.16569660751137077,0.9168329549280181,0.013700697976170146,2.191481170696551,0.7438137872965417,0.4407423991089964,0.40810485178775874,0.43314815997883577,-0.7086069187644124,4,left
4.614,0.1625829086805812,0.9158935026894711,0.012537390595610228,2.1385309510569925,0.7300443464597737,0.4271464513429931,0.40760590733354135,0.4336883787567429,-0.7044419231632061,4,left
4.615,0.15961603072654498,0.9149705064134873,0.011442551240880346,2.084990621555052,0.7160305082977266,0.413155749755522,0.40689437015972957,0.4340391016308728,-0.6999826527461112,4,left
4.618,0.15679764038705457,0.9140647651277152,0.010416405208743785,2.0308872149818913,0.7017819639962579,0.3987789957258923,0.40597152456579644,0.43420024367304855,-0.6952347077221057,4,left
4.619,0.15412930752532142,0.9131770439430626,0.009459097289947564,1.9762490778459074,0.6873082451872455,0.3840254521336594,0.4048388359892262,0.4341719118420359,-0.6902038468971293,4,left
4.625,0.15161250167731777,0.9123080749754332,0.008570693720681744,1.9211058179819251,0.6726187393873938,0.3689049372202364,0.4034979473050468,0.4339544049973015,-0.6848959810326847,4,left
4.626,0.14924858867470925,0.9114585583606637,0.007751184262829368,1.865488243939731,0.6577227075338847,0.3534278179319678,0.40195067514719124,0.43354821373270935,-0.6793171664729845,4,left
4.631,0.14703882733861603,0.9106291633688022,0.007000484387773446,1.8094282959950558,0.6426293035753158,0.33760500270230276,0.400199006252504,0.4329540200376534,-0.6734735990332177,4,left
4.632,0.14498436623450675,0.9098205296271479,0.006318437530165352,1.7529589686246658,0.6273475960757462,0.32144793362965335,0.3982450938235441,0.43217269678500075,-0.6673716081337022,4,left
4.633,0.14308624047613108,0.9090332684630122,0.005704817373395531,1.6961142245143872,0.6118865917347206,0.3049685780087572,0.39609125390574434,0.4312053070446809,-0.6610176511639086,4,left
4.6339999999999995,0.14134536856805635,0.9082679643753847,0.005159330129777718,1.6389289013103305,0.5962552604537852,0.288179419183661,0.39373996177389947,0.43005310322121565,-0.6544183080595833,4,left
4.6339999999999995,0.13976254928079174,0.9075251766412269,0.0046816167848627716,1.581438614379261,0.5804625610902541,0.27109344670980334,0.3911938483223749,0.4287175260129476,-0.6475802760754547,4,left
4.64,0.13833845855759194,0.9068054410597787,0.004271255281684436,1.5236796599856732,0.5645174667666781,0.2537241458230374,0.3884556964528541,0.4272002031901912,-0.6405103647352841,4,left
4.641,0.13707364645723238,0.9061092718372218,0.003927762622492549,1.465688922149464,0.54842898887577,0.236085486201259,0.3855284374528756,0.4255029481889986,-0.6332154909403174,4,left
4.643,0.1359685341418468,0.9054371636124037,0.003650596864686867,1.407503784390359,0.5322061994092895,0.21819190998313165,0.38241514735785154,0.4236277585167082,-0.6257026742165065,4,left
4.644,0.13502341092261017,0.9047895936217132,0.0034391589890968967,1.3491620464217937,0.5158582515107477,0.2000583189962988,0.37911904328870794,0.4215768139649196,-0.6179790320802094,4,left
