time,gFx,gFy,gFz,ax,ay,az,wx,wy,wz
0.039,0.01,0.9965,-0.0883,0,0,0,0,0,0
0.04,0.0078,0.9974,-0.0839,0,0,0,0,0,0
0.04,0.0068,1.0001,-0.0771,0,0,0,0,0,0
0.04,0.0032,1.0001,-0.0708,0,0,0,0,0,0
0.04,-0.0022,0.9996,-0.0651,0,0,0,0,0,0
0.04,-0.0002,0.9992,-0.0605,0,0,0,0,0,0
0.041,0.0005,0.9989,-0.0576,0,0,0,0,0,0
0.055,0.0227,0.9928,-0.0563,0,0,0,0,0,0
0.057,0.0222,0.9933,-0.0571,0,0,0,0,0,0
0.057,0.0215,0.9957,-0.0559,0,0,0,0,0,0
0.058,0.0173,0.996,-0.0568,0,0,0,0,0,0
0.058,0.0166,0.9948,-0.0585,0,0,0,0,0,0
0.065,0.0147,0.9933,-0.06,0,0,0,0,0,0
0.065,0.0112,0.9906,-0.0607,0,0,0,0,0,0
0.069,0.0081,0.9891,-0.062,0,0,0,0,0,0
0.07,0.0032,0.9864,-0.0617,0,0,0,0,0,0
0.072,0.0007,0.9869,-0.0637,0,0,0,0,0,0
0.073,-0.0027,0.9872,-0.0659,0,0,0,0,0,0
0.077,-0.0044,0.9864,-0.0676,0,0,0,0,0,0
0.077,-0.0056,0.9864,-0.0695,0,0,0,0,0,0
0.082,-0.0071,0.9867,-0.0734,0,0,0,0,0,0
0.083,-0.0039,0.985,-0.0754,0,0,0,0,0,0
0.087,-0.0056,0.9845,-0.0766,0,0,0,0,0,0
0.088,-0.0078,0.9847,-0.073,0,0,0,0,0,0
0.093,-0.0073,0.9821,-0.0742,0,0,0,0,0,0
0.094,-0.0095,0.9852,-0.0778,0,0,0,0,0,0
0.097,-0.0115,0.9852,-0.0805,0,0,0,0,0,0
0.098,-0.0147,0.986,-0.0847,0,0,0,0,0,0
0.101,-0.0127,0.9886,-0.0879,0,0,0,0,0,0
0.101,-0.011,0.9896,-0.0891,0,0,0,0,0,0
0.107,-0.0112,0.9906,-0.0881,0,0,0,0,0,0
0.107,-0.011,0.9926,-0.0859,0,0,0,0,0,0
0.111,-0.0105,0.9908,-0.0822,0,0,0,0,0,0
0.111,-0.0122,0.9889,-0.0791,0,0,0,0,0,0
0.117,-0.0122,0.9872,-0.0703,0,0,0,0,0,0
0.117,-0.0159,0.9838,-0.0603,0,0,0,0,0,0
0.121,-0.0181,0.9838,-0.0529,0,0,0,0,0,0
0.121,-0.0191,0.9801,-0.0471,0,0,0,0,0,0
0.126,-0.0225,0.9818,-0.0373,0,0,0,0,0,0
0.127,-0.0208,0.983,-0.0331,0,0,0,0,0,0
0.131,-0.02,0.9877,-0.0314,0,0,0,0,0,0
0.132,-0.0183,0.9894,-0.0278,0,0,0,0,0,0
0.136,-0.0147,0.9899,-0.0241,0,0,0,0,0,0
0.137,-0.013,0.9901,-0.0204,0,0,0,0,0,0
0.14,-0.011,0.9879,-0.0163,0,0,0,0,0,0
0.141,-0.0112,0.9843,-0.0085,0,0,0,0,0,0
0.147,-0.0127,0.9801,0.0028,0,0,0,0,0,0
0.147,-0.0151,0.9747,0.0099,0,0,0,0,0,0
0.151,-0.0178,0.9708,0.0145,0,0,0,0,0,0
0.151,-0.0213,0.9691,0.0167,0,0,0,0,0,0
0.156,-0.022,0.9657,0.0157,0,0,0,0,0,0
0.156,-0.0225,0.9662,0.0138,0,0,0,0,0,0
0.16,-0.0237,0.9676,0.0118,0,0,0,0,0,0
0.161,-0.0239,0.9671,0.0121,0,0,0,0,0,0
0.165,-0.0274,0.9662,0.0103,0,0,0,0,0,0
0.166,-0.0315,0.9669,0.0118,0,0,0,0,0,0
0.172,-0.0315,0.9669,0.0118,0,0,0,0.0349,-0.0401,0.0149
0.172,-0.0366,0.9696,0.0101,0,0,0,0.0349,-0.0401,0.0149
0.173,-0.0418,0.9703,0.0086,0,0,0,0.0349,-0.0401,0.0149
0.175,-0.044,0.9723,0.0023,0,0,0,0.0349,-0.0401,0.0149
0.176,-0.0464,0.9764,-0.0036,0,0,0,0.0349,-0.0401,0.0149
0.182,-0.0459,0.9806,-0.0163,0,0,0,0.0349,-0.0401,0.0149
0.183,-0.0413,0.9823,-0.0317,0,0,0,0.0349,-0.0401,0.0149
0.185,-0.0349,0.9877,-0.0454,0,0,0,0.0349,-0.0401,0.0149
0.185,-0.0281,0.9916,-0.0595,0,0,0,0.0349,-0.0401,0.0149
0.189,-0.0244,0.9977,-0.069,0,0,0,0.0349,-0.0401,0.0149
0.191,-0.022,1.0031,-0.0778,0,0,0,0.0349,-0.0401,0.0149
0.194,-0.0222,1.0094,-0.0866,0,0,0,0.0349,-0.0401,0.0149
0.195,-0.0193,1.0128,-0.0942,0,0,0,0.0349,-0.0401,0.0149
0.2,-0.0147,1.017,-0.1052,0,0,0,0.0349,-0.0401,0.0149
0.2,-0.0061,1.0204,-0.1162,0,0,0,0.0349,-0.0401,0.0149
0.204,0.0066,1.0233,-0.1299,0,0,0,0.0349,-0.0401,0.0149
0.205,0.0117,1.0248,-0.1455,0,0,0,0.0349,-0.0401,0.0149
0.209,0.0154,1.0263,-0.1594,0,0,0,0.0349,-0.0401,0.0149
0.209,0.0225,1.027,-0.1704,0,0,0,0.0349,-0.0401,0.0149
0.216,0.0274,1.0285,-0.1819,0,0,0,0.0349,-0.0401,0.0149
0.217,0.033,1.028,-0.1888,0,0,0,0.0349,-0.0401,0.0149
0.219,0.0393,1.0272,-0.1958,0,0,0,0.0349,-0.0401,0.0149
0.22,0.0445,1.0258,-0.2022,0,0,0,0.0349,-0.0401,0.0149
0.226,0.0498,1.0226,-0.21,0,0,0,0.0349,-0.0401,0.0149
0.226,0.0562,1.0238,-0.2146,0,0,0,0.0349,-0.0401,0.0149
0.228,0.0594,1.0224,-0.2212,0,0,0,0.0349,-0.0401,0.0149
0.229,0.0623,1.0194,-0.2249,0,0,0,0.0349,-0.0401,0.0149
0.234,0.0655,1.0219,-0.2266,0,0,0,0.0349,-0.0401,0.0149
0.235,0.0684,1.0192,-0.2283,0,0,0,0.0349,-0.0401,0.0149
0.239,0.0696,1.0158,-0.2291,0,0,0,0.0349,-0.0401,0.0149
0.239,0.0696,1.0158,-0.2291,0,0,0,0.057,0.0341,0.0455
0.24,0.0726,1.0143,-0.2217,0,0,0,0.057,0.0341,0.0455
0.243,0.0752,1.0114,-0.2193,0,0,0,0.057,0.0341,0.0455
0.244,0.0752,1.0114,-0.2193,-0.1143,-0.0505,0.2809,0.057,0.0341,0.0455
0.245,0.0762,1.0106,-0.2154,-0.1143,-0.0505,0.2809,0.057,0.0341,0.0455
0.249,0.0791,1.0089,-0.2132,-0.1143,-0.0505,0.2809,0.057,0.0341,0.0455
0.25,0.0801,1.0099,-0.2103,-0.1143,-0.0505,0.2809,0.057,0.0341,0.0455
0.253,0.0835,1.0106,-0.2061,-0.1143,-0.0505,0.2809,0.057,0.0341,0.0455
0.254,0.0875,1.0133,-0.2024,-0.1143,-0.0505,0.2809,0.057,0.0341,0.0455
0.259,0.0875,1.0131,-0.1973,-0.1143,-0.0505,0.2809,0.057,0.0341,0.0455
0.26,0.0906,1.0143,-0.199,-0.1143,-0.0505,0.2809,0.057,0.0341,0.0455
0.263,0.0916,1.0167,-0.187,-0.1143,-0.0505,0.2809,0.057,0.0341,0.0455
0.264,0.0938,1.0172,-0.1851,-0.1143,-0.0505,0.2809,0.057,0.0341,0.0455
0.269,0.0923,1.016,-0.1812,-0.1143,-0.0505,0.2809,0.057,0.0341,0.0455
0.27,0.095,1.0155,-0.1765,-0.1143,-0.0505,0.2809,0.057,0.0341,0.0455
0.273,0.0975,1.0155,-0.1714,-0.1143,-0.0505,0.2809,0.057,0.0341,0.0455
0.273,0.0963,1.0153,-0.1668,-0.1143,-0.0505,0.2809,0.057,0.0341,0.0455
0.277,0.0987,1.0153,-0.1619,-0.1143,-0.0505,0.2809,0.057,0.0341,0.0455
0.277,0.0975,1.0131,-0.1558,-0.1143,-0.0505,0.2809,0.057,0.0341,0.0455
0.283,0.0987,1.0148,-0.148,-0.1143,-0.0505,0.2809,0.057,0.0341,0.0455
0.284,0.0953,1.015,-0.1367,-0.1143,-0.0505,0.2809,0.057,0.0341,0.0455
0.287,0.0916,1.0141,-0.1338,-0.1143,-0.0505,0.2809,0.057,0.0341,0.0455
0.288,0.084,1.0133,-0.1289,-0.1143,-0.0505,0.2809,0.057,0.0341,0.0455
0.294,0.0806,1.0141,-0.1235,-0.1143,-0.0505,0.2809,0.057,0.0341,0.0455
0.294,0.075,1.0145,-0.125,-0.1143,-0.0505,0.2809,0.057,0.0341,0.0455
0.297,0.074,1.0123,-0.1243,-0.1143,-0.0505,0.2809,0.057,0.0341,0.0455
0.298,0.0726,1.0126,-0.1265,-0.1143,-0.0505,0.2809,0.057,0.0341,0.0455
0.305,0.0706,1.0094,-0.1267,-0.1143,-0.0505,0.2809,0.057,0.0341,0.0455
0.306,0.0699,1.0104,-0.1279,-0.1143,-0.0505,0.2809,0.057,0.0341,0.0455
0.306,0.0699,1.0104,-0.1279,-0.1143,-0.0505,0.2809,-0.0903,0.0369,-0.0429
0.307,0.0662,1.0082,-0.1277,-0.1143,-0.0505,0.2809,-0.0903,0.0369,-0.0429
0.307,0.0672,1.0084,-0.1301,-0.1143,-0.0505,0.2809,-0.0903,0.0369,-0.0429
0.311,0.0672,1.0084,-0.1301,0.1858,0.201,-0.6919,-0.0903,0.0369,-0.0429
0.313,0.0677,1.0062,-0.1318,0.1858,0.201,-0.6919,-0.0903,0.0369,-0.0429
0.313,0.0682,1.0075,-0.1313,0.1858,0.201,-0.6919,-0.0903,0.0369,-0.0429
0.317,0.0679,1.0079,-0.1313,0.1858,0.201,-0.6919,-0.0903,0.0369,-0.0429
0.317,0.0667,1.004,-0.1335,0.1858,0.201,-0.6919,-0.0903,0.0369,-0.0429
0.321,0.065,1.0036,-0.1313,0.1858,0.201,-0.6919,-0.0903,0.0369,-0.0429
0.322,0.0606,1.0009,-0.1323,0.1858,0.201,-0.6919,-0.0903,0.0369,-0.0429
0.326,0.055,1.0014,-0.1343,0.1858,0.201,-0.6919,-0.0903,0.0369,-0.0429
0.327,0.054,1.0014,-0.1345,0.1858,0.201,-0.6919,-0.0903,0.0369,-0.0429
0.331,0.0471,1.0016,-0.1362,0.1858,0.201,-0.6919,-0.0903,0.0369,-0.0429
0.332,0.0415,0.9984,-0.1365,0.1858,0.201,-0.6919,-0.0903,0.0369,-0.0429
0.336,0.0364,0.9984,-0.135,0.1858,0.201,-0.6919,-0.0903,0.0369,-0.0429
0.337,0.0313,0.9984,-0.1355,0.1858,0.201,-0.6919,-0.0903,0.0369,-0.0429
0.341,0.0254,0.997,-0.1287,0.1858,0.201,-0.6919,-0.0903,0.0369,-0.0429
0.342,0.0151,0.9977,-0.1233,0.1858,0.201,-0.6919,-0.0903,0.0369,-0.0429
0.348,0.0046,0.9996,-0.1182,0.1858,0.201,-0.6919,-0.0903,0.0369,-0.0429
0.349,-0.0081,1.0021,-0.1133,0.1858,0.201,-0.6919,-0.0903,0.0369,-0.0429
0.351,-0.0169,1.0099,-0.1096,0.1858,0.201,-0.6919,-0.0903,0.0369,-0.0429
0.351,-0.0235,1.0133,-0.1064,0.1858,0.201,-0.6919,-0.0903,0.0369,-0.0429
0.356,-0.0286,1.0145,-0.1064,0.1858,0.201,-0.6919,-0.0903,0.0369,-0.0429
0.358,-0.0281,1.0158,-0.1076,0.1858,0.201,-0.6919,-0.0903,0.0369,-0.0429
0.36,-0.0274,1.018,-0.1096,0.1858,0.201,-0.6919,-0.0903,0.0369,-0.0429
0.361,-0.0279,1.0221,-0.1111,0.1858,0.201,-0.6919,-0.0903,0.0369,-0.0429
0.365,-0.0303,1.0238,-0.1108,0.1858,0.201,-0.6919,-0.0903,0.0369,-0.0429
0.366,-0.0279,1.0211,-0.1116,0.1858,0.201,-0.6919,-0.0903,0.0369,-0.0429
0.37,-0.0274,1.0194,-0.1108,0.1858,0.201,-0.6919,-0.0903,0.0369,-0.0429
0.371,-0.0305,1.0141,-0.1076,0.1858,0.201,-0.6919,-0.0903,0.0369,-0.0429
0.376,-0.041,1.0116,-0.1091,0.1858,0.201,-0.6919,-0.0903,0.0369,-0.0429
0.376,-0.041,1.0116,-0.1091,0.1858,0.201,-0.6919,-0.193,-0.0257,-0.1346
0.377,-0.063,1.0104,-0.1079,0.1858,0.201,-0.6919,-0.193,-0.0257,-0.1346
0.38,-0.1109,1.0043,-0.1125,0.1858,0.201,-0.6919,-0.193,-0.0257,-0.1346
0.381,-0.1109,1.0043,-0.1125,0.6328,0.136,-0.6148,-0.193,-0.0257,-0.1346
0.382,-0.1578,0.995,-0.1431,0.6328,0.136,-0.6148,-0.193,-0.0257,-0.1346
0.386,-0.1124,0.9911,-0.0881,0.6328,0.136,-0.6148,-0.193,-0.0257,-0.1346
0.386,-0.0655,0.997,-0.0397,0.6328,0.136,-0.6148,-0.193,-0.0257,-0.1346
0.391,-0.0621,1.005,-0.0317,0.6328,0.136,-0.6148,-0.193,-0.0257,-0.1346
0.392,-0.0904,1.0077,-0.0449,0.6328,0.136,-0.6148,-0.193,-0.0257,-0.1346
0.395,-0.1207,1.0104,-0.0666,0.6328,0.136,-0.6148,-0.193,-0.0257,-0.1346
0.396,-0.1309,1.0067,-0.0781,0.6328,0.136,-0.6148,-0.193,-0.0257,-0.1346
0.399,-0.1229,1.0023,-0.082,0.6328,0.136,-0.6148,-0.193,-0.0257,-0.1346
0.4,-0.1119,0.9992,-0.0861,0.6328,0.136,-0.6148,-0.193,-0.0257,-0.1346
0.405,-0.1058,1.0057,-0.0839,0.6328,0.136,-0.6148,-0.193,-0.0257,-0.1346
0.405,-0.1002,1.0094,-0.0827,0.6328,0.136,-0.6148,-0.193,-0.0257,-0.1346
0.41,-0.0889,1.0165,-0.0796,0.6328,0.136,-0.6148,-0.193,-0.0257,-0.1346
0.41,-0.0799,1.0155,-0.0742,0.6328,0.136,-0.6148,-0.193,-0.0257,-0.1346
0.414,-0.0682,1.016,-0.0695,0.6328,0.136,-0.6148,-0.193,-0.0257,-0.1346
0.415,-0.0616,1.0177,-0.0647,0.6328,0.136,-0.6148,-0.193,-0.0257,-0.1346
0.419,-0.0513,1.0141,-0.0629,0.6328,0.136,-0.6148,-0.193,-0.0257,-0.1346
0.42,-0.0435,1.0131,-0.0632,0.6328,0.136,-0.6148,-0.193,-0.0257,-0.1346
0.425,-0.032,1.007,-0.0647,0.6328,0.136,-0.6148,-0.193,-0.0257,-0.1346
0.425,-0.0215,1.0053,-0.0634,0.6328,0.136,-0.6148,-0.193,-0.0257,-0.1346
0.428,-0.0093,1.0077,-0.0637,0.6328,0.136,-0.6148,-0.193,-0.0257,-0.1346
0.429,-0.0007,1.0065,-0.0637,0.6328,0.136,-0.6148,-0.193,-0.0257,-0.1346
0.435,0.0056,1.0089,-0.0605,0.6328,0.136,-0.6148,-0.193,-0.0257,-0.1346
0.435,0.0112,1.0104,-0.0617,0.6328,0.136,-0.6148,-0.193,-0.0257,-0.1346
0.438,0.0156,1.0114,-0.0566,0.6328,0.136,-0.6148,-0.193,-0.0257,-0.1346
0.439,0.0171,1.0133,-0.0549,0.6328,0.136,-0.6148,-0.193,-0.0257,-0.1346
0.444,0.0142,1.0109,-0.0541,0.6328,0.136,-0.6148,-0.193,-0.0257,-0.1346
0.445,0.0142,1.0109,-0.0541,0.6328,0.136,-0.6148,-0.258,-0.215,-0.0512
0.445,0.0151,1.0097,-0.051,0.6328,0.136,-0.6148,-0.258,-0.215,-0.0512
0.449,0.0147,1.0101,-0.0468,0.6328,0.136,-0.6148,-0.258,-0.215,-0.0512
0.449,0.0147,1.0101,-0.0468,-0.1058,0.0557,-0.3115,-0.258,-0.215,-0.0512
0.45,0.0156,1.0082,-0.0434,-0.1058,0.0557,-0.3115,-0.258,-0.215,-0.0512
0.454,0.0178,1.0062,-0.0397,-0.1058,0.0557,-0.3115,-0.258,-0.215,-0.0512
0.455,0.0188,1.0079,-0.037,-0.1058,0.0557,-0.3115,-0.258,-0.215,-0.0512
0.458,0.0215,1.0075,-0.0356,-0.1058,0.0557,-0.3115,-0.258,-0.215,-0.0512
0.459,0.0244,1.0067,-0.0341,-0.1058,0.0557,-0.3115,-0.258,-0.215,-0.0512
0.464,0.0264,1.0067,-0.037,-0.1058,0.0557,-0.3115,-0.258,-0.215,-0.0512
0.465,0.0313,1.005,-0.0392,-0.1058,0.0557,-0.3115,-0.258,-0.215,-0.0512
0.471,0.0347,1.0055,-0.0412,-0.1058,0.0557,-0.3115,-0.258,-0.215,-0.0512
0.471,0.042,1.0057,-0.0432,-0.1058,0.0557,-0.3115,-0.258,-0.215,-0.0512
0.473,0.0447,1.0043,-0.0471,-0.1058,0.0557,-0.3115,-0.258,-0.215,-0.0512
0.474,0.0513,1.0026,-0.0502,-0.1058,0.0557,-0.3115,-0.258,-0.215,-0.0512
0.477,0.0596,1.0036,-0.0544,-0.1058,0.0557,-0.3115,-0.258,-0.215,-0.0512
0.477,0.062,1.0038,-0.0595,-0.1058,0.0557,-0.3115,-0.258,-0.215,-0.0512
0.483,0.0691,1.0045,-0.0627,-0.1058,0.0557,-0.3115,-0.258,-0.215,-0.0512
0.483,0.0755,1.0092,-0.0693,-0.1058,0.0557,-0.3115,-0.258,-0.215,-0.0512
0.488,0.0806,1.0111,-0.073,-0.1058,0.0557,-0.3115,-0.258,-0.215,-0.0512
0.488,0.0853,1.0158,-0.0783,-0.1058,0.0557,-0.3115,-0.258,-0.215,-0.0512
0.493,0.0897,1.0165,-0.0832,-0.1058,0.0557,-0.3115,-0.258,-0.215,-0.0512
0.494,0.0923,1.0177,-0.0866,-0.1058,0.0557,-0.3115,-0.258,-0.215,-0.0512
0.498,0.096,1.0187,-0.0908,-0.1058,0.0557,-0.3115,-0.258,-0.215,-0.0512
0.498,0.1006,1.0167,-0.0954,-0.1058,0.0557,-0.3115,-0.258,-0.215,-0.0512
0.503,0.1038,1.0165,-0.0979,-0.1058,0.0557,-0.3115,-0.258,-0.215,-0.0512
0.504,0.1068,1.0153,-0.1008,-0.1058,0.0557,-0.3115,-0.258,-0.215,-0.0512
0.507,0.1107,1.0163,-0.1067,-0.1058,0.0557,-0.3115,-0.258,-0.215,-0.0512
0.508,0.1138,1.0175,-0.1089,-0.1058,0.0557,-0.3115,-0.258,-0.215,-0.0512
0.513,0.1187,1.0163,-0.1111,-0.1058,0.0557,-0.3115,-0.258,-0.215,-0.0512
0.514,0.1187,1.0163,-0.1111,-0.1058,0.0557,-0.3115,-0.2779,-0.2468,-0.0871
0.515,0.1239,1.0185,-0.1147,-0.1058,0.0557,-0.3115,-0.2779,-0.2468,-0.0871
0.518,0.128,1.017,-0.1177,-0.1058,0.0557,-0.3115,-0.2779,-0.2468,-0.0871
0.518,0.128,1.017,-0.1177,-0.4281,0.0438,0.0653,-0.2779,-0.2468,-0.0871
0.519,0.1329,1.0207,-0.1221,-0.4281,0.0438,0.0653,-0.2779,-0.2468,-0.0871
0.522,0.1412,1.0187,-0.1247,-0.4281,0.0438,0.0653,-0.2779,-0.2468,-0.0871
0.523,0.149,1.0214,-0.1287,-0.4281,0.0438,0.0653,-0.2779,-0.2468,-0.0871
0.527,0.1568,1.0236,-0.1304,-0.4281,0.0438,0.0653,-0.2779,-0.2468,-0.0871
0.527,0.1642,1.0241,-0.1328,-0.4281,0.0438,0.0653,-0.2779,-0.2468,-0.0871
0.532,0.1732,1.0263,-0.1355,-0.4281,0.0438,0.0653,-0.2779,-0.2468,-0.0871
0.532,0.1818,1.0275,-0.1384,-0.4281,0.0438,0.0653,-0.2779,-0.2468,-0.0871
0.538,0.1896,1.0285,-0.1414,-0.4281,0.0438,0.0653,-0.2779,-0.2468,-0.0871
0.538,0.1986,1.0309,-0.144,-0.4281,0.0438,0.0653,-0.2779,-0.2468,-0.0871
0.541,0.2055,1.0321,-0.1467,-0.4281,0.0438,0.0653,-0.2779,-0.2468,-0.0871
0.542,0.214,1.0326,-0.144,-0.4281,0.0438,0.0653,-0.2779,-0.2468,-0.0871
0.548,0.2196,1.0346,-0.1455,-0.4281,0.0438,0.0653,-0.2779,-0.2468,-0.0871
0.549,0.2296,1.0329,-0.1455,-0.4281,0.0438,0.0653,-0.2779,-0.2468,-0.0871
0.552,0.2389,1.0348,-0.1428,-0.4281,0.0438,0.0653,-0.2779,-0.2468,-0.0871
0.553,0.2462,1.0346,-0.1428,-0.4281,0.0438,0.0653,-0.2779,-0.2468,-0.0871
0.555,0.2582,1.0385,-0.1362,-0.4281,0.0438,0.0653,-0.2779,-0.2468,-0.0871
0.556,0.2646,1.0402,-0.1313,-0.4281,0.0438,0.0653,-0.2779,-0.2468,-0.0871
0.561,0.2687,1.0429,-0.1277,-0.4281,0.0438,0.0653,-0.2779,-0.2468,-0.0871
0.561,0.2746,1.0461,-0.1201,-0.4281,0.0438,0.0653,-0.2779,-0.2468,-0.0871
0.565,0.277,1.0507,-0.1174,-0.4281,0.0438,0.0653,-0.2779,-0.2468,-0.0871
0.566,0.2812,1.0512,-0.1103,-0.4281,0.0438,0.0653,-0.2779,-0.2468,-0.0871
0.571,0.2844,1.0536,-0.102,-0.4281,0.0438,0.0653,-0.2779,-0.2468,-0.0871
0.572,0.2888,1.0534,-0.0918,-0.4281,0.0438,0.0653,-0.2779,-0.2468,-0.0871
0.575,0.2924,1.0522,-0.0744,-0.4281,0.0438,0.0653,-0.2779,-0.2468,-0.0871
0.576,0.2951,1.0475,-0.0554,-0.4281,0.0438,0.0653,-0.2779,-0.2468,-0.0871
0.582,0.2951,1.0475,-0.0554,-0.4281,0.0438,0.0653,-0.4165,-0.4279,-0.4009
0.583,0.2983,1.0426,-0.0353,-0.4281,0.0438,0.0653,-0.4165,-0.4279,-0.4009
0.584,0.2958,1.0375,-0.0124,-0.4281,0.0438,0.0653,-0.4165,-0.4279,-0.4009
0.586,0.2958,1.0375,-0.0124,0.7404,0.0513,-0.1889,-0.4165,-0.4279,-0.4009
0.587,0.2973,1.0324,0.0084,0.7404,0.0513,-0.1889,-0.4165,-0.4279,-0.4009
0.587,0.2932,1.028,0.0299,0.7404,0.0513,-0.1889,-0.4165,-0.4279,-0.4009
0.59,0.2897,1.026,0.0497,0.7404,0.0513,-0.1889,-0.4165,-0.4279,-0.4009
0.591,0.2836,1.0238,0.0697,0.7404,0.0513,-0.1889,-0.4165,-0.4279,-0.4009
0.594,0.2753,1.0243,0.0861,0.7404,0.0513,-0.1889,-0.4165,-0.4279,-0.4009
0.595,0.2668,1.0285,0.0924,0.7404,0.0513,-0.1889,-0.4165,-0.4279,-0.4009
0.599,0.2541,1.0343,0.1042,0.7404,0.0513,-0.1889,-0.4165,-0.4279,-0.4009
0.6,0.248,1.0436,0.1068,0.7404,0.0513,-0.1889,-0.4165,-0.4279,-0.4009
0.605,0.2389,1.0527,0.1061,0.7404,0.0513,-0.1889,-0.4165,-0.4279,-0.4009
0.606,0.2343,1.0595,0.1105,0.7404,0.0513,-0.1889,-0.4165,-0.4279,-0.4009
0.61,0.2299,1.0668,0.1105,0.7404,0.0513,-0.1889,-0.4165,-0.4279,-0.4009
0.611,0.2265,1.07,0.1108,0.7404,0.0513,-0.1889,-0.4165,-0.4279,-0.4009
0.615,0.2218,1.0761,0.1137,0.7404,0.0513,-0.1889,-0.4165,-0.4279,-0.4009
0.616,0.2145,1.0756,0.1181,0.7404,0.0513,-0.1889,-0.4165,-0.4279,-0.4009
0.619,0.2089,1.0749,0.1261,0.7404,0.0513,-0.1889,-0.4165,-0.4279,-0.4009
0.619,0.1984,1.0732,0.1274,0.7404,0.0513,-0.1889,-0.4165,-0.4279,-0.4009
0.626,0.1896,1.0698,0.1308,0.7404,0.0513,-0.1889,-0.4165,-0.4279,-0.4009
0.626,0.1764,1.0668,0.1276,0.7404,0.0513,-0.1889,-0.4165,-0.4279,-0.4009
0.629,0.1642,1.0614,0.1244,0.7404,0.0513,-0.1889,-0.4165,-0.4279,-0.4009
0.63,0.1512,1.0585,0.1225,0.7404,0.0513,-0.1889,-0.4165,-0.4279,-0.4009
0.633,0.1366,1.0575,0.122,0.7404,0.0513,-0.1889,-0.4165,-0.4279,-0.4009
0.634,0.1221,1.0605,0.1217,0.7404,0.0513,-0.1889,-0.4165,-0.4279,-0.4009
0.639,0.1053,1.0641,0.1257,0.7404,0.0513,-0.1889,-0.4165,-0.4279,-0.4009
0.64,0.085,1.0698,0.1274,0.7404,0.0513,-0.1889,-0.4165,-0.4279,-0.4009
0.644,0.065,1.0805,0.1252,0.7404,0.0513,-0.1889,-0.4165,-0.4279,-0.4009
0.645,0.0457,1.0898,0.1191,0.7404,0.0513,-0.1889,-0.4165,-0.4279,-0.4009
0.648,0.0266,1.0956,0.1122,0.7404,0.0513,-0.1889,-0.4165,-0.4279,-0.4009
0.648,0.0266,1.0956,0.1122,0.7404,0.0513,-0.1889,-0.4563,-0.4748,-0.8967
0.649,0.0046,1.1013,0.1076,0.7404,0.0513,-0.1889,-0.4563,-0.4748,-0.8967
0.654,0.0046,1.1013,0.1076,2.3627,0.2566,-0.7367,-0.4563,-0.4748,-0.8967
0.654,-0.0132,1.1059,0.099,2.3627,0.2566,-0.7367,-0.4563,-0.4748,-0.8967
0.654,-0.0347,1.1069,0.0963,2.3627,0.2566,-0.7367,-0.4563,-0.4748,-0.8967
0.662,-0.0533,1.1069,0.0932,2.3627,0.2566,-0.7367,-0.4563,-0.4748,-0.8967
0.663,-0.0723,1.102,0.0929,2.3627,0.2566,-0.7367,-0.4563,-0.4748,-0.8967
0.663,-0.0867,1.0971,0.0922,2.3627,0.2566,-0.7367,-0.4563,-0.4748,-0.8967
0.664,-0.1041,1.091,0.0917,2.3627,0.2566,-0.7367,-0.4563,-0.4748,-0.8967
0.669,-0.1224,1.0886,0.0949,2.3627,0.2566,-0.7367,-0.4563,-0.4748,-0.8967
0.67,-0.1353,1.081,0.0959,2.3627,0.2566,-0.7367,-0.4563,-0.4748,-0.8967
0.673,-0.149,1.0737,0.1005,2.3627,0.2566,-0.7367,-0.4563,-0.4748,-0.8967
0.673,-0.1603,1.0717,0.1029,2.3627,0.2566,-0.7367,-0.4563,-0.4748,-0.8967
0.678,-0.1737,1.068,0.1,2.3627,0.2566,-0.7367,-0.4563,-0.4748,-0.8967
0.679,-0.1815,1.0663,0.0978,2.3627,0.2566,-0.7367,-0.4563,-0.4748,-0.8967
0.683,-0.1898,1.0666,0.0963,2.3627,0.2566,-0.7367,-0.4563,-0.4748,-0.8967
0.684,-0.1971,1.0658,0.0932,2.3627,0.2566,-0.7367,-0.4563,-0.4748,-0.8967
0.688,-0.2045,1.0663,0.0915,2.3627,0.2566,-0.7367,-0.4563,-0.4748,-0.8967
0.689,-0.2079,1.0668,0.0868,2.3627,0.2566,-0.7367,-0.4563,-0.4748,-0.8967
0.692,-0.2121,1.0678,0.0858,2.3627,0.2566,-0.7367,-0.4563,-0.4748,-0.8967
0.693,-0.2155,1.0673,0.0792,2.3627,0.2566,-0.7367,-0.4563,-0.4748,-0.8967
0.698,-0.2194,1.069,0.0731,2.3627,0.2566,-0.7367,-0.4563,-0.4748,-0.8967
0.699,-0.2245,1.0651,0.0658,2.3627,0.2566,-0.7367,-0.4563,-0.4748,-0.8967
0.702,-0.2284,1.0597,0.0565,2.3627,0.2566,-0.7367,-0.4563,-0.4748,-0.8967
0.702,-0.2311,1.0527,0.0507,2.3627,0.2566,-0.7367,-0.4563,-0.4748,-0.8967
0.707,-0.2335,1.0485,0.0443,2.3627,0.2566,-0.7367,-0.4563,-0.4748,-0.8967
0.708,-0.2377,1.0487,0.0355,2.3627,0.2566,-0.7367,-0.4563,-0.4748,-0.8967
0.712,-0.2348,1.05,0.0287,2.3627,0.2566,-0.7367,-0.4563,-0.4748,-0.8967
0.712,-0.2304,1.0483,0.025,2.3627,0.2566,-0.7367,-0.4563,-0.4748,-0.8967
0.718,-0.2267,1.0448,0.0233,2.3627,0.2566,-0.7367,-0.4563,-0.4748,-0.8967
0.719,-0.2267,1.0448,0.0233,2.3627,0.2566,-0.7367,-0.3912,-0.0452,-1.0288
0.719,-0.2218,1.0417,0.0231,2.3627,0.2566,-0.7367,-0.3912,-0.0452,-1.0288
0.723,-0.2167,1.0363,0.0248,2.3627,0.2566,-0.7367,-0.3912,-0.0452,-1.0288
0.723,-0.2184,1.0277,0.0231,2.3627,0.2566,-0.7367,-0.3912,-0.0452,-1.0288
0.725,-0.2184,1.0277,0.0231,2.0349,0.4923,0.9786,-0.3912,-0.0452,-1.0288
0.728,-0.2169,1.0189,0.0213,2.0349,0.4923,0.9786,-0.3912,-0.0452,-1.0288
0.728,-0.2184,1.0119,0.0206,2.0349,0.4923,0.9786,-0.3912,-0.0452,-1.0288
0.731,-0.2213,1.0036,0.0204,2.0349,0.4923,0.9786,-0.3912,-0.0452,-1.0288
0.732,-0.2223,0.997,0.0211,2.0349,0.4923,0.9786,-0.3912,-0.0452,-1.0288
0.737,-0.2191,0.9918,0.0191,2.0349,0.4923,0.9786,-0.3912,-0.0452,-1.0288
0.737,-0.216,0.9864,0.0184,2.0349,0.4923,0.9786,-0.3912,-0.0452,-1.0288
0.742,-0.2069,0.9808,0.0133,2.0349,0.4923,0.9786,-0.3912,-0.0452,-1.0288
0.743,-0.1984,0.9747,0.0108,2.0349,0.4923,0.9786,-0.3912,-0.0452,-1.0288
0.748,-0.1832,0.9711,0.0067,2.0349,0.4923,0.9786,-0.3912,-0.0452,-1.0288
0.748,-0.17,0.9669,0.0047,2.0349,0.4923,0.9786,-0.3912,-0.0452,-1.0288
0.752,-0.1576,0.9603,0.0003,2.0349,0.4923,0.9786,-0.3912,-0.0452,-1.0288
0.752,-0.148,0.9574,-0.0033,2.0349,0.4923,0.9786,-0.3912,-0.0452,-1.0288
0.756,-0.1388,0.9552,-0.0063,2.0349,0.4923,0.9786,-0.3912,-0.0452,-1.0288
0.757,-0.1346,0.9525,-0.009,2.0349,0.4923,0.9786,-0.3912,-0.0452,-1.0288
0.76,-0.13,0.9518,-0.0109,2.0349,0.4923,0.9786,-0.3912,-0.0452,-1.0288
0.761,-0.129,0.95,-0.0138,2.0349,0.4923,0.9786,-0.3912,-0.0452,-1.0288
0.765,-0.1309,0.9515,-0.0163,2.0349,0.4923,0.9786,-0.3912,-0.0452,-1.0288
0.766,-0.1341,0.952,-0.0197,2.0349,0.4923,0.9786,-0.3912,-0.0452,-1.0288
0.772,-0.138,0.952,-0.0217,2.0349,0.4923,0.9786,-0.3912,-0.0452,-1.0288
0.773,-0.1395,0.9537,-0.0261,2.0349,0.4923,0.9786,-0.3912,-0.0452,-1.0288
0.777,-0.1458,0.9525,-0.027,2.0349,0.4923,0.9786,-0.3912,-0.0452,-1.0288
0.777,-0.149,0.9479,-0.0258,2.0349,0.4923,0.9786,-0.3912,-0.0452,-1.0288
0.78,-0.1534,0.9457,-0.0307,2.0349,0.4923,0.9786,-0.3912,-0.0452,-1.0288
0.781,-0.1561,0.943,-0.028,2.0349,0.4923,0.9786,-0.3912,-0.0452,-1.0288
0.786,-0.1561,0.943,-0.028,2.0349,0.4923,0.9786,-0.2146,-0.2255,-0.7573
0.786,-0.1593,0.9388,-0.027,2.0349,0.4923,0.9786,-0.2146,-0.2255,-0.7573
0.787,-0.1634,0.9347,-0.0195,2.0349,0.4923,0.9786,-0.2146,-0.2255,-0.7573
0.79,-0.1669,0.9271,-0.016,2.0349,0.4923,0.9786,-0.2146,-0.2255,-0.7573
0.791,-0.1669,0.9271,-0.016,-0.64,0.503,0.2899,-0.2146,-0.2255,-0.7573
0.792,-0.1727,0.9207,-0.0119,-0.64,0.503,0.2899,-0.2146,-0.2255,-0.7573
0.795,-0.1786,0.9171,-0.0048,-0.64,0.503,0.2899,-0.2146,-0.2255,-0.7573
0.796,-0.1844,0.9097,-0.0033,-0.64,0.503,0.2899,-0.2146,-0.2255,-0.7573
0.801,-0.1888,0.9044,0.0011,-0.64,0.503,0.2899,-0.2146,-0.2255,-0.7573
0.803,-0.1937,0.9002,0.0023,-0.64,0.503,0.2899,-0.2146,-0.2255,-0.7573
0.805,-0.1984,0.8963,0.0023,-0.64,0.503,0.2899,-0.2146,-0.2255,-0.7573
0.806,-0.1996,0.8912,0.0018,-0.64,0.503,0.2899,-0.2146,-0.2255,-0.7573
0.81,-0.2006,0.8858,0.0025,-0.64,0.503,0.2899,-0.2146,-0.2255,-0.7573
0.81,-0.1986,0.8829,0.0001,-0.64,0.503,0.2899,-0.2146,-0.2255,-0.7573
0.814,-0.1947,0.878,-0.0006,-0.64,0.503,0.2899,-0.2146,-0.2255,-0.7573
0.815,-0.1891,0.8741,-0.0016,-0.64,0.503,0.2899,-0.2146,-0.2255,-0.7573
0.82,-0.183,0.8692,-0.0016,-0.64,0.503,0.2899,-0.2146,-0.2255,-0.7573
0.821,-0.1803,0.8648,0.0003,-0.64,0.503,0.2899,-0.2146,-0.2255,-0.7573
0.825,-0.1735,0.8626,0.0033,-0.64,0.503,0.2899,-0.2146,-0.2255,-0.7573
0.826,-0.1666,0.8594,0.0006,-0.64,0.503,0.2899,-0.2146,-0.2255,-0.7573
0.829,-0.1644,0.8609,-0.0006,-0.64,0.503,0.2899,-0.2146,-0.2255,-0.7573
0.83,-0.1629,0.8606,-0.0014,-0.64,0.503,0.2899,-0.2146,-0.2255,-0.7573
0.834,-0.1586,0.8614,-0.0046,-0.64,0.503,0.2899,-0.2146,-0.2255,-0.7573
0.836,-0.1529,0.8643,-0.005,-0.64,0.503,0.2899,-0.2146,-0.2255,-0.7573
0.839,-0.1466,0.8653,-0.0041,-0.64,0.503,0.2899,-0.2146,-0.2255,-0.7573
0.84,-0.1422,0.8643,0.0008,-0.64,0.503,0.2899,-0.2146,-0.2255,-0.7573
0.843,-0.1385,0.8633,0.0038,-0.64,0.503,0.2899,-0.2146,-0.2255,-0.7573
0.844,-0.1361,0.8609,0.0123,-0.64,0.503,0.2899,-0.2146,-0.2255,-0.7573
0.849,-0.1388,0.8565,0.0155,-0.64,0.503,0.2899,-0.2146,-0.2255,-0.7573
0.849,-0.1412,0.8567,0.0243,-0.64,0.503,0.2899,-0.2146,-0.2255,-0.7573
0.854,-0.1412,0.8567,0.0243,-0.64,0.503,0.2899,0.0775,0.0796,-0.0779
0.854,-0.1441,0.8504,0.026,-0.64,0.503,0.2899,0.0775,0.0796,-0.0779
0.855,-0.1485,0.8487,0.0299,-0.64,0.503,0.2899,0.0775,0.0796,-0.0779
0.858,-0.1485,0.8487,0.0299,-0.0299,-0.4001,-0.5262,0.0775,0.0796,-0.0779
0.859,-0.1515,0.8462,0.0311,-0.0299,-0.4001,-0.5262,0.0775,0.0796,-0.0779
0.86,-0.1542,0.8457,0.0296,-0.0299,-0.4001,-0.5262,0.0775,0.0796,-0.0779
0.863,-0.1566,0.8448,0.0306,-0.0299,-0.4001,-0.5262,0.0775,0.0796,-0.0779
0.864,-0.1595,0.8438,0.0296,-0.0299,-0.4001,-0.5262,0.0775,0.0796,-0.0779
0.87,-0.1586,0.8452,0.0304,-0.0299,-0.4001,-0.5262,0.0775,0.0796,-0.0779
0.871,-0.1615,0.8455,0.034,-0.0299,-0.4001,-0.5262,0.0775,0.0796,-0.0779
0.874,-0.1622,0.847,0.0353,-0.0299,-0.4001,-0.5262,0.0775,0.0796,-0.0779
0.875,-0.1661,0.8494,0.0336,-0.0299,-0.4001,-0.5262,0.0775,0.0796,-0.0779
0.879,-0.1673,0.8511,0.0287,-0.0299,-0.4001,-0.5262,0.0775,0.0796,-0.0779
0.879,-0.1676,0.8533,0.0292,-0.0299,-0.4001,-0.5262,0.0775,0.0796,-0.0779
0.883,-0.1688,0.856,0.0243,-0.0299,-0.4001,-0.5262,0.0775,0.0796,-0.0779
0.883,-0.1691,0.8575,0.0223,-0.0299,-0.4001,-0.5262,0.0775,0.0796,-0.0779
0.887,-0.1691,0.8594,0.0189,-0.0299,-0.4001,-0.5262,0.0775,0.0796,-0.0779
0.888,-0.1688,0.8626,0.0174,-0.0299,-0.4001,-0.5262,0.0775,0.0796,-0.0779
0.892,-0.1664,0.865,0.016,-0.0299,-0.4001,-0.5262,0.0775,0.0796,-0.0779
0.893,-0.1691,0.8658,0.0143,-0.0299,-0.4001,-0.5262,0.0775,0.0796,-0.0779
0.898,-0.1666,0.8704,0.0096,-0.0299,-0.4001,-0.5262,0.0775,0.0796,-0.0779
0.899,-0.1669,0.8714,0.0089,-0.0299,-0.4001,-0.5262,0.0775,0.0796,-0.0779
0.903,-0.1632,0.8748,0.0084,-0.0299,-0.4001,-0.5262,0.0775,0.0796,-0.0779
0.904,-0.1647,0.8755,0.0082,-0.0299,-0.4001,-0.5262,0.0775,0.0796,-0.0779
0.907,-0.161,0.8804,0.0099,-0.0299,-0.4001,-0.5262,0.0775,0.0796,-0.0779
0.908,-0.1588,0.8841,0.0094,-0.0299,-0.4001,-0.5262,0.0775,0.0796,-0.0779
0.913,-0.1576,0.886,0.0116,-0.0299,-0.4001,-0.5262,0.0775,0.0796,-0.0779
0.914,-0.1549,0.8878,0.0101,-0.0299,-0.4001,-0.5262,0.0775,0.0796,-0.0779
0.917,-0.152,0.8897,0.0082,-0.0299,-0.4001,-0.5262,0.0775,0.0796,-0.0779
0.918,-0.1517,0.8934,0.0089,-0.0299,-0.4001,-0.5262,0.0775,0.0796,-0.0779
0.923,-0.1517,0.8934,0.0089,-0.0299,-0.4001,-0.5262,0.3336,0.258,0.7009
0.923,-0.1483,0.8975,0.0089,-0.0299,-0.4001,-0.5262,0.3336,0.258,0.7009
0.924,-0.1463,0.8965,0.0089,-0.0299,-0.4001,-0.5262,0.3336,0.258,0.7009
0.927,-0.1476,0.9024,0.0099,-0.0299,-0.4001,-0.5262,0.3336,0.258,0.7009
0.928,-0.1476,0.9024,0.0099,-0.0625,-1.1946,-0.2929,0.3336,0.258,0.7009
0.929,-0.1451,0.9066,0.0116,-0.0625,-1.1946,-0.2929,0.3336,0.258,0.7009
0.931,-0.1429,0.9083,0.0118,-0.0625,-1.1946,-0.2929,0.3336,0.258,0.7009
0.932,-0.1424,0.9112,0.0133,-0.0625,-1.1946,-0.2929,0.3336,0.258,0.7009
0.938,-0.139,0.9156,0.014,-0.0625,-1.1946,-0.2929,0.3336,0.258,0.7009
0.938,-0.1378,0.92,0.0108,-0.0625,-1.1946,-0.2929,0.3336,0.258,0.7009
0.942,-0.1339,0.9212,0.0147,-0.0625,-1.1946,-0.2929,0.3336,0.258,0.7009
0.943,-0.1329,0.9244,0.0143,-0.0625,-1.1946,-0.2929,0.3336,0.258,0.7009
0.949,-0.1285,0.9264,0.0125,-0.0625,-1.1946,-0.2929,0.3336,0.258,0.7009
0.949,-0.1263,0.9305,0.0099,-0.0625,-1.1946,-0.2929,0.3336,0.258,0.7009
0.952,-0.12,0.9307,0.0096,-0.0625,-1.1946,-0.2929,0.3336,0.258,0.7009
0.953,-0.1173,0.9342,0.005,-0.0625,-1.1946,-0.2929,0.3336,0.258,0.7009
0.956,-0.1107,0.9386,0.004,-0.0625,-1.1946,-0.2929,0.3336,0.258,0.7009
0.957,-0.1065,0.9398,0.0023,-0.0625,-1.1946,-0.2929,0.3336,0.258,0.7009
0.961,-0.1016,0.9435,-0.0006,-0.0625,-1.1946,-0.2929,0.3336,0.258,0.7009
0.962,-0.097,0.9437,-0.0028,-0.0625,-1.1946,-0.2929,0.3336,0.258,0.7009
0.966,-0.0877,0.9483,-0.0041,-0.0625,-1.1946,-0.2929,0.3336,0.258,0.7009
0.967,-0.0796,0.9469,-0.0014,-0.0625,-1.1946,-0.2929,0.3336,0.258,0.7009
0.971,-0.073,0.9486,0.002,-0.0625,-1.1946,-0.2929,0.3336,0.258,0.7009
0.972,-0.0677,0.9493,0.006,-0.0625,-1.1946,-0.2929,0.3336,0.258,0.7009
0.976,-0.0618,0.9513,0.0067,-0.0625,-1.1946,-0.2929,0.3336,0.258,0.7009
0.977,-0.0564,0.9525,0.0082,-0.0625,-1.1946,-0.2929,0.3336,0.258,0.7009
0.983,-0.054,0.9564,0.005,-0.0625,-1.1946,-0.2929,0.3336,0.258,0.7009
0.984,-0.0489,0.9608,0.0011,-0.0625,-1.1946,-0.2929,0.3336,0.258,0.7009
0.985,-0.043,0.964,-0.005,-0.0625,-1.1946,-0.2929,0.3336,0.258,0.7009
0.986,-0.0371,0.9689,-0.0114,-0.0625,-1.1946,-0.2929,0.3336,0.258,0.7009
0.99,-0.0371,0.9689,-0.0114,-0.0625,-1.1946,-0.2929,0.4433,0.2318,1.2409
0.991,-0.0325,0.9723,-0.0175,-0.0625,-1.1946,-0.2929,0.4433,0.2318,1.2409
0.992,-0.0259,0.9745,-0.0192,-0.0625,-1.1946,-0.2929,0.4433,0.2318,1.2409
0.995,-0.0259,0.9745,-0.0192,-0.4927,-1.1881,0.0874,0.4433,0.2318,1.2409
0.996,-0.0191,0.9786,-0.0241,-0.4927,-1.1881,0.0874,0.4433,0.2318,1.2409
0.996,-0.0137,0.9784,-0.0246,-0.4927,-1.1881,0.0874,0.4433,0.2318,1.2409
1.001,-0.0105,0.9803,-0.0231,-0.4927,-1.1881,0.0874,0.4433,0.2318,1.2409
1.003,-0.0064,0.9811,-0.0229,-0.4927,-1.1881,0.0874,0.4433,0.2318,1.2409
1.005,-0.0056,0.9799,-0.0209,-0.4927,-1.1881,0.0874,0.4433,0.2318,1.2409
1.006,-0.0066,0.9774,-0.019,-0.4927,-1.1881,0.0874,0.4433,0.2318,1.2409
1.011,-0.0059,0.9774,-0.0158,-0.4927,-1.1881,0.0874,0.4433,0.2318,1.2409
1.012,-0.0112,0.9762,-0.0109,-0.4927,-1.1881,0.0874,0.4433,0.2318,1.2409
1.016,-0.0132,0.974,-0.0036,-0.4927,-1.1881,0.0874,0.4433,0.2318,1.2409
1.017,-0.0173,0.9737,0.0042,-0.4927,-1.1881,0.0874,0.4433,0.2318,1.2409
1.02,-0.0227,0.9711,0.0086,-0.4927,-1.1881,0.0874,0.4433,0.2318,1.2409
1.021,-0.0301,0.9691,0.0143,-0.4927,-1.1881,0.0874,0.4433,0.2318,1.2409
1.026,-0.0366,0.9686,0.0172,-0.4927,-1.1881,0.0874,0.4433,0.2318,1.2409
1.027,-0.041,0.9696,0.0167,-0.4927,-1.1881,0.0874,0.4433,0.2318,1.2409
1.029,-0.0481,0.9747,0.0108,-0.4927,-1.1881,0.0874,0.4433,0.2318,1.2409
1.03,-0.0503,0.9757,0.0069,-0.4927,-1.1881,0.0874,0.4433,0.2318,1.2409
1.035,-0.0501,0.9799,-0.0019,-0.4927,-1.1881,0.0874,0.4433,0.2318,1.2409
1.036,-0.0489,0.9813,-0.0021,-0.4927,-1.1881,0.0874,0.4433,0.2318,1.2409
1.039,-0.0467,0.9867,-0.0048,-0.4927,-1.1881,0.0874,0.4433,0.2318,1.2409
1.04,-0.0447,0.9908,-0.0077,-0.4927,-1.1881,0.0874,0.4433,0.2318,1.2409
1.045,-0.0418,0.9965,-0.0111,-0.4927,-1.1881,0.0874,0.4433,0.2318,1.2409
1.046,-0.0393,1.0006,-0.0126,-0.4927,-1.1881,0.0874,0.4433,0.2318,1.2409
1.049,-0.0376,1.0077,-0.0163,-0.4927,-1.1881,0.0874,0.4433,0.2318,1.2409
1.05,-0.0349,1.0116,-0.0197,-0.4927,-1.1881,0.0874,0.4433,0.2318,1.2409
1.053,-0.0286,1.0153,-0.0253,-0.4927,-1.1881,0.0874,0.4433,0.2318,1.2409
1.054,-0.0249,1.0163,-0.03,-0.4927,-1.1881,0.0874,0.4433,0.2318,1.2409
1.059,-0.0154,1.0204,-0.0307,-0.4927,-1.1881,0.0874,0.4433,0.2318,1.2409
1.06,-0.0154,1.0204,-0.0307,-0.4927,-1.1881,0.0874,0.4621,0.4802,1.3795
1.06,-0.0068,1.0194,-0.0317,-0.4927,-1.1881,0.0874,0.4621,0.4802,1.3795
1.065,-0.0068,1.0194,-0.0317,-0.5905,-0.4799,0.224,0.4621,0.4802,1.3795
1.066,0.001,1.0207,-0.0334,-0.5905,-0.4799,0.224,0.4621,0.4802,1.3795
1.067,0.0103,1.0187,-0.0322,-0.5905,-0.4799,0.224,0.4621,0.4802,1.3795
1.068,0.0151,1.0177,-0.0302,-0.5905,-0.4799,0.224,0.4621,0.4802,1.3795
1.069,0.0254,1.0185,-0.0234,-0.5905,-0.4799,0.224,0.4621,0.4802,1.3795
1.074,0.0303,1.0177,-0.0185,-0.5905,-0.4799,0.224,0.4621,0.4802,1.3795
1.074,0.0366,1.0187,-0.017,-0.5905,-0.4799,0.224,0.4621,0.4802,1.3795
1.078,0.0374,1.0207,-0.0138,-0.5905,-0.4799,0.224,0.4621,0.4802,1.3795
1.078,0.0381,1.0233,-0.0114,-0.5905,-0.4799,0.224,0.4621,0.4802,1.3795
1.084,0.0427,1.0219,-0.0109,-0.5905,-0.4799,0.224,0.4621,0.4802,1.3795
1.084,0.0454,1.0214,-0.0124,-0.5905,-0.4799,0.224,0.4621,0.4802,1.3795
1.088,0.0462,1.0226,-0.0077,-0.5905,-0.4799,0.224,0.4621,0.4802,1.3795
1.088,0.0501,1.0207,-0.0075,-0.5905,-0.4799,0.224,0.4621,0.4802,1.3795
1.094,0.0501,1.0216,-0.0068,-0.5905,-0.4799,0.224,0.4621,0.4802,1.3795
1.095,0.053,1.0204,-0.005,-0.5905,-0.4799,0.224,0.4621,0.4802,1.3795
1.098,0.0547,1.0148,0.0025,-0.5905,-0.4799,0.224,0.4621,0.4802,1.3795
1.098,0.0564,1.0116,0.0016,-0.5905,-0.4799,0.224,0.4621,0.4802,1.3795
1.105,0.0586,1.0114,0.006,-0.5905,-0.4799,0.224,0.4621,0.4802,1.3795
1.106,0.0613,1.0089,0.0077,-0.5905,-0.4799,0.224,0.4621,0.4802,1.3795
1.107,0.0667,1.0067,0.0069,-0.5905,-0.4799,0.224,0.4621,0.4802,1.3795
1.108,0.0689,1.0033,0.0111,-0.5905,-0.4799,0.224,0.4621,0.4802,1.3795
1.113,0.0726,1.0031,0.0094,-0.5905,-0.4799,0.224,0.4621,0.4802,1.3795
1.113,0.0782,1.0036,0.0084,-0.5905,-0.4799,0.224,0.4621,0.4802,1.3795
1.117,0.0843,1.0018,0.0072,-0.5905,-0.4799,0.224,0.4621,0.4802,1.3795
1.118,0.0904,1.0033,0.0069,-0.5905,-0.4799,0.224,0.4621,0.4802,1.3795
1.122,0.096,1.0031,0.0062,-0.5905,-0.4799,0.224,0.4621,0.4802,1.3795
1.122,0.1019,1.0028,0.0086,-0.5905,-0.4799,0.224,0.4621,0.4802,1.3795
1.127,0.1109,1.0016,0.0064,-0.5905,-0.4799,0.224,0.4621,0.4802,1.3795
1.128,0.1109,1.0016,0.0064,-0.5905,-0.4799,0.224,0.3974,0.1188,1.2189
1.129,0.1155,0.9982,0.006,-0.5905,-0.4799,0.224,0.3974,0.1188,1.2189
1.133,0.1155,0.9982,0.006,-0.851,-0.0033,0.374,0.3974,0.1188,1.2189
1.133,0.1256,0.9987,0.0011,-0.851,-0.0033,0.374,0.3974,0.1188,1.2189
1.134,0.1341,0.9962,0.0016,-0.851,-0.0033,0.374,0.3974,0.1188,1.2189
1.137,0.1397,0.9943,0.0052,-0.851,-0.0033,0.374,0.3974,0.1188,1.2189
1.138,0.1454,0.9894,0.006,-0.851,-0.0033,0.374,0.3974,0.1188,1.2189
1.142,0.1519,0.9877,0.0101,-0.851,-0.0033,0.374,0.3974,0.1188,1.2189
1.143,0.1544,0.9862,0.0143,-0.851,-0.0033,0.374,0.3974,0.1188,1.2189
1.147,0.1559,0.9872,0.0135,-0.851,-0.0033,0.374,0.3974,0.1188,1.2189
1.147,0.1612,0.9845,0.0138,-0.851,-0.0033,0.374,0.3974,0.1188,1.2189
1.152,0.1622,0.9825,0.0184,-0.851,-0.0033,0.374,0.3974,0.1188,1.2189
1.152,0.1605,0.9791,0.0209,-0.851,-0.0033,0.374,0.3974,0.1188,1.2189
1.156,0.1629,0.9786,0.0221,-0.851,-0.0033,0.374,0.3974,0.1188,1.2189
1.157,0.1578,0.9786,0.0231,-0.851,-0.0033,0.374,0.3974,0.1188,1.2189
1.161,0.1541,0.9757,0.0274,-0.851,-0.0033,0.374,0.3974,0.1188,1.2189
1.161,0.1512,0.9796,0.0282,-0.851,-0.0033,0.374,0.3974,0.1188,1.2189
1.166,0.1449,0.9777,0.0272,-0.851,-0.0033,0.374,0.3974,0.1188,1.2189
1.167,0.1414,0.9767,0.0272,-0.851,-0.0033,0.374,0.3974,0.1188,1.2189
1.172,0.1375,0.974,0.026,-0.851,-0.0033,0.374,0.3974,0.1188,1.2189
1.172,0.1341,0.9723,0.0255,-0.851,-0.0033,0.374,0.3974,0.1188,1.2189
1.176,0.1307,0.9676,0.0243,-0.851,-0.0033,0.374,0.3974,0.1188,1.2189
1.176,0.1295,0.9671,0.0233,-0.851,-0.0033,0.374,0.3974,0.1188,1.2189
1.181,0.1295,0.9647,0.0221,-0.851,-0.0033,0.374,0.3974,0.1188,1.2189
1.182,0.1285,0.965,0.0216,-0.851,-0.0033,0.374,0.3974,0.1188,1.2189
1.187,0.1285,0.9645,0.0213,-0.851,-0.0033,0.374,0.3974,0.1188,1.2189
1.187,0.1263,0.9647,0.027,-0.851,-0.0033,0.374,0.3974,0.1188,1.2189
1.191,0.1256,0.9659,0.0316,-0.851,-0.0033,0.374,0.3974,0.1188,1.2189
1.192,0.1221,0.9664,0.035,-0.851,-0.0033,0.374,0.3974,0.1188,1.2189
1.195,0.1221,0.9664,0.035,-0.851,-0.0033,0.374,0.2695,0.2086,0.7227
1.196,0.1131,0.965,0.0345,-0.851,-0.0033,0.374,0.2695,0.2086,0.7227
1.197,0.1014,0.9652,0.0375,-0.851,-0.0033,0.374,0.2695,0.2086,0.7227
1.2,0.0911,0.9635,0.0382,-0.851,-0.0033,0.374,0.2695,0.2086,0.7227
1.201,0.0911,0.9635,0.0382,-0.6773,0.2818,0.6625,0.2695,0.2086,0.7227
1.201,0.0777,0.9608,0.0362,-0.6773,0.2818,0.6625,0.2695,0.2086,0.7227
1.205,0.0657,0.9584,0.0316,-0.6773,0.2818,0.6625,0.2695,0.2086,0.7227
1.206,0.0542,0.9598,0.0287,-0.6773,0.2818,0.6625,0.2695,0.2086,0.7227
1.21,0.0445,0.9591,0.0235,-0.6773,0.2818,0.6625,0.2695,0.2086,0.7227
1.211,0.0322,0.9566,0.0235,-0.6773,0.2818,0.6625,0.2695,0.2086,0.7227
1.215,0.0225,0.9564,0.0211,-0.6773,0.2818,0.6625,0.2695,0.2086,0.7227
1.216,0.0105,0.953,0.0228,-0.6773,0.2818,0.6625,0.2695,0.2086,0.7227
1.22,-0.0032,0.9464,0.0277,-0.6773,0.2818,0.6625,0.2695,0.2086,0.7227
1.221,-0.0161,0.9422,0.0294,-0.6773,0.2818,0.6625,0.2695,0.2086,0.7227
1.226,-0.0269,0.9364,0.0358,-0.6773,0.2818,0.6625,0.2695,0.2086,0.7227
1.227,-0.0391,0.9303,0.0365,-0.6773,0.2818,0.6625,0.2695,0.2086,0.7227
1.23,-0.0479,0.9229,0.0353,-0.6773,0.2818,0.6625,0.2695,0.2086,0.7227
1.23,-0.0594,0.9161,0.0328,-0.6773,0.2818,0.6625,0.2695,0.2086,0.7227
1.236,-0.0672,0.9071,0.0309,-0.6773,0.2818,0.6625,0.2695,0.2086,0.7227
1.237,-0.073,0.9002,0.0243,-0.6773,0.2818,0.6625,0.2695,0.2086,0.7227
1.239,-0.0811,0.8907,0.0201,-0.6773,0.2818,0.6625,0.2695,0.2086,0.7227
1.24,-0.085,0.8836,0.0123,-0.6773,0.2818,0.6625,0.2695,0.2086,0.7227
1.244,-0.0909,0.876,0.0091,-0.6773,0.2818,0.6625,0.2695,0.2086,0.7227
1.245,-0.0958,0.8694,0.0074,-0.6773,0.2818,0.6625,0.2695,0.2086,0.7227
1.251,-0.1016,0.8638,0.0077,-0.6773,0.2818,0.6625,0.2695,0.2086,0.7227
1.251,-0.1048,0.8606,0.0079,-0.6773,0.2818,0.6625,0.2695,0.2086,0.7227
1.255,-0.1077,0.8626,0.005,-0.6773,0.2818,0.6625,0.2695,0.2086,0.7227
1.255,-0.1116,0.8694,0.0001,-0.6773,0.2818,0.6625,0.2695,0.2086,0.7227
1.259,-0.1136,0.8765,-0.0109,-0.6773,0.2818,0.6625,0.2695,0.2086,0.7227
1.26,-0.1072,0.8895,-0.0231,-0.6773,0.2818,0.6625,0.2695,0.2086,0.7227
1.264,-0.1072,0.8895,-0.0231,-0.6773,0.2818,0.6625,0.0063,0.6996,-0.099
1.265,-0.0987,0.9071,-0.0383,-0.6773,0.2818,0.6625,0.0063,0.6996,-0.099
1.265,-0.0809,0.929,-0.0585,-0.6773,0.2818,0.6625,0.0063,0.6996,-0.099
1.269,-0.0599,0.9535,-0.082,-0.6773,0.2818,0.6625,0.0063,0.6996,-0.099
1.27,-0.0386,0.9801,-0.1059,-0.6773,0.2818,0.6625,0.0063,0.6996,-0.099
1.27,-0.0386,0.9801,-0.1059,-0.3697,-0.0046,0.9736,0.0063,0.6996,-0.099
1.274,-0.0257,1.0126,-0.1304,-0.3697,-0.0046,0.9736,0.0063,0.6996,-0.099
1.274,-0.0244,1.0507,-0.144,-0.3697,-0.0046,0.9736,0.0063,0.6996,-0.099
1.278,-0.0249,1.0935,-0.1509,-0.3697,-0.0046,0.9736,0.0063,0.6996,-0.099
1.279,-0.0166,1.1379,-0.1594,-0.3697,-0.0046,0.9736,0.0063,0.6996,-0.099
1.283,0.0125,1.1807,-0.1736,-0.3697,-0.0046,0.9736,0.0063,0.6996,-0.099
1.284,0.0664,1.2156,-0.189,-0.3697,-0.0046,0.9736,0.0063,0.6996,-0.099
1.289,0.141,1.2449,-0.2039,-0.3697,-0.0046,0.9736,0.0063,0.6996,-0.099
1.289,0.2243,1.263,-0.21,-0.3697,-0.0046,0.9736,0.0063,0.6996,-0.099
1.295,0.3156,1.273,-0.2081,-0.3697,-0.0046,0.9736,0.0063,0.6996,-0.099
1.296,0.3992,1.2745,-0.2034,-0.3697,-0.0046,0.9736,0.0063,0.6996,-0.099
1.298,0.4727,1.2667,-0.2044,-0.3697,-0.0046,0.9736,0.0063,0.6996,-0.099
1.299,0.5296,1.2554,-0.2012,-0.3697,-0.0046,0.9736,0.0063,0.6996,-0.099
1.304,0.5704,1.2383,-0.1988,-0.3697,-0.0046,0.9736,0.0063,0.6996,-0.099
1.305,0.5997,1.2149,-0.1914,-0.3697,-0.0046,0.9736,0.0063,0.6996,-0.099
1.308,0.6168,1.1853,-0.1775,-0.3697,-0.0046,0.9736,0.0063,0.6996,-0.099
1.309,0.6142,1.1592,-0.1636,-0.3697,-0.0046,0.9736,0.0063,0.6996,-0.099
1.313,0.5812,1.1342,-0.1455,-0.3697,-0.0046,0.9736,0.0063,0.6996,-0.099
1.315,0.5223,1.124,-0.1313,-0.3697,-0.0046,0.9736,0.0063,0.6996,-0.099
1.317,0.4429,1.1189,-0.1194,-0.3697,-0.0046,0.9736,0.0063,0.6996,-0.099
1.318,0.3511,1.1191,-0.1081,-0.3697,-0.0046,0.9736,0.0063,0.6996,-0.099
1.322,0.2602,1.1252,-0.0957,-0.3697,-0.0046,0.9736,0.0063,0.6996,-0.099
1.323,0.171,1.1342,-0.0693,-0.3697,-0.0046,0.9736,0.0063,0.6996,-0.099
1.328,0.0933,1.1386,-0.0407,-0.3697,-0.0046,0.9736,0.0063,0.6996,-0.099
1.328,0.0308,1.145,-0.0033,-0.3697,-0.0046,0.9736,0.0063,0.6996,-0.099
1.333,0.0308,1.145,-0.0033,-0.3697,-0.0046,0.9736,-0.058,0.6486,-1.1433
1.334,-0.0186,1.1433,0.0406,-0.3697,-0.0046,0.9736,-0.058,0.6486,-1.1433
1.334,-0.053,1.1296,0.0966,-0.3697,-0.0046,0.9736,-0.058,0.6486,-1.1433
1.338,-0.0723,1.1071,0.166,-0.3697,-0.0046,0.9736,-0.058,0.6486,-1.1433
1.338,-0.0723,1.1071,0.166,-1.915,-0.5762,0.6427,-0.058,0.6486,-1.1433
1.339,-0.0821,1.0761,0.2353,-1.915,-0.5762,0.6427,-0.058,0.6486,-1.1433
1.343,-0.0816,1.0373,0.305,-1.915,-0.5762,0.6427,-0.058,0.6486,-1.1433
1.343,-0.0765,0.9938,0.3612,-1.915,-0.5762,0.6427,-0.058,0.6486,-1.1433
1.347,-0.064,0.9515,0.4007,-1.915,-0.5762,0.6427,-0.058,0.6486,-1.1433
1.348,-0.0393,0.9061,0.4203,-1.915,-0.5762,0.6427,-0.058,0.6486,-1.1433
1.352,-0.0144,0.8672,0.4159,-1.915,-0.5762,0.6427,-0.058,0.6486,-1.1433
1.352,0.0186,0.834,0.3929,-1.915,-0.5762,0.6427,-0.058,0.6486,-1.1433
1.357,0.0518,0.8125,0.3467,-1.915,-0.5762,0.6427,-0.058,0.6486,-1.1433
1.358,0.0833,0.803,0.2967,-1.915,-0.5762,0.6427,-0.058,0.6486,-1.1433
1.361,0.1046,0.8052,0.2407,-1.915,-0.5762,0.6427,-0.058,0.6486,-1.1433
1.362,0.1185,0.8169,0.1899,-1.915,-0.5762,0.6427,-0.058,0.6486,-1.1433
1.368,0.1212,0.835,0.1508,-1.915,-0.5762,0.6427,-0.058,0.6486,-1.1433
1.368,0.1124,0.8567,0.1249,-1.915,-0.5762,0.6427,-0.058,0.6486,-1.1433
1.372,0.0963,0.8768,0.1051,-1.915,-0.5762,0.6427,-0.058,0.6486,-1.1433
1.373,0.0662,0.8931,0.091,-1.915,-0.5762,0.6427,-0.058,0.6486,-1.1433
1.378,0.0217,0.9051,0.0812,-1.915,-0.5762,0.6427,-0.058,0.6486,-1.1433
1.378,-0.033,0.9112,0.0687,-1.915,-0.5762,0.6427,-0.058,0.6486,-1.1433
1.382,-0.0965,0.9139,0.0507,-1.915,-0.5762,0.6427,-0.058,0.6486,-1.1433
1.382,-0.1673,0.9151,0.0267,-1.915,-0.5762,0.6427,-0.058,0.6486,-1.1433
1.387,-0.2406,0.9151,-0.0006,-1.915,-0.5762,0.6427,-0.058,0.6486,-1.1433
1.388,-0.3178,0.9132,-0.0278,-1.915,-0.5762,0.6427,-0.058,0.6486,-1.1433
1.393,-0.3977,0.9144,-0.05,-1.915,-0.5762,0.6427,-0.058,0.6486,-1.1433
1.394,-0.4774,0.922,-0.0637,-1.915,-0.5762,0.6427,-0.058,0.6486,-1.1433
1.396,-0.5565,0.9342,-0.0752,-1.915,-0.5762,0.6427,-0.058,0.6486,-1.1433
1.397,-0.6337,0.9481,-0.0774,-1.915,-0.5762,0.6427,-0.058,0.6486,-1.1433
1.4,-0.7089,0.9703,-0.0737,-1.915,-0.5762,0.6427,-0.058,0.6486,-1.1433
1.401,-0.7089,0.9703,-0.0737,-1.915,-0.5762,0.6427,-0.0708,1.1633,-1.1411
1.401,-0.7786,0.9904,-0.0686,-1.915,-0.5762,0.6427,-0.0708,1.1633,-1.1411
1.406,-0.8396,1.0114,-0.0656,-1.915,-0.5762,0.6427,-0.0708,1.1633,-1.1411
1.407,-0.8396,1.0114,-0.0656,1.6047,1.6582,-0.557,-0.0708,1.1633,-1.1411
1.407,-0.8866,1.0312,-0.0654,1.6047,1.6582,-0.557,-0.0708,1.1633,-1.1411
1.41,-0.9159,1.0458,-0.0681,1.6047,1.6582,-0.557,-0.0708,1.1633,-1.1411
1.41,-0.9252,1.0553,-0.0632,1.6047,1.6582,-0.557,-0.0708,1.1633,-1.1411
1.417,-0.9173,1.0636,-0.0583,1.6047,1.6582,-0.557,-0.0708,1.1633,-1.1411
1.418,-0.8961,1.0739,-0.0517,1.6047,1.6582,-0.557,-0.0708,1.1633,-1.1411
1.421,-0.8631,1.0788,-0.041,1.6047,1.6582,-0.557,-0.0708,1.1633,-1.1411
1.422,-0.8133,1.0832,-0.0275,1.6047,1.6582,-0.557,-0.0708,1.1633,-1.1411
1.428,-0.7588,1.0822,-0.0153,1.6047,1.6582,-0.557,-0.0708,1.1633,-1.1411
1.428,-0.6984,1.0815,-0.0019,1.6047,1.6582,-0.557,-0.0708,1.1633,-1.1411
1.43,-0.6352,1.08,0.0077,1.6047,1.6582,-0.557,-0.0708,1.1633,-1.1411
1.431,-0.5682,1.0795,0.0101,1.6047,1.6582,-0.557,-0.0708,1.1633,-1.1411
1.435,-0.5018,1.0842,0.0147,1.6047,1.6582,-0.557,-0.0708,1.1633,-1.1411
1.437,-0.4373,1.0915,0.0125,1.6047,1.6582,-0.557,-0.0708,1.1633,-1.1411
1.44,-0.3672,1.0996,0.0143,1.6047,1.6582,-0.557,-0.0708,1.1633,-1.1411
1.44,-0.2995,1.1027,0.0091,1.6047,1.6582,-0.557,-0.0708,1.1633,-1.1411
1.445,-0.2289,1.1025,0.0086,1.6047,1.6582,-0.557,-0.0708,1.1633,-1.1411
1.446,-0.1654,1.0981,0.006,1.6047,1.6582,-0.557,-0.0708,1.1633,-1.1411
1.45,-0.0975,1.0883,0.004,1.6047,1.6582,-0.557,-0.0708,1.1633,-1.1411
1.451,-0.0386,1.0783,-0.0002,1.6047,1.6582,-0.557,-0.0708,1.1633,-1.1411
1.455,0.0127,1.0632,-0.0021,1.6047,1.6582,-0.557,-0.0708,1.1633,-1.1411
1.456,0.054,1.0495,-0.0129,1.6047,1.6582,-0.557,-0.0708,1.1633,-1.1411
1.46,0.0899,1.0321,-0.0182,1.6047,1.6582,-0.557,-0.0708,1.1633,-1.1411
1.46,0.116,1.0155,-0.0234,1.6047,1.6582,-0.557,-0.0708,1.1633,-1.1411
1.464,0.1346,0.9994,-0.0334,1.6047,1.6582,-0.557,-0.0708,1.1633,-1.1411
1.465,0.1466,0.984,-0.0378,1.6047,1.6582,-0.557,-0.0708,1.1633,-1.1411
1.469,0.1466,0.984,-0.0378,1.6047,1.6582,-0.557,0.147,0.0481,-0.629
1.47,0.1473,0.9762,-0.0412,1.6047,1.6582,-0.557,0.147,0.0481,-0.629
1.47,0.1378,0.9671,-0.0358,1.6047,1.6582,-0.557,0.147,0.0481,-0.629
1.474,0.1378,0.9671,-0.0358,-1.9405,-0.8055,1.6346,0.147,0.0481,-0.629
1.474,0.1192,0.9603,-0.0366,-1.9405,-0.8055,1.6346,0.147,0.0481,-0.629
1.475,0.0865,0.9608,-0.039,-1.9405,-0.8055,1.6346,0.147,0.0481,-0.629
1.478,0.0479,0.9623,-0.0429,-1.9405,-0.8055,1.6346,0.147,0.0481,-0.629
1.479,0.0037,0.9664,-0.0405,-1.9405,-0.8055,1.6346,0.147,0.0481,-0.629
1.483,-0.0415,0.9715,-0.038,-1.9405,-0.8055,1.6346,0.147,0.0481,-0.629
1.484,-0.0867,0.9796,-0.037,-1.9405,-0.8055,1.6346,0.147,0.0481,-0.629
1.489,-0.1344,0.9879,-0.0432,-1.9405,-0.8055,1.6346,0.147,0.0481,-0.629
1.49,-0.1808,0.9916,-0.0483,-1.9405,-0.8055,1.6346,0.147,0.0481,-0.629
1.493,-0.2274,1.0021,-0.0593,-1.9405,-0.8055,1.6346,0.147,0.0481,-0.629
1.494,-0.2702,1.0089,-0.0703,-1.9405,-0.8055,1.6346,0.147,0.0481,-0.629
1.499,-0.3105,1.0153,-0.0847,-1.9405,-0.8055,1.6346,0.147,0.0481,-0.629
1.5,-0.3393,1.0197,-0.0935,-1.9405,-0.8055,1.6346,0.147,0.0481,-0.629
1.504,-0.3591,1.0214,-0.0949,-1.9405,-0.8055,1.6346,0.147,0.0481,-0.629
1.505,-0.3684,1.0192,-0.0964,-1.9405,-0.8055,1.6346,0.147,0.0481,-0.629
1.509,-0.3733,1.0182,-0.0927,-1.9405,-0.8055,1.6346,0.147,0.0481,-0.629
1.51,-0.3699,1.0148,-0.0866,-1.9405,-0.8055,1.6346,0.147,0.0481,-0.629
1.512,-0.3662,1.0092,-0.0837,-1.9405,-0.8055,1.6346,0.147,0.0481,-0.629
1.513,-0.3599,1.005,-0.082,-1.9405,-0.8055,1.6346,0.147,0.0481,-0.629
1.518,-0.3506,1.0067,-0.0837,-1.9405,-0.8055,1.6346,0.147,0.0481,-0.629
1.519,-0.3371,1.0075,-0.0923,-1.9405,-0.8055,1.6346,0.147,0.0481,-0.629
1.522,-0.3237,1.0126,-0.0971,-1.9405,-0.8055,1.6346,0.147,0.0481,-0.629
1.523,-0.3061,1.017,-0.1025,-1.9405,-0.8055,1.6346,0.147,0.0481,-0.629
1.527,-0.288,1.0243,-0.1074,-1.9405,-0.8055,1.6346,0.147,0.0481,-0.629
1.528,-0.266,1.0309,-0.104,-1.9405,-0.8055,1.6346,0.147,0.0481,-0.629
1.533,-0.2448,1.037,-0.1001,-1.9405,-0.8055,1.6346,0.147,0.0481,-0.629
1.534,-0.2292,1.0421,-0.0935,-1.9405,-0.8055,1.6346,0.147,0.0481,-0.629
1.537,-0.2118,1.0421,-0.0871,-1.9405,-0.8055,1.6346,0.147,0.0481,-0.629
1.538,-0.2118,1.0421,-0.0871,-1.9405,-0.8055,1.6346,0.1955,0.1686,-0.3911
1.539,-0.1974,1.0402,-0.0822,-1.9405,-0.8055,1.6346,0.1955,0.1686,-0.3911
1.542,-0.1974,1.0402,-0.0822,-2.6469,0.5759,0.3082,0.1955,0.1686,-0.3911
1.543,-0.1844,1.0378,-0.0774,-2.6469,0.5759,0.3082,0.1955,0.1686,-0.3911
1.544,-0.1739,1.0312,-0.0756,-2.6469,0.5759,0.3082,0.1955,0.1686,-0.3911
1.547,-0.1681,1.0282,-0.0739,-2.6469,0.5759,0.3082,0.1955,0.1686,-0.3911
1.548,-0.1637,1.0282,-0.0695,-2.6469,0.5759,0.3082,0.1955,0.1686,-0.3911
1.553,-0.159,1.0265,-0.069,-2.6469,0.5759,0.3082,0.1955,0.1686,-0.3911
1.553,-0.1583,1.0258,-0.0649,-2.6469,0.5759,0.3082,0.1955,0.1686,-0.3911
1.555,-0.161,1.0272,-0.0615,-2.6469,0.5759,0.3082,0.1955,0.1686,-0.3911
1.559,-0.1673,1.027,-0.0583,-2.6469,0.5759,0.3082,0.1955,0.1686,-0.3911
1.559,-0.1722,1.0275,-0.0603,-2.6469,0.5759,0.3082,0.1955,0.1686,-0.3911
1.564,-0.1791,1.0265,-0.0576,-2.6469,0.5759,0.3082,0.1955,0.1686,-0.3911
1.565,-0.1859,1.0248,-0.0544,-2.6469,0.5759,0.3082,0.1955,0.1686,-0.3911
1.569,-0.1923,1.0233,-0.0559,-2.6469,0.5759,0.3082,0.1955,0.1686,-0.3911
1.57,-0.1967,1.0192,-0.0566,-2.6469,0.5759,0.3082,0.1955,0.1686,-0.3911
1.574,-0.2023,1.0219,-0.0568,-2.6469,0.5759,0.3082,0.1955,0.1686,-0.3911
1.575,-0.2057,1.0199,-0.0588,-2.6469,0.5759,0.3082,0.1955,0.1686,-0.3911
1.579,-0.2096,1.0194,-0.0578,-2.6469,0.5759,0.3082,0.1955,0.1686,-0.3911
1.579,-0.2162,1.0192,-0.0556,-2.6469,0.5759,0.3082,0.1955,0.1686,-0.3911
1.583,-0.2221,1.0228,-0.0578,-2.6469,0.5759,0.3082,0.1955,0.1686,-0.3911
1.584,-0.2289,1.0226,-0.0605,-2.6469,0.5759,0.3082,0.1955,0.1686,-0.3911
1.588,-0.2328,1.027,-0.0625,-2.6469,0.5759,0.3082,0.1955,0.1686,-0.3911
1.589,-0.2372,1.0294,-0.0634,-2.6469,0.5759,0.3082,0.1955,0.1686,-0.3911
1.593,-0.2338,1.0285,-0.0656,-2.6469,0.5759,0.3082,0.1955,0.1686,-0.3911
1.594,-0.2287,1.0265,-0.0651,-2.6469,0.5759,0.3082,0.1955,0.1686,-0.3911
1.599,-0.2194,1.025,-0.0651,-2.6469,0.5759,0.3082,0.1955,0.1686,-0.3911
1.599,-0.2086,1.0246,-0.0683,-2.6469,0.5759,0.3082,0.1955,0.1686,-0.3911
1.604,-0.2001,1.0241,-0.073,-2.6469,0.5759,0.3082,0.1955,0.1686,-0.3911
1.605,-0.2001,1.0241,-0.073,-2.6469,0.5759,0.3082,0.1704,-0.2494,-0.2315
1.606,-0.1876,1.0214,-0.0759,-2.6469,0.5759,0.3082,0.1704,-0.2494,-0.2315
1.608,-0.1744,1.0214,-0.0842,-2.6469,0.5759,0.3082,0.1704,-0.2494,-0.2315
1.609,-0.1627,1.0231,-0.0945,-2.6469,0.5759,0.3082,0.1704,-0.2494,-0.2315
1.613,-0.1627,1.0231,-0.0945,-1.5524,0.1864,-0.1399,0.1704,-0.2494,-0.2315
1.613,-0.152,1.0216,-0.1023,-1.5524,0.1864,-0.1399,0.1704,-0.2494,-0.2315
1.615,-0.141,1.0236,-0.1079,-1.5524,0.1864,-0.1399,0.1704,-0.2494,-0.2315
1.618,-0.1334,1.0211,-0.1138,-1.5524,0.1864,-0.1399,0.1704,-0.2494,-0.2315
1.619,-0.1256,1.0192,-0.1174,-1.5524,0.1864,-0.1399,0.1704,-0.2494,-0.2315
1.624,-0.116,1.015,-0.1179,-1.5524,0.1864,-0.1399,0.1704,-0.2494,-0.2315
1.626,-0.1109,1.0119,-0.1186,-1.5524,0.1864,-0.1399,0.1704,-0.2494,-0.2315
1.629,-0.1065,1.0101,-0.1184,-1.5524,0.1864,-0.1399,0.1704,-0.2494,-0.2315
1.63,-0.1007,1.005,-0.1194,-1.5524,0.1864,-0.1399,0.1704,-0.2494,-0.2315
1.633,-0.096,1.0038,-0.1221,-1.5524,0.1864,-0.1399,0.1704,-0.2494,-0.2315
1.633,-0.0901,1.0014,-0.1255,-1.5524,0.1864,-0.1399,0.1704,-0.2494,-0.2315
1.64,-0.0867,1.0043,-0.1338,-1.5524,0.1864,-0.1399,0.1704,-0.2494,-0.2315
1.64,-0.0823,1.0028,-0.1389,-1.5524,0.1864,-0.1399,0.1704,-0.2494,-0.2315
1.643,-0.0765,1.0033,-0.146,-1.5524,0.1864,-0.1399,0.1704,-0.2494,-0.2315
1.643,-0.0699,1.0045,-0.1509,-1.5524,0.1864,-0.1399,0.1704,-0.2494,-0.2315
1.65,-0.0655,1.007,-0.1565,-1.5524,0.1864,-0.1399,0.1704,-0.2494,-0.2315
1.651,-0.0623,1.0055,-0.1619,-1.5524,0.1864,-0.1399,0.1704,-0.2494,-0.2315
1.652,-0.0591,1.0033,-0.1624,-1.5524,0.1864,-0.1399,0.1704,-0.2494,-0.2315
1.653,-0.0584,1.0006,-0.1643,-1.5524,0.1864,-0.1399,0.1704,-0.2494,-0.2315
1.657,-0.0596,0.9965,-0.1614,-1.5524,0.1864,-0.1399,0.1704,-0.2494,-0.2315
1.657,-0.0616,0.9884,-0.1548,-1.5524,0.1864,-0.1399,0.1704,-0.2494,-0.2315
1.662,-0.0601,0.9838,-0.1436,-1.5524,0.1864,-0.1399,0.1704,-0.2494,-0.2315
1.663,-0.0555,0.9752,-0.137,-1.5524,0.1864,-0.1399,0.1704,-0.2494,-0.2315
1.667,-0.0484,0.9689,-0.1316,-1.5524,0.1864,-0.1399,0.1704,-0.2494,-0.2315
1.668,-0.0396,0.9664,-0.1282,-1.5524,0.1864,-0.1399,0.1704,-0.2494,-0.2315
1.672,-0.0322,0.9676,-0.1326,-1.5524,0.1864,-0.1399,0.1704,-0.2494,-0.2315
1.673,-0.0322,0.9676,-0.1326,-1.5524,0.1864,-0.1399,0.1187,-0.4007,-0.1659
1.674,-0.0269,0.9723,-0.1348,-1.5524,0.1864,-0.1399,0.1187,-0.4007,-0.1659
1.676,-0.0193,0.9799,-0.1362,-1.5524,0.1864,-0.1399,0.1187,-0.4007,-0.1659
1.677,-0.012,0.985,-0.1365,-1.5524,0.1864,-0.1399,0.1187,-0.4007,-0.1659
1.682,-0.0022,0.9862,-0.1387,-1.5524,0.1864,-0.1399,0.1187,-0.4007,-0.1659
1.683,-0.0022,0.9862,-0.1387,-0.8633,0.3188,0.071,0.1187,-0.4007,-0.1659
1.683,0.0029,0.986,-0.1394,-0.8633,0.3188,0.071,0.1187,-0.4007,-0.1659
1.686,0.0076,0.9884,-0.1392,-0.8633,0.3188,0.071,0.1187,-0.4007,-0.1659
1.686,0.012,0.984,-0.1384,-0.8633,0.3188,0.071,0.1187,-0.4007,-0.1659
1.692,0.0181,0.9823,-0.1353,-0.8633,0.3188,0.071,0.1187,-0.4007,-0.1659
1.693,0.0247,0.9781,-0.1296,-0.8633,0.3188,0.071,0.1187,-0.4007,-0.1659
1.695,0.0318,0.9757,-0.125,-0.8633,0.3188,0.071,0.1187,-0.4007,-0.1659
1.696,0.0357,0.9767,-0.1265,-0.8633,0.3188,0.071,0.1187,-0.4007,-0.1659
1.702,0.0406,0.9799,-0.1284,-0.8633,0.3188,0.071,0.1187,-0.4007,-0.1659
1.703,0.0432,0.9801,-0.1338,-0.8633,0.3188,0.071,0.1187,-0.4007,-0.1659
1.706,0.0469,0.9799,-0.1372,-0.8633,0.3188,0.071,0.1187,-0.4007,-0.1659
1.707,0.0525,0.9857,-0.1494,-0.8633,0.3188,0.071,0.1187,-0.4007,-0.1659
1.711,0.055,0.9872,-0.1565,-0.8633,0.3188,0.071,0.1187,-0.4007,-0.1659
1.712,0.0581,0.9901,-0.1597,-0.8633,0.3188,0.071,0.1187,-0.4007,-0.1659
1.716,0.0618,0.9911,-0.1589,-0.8633,0.3188,0.071,0.1187,-0.4007,-0.1659
1.717,0.0645,0.9952,-0.1651,-0.8633,0.3188,0.071,0.1187,-0.4007,-0.1659
1.721,0.0594,0.9948,-0.1702,-0.8633,0.3188,0.071,0.1187,-0.4007,-0.1659
1.722,0.0572,0.9957,-0.1702,-0.8633,0.3188,0.071,0.1187,-0.4007,-0.1659
1.728,0.0498,0.9933,-0.1624,-0.8633,0.3188,0.071,0.1187,-0.4007,-0.1659
1.728,0.0406,0.9933,-0.1592,-0.8633,0.3188,0.071,0.1187,-0.4007,-0.1659
1.73,0.03,0.9894,-0.1582,-0.8633,0.3188,0.071,0.1187,-0.4007,-0.1659
1.731,0.0186,0.9896,-0.1616,-0.8633,0.3188,0.071,0.1187,-0.4007,-0.1659
1.735,0.0071,0.9864,-0.1621,-0.8633,0.3188,0.071,0.1187,-0.4007,-0.1659
1.735,-0.0061,0.9847,-0.1592,-0.8633,0.3188,0.071,0.1187,-0.4007,-0.1659
1.74,-0.0178,0.9835,-0.1553,-0.8633,0.3188,0.071,0.1187,-0.4007,-0.1659
1.741,-0.0178,0.9835,-0.1553,-0.8633,0.3188,0.071,-0.0008,-0.4228,-0.3357
1.741,-0.031,0.9823,-0.1538,-0.8633,0.3188,0.071,-0.0008,-0.4228,-0.3357
1.745,-0.0454,0.9811,-0.1524,-0.8633,0.3188,0.071,-0.0008,-0.4228,-0.3357
1.746,-0.0562,0.9803,-0.146,-0.8633,0.3188,0.071,-0.0008,-0.4228,-0.3357
1.75,-0.0562,0.9803,-0.146,0.4557,0.0651,-0.5534,-0.0008,-0.4228,-0.3357
1.751,-0.0662,0.9784,-0.1428,0.4557,0.0651,-0.5534,-0.0008,-0.4228,-0.3357
1.752,-0.073,0.9781,-0.136,0.4557,0.0651,-0.5534,-0.0008,-0.4228,-0.3357
1.754,-0.0809,0.9774,-0.1296,0.4557,0.0651,-0.5534,-0.0008,-0.4228,-0.3357
1.754,-0.0872,0.9801,-0.1279,0.4557,0.0651,-0.5534,-0.0008,-0.4228,-0.3357
1.762,-0.0945,0.9813,-0.1257,0.4557,0.0651,-0.5534,-0.0008,-0.4228,-0.3357
1.762,-0.1046,0.9789,-0.1282,0.4557,0.0651,-0.5534,-0.0008,-0.4228,-0.3357
1.764,-0.116,0.9821,-0.1328,0.4557,0.0651,-0.5534,-0.0008,-0.4228,-0.3357
1.765,-0.127,0.985,-0.136,0.4557,0.0651,-0.5534,-0.0008,-0.4228,-0.3357
1.77,-0.1351,0.9894,-0.1333,0.4557,0.0651,-0.5534,-0.0008,-0.4228,-0.3357
1.771,-0.1419,0.9913,-0.1262,0.4557,0.0651,-0.5534,-0.0008,-0.4228,-0.3357
1.774,-0.1485,0.993,-0.1208,0.4557,0.0651,-0.5534,-0.0008,-0.4228,-0.3357
1.774,-0.1532,0.9921,-0.1138,0.4557,0.0651,-0.5534,-0.0008,-0.4228,-0.3357
1.78,-0.1598,0.9904,-0.1086,0.4557,0.0651,-0.5534,-0.0008,-0.4228,-0.3357
1.782,-0.1588,0.9901,-0.1045,0.4557,0.0651,-0.5534,-0.0008,-0.4228,-0.3357
1.784,-0.1578,0.9901,-0.1011,0.4557,0.0651,-0.5534,-0.0008,-0.4228,-0.3357
1.785,-0.1561,0.9862,-0.0979,0.4557,0.0651,-0.5534,-0.0008,-0.4228,-0.3357
1.789,-0.1534,0.9852,-0.0954,0.4557,0.0651,-0.5534,-0.0008,-0.4228,-0.3357
1.79,-0.1495,0.985,-0.0957,0.4557,0.0651,-0.5534,-0.0008,-0.4228,-0.3357
1.794,-0.1461,0.9852,-0.0927,0.4557,0.0651,-0.5534,-0.0008,-0.4228,-0.3357
1.794,-0.1432,0.9862,-0.0876,0.4557,0.0651,-0.5534,-0.0008,-0.4228,-0.3357
1.798,-0.1422,0.9852,-0.0891,0.4557,0.0651,-0.5534,-0.0008,-0.4228,-0.3357
1.799,-0.1419,0.9823,-0.0861,0.4557,0.0651,-0.5534,-0.0008,-0.4228,-0.3357
1.804,-0.1439,0.9808,-0.0847,0.4557,0.0651,-0.5534,-0.0008,-0.4228,-0.3357
1.805,-0.1429,0.9784,-0.082,0.4557,0.0651,-0.5534,-0.0008,-0.4228,-0.3357
1.808,-0.1441,0.9764,-0.0796,0.4557,0.0651,-0.5534,-0.0008,-0.4228,-0.3357
1.809,-0.1441,0.9764,-0.0796,0.4557,0.0651,-0.5534,-0.1264,-0.3556,-0.5248
1.81,-0.148,0.9789,-0.0786,0.4557,0.0651,-0.5534,-0.1264,-0.3556,-0.5248
1.815,-0.1478,0.9833,-0.0766,0.4557,0.0651,-0.5534,-0.1264,-0.3556,-0.5248
1.816,-0.1527,0.9852,-0.0742,0.4557,0.0651,-0.5534,-0.1264,-0.3556,-0.5248
1.819,-0.1549,0.9899,-0.0796,0.4557,0.0651,-0.5534,-0.1264,-0.3556,-0.5248
1.819,-0.1549,0.9899,-0.0796,1.5711,-0.0139,-0.7068,-0.1264,-0.3556,-0.5248
1.82,-0.1578,0.9911,-0.0818,1.5711,-0.0139,-0.7068,-0.1264,-0.3556,-0.5248
1.823,-0.1607,0.9935,-0.083,1.5711,-0.0139,-0.7068,-0.1264,-0.3556,-0.5248
1.823,-0.1632,0.9965,-0.0837,1.5711,-0.0139,-0.7068,-0.1264,-0.3556,-0.5248
1.827,-0.1603,0.9945,-0.0832,1.5711,-0.0139,-0.7068,-0.1264,-0.3556,-0.5248
1.828,-0.1581,0.9918,-0.0827,1.5711,-0.0139,-0.7068,-0.1264,-0.3556,-0.5248
1.832,-0.1559,0.9886,-0.0842,1.5711,-0.0139,-0.7068,-0.1264,-0.3556,-0.5248
1.833,-0.1539,0.9862,-0.0883,1.5711,-0.0139,-0.7068,-0.1264,-0.3556,-0.5248
1.838,-0.151,0.9874,-0.094,1.5711,-0.0139,-0.7068,-0.1264,-0.3556,-0.5248
1.838,-0.149,0.9857,-0.102,1.5711,-0.0139,-0.7068,-0.1264,-0.3556,-0.5248
1.843,-0.1522,0.9864,-0.1062,1.5711,-0.0139,-0.7068,-0.1264,-0.3556,-0.5248
1.844,-0.1515,0.9872,-0.1062,1.5711,-0.0139,-0.7068,-0.1264,-0.3556,-0.5248
1.849,-0.1537,0.9884,-0.1074,1.5711,-0.0139,-0.7068,-0.1264,-0.3556,-0.5248
1.849,-0.1568,0.9896,-0.1052,1.5711,-0.0139,-0.7068,-0.1264,-0.3556,-0.5248
1.852,-0.162,0.9884,-0.1054,1.5711,-0.0139,-0.7068,-0.1264,-0.3556,-0.5248
1.853,-0.1691,0.9889,-0.1015,1.5711,-0.0139,-0.7068,-0.1264,-0.3556,-0.5248
1.857,-0.1727,0.9847,-0.1042,1.5711,-0.0139,-0.7068,-0.1264,-0.3556,-0.5248
1.858,-0.1759,0.9872,-0.1086,1.5711,-0.0139,-0.7068,-0.1264,-0.3556,-0.5248
1.862,-0.1818,0.9879,-0.1089,1.5711,-0.0139,-0.7068,-0.1264,-0.3556,-0.5248
1.863,-0.1901,0.9938,-0.1089,1.5711,-0.0139,-0.7068,-0.1264,-0.3556,-0.5248
1.867,-0.1918,0.9957,-0.1072,1.5711,-0.0139,-0.7068,-0.1264,-0.3556,-0.5248
1.868,-0.2028,0.9965,-0.1003,1.5711,-0.0139,-0.7068,-0.1264,-0.3556,-0.5248
1.871,-0.2103,0.996,-0.0954,1.5711,-0.0139,-0.7068,-0.1264,-0.3556,-0.5248
1.872,-0.2169,0.9962,-0.0937,1.5711,-0.0139,-0.7068,-0.1264,-0.3556,-0.5248
1.876,-0.2223,0.9952,-0.093,1.5711,-0.0139,-0.7068,-0.1264,-0.3556,-0.5248
1.877,-0.2223,0.9952,-0.093,1.5711,-0.0139,-0.7068,-0.1934,-0.331,-0.6016
1.878,-0.2267,0.9921,-0.0962,1.5711,-0.0139,-0.7068,-0.1934,-0.331,-0.6016
1.882,-0.2284,0.9911,-0.1076,1.5711,-0.0139,-0.7068,-0.1934,-0.331,-0.6016
1.882,-0.2306,0.9918,-0.1169,1.5711,-0.0139,-0.7068,-0.1934,-0.331,-0.6016
1.887,-0.2296,0.994,-0.1184,1.5711,-0.0139,-0.7068,-0.1934,-0.331,-0.6016
1.888,-0.2296,0.994,-0.1184,0.3897,0.0269,-0.3824,-0.1934,-0.331,-0.6016
1.888,-0.2235,0.9962,-0.1199,0.3897,0.0269,-0.3824,-0.1934,-0.331,-0.6016
1.891,-0.2213,0.9972,-0.1167,0.3897,0.0269,-0.3824,-0.1934,-0.331,-0.6016
1.892,-0.2147,0.9987,-0.1113,0.3897,0.0269,-0.3824,-0.1934,-0.331,-0.6016
1.896,-0.213,0.9987,-0.1101,0.3897,0.0269,-0.3824,-0.1934,-0.331,-0.6016
1.897,-0.2091,0.996,-0.1118,0.3897,0.0269,-0.3824,-0.1934,-0.331,-0.6016
1.901,-0.2077,0.9955,-0.115,0.3897,0.0269,-0.3824,-0.1934,-0.331,-0.6016
1.901,-0.2064,0.9992,-0.1167,0.3897,0.0269,-0.3824,-0.1934,-0.331,-0.6016
1.905,-0.2047,1.0021,-0.1169,0.3897,0.0269,-0.3824,-0.1934,-0.331,-0.6016
1.906,-0.2064,1.0033,-0.1138,0.3897,0.0269,-0.3824,-0.1934,-0.331,-0.6016
1.91,-0.2084,1.0077,-0.1084,0.3897,0.0269,-0.3824,-0.1934,-0.331,-0.6016
1.911,-0.2052,1.0079,-0.104,0.3897,0.0269,-0.3824,-0.1934,-0.331,-0.6016
1.915,-0.204,1.0087,-0.1032,0.3897,0.0269,-0.3824,-0.1934,-0.331,-0.6016
1.916,-0.1969,1.0065,-0.1054,0.3897,0.0269,-0.3824,-0.1934,-0.331,-0.6016
1.921,-0.1898,1.0072,-0.1067,0.3897,0.0269,-0.3824,-0.1934,-0.331,-0.6016
1.922,-0.1798,1.0048,-0.102,0.3897,0.0269,-0.3824,-0.1934,-0.331,-0.6016
1.925,-0.1705,1.0062,-0.0976,0.3897,0.0269,-0.3824,-0.1934,-0.331,-0.6016
1.926,-0.1651,1.0084,-0.0918,0.3897,0.0269,-0.3824,-0.1934,-0.331,-0.6016
1.93,-0.1605,1.0082,-0.0891,0.3897,0.0269,-0.3824,-0.1934,-0.331,-0.6016
1.93,-0.1539,1.0094,-0.0896,0.3897,0.0269,-0.3824,-0.1934,-0.331,-0.6016
1.935,-0.1456,1.0089,-0.0874,0.3897,0.0269,-0.3824,-0.1934,-0.331,-0.6016
1.935,-0.1419,1.0092,-0.0837,0.3897,0.0269,-0.3824,-0.1934,-0.331,-0.6016
1.94,-0.1388,1.0097,-0.0915,0.3897,0.0269,-0.3824,-0.1934,-0.331,-0.6016
1.941,-0.1317,1.0111,-0.0964,0.3897,0.0269,-0.3824,-0.1934,-0.331,-0.6016
1.945,-0.1251,1.0121,-0.0935,0.3897,0.0269,-0.3824,-0.1934,-0.331,-0.6016
1.946,-0.1251,1.0121,-0.0935,0.3897,0.0269,-0.3824,-0.2938,-0.3705,-0.6504
1.947,-0.1158,1.0126,-0.0896,0.3897,0.0269,-0.3824,-0.2938,-0.3705,-0.6504
1.95,-0.1065,1.0143,-0.0903,0.3897,0.0269,-0.3824,-0.2938,-0.3705,-0.6504
1.951,-0.095,1.0177,-0.0937,0.3897,0.0269,-0.3824,-0.2938,-0.3705,-0.6504
1.955,-0.0911,1.0185,-0.0989,0.3897,0.0269,-0.3824,-0.2938,-0.3705,-0.6504
1.955,-0.0911,1.0185,-0.0989,0.3574,0.1561,-0.49,-0.2938,-0.3705,-0.6504
1.956,-0.0843,1.0207,-0.1047,0.3574,0.1561,-0.49,-0.2938,-0.3705,-0.6504
1.96,-0.0782,1.0207,-0.1103,0.3574,0.1561,-0.49,-0.2938,-0.3705,-0.6504
1.96,-0.0672,1.0241,-0.115,0.3574,0.1561,-0.49,-0.2938,-0.3705,-0.6504
1.965,-0.0579,1.0255,-0.1152,0.3574,0.1561,-0.49,-0.2938,-0.3705,-0.6504
1.966,-0.0508,1.0292,-0.1164,0.3574,0.1561,-0.49,-0.2938,-0.3705,-0.6504
1.969,-0.0467,1.0338,-0.1133,0.3574,0.1561,-0.49,-0.2938,-0.3705,-0.6504
1.97,-0.042,1.0358,-0.1116,0.3574,0.1561,-0.49,-0.2938,-0.3705,-0.6504
1.975,-0.0408,1.0373,-0.1145,0.3574,0.1561,-0.49,-0.2938,-0.3705,-0.6504
1.975,-0.0413,1.0387,-0.1203,0.3574,0.1561,-0.49,-0.2938,-0.3705,-0.6504
1.979,-0.0371,1.04,-0.1221,0.3574,0.1561,-0.49,-0.2938,-0.3705,-0.6504
1.98,-0.0357,1.0356,-0.1221,0.3574,0.1561,-0.49,-0.2938,-0.3705,-0.6504
1.985,-0.0286,1.0265,-0.1174,0.3574,0.1561,-0.49,-0.2938,-0.3705,-0.6504
1.985,-0.0252,1.0148,-0.1098,0.3574,0.1561,-0.49,-0.2938,-0.3705,-0.6504
1.989,-0.0242,1.0009,-0.0996,0.3574,0.1561,-0.49,-0.2938,-0.3705,-0.6504
1.99,-0.0332,0.9891,-0.1018,0.3574,0.1561,-0.49,-0.2938,-0.3705,-0.6504
1.994,-0.0437,0.9821,-0.1025,0.3574,0.1561,-0.49,-0.2938,-0.3705,-0.6504
1.994,-0.0501,0.9803,-0.1059,0.3574,0.1561,-0.49,-0.2938,-0.3705,-0.6504
1.999,-0.0533,0.9816,-0.1072,0.3574,0.1561,-0.49,-0.2938,-0.3705,-0.6504
2,-0.054,0.9825,-0.1091,0.3574,0.1561,-0.49,-0.2938,-0.3705,-0.6504
2.004,-0.0533,0.9852,-0.1128,0.3574,0.1561,-0.49,-0.2938,-0.3705,-0.6504
2.005,-0.0503,0.9896,-0.1145,0.3574,0.1561,-0.49,-0.2938,-0.3705,-0.6504
2.009,-0.0428,0.9926,-0.1155,0.3574,0.1561,-0.49,-0.2938,-0.3705,-0.6504
2.01,-0.0359,0.9921,-0.1147,0.3574,0.1561,-0.49,-0.2938,-0.3705,-0.6504
2.014,-0.0283,0.9962,-0.1174,0.3574,0.1561,-0.49,-0.2938,-0.3705,-0.6504
2.014,-0.0283,0.9962,-0.1174,0.3574,0.1561,-0.49,-0.447,-0.4195,-0.9166
2.015,-0.0191,0.9979,-0.1287,0.3574,0.1561,-0.49,-0.447,-0.4195,-0.9166
2.018,-0.0064,1.0006,-0.1436,0.3574,0.1561,-0.49,-0.447,-0.4195,-0.9166
2.018,0.0046,1.0045,-0.1594,0.3574,0.1561,-0.49,-0.447,-0.4195,-0.9166
2.023,0.0125,1.0116,-0.1641,0.3574,0.1561,-0.49,-0.447,-0.4195,-0.9166
2.023,0.0125,1.0116,-0.1641,0.8441,0.3923,-0.7589,-0.447,-0.4195,-0.9166
2.024,0.0144,1.0197,-0.1724,0.8441,0.3923,-0.7589,-0.447,-0.4195,-0.9166
2.028,0.0088,1.0326,-0.1812,0.8441,0.3923,-0.7589,-0.447,-0.4195,-0.9166
2.028,-0.0002,1.0502,-0.1851,0.8441,0.3923,-0.7589,-0.447,-0.4195,-0.9166
2.033,-0.0112,1.0627,-0.1844,0.8441,0.3923,-0.7589,-0.447,-0.4195,-0.9166
2.034,-0.0195,1.0712,-0.1826,0.8441,0.3923,-0.7589,-0.447,-0.4195,-0.9166
2.04,-0.0203,1.0771,-0.1897,0.8441,0.3923,-0.7589,-0.447,-0.4195,-0.9166
2.041,-0.0154,1.0844,-0.1997,0.8441,0.3923,-0.7589,-0.447,-0.4195,-0.9166
2.043,-0.0127,1.0939,-0.2105,0.8441,0.3923,-0.7589,-0.447,-0.4195,-0.9166
2.044,-0.0132,1.1047,-0.2259,0.8441,0.3923,-0.7589,-0.447,-0.4195,-0.9166
2.048,-0.0191,1.1135,-0.2454,0.8441,0.3923,-0.7589,-0.447,-0.4195,-0.9166
2.049,-0.0327,1.1259,-0.2596,0.8441,0.3923,-0.7589,-0.447,-0.4195,-0.9166
2.052,-0.0467,1.1389,-0.2623,0.8441,0.3923,-0.7589,-0.447,-0.4195,-0.9166
2.053,-0.0599,1.1487,-0.2576,0.8441,0.3923,-0.7589,-0.447,-0.4195,-0.9166
2.058,-0.0716,1.1599,-0.2464,0.8441,0.3923,-0.7589,-0.447,-0.4195,-0.9166
2.06,-0.0831,1.1689,-0.2327,0.8441,0.3923,-0.7589,-0.447,-0.4195,-0.9166
2.063,-0.0867,1.1714,-0.2217,0.8441,0.3923,-0.7589,-0.447,-0.4195,-0.9166
2.064,-0.0901,1.1728,-0.2156,0.8441,0.3923,-0.7589,-0.447,-0.4195,-0.9166
2.067,-0.0823,1.1704,-0.2083,0.8441,0.3923,-0.7589,-0.447,-0.4195,-0.9166
2.068,-0.0677,1.1684,-0.2,0.8441,0.3923,-0.7589,-0.447,-0.4195,-0.9166
2.073,-0.0403,1.1682,-0.1958,0.8441,0.3923,-0.7589,-0.447,-0.4195,-0.9166
2.074,-0.0066,1.1728,-0.1997,0.8441,0.3923,-0.7589,-0.447,-0.4195,-0.9166
2.077,0.0318,1.1824,-0.2056,0.8441,0.3923,-0.7589,-0.447,-0.4195,-0.9166
2.078,0.0755,1.1973,-0.2129,0.8441,0.3923,-0.7589,-0.447,-0.4195,-0.9166
2.083,0.1168,1.2178,-0.2176,0.8441,0.3923,-0.7589,-0.447,-0.4195,-0.9166
2.084,0.1563,1.2356,-0.2227,0.8441,0.3923,-0.7589,-0.447,-0.4195,-0.9166
2.084,0.1563,1.2356,-0.2227,0.8441,0.3923,-0.7589,-0.69,-0.19,-1.4897
2.088,0.1932,1.2574,-0.2225,0.8441,0.3923,-0.7589,-0.69,-0.19,-1.4897
2.088,0.2226,1.2725,-0.2159,0.8441,0.3923,-0.7589,-0.69,-0.19,-1.4897
2.092,0.247,1.2872,-0.1985,0.8441,0.3923,-0.7589,-0.69,-0.19,-1.4897
2.093,0.2748,1.2957,-0.1734,0.8441,0.3923,-0.7589,-0.69,-0.19,-1.4897
2.093,0.2748,1.2957,-0.1734,2.6947,0.5984,-1.2558,-0.69,-0.19,-1.4897
2.097,0.2978,1.3053,-0.1455,2.6947,0.5984,-1.2558,-0.69,-0.19,-1.4897
2.097,0.3117,1.3128,-0.1182,2.6947,0.5984,-1.2558,-0.69,-0.19,-1.4897
2.101,0.3256,1.3184,-0.093,2.6947,0.5984,-1.2558,-0.69,-0.19,-1.4897
2.102,0.3335,1.3265,-0.0637,2.6947,0.5984,-1.2558,-0.69,-0.19,-1.4897
2.106,0.3396,1.3387,-0.0427,2.6947,0.5984,-1.2558,-0.69,-0.19,-1.4897
2.107,0.3437,1.3553,-0.0256,2.6947,0.5984,-1.2558,-0.69,-0.19,-1.4897
2.111,0.3447,1.3783,-0.0141,2.6947,0.5984,-1.2558,-0.69,-0.19,-1.4897
2.112,0.3413,1.4059,-0.0021,2.6947,0.5984,-1.2558,-0.69,-0.19,-1.4897
2.116,0.3342,1.443,0.0052,2.6947,0.5984,-1.2558,-0.69,-0.19,-1.4897
2.117,0.3234,1.4848,0.0182,2.6947,0.5984,-1.2558,-0.69,-0.19,-1.4897
2.121,0.3019,1.5378,0.0213,2.6947,0.5984,-1.2558,-0.69,-0.19,-1.4897
2.121,0.2802,1.5906,0.027,2.6947,0.5984,-1.2558,-0.69,-0.19,-1.4897
2.126,0.259,1.6434,0.0328,2.6947,0.5984,-1.2558,-0.69,-0.19,-1.4897
2.126,0.2411,1.6922,0.0482,2.6947,0.5984,-1.2558,-0.69,-0.19,-1.4897
2.132,0.2262,1.7333,0.0678,2.6947,0.5984,-1.2558,-0.69,-0.19,-1.4897
2.132,0.2101,1.7636,0.0915,2.6947,0.5984,-1.2558,-0.69,-0.19,-1.4897
2.135,0.1984,1.7814,0.1188,2.6947,0.5984,-1.2558,-0.69,-0.19,-1.4897
2.135,0.1881,1.7848,0.1538,2.6947,0.5984,-1.2558,-0.69,-0.19,-1.4897
2.141,0.1786,1.7721,0.1855,2.6947,0.5984,-1.2558,-0.69,-0.19,-1.4897
2.141,0.1734,1.7482,0.2109,2.6947,0.5984,-1.2558,-0.69,-0.19,-1.4897
2.145,0.1617,1.713,0.2385,2.6947,0.5984,-1.2558,-0.69,-0.19,-1.4897
2.145,0.148,1.6695,0.2578,2.6947,0.5984,-1.2558,-0.69,-0.19,-1.4897
2.151,0.1373,1.6231,0.2537,2.6947,0.5984,-1.2558,-0.69,-0.19,-1.4897
2.152,0.1373,1.6231,0.2537,2.6947,0.5984,-1.2558,-0.6825,-0.4214,-2.5299
2.152,0.1283,1.5764,0.2126,2.6947,0.5984,-1.2558,-0.6825,-0.4214,-2.5299
2.155,0.116,1.5334,0.1357,2.6947,0.5984,-1.2558,-0.6825,-0.4214,-2.5299
2.156,0.0992,1.4909,0.0419,2.6947,0.5984,-1.2558,-0.6825,-0.4214,-2.5299
2.161,0.0708,1.4579,-0.0497,2.6947,0.5984,-1.2558,-0.6825,-0.4214,-2.5299
2.162,0.0269,1.434,-0.1186,2.6947,0.5984,-1.2558,-0.6825,-0.4214,-2.5299
2.162,0.0269,1.434,-0.1186,4.0499,2.285,-2.5943,-0.6825,-0.4214,-2.5299
2.166,-0.0305,1.4196,-0.1157,4.0499,2.285,-2.5943,-0.6825,-0.4214,-2.5299
2.167,-0.0877,1.4171,-0.0273,4.0499,2.285,-2.5943,-0.6825,-0.4214,-2.5299
2.169,-0.1319,1.4262,0.0841,4.0499,2.285,-2.5943,-0.6825,-0.4214,-2.5299
2.17,-0.1678,1.4433,0.1774,4.0499,2.285,-2.5943,-0.6825,-0.4214,-2.5299
2.175,-0.2069,1.4584,0.2483,4.0499,2.285,-2.5943,-0.6825,-0.4214,-2.5299
2.176,-0.2392,1.4682,0.2901,4.0499,2.285,-2.5943,-0.6825,-0.4214,-2.5299
2.179,-0.2704,1.4633,0.3145,4.0499,2.285,-2.5943,-0.6825,-0.4214,-2.5299
2.18,-0.2954,1.4496,0.3252,4.0499,2.285,-2.5943,-0.6825,-0.4214,-2.5299
2.185,-0.3142,1.4242,0.3267,4.0499,2.285,-2.5943,-0.6825,-0.4214,-2.5299
2.185,-0.3296,1.392,0.3189,4.0499,2.285,-2.5943,-0.6825,-0.4214,-2.5299
2.189,-0.3415,1.3524,0.3008,4.0499,2.285,-2.5943,-0.6825,-0.4214,-2.5299
2.19,-0.3442,1.3106,0.2874,4.0499,2.285,-2.5943,-0.6825,-0.4214,-2.5299
2.194,-0.3427,1.2635,0.281,4.0499,2.285,-2.5943,-0.6825,-0.4214,-2.5299
2.195,-0.3401,1.222,0.2757,4.0499,2.285,-2.5943,-0.6825,-0.4214,-2.5299
2.199,-0.33,1.1792,0.2581,4.0499,2.285,-2.5943,-0.6825,-0.4214,-2.5299
2.199,-0.3259,1.1382,0.2432,4.0499,2.285,-2.5943,-0.6825,-0.4214,-2.5299
2.204,-0.3318,1.0942,0.2451,4.0499,2.285,-2.5943,-0.6825,-0.4214,-2.5299
2.205,-0.3437,1.0509,0.2539,4.0499,2.285,-2.5943,-0.6825,-0.4214,-2.5299
2.208,-0.3711,1.0045,0.2534,4.0499,2.285,-2.5943,-0.6825,-0.4214,-2.5299
2.209,-0.4019,0.9557,0.2458,4.0499,2.285,-2.5943,-0.6825,-0.4214,-2.5299
2.213,-0.4366,0.9078,0.2444,4.0499,2.285,-2.5943,-0.6825,-0.4214,-2.5299
2.214,-0.473,0.8538,0.2463,4.0499,2.285,-2.5943,-0.6825,-0.4214,-2.5299
2.218,-0.5152,0.8066,0.2644,4.0499,2.285,-2.5943,-0.6825,-0.4214,-2.5299
2.219,-0.5626,0.7583,0.2959,4.0499,2.285,-2.5943,-0.6825,-0.4214,-2.5299
2.22,-0.5626,0.7583,0.2959,4.0499,2.285,-2.5943,-0.7381,-0.278,-2.6958
2.223,-0.6195,0.7104,0.3306,4.0499,2.285,-2.5943,-0.7381,-0.278,-2.6958
2.224,-0.687,0.6667,0.3541,4.0499,2.285,-2.5943,-0.7381,-0.278,-2.6958
2.229,-0.762,0.6246,0.3626,4.0499,2.285,-2.5943,-0.7381,-0.278,-2.6958
2.229,-0.762,0.6246,0.3626,7.5854,6.8003,-0.545,-0.7381,-0.278,-2.6958
2.23,-0.8382,0.5853,0.3575,7.5854,6.8003,-0.545,-0.7381,-0.278,-2.6958
2.233,-0.9098,0.554,0.3372,7.5854,6.8003,-0.545,-0.7381,-0.278,-2.6958
2.233,-0.976,0.5284,0.3096,7.5854,6.8003,-0.545,-0.7381,-0.278,-2.6958
2.239,-1.0295,0.5137,0.2793,7.5854,6.8003,-0.545,-0.7381,-0.278,-2.6958
2.239,-1.0651,0.5091,0.2664,7.5854,6.8003,-0.545,-0.7381,-0.278,-2.6958
2.243,-1.0932,0.5086,0.2798,7.5854,6.8003,-0.545,-0.7381,-0.278,-2.6958
2.244,-1.1079,0.5132,0.3079,7.5854,6.8003,-0.545,-0.7381,-0.278,-2.6958
2.248,-1.1167,0.5184,0.3328,7.5854,6.8003,-0.545,-0.7381,-0.278,-2.6958
2.249,-1.1123,0.5211,0.3587,7.5854,6.8003,-0.545,-0.7381,-0.278,-2.6958
2.253,-1.1067,0.5379,0.3753,7.5854,6.8003,-0.545,-0.7381,-0.278,-2.6958
2.253,-1.1174,0.5743,0.3472,7.5854,6.8003,-0.545,-0.7381,-0.278,-2.6958
2.257,-1.1284,0.6149,0.3345,7.5854,6.8003,-0.545,-0.7381,-0.278,-2.6958
2.258,-1.135,0.6366,0.3594,7.5854,6.8003,-0.545,-0.7381,-0.278,-2.6958
2.262,-1.1318,0.6227,0.3651,7.5854,6.8003,-0.545,-0.7381,-0.278,-2.6958
2.263,-1.1318,0.5885,0.3367,7.5854,6.8003,-0.545,-0.7381,-0.278,-2.6958
2.267,-1.1431,0.5504,0.2901,7.5854,6.8003,-0.545,-0.7381,-0.278,-2.6958
2.268,-1.155,0.511,0.2454,7.5854,6.8003,-0.545,-0.7381,-0.278,-2.6958
2.273,-1.1641,0.4737,0.196,7.5854,6.8003,-0.545,-0.7381,-0.278,-2.6958
2.274,-1.1563,0.4412,0.1442,7.5854,6.8003,-0.545,-0.7381,-0.278,-2.6958
2.277,-1.1194,0.4214,0.0934,7.5854,6.8003,-0.545,-0.7381,-0.278,-2.6958
2.278,-1.0593,0.4121,0.0504,7.5854,6.8003,-0.545,-0.7381,-0.278,-2.6958
2.284,-0.9711,0.4055,0.0248,7.5854,6.8003,-0.545,-0.7381,-0.278,-2.6958
2.285,-0.8609,0.4009,0.0162,7.5854,6.8003,-0.545,-0.7381,-0.278,-2.6958
2.287,-0.7429,0.3979,0.0201,7.5854,6.8003,-0.545,-0.7381,-0.278,-2.6958
2.288,-0.7429,0.3979,0.0201,7.5854,6.8003,-0.545,-0.3686,0.9926,-1.8599
2.289,-0.6261,0.3904,0.0372,7.5854,6.8003,-0.545,-0.3686,0.9926,-1.8599
2.293,-0.5228,0.383,0.0599,7.5854,6.8003,-0.545,-0.3686,0.9926,-1.8599
2.293,-0.4309,0.3698,0.0871,7.5854,6.8003,-0.545,-0.3686,0.9926,-1.8599
2.296,-0.4309,0.3698,0.0871,3.1543,4.1441,0.835,-0.3686,0.9926,-1.8599
2.297,-0.3537,0.3444,0.1147,3.1543,4.1441,0.835,-0.3686,0.9926,-1.8599
2.298,-0.2883,0.3027,0.1274,3.1543,4.1441,0.835,-0.3686,0.9926,-1.8599
2.302,-0.234,0.2433,0.1271,3.1543,4.1441,0.835,-0.3686,0.9926,-1.8599
2.302,-0.2028,0.1776,0.1225,3.1543,4.1441,0.835,-0.3686,0.9926,-1.8599
2.306,-0.1857,0.1077,0.1225,3.1543,4.1441,0.835,-0.3686,0.9926,-1.8599
2.307,-0.192,0.0408,0.1283,3.1543,4.1441,0.835,-0.3686,0.9926,-1.8599
2.312,-0.2101,-0.0213,0.1413,3.1543,4.1441,0.835,-0.3686,0.9926,-1.8599
2.313,-0.2411,-0.0738,0.163,3.1543,4.1441,0.835,-0.3686,0.9926,-1.8599
2.318,-0.2856,-0.1175,0.196,3.1543,4.1441,0.835,-0.3686,0.9926,-1.8599
2.319,-0.344,-0.1442,0.2241,3.1543,4.1441,0.835,-0.3686,0.9926,-1.8599
2.321,-0.4209,-0.1495,0.2241,3.1543,4.1441,0.835,-0.3686,0.9926,-1.8599
2.322,-0.502,-0.141,0.1948,3.1543,4.1441,0.835,-0.3686,0.9926,-1.8599
2.327,-0.5856,-0.1173,0.1374,3.1543,4.1441,0.835,-0.3686,0.9926,-1.8599
2.327,-0.6623,-0.0775,0.069,3.1543,4.1441,0.835,-0.3686,0.9926,-1.8599
2.331,-0.7287,-0.0306,-0.0043,3.1543,4.1441,0.835,-0.3686,0.9926,-1.8599
2.333,-0.7861,0.0207,-0.0688,3.1543,4.1441,0.835,-0.3686,0.9926,-1.8599
2.336,-0.8352,0.0774,-0.1211,3.1543,4.1441,0.835,-0.3686,0.9926,-1.8599
2.338,-0.8748,0.128,-0.1567,3.1543,4.1441,0.835,-0.3686,0.9926,-1.8599
2.34,-0.9195,0.1805,-0.1792,3.1543,4.1441,0.835,-0.3686,0.9926,-1.8599
2.341,-0.9655,0.2357,-0.1885,3.1543,4.1441,0.835,-0.3686,0.9926,-1.8599
2.345,-1.019,0.2843,-0.1861,3.1543,4.1441,0.835,-0.3686,0.9926,-1.8599
2.346,-1.0751,0.3303,-0.1802,3.1543,4.1441,0.835,-0.3686,0.9926,-1.8599
2.351,-1.1304,0.3752,-0.1724,3.1543,4.1441,0.835,-0.3686,0.9926,-1.8599
2.351,-1.18,0.4146,-0.1621,3.1543,4.1441,0.835,-0.3686,0.9926,-1.8599
2.355,-1.18,0.4146,-0.1621,3.1543,4.1441,0.835,0.4079,1.4247,0.8994
2.355,-1.2198,0.4431,-0.1538,3.1543,4.1441,0.835,0.4079,1.4247,0.8994
2.356,-1.2488,0.4676,-0.1511,3.1543,4.1441,0.835,0.4079,1.4247,0.8994
2.363,-1.2584,0.4837,-0.1555,3.1543,4.1441,0.835,0.4079,1.4247,0.8994
2.364,-1.2589,0.4947,-0.1609,3.1543,4.1441,0.835,0.4079,1.4247,0.8994
2.365,-1.2476,0.5018,-0.1653,3.1543,4.1441,0.835,0.4079,1.4247,0.8994
2.366,-1.2288,0.5052,-0.1626,3.1543,4.1441,0.835,0.4079,1.4247,0.8994
2.367,-1.2288,0.5052,-0.1626,-2.1811,-1.6672,1.0329,0.4079,1.4247,0.8994
2.369,-1.2041,0.5093,-0.1597,-2.1811,-1.6672,1.0329,0.4079,1.4247,0.8994
2.371,-1.1721,0.5096,-0.1519,-2.1811,-1.6672,1.0329,0.4079,1.4247,0.8994
2.374,-1.1394,0.5106,-0.1414,-2.1811,-1.6672,1.0329,0.4079,1.4247,0.8994
2.375,-1.101,0.5081,-0.1289,-2.1811,-1.6672,1.0329,0.4079,1.4247,0.8994
2.38,-1.0588,0.5027,-0.116,-2.1811,-1.6672,1.0329,0.4079,1.4247,0.8994
2.382,-1.0109,0.4988,-0.0974,-2.1811,-1.6672,1.0329,0.4079,1.4247,0.8994
2.385,-0.9562,0.4932,-0.0771,-2.1811,-1.6672,1.0329,0.4079,1.4247,0.8994
2.385,-0.8993,0.4869,-0.059,-2.1811,-1.6672,1.0329,0.4079,1.4247,0.8994
2.39,-0.8394,0.4827,-0.0402,-2.1811,-1.6672,1.0329,0.4079,1.4247,0.8994
2.391,-0.7776,0.4805,-0.0199,-2.1811,-1.6672,1.0329,0.4079,1.4247,0.8994
2.394,-0.7212,0.4771,-0.0021,-2.1811,-1.6672,1.0329,0.4079,1.4247,0.8994
2.395,-0.6645,0.4764,0.0121,-2.1811,-1.6672,1.0329,0.4079,1.4247,0.8994
2.4,-0.6117,0.4773,0.0253,-2.1811,-1.6672,1.0329,0.4079,1.4247,0.8994
2.401,-0.5638,0.4771,0.0365,-2.1811,-1.6672,1.0329,0.4079,1.4247,0.8994
2.406,-0.5204,0.4812,0.0485,-2.1811,-1.6672,1.0329,0.4079,1.4247,0.8994
2.407,-0.4869,0.4905,0.0516,-2.1811,-1.6672,1.0329,0.4079,1.4247,0.8994
2.409,-0.4593,0.5008,0.0533,-2.1811,-1.6672,1.0329,0.4079,1.4247,0.8994
2.409,-0.4353,0.5128,0.056,-2.1811,-1.6672,1.0329,0.4079,1.4247,0.8994
2.414,-0.4155,0.5262,0.0607,-2.1811,-1.6672,1.0329,0.4079,1.4247,0.8994
2.415,-0.3955,0.5426,0.0631,-2.1811,-1.6672,1.0329,0.4079,1.4247,0.8994
2.419,-0.3813,0.5565,0.0653,-2.1811,-1.6672,1.0329,0.4079,1.4247,0.8994
2.42,-0.3633,0.5704,0.0651,-2.1811,-1.6672,1.0329,0.4079,1.4247,0.8994
2.424,-0.3449,0.5831,0.0653,-2.1811,-1.6672,1.0329,0.4079,1.4247,0.8994
2.425,-0.3261,0.5919,0.0626,-2.1811,-1.6672,1.0329,0.4079,1.4247,0.8994
2.427,-0.3261,0.5919,0.0626,-2.1811,-1.6672,1.0329,0.6834,-1.4189,3.3607
2.429,-0.3105,0.6017,0.0597,-2.1811,-1.6672,1.0329,0.6834,-1.4189,3.3607
2.43,-0.2978,0.6117,0.0516,-2.1811,-1.6672,1.0329,0.6834,-1.4189,3.3607
2.435,-0.2831,0.6159,0.0448,-2.1811,-1.6672,1.0329,0.6834,-1.4189,3.3607
2.436,-0.2831,0.6159,0.0448,-0.2461,-5.4977,-0.3019,0.6834,-1.4189,3.3607
2.436,-0.2797,0.6278,0.0414,-0.2461,-5.4977,-0.3019,0.6834,-1.4189,3.3607
2.438,-0.2719,0.6481,0.047,-0.2461,-5.4977,-0.3019,0.6834,-1.4189,3.3607
2.439,-0.2548,0.6606,0.0448,-0.2461,-5.4977,-0.3019,0.6834,-1.4189,3.3607
2.443,-0.2401,0.6596,0.0287,-0.2461,-5.4977,-0.3019,0.6834,-1.4189,3.3607
2.444,-0.2321,0.6532,0.0055,-0.2461,-5.4977,-0.3019,0.6834,-1.4189,3.3607
2.448,-0.2265,0.6483,-0.0085,-0.2461,-5.4977,-0.3019,0.6834,-1.4189,3.3607
2.449,-0.2238,0.6432,-0.0109,-0.2461,-5.4977,-0.3019,0.6834,-1.4189,3.3607
2.453,-0.2191,0.6439,-0.0011,-0.2461,-5.4977,-0.3019,0.6834,-1.4189,3.3607
2.453,-0.2111,0.6476,0.0138,-0.2461,-5.4977,-0.3019,0.6834,-1.4189,3.3607
2.458,-0.2101,0.6571,0.0284,-0.2461,-5.4977,-0.3019,0.6834,-1.4189,3.3607
2.458,-0.2135,0.6755,0.0404,-0.2461,-5.4977,-0.3019,0.6834,-1.4189,3.3607
2.462,-0.2262,0.6972,0.0455,-0.2461,-5.4977,-0.3019,0.6834,-1.4189,3.3607
2.463,-0.2394,0.7216,0.0521,-0.2461,-5.4977,-0.3019,0.6834,-1.4189,3.3607
2.468,-0.2516,0.7497,0.0597,-0.2461,-5.4977,-0.3019,0.6834,-1.4189,3.3607
2.469,-0.2636,0.7764,0.0695,-0.2461,-5.4977,-0.3019,0.6834,-1.4189,3.3607
2.474,-0.2773,0.8023,0.0834,-0.2461,-5.4977,-0.3019,0.6834,-1.4189,3.3607
2.475,-0.2917,0.8301,0.0949,-0.2461,-5.4977,-0.3019,0.6834,-1.4189,3.3607
2.478,-0.3032,0.8523,0.0985,-0.2461,-5.4977,-0.3019,0.6834,-1.4189,3.3607
2.478,-0.3188,0.8729,0.0934,-0.2461,-5.4977,-0.3019,0.6834,-1.4189,3.3607
2.484,-0.3369,0.8924,0.0795,-0.2461,-5.4977,-0.3019,0.6834,-1.4189,3.3607
2.485,-0.3623,0.9119,0.056,-0.2461,-5.4977,-0.3019,0.6834,-1.4189,3.3607
2.487,-0.3894,0.9278,0.026,-0.2461,-5.4977,-0.3019,0.6834,-1.4189,3.3607
2.487,-0.4187,0.9449,-0.0068,-0.2461,-5.4977,-0.3019,0.6834,-1.4189,3.3607
2.493,-0.4493,0.9606,-0.0368,-0.2461,-5.4977,-0.3019,0.6834,-1.4189,3.3607
2.493,-0.4493,0.9606,-0.0368,-0.2461,-5.4977,-0.3019,1.0837,-0.1879,4.3794
2.494,-0.4793,0.972,-0.0642,-0.2461,-5.4977,-0.3019,1.0837,-0.1879,4.3794
2.497,-0.5111,0.9825,-0.0842,-0.2461,-5.4977,-0.3019,1.0837,-0.1879,4.3794
2.498,-0.5428,0.9901,-0.1018,-0.2461,-5.4977,-0.3019,1.0837,-0.1879,4.3794
2.503,-0.5428,0.9901,-0.1018,-1.7833,-3.3148,-0.6211,1.0837,-0.1879,4.3794
2.504,-0.5748,0.9933,-0.1142,-1.7833,-3.3148,-0.6211,1.0837,-0.1879,4.3794
2.505,-0.6095,0.9999,-0.1213,-1.7833,-3.3148,-0.6211,1.0837,-0.1879,4.3794
2.508,-0.6413,1.0009,-0.124,-1.7833,-3.3148,-0.6211,1.0837,-0.1879,4.3794
2.509,-0.6667,1.0028,-0.1238,-1.7833,-3.3148,-0.6211,1.0837,-0.1879,4.3794
2.511,-0.6906,1.0014,-0.1225,-1.7833,-3.3148,-0.6211,1.0837,-0.1879,4.3794
2.512,-0.708,0.995,-0.1179,-1.7833,-3.3148,-0.6211,1.0837,-0.1879,4.3794
2.517,-0.718,0.9862,-0.1059,-1.7833,-3.3148,-0.6211,1.0837,-0.1879,4.3794
2.518,-0.7214,0.9759,-0.0903,-1.7833,-3.3148,-0.6211,1.0837,-0.1879,4.3794
2.521,-0.7151,0.9603,-0.0759,-1.7833,-3.3148,-0.6211,1.0837,-0.1879,4.3794
2.522,-0.7046,0.9427,-0.0563,-1.7833,-3.3148,-0.6211,1.0837,-0.1879,4.3794
2.526,-0.686,0.9217,-0.0388,-1.7833,-3.3148,-0.6211,1.0837,-0.1879,4.3794
2.527,-0.6635,0.9017,-0.0182,-1.7833,-3.3148,-0.6211,1.0837,-0.1879,4.3794
2.531,-0.6376,0.8794,0.0028,-1.7833,-3.3148,-0.6211,1.0837,-0.1879,4.3794
2.531,-0.61,0.857,0.0209,-1.7833,-3.3148,-0.6211,1.0837,-0.1879,4.3794
2.536,-0.5785,0.8367,0.0362,-1.7833,-3.3148,-0.6211,1.0837,-0.1879,4.3794
2.537,-0.5484,0.8186,0.0463,-1.7833,-3.3148,-0.6211,1.0837,-0.1879,4.3794
2.54,-0.5199,0.8052,0.0582,-1.7833,-3.3148,-0.6211,1.0837,-0.1879,4.3794
2.541,-0.4896,0.79,0.0651,-1.7833,-3.3148,-0.6211,1.0837,-0.1879,4.3794
2.545,-0.4598,0.7815,0.0702,-1.7833,-3.3148,-0.6211,1.0837,-0.1879,4.3794
2.546,-0.4331,0.7744,0.0744,-1.7833,-3.3148,-0.6211,1.0837,-0.1879,4.3794
2.55,-0.4028,0.7702,0.0748,-1.7833,-3.3148,-0.6211,1.0837,-0.1879,4.3794
2.551,-0.3772,0.7749,0.077,-1.7833,-3.3148,-0.6211,1.0837,-0.1879,4.3794
2.556,-0.3491,0.7827,0.0775,-1.7833,-3.3148,-0.6211,1.0837,-0.1879,4.3794
2.557,-0.3313,0.7939,0.0751,-1.7833,-3.3148,-0.6211,1.0837,-0.1879,4.3794
2.563,-0.3169,0.813,0.0751,-1.7833,-3.3148,-0.6211,1.0837,-0.1879,4.3794
2.564,-0.3083,0.8345,0.0748,-1.7833,-3.3148,-0.6211,1.0837,-0.1879,4.3794
2.564,-0.3083,0.8345,0.0748,-1.7833,-3.3148,-0.6211,0.7259,-0.0712,4.7125
2.566,-0.3012,0.8579,0.0766,-1.7833,-3.3148,-0.6211,0.7259,-0.0712,4.7125
2.567,-0.3005,0.8829,0.079,-1.7833,-3.3148,-0.6211,0.7259,-0.0712,4.7125
2.572,-0.3005,0.8829,0.079,-0.9653,-1.7366,0.3871,0.7259,-0.0712,4.7125
2.572,-0.3049,0.9083,0.0849,-0.9653,-1.7366,0.3871,0.7259,-0.0712,4.7125
2.573,-0.3122,0.9347,0.0863,-0.9653,-1.7366,0.3871,0.7259,-0.0712,4.7125
2.575,-0.3183,0.9606,0.0797,-0.9653,-1.7366,0.3871,0.7259,-0.0712,4.7125
2.576,-0.3217,0.9838,0.0665,-0.9653,-1.7366,0.3871,0.7259,-0.0712,4.7125
2.58,-0.3208,1.0011,0.046,-0.9653,-1.7366,0.3871,0.7259,-0.0712,4.7125
2.58,-0.3117,1.0177,0.0265,-0.9653,-1.7366,0.3871,0.7259,-0.0712,4.7125
2.589,-0.3042,1.0314,0.0086,-0.9653,-1.7366,0.3871,0.7259,-0.0712,4.7125
2.589,-0.2907,1.0443,0.0079,-0.9653,-1.7366,0.3871,0.7259,-0.0712,4.7125
2.59,-0.2792,1.0571,0.0091,-0.9653,-1.7366,0.3871,0.7259,-0.0712,4.7125
2.59,-0.2687,1.0656,0.0079,-0.9653,-1.7366,0.3871,0.7259,-0.0712,4.7125
2.596,-0.2612,1.0737,0.0074,-0.9653,-1.7366,0.3871,0.7259,-0.0712,4.7125
2.597,-0.2465,1.0729,0.0011,-0.9653,-1.7366,0.3871,0.7259,-0.0712,4.7125
2.599,-0.2292,1.0693,-0.0041,-0.9653,-1.7366,0.3871,0.7259,-0.0712,4.7125
2.599,-0.2103,1.0676,-0.0092,-0.9653,-1.7366,0.3871,0.7259,-0.0712,4.7125
2.604,-0.1888,1.0588,-0.0124,-0.9653,-1.7366,0.3871,0.7259,-0.0712,4.7125
2.605,-0.1595,1.0473,-0.017,-0.9653,-1.7366,0.3871,0.7259,-0.0712,4.7125
2.609,-0.1263,1.0341,-0.0163,-0.9653,-1.7366,0.3871,0.7259,-0.0712,4.7125
2.609,-0.0914,1.0243,-0.0104,-0.9653,-1.7366,0.3871,0.7259,-0.0712,4.7125
2.613,-0.0515,1.0128,-0.0028,-0.9653,-1.7366,0.3871,0.7259,-0.0712,4.7125
2.614,-0.0083,1.0101,0.0023,-0.9653,-1.7366,0.3871,0.7259,-0.0712,4.7125
2.619,0.0335,1.0141,0.0069,-0.9653,-1.7366,0.3871,0.7259,-0.0712,4.7125
2.62,0.0708,1.0177,0.0086,-0.9653,-1.7366,0.3871,0.7259,-0.0712,4.7125
2.624,0.107,1.0197,0.0091,-0.9653,-1.7366,0.3871,0.7259,-0.0712,4.7125
2.624,0.1368,1.0202,0.0069,-0.9653,-1.7366,0.3871,0.7259,-0.0712,4.7125
2.629,0.1368,1.0202,0.0069,-0.9653,-1.7366,0.3871,0.9635,-0.7732,4.0143
2.629,0.1615,1.0121,0.0025,-0.9653,-1.7366,0.3871,0.9635,-0.7732,4.0143
2.63,0.1862,0.9952,-0.0063,-0.9653,-1.7366,0.3871,0.9635,-0.7732,4.0143
2.633,0.2152,0.9725,-0.0082,-0.9653,-1.7366,0.3871,0.9635,-0.7732,4.0143
2.634,0.2431,0.9474,-0.0033,-0.9653,-1.7366,0.3871,0.9635,-0.7732,4.0143
2.639,0.2736,0.9185,0.0118,-0.9653,-1.7366,0.3871,0.9635,-0.7732,4.0143
2.639,0.3012,0.8917,0.0358,-0.9653,-1.7366,0.3871,0.9635,-0.7732,4.0143
2.64,0.3012,0.8917,0.0358,-5.9764,-0.9636,0.6672,0.9635,-0.7732,4.0143
2.644,0.3322,0.8643,0.0617,-5.9764,-0.9636,0.6672,0.9635,-0.7732,4.0143
2.644,0.3554,0.8408,0.0851,-5.9764,-0.9636,0.6672,0.9635,-0.7732,4.0143
2.65,0.373,0.8213,0.0963,-5.9764,-0.9636,0.6672,0.9635,-0.7732,4.0143
2.65,0.3823,0.8118,0.091,-5.9764,-0.9636,0.6672,0.9635,-0.7732,4.0143
2.653,0.3875,0.8088,0.0739,-5.9764,-0.9636,0.6672,0.9635,-0.7732,4.0143
2.654,0.3879,0.8125,0.0487,-5.9764,-0.9636,0.6672,0.9635,-0.7732,4.0143
2.659,0.384,0.8257,0.0162,-5.9764,-0.9636,0.6672,0.9635,-0.7732,4.0143
2.659,0.3787,0.8457,-0.0226,-5.9764,-0.9636,0.6672,0.9635,-0.7732,4.0143
2.663,0.3686,0.8704,-0.0639,-5.9764,-0.9636,0.6672,0.9635,-0.7732,4.0143
2.664,0.3562,0.897,-0.1008,-5.9764,-0.9636,0.6672,0.9635,-0.7732,4.0143
2.668,0.3413,0.9281,-0.1394,-5.9764,-0.9636,0.6672,0.9635,-0.7732,4.0143
2.668,0.3154,0.9584,-0.1731,-5.9764,-0.9636,0.6672,0.9635,-0.7732,4.0143
2.673,0.2907,0.9855,-0.2044,-5.9764,-0.9636,0.6672,0.9635,-0.7732,4.0143
2.674,0.2633,1.0045,-0.2339,-5.9764,-0.9636,0.6672,0.9635,-0.7732,4.0143
2.678,0.2379,1.0177,-0.2493,-5.9764,-0.9636,0.6672,0.9635,-0.7732,4.0143
2.678,0.2118,1.0214,-0.2591,-5.9764,-0.9636,0.6672,0.9635,-0.7732,4.0143
2.683,0.1876,1.0192,-0.2528,-5.9764,-0.9636,0.6672,0.9635,-0.7732,4.0143
2.684,0.1642,1.0097,-0.2479,-5.9764,-0.9636,0.6672,0.9635,-0.7732,4.0143
2.687,0.1461,0.9926,-0.2386,-5.9764,-0.9636,0.6672,0.9635,-0.7732,4.0143
2.688,0.129,0.9757,-0.2266,-5.9764,-0.9636,0.6672,0.9635,-0.7732,4.0143
2.695,0.1148,0.954,-0.2066,-5.9764,-0.9636,0.6672,0.9635,-0.7732,4.0143
2.696,0.1014,0.9405,-0.1846,-5.9764,-0.9636,0.6672,0.9635,-0.7732,4.0143
2.698,0.1014,0.9405,-0.1846,-5.9764,-0.9636,0.6672,0.5965,0.1514,1.0206
2.698,0.0911,0.9251,-0.1582,-5.9764,-0.9636,0.6672,0.5965,0.1514,1.0206
2.699,0.0816,0.91,-0.1333,-5.9764,-0.9636,0.6672,0.5965,0.1514,1.0206
2.703,0.0711,0.8985,-0.1076,-5.9764,-0.9636,0.6672,0.5965,0.1514,1.0206
2.703,0.0594,0.888,-0.0827,-5.9764,-0.9636,0.6672,0.5965,0.1514,1.0206
2.707,0.0459,0.879,-0.0612,-5.9764,-0.9636,0.6672,0.5965,0.1514,1.0206
2.708,0.0459,0.879,-0.0612,-3.9911,0.9096,1.4205,0.5965,0.1514,1.0206
2.709,0.0344,0.8729,-0.0429,-3.9911,0.9096,1.4205,0.5965,0.1514,1.0206
2.713,0.0205,0.8721,-0.0322,-3.9911,0.9096,1.4205,0.5965,0.1514,1.0206
2.713,0.0066,0.876,-0.0248,-3.9911,0.9096,1.4205,0.5965,0.1514,1.0206
2.718,-0.0061,0.8956,-0.03,-3.9911,0.9096,1.4205,0.5965,0.1514,1.0206
2.719,-0.0112,0.9242,-0.0375,-3.9911,0.9096,1.4205,0.5965,0.1514,1.0206
2.722,-0.0178,0.9698,-0.049,-3.9911,0.9096,1.4205,0.5965,0.1514,1.0206
2.722,-0.0208,1.028,-0.0583,-3.9911,0.9096,1.4205,0.5965,0.1514,1.0206
2.729,-0.0264,1.102,-0.0554,-3.9911,0.9096,1.4205,0.5965,0.1514,1.0206
2.73,-0.032,1.1885,-0.0412,-3.9911,0.9096,1.4205,0.5965,0.1514,1.0206
2.732,-0.0322,1.2745,-0.006,-3.9911,0.9096,1.4205,0.5965,0.1514,1.0206
2.732,-0.0147,1.3468,0.0387,-3.9911,0.9096,1.4205,0.5965,0.1514,1.0206
2.736,0.0342,1.3934,0.0797,-3.9911,0.9096,1.4205,0.5965,0.1514,1.0206
2.737,0.117,1.412,0.1159,-3.9911,0.9096,1.4205,0.5965,0.1514,1.0206
2.741,0.2184,1.4113,0.1591,-3.9911,0.9096,1.4205,0.5965,0.1514,1.0206
2.742,0.3266,1.4108,0.2253,-3.9911,0.9096,1.4205,0.5965,0.1514,1.0206
2.747,0.4461,1.4118,0.2981,-3.9911,0.9096,1.4205,0.5965,0.1514,1.0206
2.748,0.5831,1.4174,0.3704,-3.9911,0.9096,1.4205,0.5965,0.1514,1.0206
2.752,0.7341,1.4325,0.4283,-3.9911,0.9096,1.4205,0.5965,0.1514,1.0206
2.753,0.8975,1.4526,0.4628,-3.9911,0.9096,1.4205,0.5965,0.1514,1.0206
2.757,1.0566,1.4836,0.4672,-3.9911,0.9096,1.4205,0.5965,0.1514,1.0206
2.758,1.1995,1.5195,0.4379,-3.9911,0.9096,1.4205,0.5965,0.1514,1.0206
2.761,1.3004,1.5571,0.3836,-3.9911,0.9096,1.4205,0.5965,0.1514,1.0206
2.762,1.3534,1.5899,0.3255,-3.9911,0.9096,1.4205,0.5965,0.1514,1.0206
2.766,1.3534,1.5899,0.3255,-3.9911,0.9096,1.4205,-0.0923,1.6632,-1.4075
2.767,1.3534,1.6194,0.2742,-3.9911,0.9096,1.4205,-0.0923,1.6632,-1.4075
2.768,1.3048,1.6421,0.2236,-3.9911,0.9096,1.4205,-0.0923,1.6632,-1.4075
2.772,1.2066,1.6524,0.1752,-3.9911,0.9096,1.4205,-0.0923,1.6632,-1.4075
2.773,1.0602,1.6541,0.1178,-3.9911,0.9096,1.4205,-0.0923,1.6632,-1.4075
2.778,1.0602,1.6541,0.1178,-0.8293,0.0156,0.466,-0.0923,1.6632,-1.4075
2.78,0.8829,1.6448,0.0602,-0.8293,0.0156,0.466,-0.0923,1.6632,-1.4075
2.78,0.6813,1.6277,0.0011,-0.8293,0.0156,0.466,-0.0923,1.6632,-1.4075
2.781,0.4761,1.6038,-0.0583,-0.8293,0.0156,0.466,-0.0923,1.6632,-1.4075
2.782,0.2914,1.5713,-0.1145,-0.8293,0.0156,0.466,-0.0923,1.6632,-1.4075
2.785,0.1373,1.5368,-0.1516,-0.8293,0.0156,0.466,-0.0923,1.6632,-1.4075
2.786,0.0076,1.5012,-0.1492,-0.8293,0.0156,0.466,-0.0923,1.6632,-1.4075
2.791,-0.085,1.4592,-0.1128,-0.8293,0.0156,0.466,-0.0923,1.6632,-1.4075
2.792,-0.1529,1.4101,-0.0654,-0.8293,0.0156,0.466,-0.0923,1.6632,-1.4075
2.794,-0.1971,1.3451,-0.016,-0.8293,0.0156,0.466,-0.0923,1.6632,-1.4075
2.795,-0.226,1.2667,0.0235,-0.8293,0.0156,0.466,-0.0923,1.6632,-1.4075
2.8,-0.2397,1.1753,0.0433,-0.8293,0.0156,0.466,-0.0923,1.6632,-1.4075
2.8,-0.2438,1.0773,0.0497,-0.8293,0.0156,0.466,-0.0923,1.6632,-1.4075
2.806,-0.2377,0.973,0.0382,-0.8293,0.0156,0.466,-0.0923,1.6632,-1.4075
2.807,-0.2228,0.8755,0.0096,-0.8293,0.0156,0.466,-0.0923,1.6632,-1.4075
2.81,-0.2069,0.7854,-0.0278,-0.8293,0.0156,0.466,-0.0923,1.6632,-1.4075
2.811,-0.1959,0.7082,-0.0666,-0.8293,0.0156,0.466,-0.0923,1.6632,-1.4075
2.814,-0.1962,0.6447,-0.1094,-0.8293,0.0156,0.466,-0.0923,1.6632,-1.4075
2.815,-0.2018,0.5973,-0.1538,-0.8293,0.0156,0.466,-0.0923,1.6632,-1.4075
2.82,-0.2174,0.5658,-0.2024,-0.8293,0.0156,0.466,-0.0923,1.6632,-1.4075
2.821,-0.2394,0.5482,-0.2496,-0.8293,0.0156,0.466,-0.0923,1.6632,-1.4075
2.825,-0.2678,0.5448,-0.3026,-0.8293,0.0156,0.466,-0.0923,1.6632,-1.4075
2.825,-0.3059,0.5572,-0.3551,-0.8293,0.0156,0.466,-0.0923,1.6632,-1.4075
2.829,-0.344,0.5878,-0.4047,-0.8293,0.0156,0.466,-0.0923,1.6632,-1.4075
2.83,-0.387,0.6308,-0.4382,-0.8293,0.0156,0.466,-0.0923,1.6632,-1.4075
2.835,-0.387,0.6308,-0.4382,-0.8293,0.0156,0.466,-0.1524,1.6168,-2.0422
2.835,-0.4341,0.6845,-0.4536,-0.8293,0.0156,0.466,-0.1524,1.6168,-2.0422
2.836,-0.4822,0.737,-0.4475,-0.8293,0.0156,0.466,-0.1524,1.6168,-2.0422
2.839,-0.5323,0.7883,-0.4199,-0.8293,0.0156,0.466,-0.1524,1.6168,-2.0422
2.84,-0.5853,0.8262,-0.3798,-0.8293,0.0156,0.466,-0.1524,1.6168,-2.0422
2.845,-0.642,0.854,-0.3431,-0.8293,0.0156,0.466,-0.1524,1.6168,-2.0422
2.846,-0.6977,0.8716,-0.3173,-0.8293,0.0156,0.466,-0.1524,1.6168,-2.0422
2.846,-0.6977,0.8716,-0.3173,2.3675,3.6387,2.5053,-0.1524,1.6168,-2.0422
2.849,-0.7468,0.8831,-0.3038,2.3675,3.6387,2.5053,-0.1524,1.6168,-2.0422
2.849,-0.7883,0.8836,-0.3036,2.3675,3.6387,2.5053,-0.1524,1.6168,-2.0422
2.853,-0.8247,0.8824,-0.3141,2.3675,3.6387,2.5053,-0.1524,1.6168,-2.0422
2.854,-0.8467,0.8768,-0.3307,2.3675,3.6387,2.5053,-0.1524,1.6168,-2.0422
2.859,-0.8638,0.8707,-0.3466,2.3675,3.6387,2.5053,-0.1524,1.6168,-2.0422
2.859,-0.8685,0.8663,-0.3554,2.3675,3.6387,2.5053,-0.1524,1.6168,-2.0422
2.863,-0.8675,0.8626,-0.3537,2.3675,3.6387,2.5053,-0.1524,1.6168,-2.0422
2.864,-0.8575,0.8619,-0.3341,2.3675,3.6387,2.5053,-0.1524,1.6168,-2.0422
2.868,-0.8448,0.8702,-0.2958,2.3675,3.6387,2.5053,-0.1524,1.6168,-2.0422
2.869,-0.8235,0.8841,-0.2408,2.3675,3.6387,2.5053,-0.1524,1.6168,-2.0422
2.873,-0.8003,0.9063,-0.1695,2.3675,3.6387,2.5053,-0.1524,1.6168,-2.0422
2.874,-0.7681,0.9393,-0.0861,2.3675,3.6387,2.5053,-0.1524,1.6168,-2.0422
2.878,-0.729,0.9777,0.0003,2.3675,3.6387,2.5053,-0.1524,1.6168,-2.0422
2.879,-0.6845,1.0214,0.0797,2.3675,3.6387,2.5053,-0.1524,1.6168,-2.0422
2.883,-0.6352,1.0622,0.1528,2.3675,3.6387,2.5053,-0.1524,1.6168,-2.0422
2.884,-0.5795,1.101,0.2153,2.3675,3.6387,2.5053,-0.1524,1.6168,-2.0422
2.888,-0.5282,1.1367,0.2688,2.3675,3.6387,2.5053,-0.1524,1.6168,-2.0422
2.889,-0.472,1.1684,0.3067,2.3675,3.6387,2.5053,-0.1524,1.6168,-2.0422
2.893,-0.417,1.1983,0.3387,2.3675,3.6387,2.5053,-0.1524,1.6168,-2.0422
2.894,-0.3608,1.2263,0.3646,2.3675,3.6387,2.5053,-0.1524,1.6168,-2.0422
2.897,-0.3073,1.25,0.3856,2.3675,3.6387,2.5053,-0.1524,1.6168,-2.0422
2.898,-0.2509,1.2645,0.4017,2.3675,3.6387,2.5053,-0.1524,1.6168,-2.0422
2.902,-0.2509,1.2645,0.4017,2.3675,3.6387,2.5053,-0.0721,-0.1883,-1.4145
2.903,-0.1879,1.2681,0.4061,2.3675,3.6387,2.5053,-0.0721,-0.1883,-1.4145
2.904,-0.1287,1.2576,0.409,2.3675,3.6387,2.5053,-0.0721,-0.1883,-1.4145
2.907,-0.0657,1.2327,0.4064,2.3675,3.6387,2.5053,-0.0721,-0.1883,-1.4145
2.908,-0.009,1.198,0.3956,2.3675,3.6387,2.5053,-0.0721,-0.1883,-1.4145
2.912,-0.009,1.198,0.3956,-3.0064,0.0053,-0.9804,-0.0721,-0.1883,-1.4145
2.913,0.0396,1.1533,0.3741,-3.0064,0.0053,-0.9804,-0.0721,-0.1883,-1.4145
2.913,0.0735,1.0993,0.3392,-3.0064,0.0053,-0.9804,-0.0721,-0.1883,-1.4145
2.917,0.096,1.0421,0.2954,-3.0064,0.0053,-0.9804,-0.0721,-0.1883,-1.4145
2.917,0.1065,0.9867,0.2437,-3.0064,0.0053,-0.9804,-0.0721,-0.1883,-1.4145
2.922,0.108,0.9356,0.1967,-3.0064,0.0053,-0.9804,-0.0721,-0.1883,-1.4145
2.923,0.098,0.8907,0.1508,-3.0064,0.0053,-0.9804,-0.0721,-0.1883,-1.4145
2.928,0.0787,0.8587,0.1115,-3.0064,0.0053,-0.9804,-0.0721,-0.1883,-1.4145
2.929,0.0518,0.8365,0.0704,-3.0064,0.0053,-0.9804,-0.0721,-0.1883,-1.4145
2.931,0.0129,0.8274,0.0348,-3.0064,0.0053,-0.9804,-0.0721,-0.1883,-1.4145
2.932,-0.0354,0.8274,0.0013,-3.0064,0.0053,-0.9804,-0.0721,-0.1883,-1.4145
2.937,-0.0919,0.8411,-0.0326,-3.0064,0.0053,-0.9804,-0.0721,-0.1883,-1.4145
2.938,-0.1566,0.8628,-0.0715,-3.0064,0.0053,-0.9804,-0.0721,-0.1883,-1.4145
2.941,-0.2279,0.8907,-0.1079,-3.0064,0.0053,-0.9804,-0.0721,-0.1883,-1.4145
2.942,-0.3012,0.9217,-0.1426,-3.0064,0.0053,-0.9804,-0.0721,-0.1883,-1.4145
2.947,-0.375,0.9549,-0.1775,-3.0064,0.0053,-0.9804,-0.0721,-0.1883,-1.4145
2.947,-0.4427,0.9852,-0.2083,-3.0064,0.0053,-0.9804,-0.0721,-0.1883,-1.4145
2.951,-0.5072,1.0116,-0.2291,-3.0064,0.0053,-0.9804,-0.0721,-0.1883,-1.4145
2.952,-0.5651,1.0343,-0.243,-3.0064,0.0053,-0.9804,-0.0721,-0.1883,-1.4145
2.956,-0.6056,1.0468,-0.2525,-3.0064,0.0053,-0.9804,-0.0721,-0.1883,-1.4145
2.957,-0.6388,1.0527,-0.254,-3.0064,0.0053,-0.9804,-0.0721,-0.1883,-1.4145
2.961,-0.6594,1.0507,-0.2491,-3.0064,0.0053,-0.9804,-0.0721,-0.1883,-1.4145
2.962,-0.666,1.0409,-0.2398,-3.0064,0.0053,-0.9804,-0.0721,-0.1883,-1.4145
2.966,-0.6596,1.0285,-0.2283,-3.0064,0.0053,-0.9804,-0.0721,-0.1883,-1.4145
2.967,-0.6383,1.0131,-0.2237,-3.0064,0.0053,-0.9804,-0.0721,-0.1883,-1.4145
2.974,-0.6383,1.0131,-0.2237,-3.0064,0.0053,-0.9804,0.073,0.22,-0.813
2.974,-0.601,0.9977,-0.2195,-3.0064,0.0053,-0.9804,0.073,0.22,-0.813
2.975,-0.5504,0.9864,-0.2142,-3.0064,0.0053,-0.9804,0.073,0.22,-0.813
2.976,-0.4886,0.9774,-0.2127,-3.0064,0.0053,-0.9804,0.073,0.22,-0.813
2.977,-0.4143,0.9715,-0.2176,-3.0064,0.0053,-0.9804,0.073,0.22,-0.813
2.98,-0.4143,0.9715,-0.2176,-5.7572,0.4486,0.9249,0.073,0.22,-0.813
2.981,-0.3286,0.9713,-0.2291,-5.7572,0.4486,0.9249,0.073,0.22,-0.813
2.981,-0.2409,0.9813,-0.2381,-5.7572,0.4486,0.9249,0.073,0.22,-0.813
2.986,-0.1466,0.9921,-0.2369,-5.7572,0.4486,0.9249,0.073,0.22,-0.813
2.987,-0.0564,1.0053,-0.2339,-5.7572,0.4486,0.9249,0.073,0.22,-0.813
2.99,0.0318,1.0202,-0.2281,-5.7572,0.4486,0.9249,0.073,0.22,-0.813
2.991,0.117,1.0309,-0.2249,-5.7572,0.4486,0.9249,0.073,0.22,-0.813
2.996,0.1937,1.0461,-0.2247,-5.7572,0.4486,0.9249,0.073,0.22,-0.813
2.997,0.2599,1.0531,-0.222,-5.7572,0.4486,0.9249,0.073,0.22,-0.813
3,0.3127,1.0585,-0.2146,-5.7572,0.4486,0.9249,0.073,0.22,-0.813
3.001,0.3559,1.0595,-0.2059,-5.7572,0.4486,0.9249,0.073,0.22,-0.813
3.005,0.387,1.0566,-0.1897,-5.7572,0.4486,0.9249,0.073,0.22,-0.813
3.006,0.4053,1.0492,-0.1702,-5.7572,0.4486,0.9249,0.073,0.22,-0.813
3.01,0.4109,1.0368,-0.1524,-5.7572,0.4486,0.9249,0.073,0.22,-0.813
3.01,0.4021,1.0209,-0.1331,-5.7572,0.4486,0.9249,0.073,0.22,-0.813
3.015,0.3853,1.0062,-0.116,-5.7572,0.4486,0.9249,0.073,0.22,-0.813
3.016,0.3554,0.9926,-0.1018,-5.7572,0.4486,0.9249,0.073,0.22,-0.813
3.019,0.321,0.9835,-0.0967,-5.7572,0.4486,0.9249,0.073,0.22,-0.813
3.02,0.2765,0.9786,-0.0996,-5.7572,0.4486,0.9249,0.073,0.22,-0.813
3.025,0.2257,0.9779,-0.1032,-5.7572,0.4486,0.9249,0.073,0.22,-0.813
3.026,0.172,0.9799,-0.1054,-5.7572,0.4486,0.9249,0.073,0.22,-0.813
3.029,0.1104,0.983,-0.1023,-5.7572,0.4486,0.9249,0.073,0.22,-0.813
3.03,0.0498,0.9862,-0.0959,-5.7572,0.4486,0.9249,0.073,0.22,-0.813
3.035,-0.0147,0.9869,-0.0945,-5.7572,0.4486,0.9249,0.073,0.22,-0.813
3.035,-0.0796,0.9872,-0.0903,-5.7572,0.4486,0.9249,0.073,0.22,-0.813
3.039,-0.1407,0.984,-0.0908,-5.7572,0.4486,0.9249,0.073,0.22,-0.813
3.04,-0.1407,0.984,-0.0908,-5.7572,0.4486,0.9249,-0.039,-0.4099,-0.6166
3.04,-0.194,0.9799,-0.0923,-5.7572,0.4486,0.9249,-0.039,-0.4099,-0.6166
3.043,-0.2441,0.9774,-0.0962,-5.7572,0.4486,0.9249,-0.039,-0.4099,-0.6166
3.044,-0.2849,0.975,-0.0945,-5.7572,0.4486,0.9249,-0.039,-0.4099,-0.6166
3.049,-0.3149,0.9725,-0.0891,-5.7572,0.4486,0.9249,-0.039,-0.4099,-0.6166
3.049,-0.3149,0.9725,-0.0891,-2.5465,-0.2488,-0.0835,-0.039,-0.4099,-0.6166
3.05,-0.3366,0.9676,-0.0837,-2.5465,-0.2488,-0.0835,-0.039,-0.4099,-0.6166
3.054,-0.3462,0.9664,-0.0774,-2.5465,-0.2488,-0.0835,-0.039,-0.4099,-0.6166
3.054,-0.3486,0.9642,-0.0778,-2.5465,-0.2488,-0.0835,-0.039,-0.4099,-0.6166
3.058,-0.3471,0.9652,-0.0761,-2.5465,-0.2488,-0.0835,-0.039,-0.4099,-0.6166
3.058,-0.334,0.9671,-0.0798,-2.5465,-0.2488,-0.0835,-0.039,-0.4099,-0.6166
3.064,-0.3166,0.9674,-0.0837,-2.5465,-0.2488,-0.0835,-0.039,-0.4099,-0.6166
3.065,-0.2951,0.9706,-0.0866,-2.5465,-0.2488,-0.0835,-0.039,-0.4099,-0.6166
3.068,-0.2697,0.972,-0.0896,-2.5465,-0.2488,-0.0835,-0.039,-0.4099,-0.6166
3.068,-0.2389,0.9764,-0.0888,-2.5465,-0.2488,-0.0835,-0.039,-0.4099,-0.6166
3.074,-0.2052,0.9791,-0.0883,-2.5465,-0.2488,-0.0835,-0.039,-0.4099,-0.6166
3.075,-0.172,0.9852,-0.0837,-2.5465,-0.2488,-0.0835,-0.039,-0.4099,-0.6166
3.078,-0.1436,0.9889,-0.0874,-2.5465,-0.2488,-0.0835,-0.039,-0.4099,-0.6166
3.078,-0.12,0.9957,-0.0918,-2.5465,-0.2488,-0.0835,-0.039,-0.4099,-0.6166
3.084,-0.1016,1.0016,-0.0964,-2.5465,-0.2488,-0.0835,-0.039,-0.4099,-0.6166
3.084,-0.085,1.0055,-0.0952,-2.5465,-0.2488,-0.0835,-0.039,-0.4099,-0.6166
3.087,-0.0713,1.0109,-0.0881,-2.5465,-0.2488,-0.0835,-0.039,-0.4099,-0.6166
3.088,-0.0601,1.0106,-0.0776,-2.5465,-0.2488,-0.0835,-0.039,-0.4099,-0.6166
3.093,-0.0535,1.0087,-0.0637,-2.5465,-0.2488,-0.0835,-0.039,-0.4099,-0.6166
3.094,-0.0506,1.0062,-0.0485,-2.5465,-0.2488,-0.0835,-0.039,-0.4099,-0.6166
3.098,-0.0577,1.0026,-0.04,-2.5465,-0.2488,-0.0835,-0.039,-0.4099,-0.6166
3.099,-0.0638,1.0011,-0.0348,-2.5465,-0.2488,-0.0835,-0.039,-0.4099,-0.6166
3.102,-0.0804,1.0001,-0.0348,-2.5465,-0.2488,-0.0835,-0.039,-0.4099,-0.6166
3.103,-0.095,1.0004,-0.0378,-2.5465,-0.2488,-0.0835,-0.039,-0.4099,-0.6166
3.108,-0.095,1.0004,-0.0378,-2.5465,-0.2488,-0.0835,-0.0873,-0.1629,-0.6289
3.109,-0.1114,1.0009,-0.0395,-2.5465,-0.2488,-0.0835,-0.0873,-0.1629,-0.6289
3.109,-0.1241,0.9999,-0.0344,-2.5465,-0.2488,-0.0835,-0.0873,-0.1629,-0.6289
3.112,-0.1375,0.9994,-0.0341,-2.5465,-0.2488,-0.0835,-0.0873,-0.1629,-0.6289
3.112,-0.1476,0.9967,-0.0268,-2.5465,-0.2488,-0.0835,-0.0873,-0.1629,-0.6289
3.118,-0.1612,0.9974,-0.0231,-2.5465,-0.2488,-0.0835,-0.0873,-0.1629,-0.6289
3.119,-0.1612,0.9974,-0.0231,1.8192,0.1952,-0.7473,-0.0873,-0.1629,-0.6289
3.12,-0.1722,0.9933,-0.0231,1.8192,0.1952,-0.7473,-0.0873,-0.1629,-0.6289
3.122,-0.1844,0.9891,-0.0309,1.8192,0.1952,-0.7473,-0.0873,-0.1629,-0.6289
3.122,-0.1925,0.9908,-0.0432,1.8192,0.1952,-0.7473,-0.0873,-0.1629,-0.6289
3.127,-0.2003,0.9913,-0.0534,1.8192,0.1952,-0.7473,-0.0873,-0.1629,-0.6289
3.127,-0.2028,0.9916,-0.0661,1.8192,0.1952,-0.7473,-0.0873,-0.1629,-0.6289
3.132,-0.1984,0.994,-0.0769,1.8192,0.1952,-0.7473,-0.0873,-0.1629,-0.6289
3.132,-0.1925,0.9923,-0.0822,1.8192,0.1952,-0.7473,-0.0873,-0.1629,-0.6289
3.136,-0.1847,0.9943,-0.0857,1.8192,0.1952,-0.7473,-0.0873,-0.1629,-0.6289
3.137,-0.1722,0.993,-0.0842,1.8192,0.1952,-0.7473,-0.0873,-0.1629,-0.6289
3.141,-0.1603,0.9911,-0.0857,1.8192,0.1952,-0.7473,-0.0873,-0.1629,-0.6289
3.142,-0.151,0.9923,-0.1011,1.8192,0.1952,-0.7473,-0.0873,-0.1629,-0.6289
3.146,-0.14,0.9967,-0.1094,1.8192,0.1952,-0.7473,-0.0873,-0.1629,-0.6289
3.147,-0.1287,0.9984,-0.1172,1.8192,0.1952,-0.7473,-0.0873,-0.1629,-0.6289
3.152,-0.1163,1.0016,-0.1238,1.8192,0.1952,-0.7473,-0.0873,-0.1629,-0.6289
3.153,-0.1021,1.0048,-0.1247,1.8192,0.1952,-0.7473,-0.0873,-0.1629,-0.6289
3.156,-0.0906,1.0062,-0.1211,1.8192,0.1952,-0.7473,-0.0873,-0.1629,-0.6289
3.157,-0.0826,1.0075,-0.123,1.8192,0.1952,-0.7473,-0.0873,-0.1629,-0.6289
3.162,-0.0801,1.0082,-0.1257,1.8192,0.1952,-0.7473,-0.0873,-0.1629,-0.6289
3.162,-0.0792,1.0089,-0.1279,1.8192,0.1952,-0.7473,-0.0873,-0.1629,-0.6289
3.165,-0.0765,1.0082,-0.1225,1.8192,0.1952,-0.7473,-0.0873,-0.1629,-0.6289
3.166,-0.074,1.0101,-0.1142,1.8192,0.1952,-0.7473,-0.0873,-0.1629,-0.6289
3.174,-0.0682,1.0079,-0.1057,1.8192,0.1952,-0.7473,-0.0873,-0.1629,-0.6289
3.175,-0.0633,1.0055,-0.102,1.8192,0.1952,-0.7473,-0.0873,-0.1629,-0.6289
3.175,-0.0606,1.0048,-0.1079,1.8192,0.1952,-0.7473,-0.0873,-0.1629,-0.6289
3.176,-0.0606,1.0048,-0.1079,1.8192,0.1952,-0.7473,-0.1229,-0.2354,-0.6123
3.177,-0.0603,1.004,-0.1106,1.8192,0.1952,-0.7473,-0.1229,-0.2354,-0.6123
3.18,-0.0606,1.0028,-0.1145,1.8192,0.1952,-0.7473,-0.1229,-0.2354,-0.6123
3.181,-0.0562,1.0018,-0.1155,1.8192,0.1952,-0.7473,-0.1229,-0.2354,-0.6123
3.186,-0.0562,1.0018,-0.1155,-0.5268,0.0711,-0.0306,-0.1229,-0.2354,-0.6123
3.187,-0.0569,1.0014,-0.114,-0.5268,0.0711,-0.0306,-0.1229,-0.2354,-0.6123
3.187,-0.0579,1.0001,-0.1089,-0.5268,0.0711,-0.0306,-0.1229,-0.2354,-0.6123
3.19,-0.0613,0.9987,-0.1047,-0.5268,0.0711,-0.0306,-0.1229,-0.2354,-0.6123
3.19,-0.0655,0.9967,-0.102,-0.5268,0.0711,-0.0306,-0.1229,-0.2354,-0.6123
3.195,-0.0721,0.9948,-0.1045,-0.5268,0.0711,-0.0306,-0.1229,-0.2354,-0.6123
3.195,-0.0779,0.9938,-0.1081,-0.5268,0.0711,-0.0306,-0.1229,-0.2354,-0.6123
3.201,-0.084,0.9933,-0.1142,-0.5268,0.0711,-0.0306,-0.1229,-0.2354,-0.6123
3.202,-0.0867,0.9938,-0.1169,-0.5268,0.0711,-0.0306,-0.1229,-0.2354,-0.6123
3.205,-0.0872,0.9921,-0.1072,-0.5268,0.0711,-0.0306,-0.1229,-0.2354,-0.6123
3.205,-0.0892,0.9882,-0.0957,-0.5268,0.0711,-0.0306,-0.1229,-0.2354,-0.6123
3.21,-0.0875,0.985,-0.0837,-0.5268,0.0711,-0.0306,-0.1229,-0.2354,-0.6123
3.211,-0.0877,0.984,-0.0803,-0.5268,0.0711,-0.0306,-0.1229,-0.2354,-0.6123
3.215,-0.0811,0.9833,-0.0786,-0.5268,0.0711,-0.0306,-0.1229,-0.2354,-0.6123
3.216,-0.0701,0.9852,-0.0847,-0.5268,0.0711,-0.0306,-0.1229,-0.2354,-0.6123
3.22,-0.0574,0.9862,-0.1015,-0.5268,0.0711,-0.0306,-0.1229,-0.2354,-0.6123
3.22,-0.0445,0.9923,-0.1157,-0.5268,0.0711,-0.0306,-0.1229,-0.2354,-0.6123
3.224,-0.0318,0.9967,-0.1235,-0.5268,0.0711,-0.0306,-0.1229,-0.2354,-0.6123
3.225,-0.0222,1.0018,-0.1262,-0.5268,0.0711,-0.0306,-0.1229,-0.2354,-0.6123
3.229,-0.0105,1.0036,-0.1235,-0.5268,0.0711,-0.0306,-0.1229,-0.2354,-0.6123
3.23,-0.0054,1.0033,-0.1142,-0.5268,0.0711,-0.0306,-0.1229,-0.2354,-0.6123
3.235,0.001,1.0043,-0.1052,-0.5268,0.0711,-0.0306,-0.1229,-0.2354,-0.6123
3.236,0.0044,1.0011,-0.0964,-0.5268,0.0711,-0.0306,-0.1229,-0.2354,-0.6123
3.239,0.0068,0.9992,-0.0969,-0.5268,0.0711,-0.0306,-0.1229,-0.2354,-0.6123
3.24,0.0093,0.9962,-0.0971,-0.5268,0.0711,-0.0306,-0.1229,-0.2354,-0.6123
3.245,0.0127,0.9957,-0.0986,-0.5268,0.0711,-0.0306,-0.1229,-0.2354,-0.6123
3.245,0.0142,0.9996,-0.1079,-0.5268,0.0711,-0.0306,-0.1229,-0.2354,-0.6123
3.246,0.0142,0.9996,-0.1079,-0.5268,0.0711,-0.0306,-0.2313,-0.3188,-0.77
3.249,0.0156,1.0031,-0.1128,-0.5268,0.0711,-0.0306,-0.2313,-0.3188,-0.77
3.25,0.0144,1.0087,-0.116,-0.5268,0.0711,-0.0306,-0.2313,-0.3188,-0.77
3.254,0.0144,1.0087,-0.116,0.3981,0.2196,-0.432,-0.2313,-0.3188,-0.77
3.255,0.0066,1.015,-0.1067,0.3981,0.2196,-0.432,-0.2313,-0.3188,-0.77
3.255,-0.0044,1.0233,-0.0967,0.3981,0.2196,-0.432,-0.2313,-0.3188,-0.77
3.258,-0.0149,1.028,-0.0871,0.3981,0.2196,-0.432,-0.2313,-0.3188,-0.77
3.259,-0.0237,1.0304,-0.08,0.3981,0.2196,-0.432,-0.2313,-0.3188,-0.77
3.263,-0.0303,1.0336,-0.0769,0.3981,0.2196,-0.432,-0.2313,-0.3188,-0.77
3.264,-0.0293,1.036,-0.0742,0.3981,0.2196,-0.432,-0.2313,-0.3188,-0.77
3.268,-0.0276,1.0324,-0.0754,0.3981,0.2196,-0.432,-0.2313,-0.3188,-0.77
3.269,-0.0249,1.0331,-0.0786,0.3981,0.2196,-0.432,-0.2313,-0.3188,-0.77
3.273,-0.0188,1.0316,-0.0844,0.3981,0.2196,-0.432,-0.2313,-0.3188,-0.77
3.274,-0.0176,1.0302,-0.0898,0.3981,0.2196,-0.432,-0.2313,-0.3188,-0.77
3.278,-0.0154,1.0307,-0.0881,0.3981,0.2196,-0.432,-0.2313,-0.3188,-0.77
3.279,-0.0191,1.028,-0.0871,0.3981,0.2196,-0.432,-0.2313,-0.3188,-0.77
3.283,-0.0261,1.0243,-0.0901,0.3981,0.2196,-0.432,-0.2313,-0.3188,-0.77
3.284,-0.0286,1.0219,-0.0903,0.3981,0.2196,-0.432,-0.2313,-0.3188,-0.77
3.287,-0.0301,1.0194,-0.0888,0.3981,0.2196,-0.432,-0.2313,-0.3188,-0.77
3.288,-0.0305,1.0119,-0.0918,0.3981,0.2196,-0.432,-0.2313,-0.3188,-0.77
3.292,-0.0293,1.0092,-0.0998,0.3981,0.2196,-0.432,-0.2313,-0.3188,-0.77
3.293,-0.0239,1.0031,-0.1074,0.3981,0.2196,-0.432,-0.2313,-0.3188,-0.77
3.298,-0.0151,1.0043,-0.1111,0.3981,0.2196,-0.432,-0.2313,-0.3188,-0.77
3.298,-0.0071,1.0018,-0.1081,0.3981,0.2196,-0.432,-0.2313,-0.3188,-0.77
3.303,0.0034,0.9962,-0.103,0.3981,0.2196,-0.432,-0.2313,-0.3188,-0.77
3.304,0.0085,0.9916,-0.1106,0.3981,0.2196,-0.432,-0.2313,-0.3188,-0.77
3.307,0.0122,0.9867,-0.1279,0.3981,0.2196,-0.432,-0.2313,-0.3188,-0.77
3.308,0.0144,0.9825,-0.1423,0.3981,0.2196,-0.432,-0.2313,-0.3188,-0.77
3.312,0.0173,0.9796,-0.1509,0.3981,0.2196,-0.432,-0.2313,-0.3188,-0.77
3.313,0.0173,0.9796,-0.1509,0.3981,0.2196,-0.432,-0.3991,-0.4157,-1.0999
3.313,0.0195,0.9803,-0.157,0.3981,0.2196,-0.432,-0.3991,-0.4157,-1.0999
3.318,0.0191,0.9801,-0.1607,0.3981,0.2196,-0.432,-0.3991,-0.4157,-1.0999
3.318,0.022,0.9789,-0.1619,0.3981,0.2196,-0.432,-0.3991,-0.4157,-1.0999
3.323,0.023,0.9762,-0.1641,0.3981,0.2196,-0.432,-0.3991,-0.4157,-1.0999
3.324,0.023,0.9762,-0.1641,1.7127,0.2768,-0.7004,-0.3991,-0.4157,-1.0999
3.325,0.0239,0.9723,-0.1648,1.7127,0.2768,-0.7004,-0.3991,-0.4157,-1.0999
3.329,0.0237,0.9708,-0.1646,1.7127,0.2768,-0.7004,-0.3991,-0.4157,-1.0999
3.329,0.0254,0.9703,-0.1636,1.7127,0.2768,-0.7004,-0.3991,-0.4157,-1.0999
3.333,0.0259,0.9713,-0.1653,1.7127,0.2768,-0.7004,-0.3991,-0.4157,-1.0999
3.333,0.0271,0.9737,-0.1619,1.7127,0.2768,-0.7004,-0.3991,-0.4157,-1.0999
3.336,0.0227,0.9764,-0.1633,1.7127,0.2768,-0.7004,-0.3991,-0.4157,-1.0999
3.337,0.0203,0.9752,-0.1682,1.7127,0.2768,-0.7004,-0.3991,-0.4157,-1.0999
3.342,0.0125,0.9789,-0.1748,1.7127,0.2768,-0.7004,-0.3991,-0.4157,-1.0999
3.343,0.0059,0.9828,-0.1782,1.7127,0.2768,-0.7004,-0.3991,-0.4157,-1.0999
3.347,-0.0034,0.9901,-0.1861,1.7127,0.2768,-0.7004,-0.3991,-0.4157,-1.0999
3.348,-0.013,0.9952,-0.1892,1.7127,0.2768,-0.7004,-0.3991,-0.4157,-1.0999
3.353,-0.0232,1.004,-0.188,1.7127,0.2768,-0.7004,-0.3991,-0.4157,-1.0999
3.353,-0.0332,1.0079,-0.1902,1.7127,0.2768,-0.7004,-0.3991,-0.4157,-1.0999
3.356,-0.042,1.0128,-0.1966,1.7127,0.2768,-0.7004,-0.3991,-0.4157,-1.0999
3.357,-0.0506,1.0172,-0.201,1.7127,0.2768,-0.7004,-0.3991,-0.4157,-1.0999
3.362,-0.0569,1.0255,-0.1958,1.7127,0.2768,-0.7004,-0.3991,-0.4157,-1.0999
3.362,-0.065,1.0343,-0.1868,1.7127,0.2768,-0.7004,-0.3991,-0.4157,-1.0999
3.367,-0.0772,1.0424,-0.1743,1.7127,0.2768,-0.7004,-0.3991,-0.4157,-1.0999
3.368,-0.0884,1.0463,-0.1597,1.7127,0.2768,-0.7004,-0.3991,-0.4157,-1.0999
3.371,-0.0955,1.049,-0.1436,1.7127,0.2768,-0.7004,-0.3991,-0.4157,-1.0999
3.372,-0.0943,1.049,-0.1279,1.7127,0.2768,-0.7004,-0.3991,-0.4157,-1.0999
3.375,-0.0914,1.0495,-0.1174,1.7127,0.2768,-0.7004,-0.3991,-0.4157,-1.0999
3.376,-0.0831,1.0553,-0.1116,1.7127,0.2768,-0.7004,-0.3991,-0.4157,-1.0999
3.381,-0.076,1.0578,-0.1096,1.7127,0.2768,-0.7004,-0.3991,-0.4157,-1.0999
3.382,-0.076,1.0578,-0.1096,1.7127,0.2768,-0.7004,-0.6067,-0.3452,-1.652
3.383,-0.0677,1.0668,-0.1113,1.7127,0.2768,-0.7004,-0.6067,-0.3452,-1.652
3.385,-0.0535,1.0829,-0.116,1.7127,0.2768,-0.7004,-0.6067,-0.3452,-1.652
3.386,-0.0371,1.1044,-0.1135,1.7127,0.2768,-0.7004,-0.6067,-0.3452,-1.652
3.391,-0.0371,1.1044,-0.1135,2.7043,0.5962,-1.0485,-0.6067,-0.3452,-1.652
3.392,-0.021,1.133,-0.1064,2.7043,0.5962,-1.0485,-0.6067,-0.3452,-1.652
3.393,-0.0056,1.166,-0.0969,2.7043,0.5962,-1.0485,-0.6067,-0.3452,-1.652
3.396,0.0044,1.1868,-0.0869,2.7043,0.5962,-1.0485,-0.6067,-0.3452,-1.652
3.397,0.0208,1.1995,-0.0876,2.7043,0.5962,-1.0485,-0.6067,-0.3452,-1.652
3.4,0.0437,1.2068,-0.0905,2.7043,0.5962,-1.0485,-0.6067,-0.3452,-1.652
3.401,0.0642,1.2156,-0.1045,2.7043,0.5962,-1.0485,-0.6067,-0.3452,-1.652
3.406,0.0853,1.2268,-0.1179,2.7043,0.5962,-1.0485,-0.6067,-0.3452,-1.652
3.407,0.1026,1.2378,-0.1282,2.7043,0.5962,-1.0485,-0.6067,-0.3452,-1.652
3.41,0.1155,1.2513,-0.1335,2.7043,0.5962,-1.0485,-0.6067,-0.3452,-1.652
3.41,0.1251,1.2645,-0.1396,2.7043,0.5962,-1.0485,-0.6067,-0.3452,-1.652
3.415,0.1339,1.2796,-0.1458,2.7043,0.5962,-1.0485,-0.6067,-0.3452,-1.652
3.417,0.1358,1.2969,-0.1531,2.7043,0.5962,-1.0485,-0.6067,-0.3452,-1.652
3.419,0.1334,1.3187,-0.1638,2.7043,0.5962,-1.0485,-0.6067,-0.3452,-1.652
3.42,0.1344,1.3478,-0.1824,2.7043,0.5962,-1.0485,-0.6067,-0.3452,-1.652
3.424,0.1356,1.3847,-0.2034,2.7043,0.5962,-1.0485,-0.6067,-0.3452,-1.652
3.425,0.1449,1.4294,-0.2259,2.7043,0.5962,-1.0485,-0.6067,-0.3452,-1.652
3.429,0.1739,1.4733,-0.2425,2.7043,0.5962,-1.0485,-0.6067,-0.3452,-1.652
3.43,0.2147,1.5239,-0.2481,2.7043,0.5962,-1.0485,-0.6067,-0.3452,-1.652
3.435,0.2646,1.584,-0.2379,2.7043,0.5962,-1.0485,-0.6067,-0.3452,-1.652
3.436,0.3208,1.6468,-0.2129,2.7043,0.5962,-1.0485,-0.6067,-0.3452,-1.652
3.441,0.3813,1.7071,-0.1809,2.7043,0.5962,-1.0485,-0.6067,-0.3452,-1.652
3.442,0.4436,1.7599,-0.1409,2.7043,0.5962,-1.0485,-0.6067,-0.3452,-1.652
3.444,0.5042,1.8024,-0.1079,2.7043,0.5962,-1.0485,-0.6067,-0.3452,-1.652
3.445,0.5602,1.8342,-0.0854,2.7043,0.5962,-1.0485,-0.6067,-0.3452,-1.652
3.45,0.5997,1.8608,-0.0566,2.7043,0.5962,-1.0485,-0.6067,-0.3452,-1.652
3.451,0.5997,1.8608,-0.0566,2.7043,0.5962,-1.0485,-0.8051,-0.5396,-2.5646
3.451,0.6271,1.8811,-0.0133,2.7043,0.5962,-1.0485,-0.8051,-0.5396,-2.5646
3.454,0.6376,1.8925,0.0345,2.7043,0.5962,-1.0485,-0.8051,-0.5396,-2.5646
3.455,0.6379,1.8979,0.0629,2.7043,0.5962,-1.0485,-0.8051,-0.5396,-2.5646
3.459,0.6232,1.905,0.0714,2.7043,0.5962,-1.0485,-0.8051,-0.5396,-2.5646
3.462,0.5985,1.9057,0.0768,2.7043,0.5962,-1.0485,-0.8051,-0.5396,-2.5646
3.462,0.5985,1.9057,0.0768,3.5181,1.1001,-1.9936,-0.8051,-0.5396,-2.5646
3.466,0.568,1.9082,0.0839,3.5181,1.1001,-1.9936,-0.8051,-0.5396,-2.5646
3.467,0.5328,1.9101,0.09,3.5181,1.1001,-1.9936,-0.8051,-0.5396,-2.5646
3.468,0.4954,1.9131,0.0939,3.5181,1.1001,-1.9936,-0.8051,-0.5396,-2.5646
3.469,0.4541,1.915,0.0946,3.5181,1.1001,-1.9936,-0.8051,-0.5396,-2.5646
3.474,0.408,1.9165,0.0939,3.5181,1.1001,-1.9936,-0.8051,-0.5396,-2.5646
3.475,0.3581,1.9136,0.0866,3.5181,1.1001,-1.9936,-0.8051,-0.5396,-2.5646
3.48,0.3063,1.9111,0.068,3.5181,1.1001,-1.9936,-0.8051,-0.5396,-2.5646
3.48,0.2541,1.9006,0.048,3.5181,1.1001,-1.9936,-0.8051,-0.5396,-2.5646
3.484,0.194,1.8894,0.0196,3.5181,1.1001,-1.9936,-0.8051,-0.5396,-2.5646
3.485,0.1283,1.8718,-0.0053,3.5181,1.1001,-1.9936,-0.8051,-0.5396,-2.5646
3.488,0.0552,1.8451,-0.0285,3.5181,1.1001,-1.9936,-0.8051,-0.5396,-2.5646
3.489,-0.0362,1.8202,-0.0522,3.5181,1.1001,-1.9936,-0.8051,-0.5396,-2.5646
3.493,-0.139,1.788,-0.0881,3.5181,1.1001,-1.9936,-0.8051,-0.5396,-2.5646
3.494,-0.2389,1.7506,-0.1277,3.5181,1.1001,-1.9936,-0.8051,-0.5396,-2.5646
3.498,-0.3335,1.7081,-0.1599,3.5181,1.1001,-1.9936,-0.8051,-0.5396,-2.5646
3.499,-0.4155,1.6583,-0.1638,3.5181,1.1001,-1.9936,-0.8051,-0.5396,-2.5646
3.503,-0.4835,1.6072,-0.1284,3.5181,1.1001,-1.9936,-0.8051,-0.5396,-2.5646
3.504,-0.5421,1.5478,-0.0483,3.5181,1.1001,-1.9936,-0.8051,-0.5396,-2.5646
3.509,-0.5873,1.4829,0.0494,3.5181,1.1001,-1.9936,-0.8051,-0.5396,-2.5646
3.51,-0.6249,1.4086,0.1345,3.5181,1.1001,-1.9936,-0.8051,-0.5396,-2.5646
3.513,-0.6601,1.3307,0.198,3.5181,1.1001,-1.9936,-0.8051,-0.5396,-2.5646
3.514,-0.6931,1.2491,0.2451,3.5181,1.1001,-1.9936,-0.8051,-0.5396,-2.5646
3.518,-0.7317,1.1655,0.2969,3.5181,1.1001,-1.9936,-0.8051,-0.5396,-2.5646
3.52,-0.7317,1.1655,0.2969,3.5181,1.1001,-1.9936,-0.9358,-0.2369,-3.2454
3.52,-0.7861,1.0834,0.3492,3.5181,1.1001,-1.9936,-0.9358,-0.2369,-3.2454
3.523,-0.8531,1.004,0.3915,3.5181,1.1001,-1.9936,-0.9358,-0.2369,-3.2454
3.524,-0.9232,0.9281,0.3946,3.5181,1.1001,-1.9936,-0.9358,-0.2369,-3.2454
3.529,-0.9852,0.8577,0.3634,3.5181,1.1001,-1.9936,-0.9358,-0.2369,-3.2454
3.531,-1.028,0.7942,0.3221,3.5181,1.1001,-1.9936,-0.9358,-0.2369,-3.2454
3.531,-1.028,0.7942,0.3221,7.8262,6.51,-2.2737,-0.9358,-0.2369,-3.2454
3.532,-1.05,0.7343,0.2744,7.8262,6.51,-2.2737,-0.9358,-0.2369,-3.2454
3.533,-1.0566,0.6762,0.2295,7.8262,6.51,-2.2737,-0.9358,-0.2369,-3.2454
3.537,-1.0561,0.6163,0.2033,7.8262,6.51,-2.2737,-0.9358,-0.2369,-3.2454
3.538,-1.0441,0.557,0.1992,7.8262,6.51,-2.2737,-0.9358,-0.2369,-3.2454
3.542,-1.0375,0.4949,0.2236,7.8262,6.51,-2.2737,-0.9358,-0.2369,-3.2454
3.544,-1.0419,0.4334,0.2664,7.8262,6.51,-2.2737,-0.9358,-0.2369,-3.2454
3.547,-1.058,0.3674,0.3042,7.8262,6.51,-2.2737,-0.9358,-0.2369,-3.2454
3.548,-1.0976,0.3076,0.334,7.8262,6.51,-2.2737,-0.9358,-0.2369,-3.2454
3.552,-1.1462,0.258,0.3651,7.8262,6.51,-2.2737,-0.9358,-0.2369,-3.2454
3.553,-1.2088,0.2189,0.391,7.8262,6.51,-2.2737,-0.9358,-0.2369,-3.2454
3.556,-1.2677,0.1962,0.4098,7.8262,6.51,-2.2737,-0.9358,-0.2369,-3.2454
3.56,-1.3256,0.183,0.4244,7.8262,6.51,-2.2737,-0.9358,-0.2369,-3.2454
3.561,-1.3722,0.1825,0.4454,7.8262,6.51,-2.2737,-0.9358,-0.2369,-3.2454
3.564,-1.4084,0.1947,0.4762,7.8262,6.51,-2.2737,-0.9358,-0.2369,-3.2454
3.565,-1.4335,0.2177,0.5116,7.8262,6.51,-2.2737,-0.9358,-0.2369,-3.2454
3.569,-1.4423,0.2492,0.5331,7.8262,6.51,-2.2737,-0.9358,-0.2369,-3.2454
3.569,-1.4501,0.3017,0.528,7.8262,6.51,-2.2737,-0.9358,-0.2369,-3.2454
3.574,-1.4433,0.3689,0.4882,7.8262,6.51,-2.2737,-0.9358,-0.2369,-3.2454
3.576,-1.422,0.4314,0.4757,7.8262,6.51,-2.2737,-0.9358,-0.2369,-3.2454
3.579,-1.3803,0.4558,0.4699,7.8262,6.51,-2.2737,-0.9358,-0.2369,-3.2454
3.58,-1.326,0.4436,0.4696,7.8262,6.51,-2.2737,-0.9358,-0.2369,-3.2454
3.584,-1.2796,0.4043,0.4559,7.8262,6.51,-2.2737,-0.9358,-0.2369,-3.2454
3.585,-1.2571,0.3476,0.4489,7.8262,6.51,-2.2737,-0.9358,-0.2369,-3.2454
3.589,-1.2564,0.2883,0.4491,7.8262,6.51,-2.2737,-0.9358,-0.2369,-3.2454
3.59,-1.2706,0.2389,0.4428,7.8262,6.51,-2.2737,-0.9358,-0.2369,-3.2454
3.591,-1.2706,0.2389,0.4428,7.8262,6.51,-2.2737,-0.4752,0.5252,-2.0531
3.597,-1.2879,0.2081,0.4264,7.8262,6.51,-2.2737,-0.4752,0.5252,-2.0531
3.598,-1.2879,0.2081,0.4264,5.1024,8.9102,-0.7197,-0.4752,0.5252,-2.0531
3.599,-1.2955,0.2025,0.3993,5.1024,8.9102,-0.7197,-0.4752,0.5252,-2.0531
3.599,-1.2772,0.2123,0.3707,5.1024,8.9102,-0.7197,-0.4752,0.5252,-2.0531
3.6,-1.2203,0.2301,0.3485,5.1024,8.9102,-0.7197,-0.4752,0.5252,-2.0531
3.603,-1.1291,0.2482,0.3284,5.1024,8.9102,-0.7197,-0.4752,0.5252,-2.0531
3.604,-1.0146,0.2677,0.3294,5.1024,8.9102,-0.7197,-0.4752,0.5252,-2.0531
3.608,-0.8809,0.2768,0.3343,5.1024,8.9102,-0.7197,-0.4752,0.5252,-2.0531
3.609,-0.7378,0.2829,0.3292,5.1024,8.9102,-0.7197,-0.4752,0.5252,-2.0531
3.614,-0.6017,0.2795,0.3059,5.1024,8.9102,-0.7197,-0.4752,0.5252,-2.0531
3.614,-0.4786,0.2702,0.2498,5.1024,8.9102,-0.7197,-0.4752,0.5252,-2.0531
3.618,-0.3757,0.2494,0.1779,5.1024,8.9102,-0.7197,-0.4752,0.5252,-2.0531
3.618,-0.2824,0.2111,0.1266,5.1024,8.9102,-0.7197,-0.4752,0.5252,-2.0531
3.623,-0.2013,0.1646,0.1125,5.1024,8.9102,-0.7197,-0.4752,0.5252,-2.0531
3.624,-0.1297,0.1119,0.1144,5.1024,8.9102,-0.7197,-0.4752,0.5252,-2.0531
3.627,-0.0723,0.0596,0.1239,5.1024,8.9102,-0.7197,-0.4752,0.5252,-2.0531
3.629,-0.0296,0.012,0.1462,5.1024,8.9102,-0.7197,-0.4752,0.5252,-2.0531
3.633,-0.0066,-0.0259,0.1748,5.1024,8.9102,-0.7197,-0.4752,0.5252,-2.0531
3.634,0.0071,-0.0574,0.2134,5.1024,8.9102,-0.7197,-0.4752,0.5252,-2.0531
3.638,0.0151,-0.0875,0.2564,5.1024,8.9102,-0.7197,-0.4752,0.5252,-2.0531
3.64,0.0107,-0.1185,0.2998,5.1024,8.9102,-0.7197,-0.4752,0.5252,-2.0531
3.642,-0.0007,-0.1507,0.3314,5.1024,8.9102,-0.7197,-0.4752,0.5252,-2.0531
3.643,-0.0315,-0.1815,0.3445,5.1024,8.9102,-0.7197,-0.4752,0.5252,-2.0531
3.646,-0.0801,-0.2096,0.3316,5.1024,8.9102,-0.7197,-0.4752,0.5252,-2.0531
3.647,-0.1458,-0.2287,0.2866,5.1024,8.9102,-0.7197,-0.4752,0.5252,-2.0531
3.652,-0.2206,-0.2355,0.2234,5.1024,8.9102,-0.7197,-0.4752,0.5252,-2.0531
3.653,-0.299,-0.2321,0.1525,5.1024,8.9102,-0.7197,-0.4752,0.5252,-2.0531
3.658,-0.3745,-0.2099,0.0831,5.1024,8.9102,-0.7197,-0.4752,0.5252,-2.0531
3.658,-0.3745,-0.2099,0.0831,5.1024,8.9102,-0.7197,0.4265,-0.1282,0.2305
3.659,-0.4458,-0.1801,0.026,5.1024,8.9102,-0.7197,0.4265,-0.1282,0.2305
3.662,-0.5147,-0.1417,-0.0107,5.1024,8.9102,-0.7197,0.4265,-0.1282,0.2305
3.663,-0.5147,-0.1417,-0.0107,-4.489,-2.3167,2.3348,0.4265,-0.1282,0.2305
3.663,-0.588,-0.0946,-0.0243,-4.489,-2.3167,2.3348,0.4265,-0.1282,0.2305
3.666,-0.6611,-0.044,-0.0217,-4.489,-2.3167,2.3348,0.4265,-0.1282,0.2305
3.667,-0.7378,0.0122,-0.0058,-4.489,-2.3167,2.3348,0.4265,-0.1282,0.2305
3.673,-0.812,0.0718,0.0106,-4.489,-2.3167,2.3348,0.4265,-0.1282,0.2305
3.674,-0.8812,0.1346,0.0231,-4.489,-2.3167,2.3348,0.4265,-0.1282,0.2305
3.677,-0.9403,0.1996,0.0272,-4.489,-2.3167,2.3348,0.4265,-0.1282,0.2305
3.678,-0.9933,0.2643,0.0267,-4.489,-2.3167,2.3348,0.4265,-0.1282,0.2305
3.681,-1.0383,0.3271,0.0243,-4.489,-2.3167,2.3348,0.4265,-0.1282,0.2305
3.682,-1.072,0.3911,0.0245,-4.489,-2.3167,2.3348,0.4265,-0.1282,0.2305
3.685,-1.0976,0.449,0.0211,-4.489,-2.3167,2.3348,0.4265,-0.1282,0.2305
3.687,-1.1145,0.503,0.0167,-4.489,-2.3167,2.3348,0.4265,-0.1282,0.2305
3.691,-1.125,0.5506,0.0118,-4.489,-2.3167,2.3348,0.4265,-0.1282,0.2305
3.692,-1.1284,0.5865,0.005,-4.489,-2.3167,2.3348,0.4265,-0.1282,0.2305
3.697,-1.1257,0.6119,-0.0024,-4.489,-2.3167,2.3348,0.4265,-0.1282,0.2305
3.698,-1.1196,0.6305,-0.0131,-4.489,-2.3167,2.3348,0.4265,-0.1282,0.2305
3.702,-1.1081,0.6405,-0.0256,-4.489,-2.3167,2.3348,0.4265,-0.1282,0.2305
3.702,-1.0935,0.6405,-0.0356,-4.489,-2.3167,2.3348,0.4265,-0.1282,0.2305
3.707,-1.0798,0.6327,-0.049,-4.489,-2.3167,2.3348,0.4265,-0.1282,0.2305
3.708,-1.0639,0.6178,-0.0534,-4.489,-2.3167,2.3348,0.4265,-0.1282,0.2305
3.71,-1.038,0.5985,-0.0544,-4.489,-2.3167,2.3348,0.4265,-0.1282,0.2305
3.711,-1.0085,0.5777,-0.0446,-4.489,-2.3167,2.3348,0.4265,-0.1282,0.2305
3.716,-0.975,0.5575,-0.0265,-4.489,-2.3167,2.3348,0.4265,-0.1282,0.2305
3.718,-0.931,0.536,-0.0087,-4.489,-2.3167,2.3348,0.4265,-0.1282,0.2305
3.721,-0.8846,0.5203,0.0074,-4.489,-2.3167,2.3348,0.4265,-0.1282,0.2305
3.722,-0.836,0.5091,0.0216,-4.489,-2.3167,2.3348,0.4265,-0.1282,0.2305
3.726,-0.7822,0.4996,0.0289,-4.489,-2.3167,2.3348,0.4265,-0.1282,0.2305
3.727,-0.7822,0.4996,0.0289,-4.489,-2.3167,2.3348,1.4533,0.7176,2.9355
3.729,-0.7273,0.4959,0.034,-4.489,-2.3167,2.3348,1.4533,0.7176,2.9355
3.731,-0.7273,0.4959,0.034,3.3979,-6.0517,1.0055,1.4533,0.7176,2.9355
3.732,-0.6694,0.4952,0.0333,3.3979,-6.0517,1.0055,1.4533,0.7176,2.9355
3.733,-0.6147,0.4969,0.0274,3.3979,-6.0517,1.0055,1.4533,0.7176,2.9355
3.734,-0.5685,0.5018,0.0218,3.3979,-6.0517,1.0055,1.4533,0.7176,2.9355
3.735,-0.5267,0.5064,0.0184,3.3979,-6.0517,1.0055,1.4533,0.7176,2.9355
3.74,-0.4915,0.5128,0.0155,3.3979,-6.0517,1.0055,1.4533,0.7176,2.9355
3.74,-0.4708,0.5152,0.0133,3.3979,-6.0517,1.0055,1.4533,0.7176,2.9355
3.745,-0.4568,0.5191,0.0191,3.3979,-6.0517,1.0055,1.4533,0.7176,2.9355
3.746,-0.4546,0.5225,0.024,3.3979,-6.0517,1.0055,1.4533,0.7176,2.9355
3.751,-0.459,0.5286,0.0301,3.3979,-6.0517,1.0055,1.4533,0.7176,2.9355
3.752,-0.4669,0.5435,0.0353,3.3979,-6.0517,1.0055,1.4533,0.7176,2.9355
3.755,-0.4693,0.5555,0.0384,3.3979,-6.0517,1.0055,1.4533,0.7176,2.9355
3.755,-0.4581,0.5565,0.0372,3.3979,-6.0517,1.0055,1.4533,0.7176,2.9355
3.76,-0.4402,0.5472,0.0216,3.3979,-6.0517,1.0055,1.4533,0.7176,2.9355
3.761,-0.4212,0.5306,0.0111,3.3979,-6.0517,1.0055,1.4533,0.7176,2.9355
3.765,-0.4043,0.5152,0.0084,3.3979,-6.0517,1.0055,1.4533,0.7176,2.9355
3.766,-0.3875,0.5062,0.0123,3.3979,-6.0517,1.0055,1.4533,0.7176,2.9355
3.77,-0.3774,0.5015,0.0267,3.3979,-6.0517,1.0055,1.4533,0.7176,2.9355
3.77,-0.3686,0.4988,0.0409,3.3979,-6.0517,1.0055,1.4533,0.7176,2.9355
3.774,-0.3603,0.4979,0.0499,3.3979,-6.0517,1.0055,1.4533,0.7176,2.9355
3.775,-0.3535,0.5005,0.057,3.3979,-6.0517,1.0055,1.4533,0.7176,2.9355
3.779,-0.3493,0.5023,0.0555,3.3979,-6.0517,1.0055,1.4533,0.7176,2.9355
3.78,-0.3435,0.5062,0.0499,3.3979,-6.0517,1.0055,1.4533,0.7176,2.9355
3.783,-0.3384,0.5106,0.0448,3.3979,-6.0517,1.0055,1.4533,0.7176,2.9355
3.784,-0.3313,0.5184,0.0458,3.3979,-6.0517,1.0055,1.4533,0.7176,2.9355
3.789,-0.3252,0.5313,0.0485,3.3979,-6.0517,1.0055,1.4533,0.7176,2.9355
3.79,-0.3137,0.5462,0.0573,3.3979,-6.0517,1.0055,1.4533,0.7176,2.9355
3.795,-0.3137,0.5462,0.0573,3.3979,-6.0517,1.0055,1.0696,-1.7455,4.3449
3.796,-0.3002,0.5677,0.0687,3.3979,-6.0517,1.0055,1.0696,-1.7455,4.3449
3.797,-0.2836,0.589,0.0853,3.3979,-6.0517,1.0055,1.0696,-1.7455,4.3449
3.799,-0.2678,0.6112,0.0981,3.3979,-6.0517,1.0055,1.0696,-1.7455,4.3449
3.8,-0.2678,0.6112,0.0981,-3.5831,-3.4088,-0.429,1.0696,-1.7455,4.3449
3.801,-0.2509,0.6334,0.1078,-3.5831,-3.4088,-0.429,1.0696,-1.7455,4.3449
3.803,-0.2379,0.6542,0.1115,-3.5831,-3.4088,-0.429,1.0696,-1.7455,4.3449
3.804,-0.2284,0.6769,0.1122,-3.5831,-3.4088,-0.429,1.0696,-1.7455,4.3449
3.808,-0.224,0.6955,0.1093,-3.5831,-3.4088,-0.429,1.0696,-1.7455,4.3449
3.809,-0.225,0.7114,0.1022,-3.5831,-3.4088,-0.429,1.0696,-1.7455,4.3449
3.814,-0.226,0.7263,0.0963,-3.5831,-3.4088,-0.429,1.0696,-1.7455,4.3449
3.815,-0.2335,0.7375,0.089,-3.5831,-3.4088,-0.429,1.0696,-1.7455,4.3449
3.819,-0.2475,0.7502,0.0819,-3.5831,-3.4088,-0.429,1.0696,-1.7455,4.3449
3.82,-0.2643,0.7644,0.0722,-3.5831,-3.4088,-0.429,1.0696,-1.7455,4.3449
3.823,-0.288,0.7803,0.0631,-3.5831,-3.4088,-0.429,1.0696,-1.7455,4.3449
3.823,-0.3142,0.7969,0.0519,-3.5831,-3.4088,-0.429,1.0696,-1.7455,4.3449
3.828,-0.3449,0.8157,0.0411,-3.5831,-3.4088,-0.429,1.0696,-1.7455,4.3449
3.829,-0.3765,0.8343,0.025,-3.5831,-3.4088,-0.429,1.0696,-1.7455,4.3449
3.833,-0.4129,0.8516,0.0099,-3.5831,-3.4088,-0.429,1.0696,-1.7455,4.3449
3.834,-0.4505,0.8731,-0.0053,-3.5831,-3.4088,-0.429,1.0696,-1.7455,4.3449
3.837,-0.4857,0.8931,-0.0217,-3.5831,-3.4088,-0.429,1.0696,-1.7455,4.3449
3.837,-0.5211,0.91,-0.0388,-3.5831,-3.4088,-0.429,1.0696,-1.7455,4.3449
3.842,-0.5528,0.9264,-0.051,-3.5831,-3.4088,-0.429,1.0696,-1.7455,4.3449
3.843,-0.5836,0.9425,-0.0664,-3.5831,-3.4088,-0.429,1.0696,-1.7455,4.3449
3.848,-0.6112,0.9544,-0.0818,-3.5831,-3.4088,-0.429,1.0696,-1.7455,4.3449
3.848,-0.6386,0.9669,-0.092,-3.5831,-3.4088,-0.429,1.0696,-1.7455,4.3449
3.852,-0.6594,0.9767,-0.1028,-3.5831,-3.4088,-0.429,1.0696,-1.7455,4.3449
3.853,-0.6818,0.9818,-0.1074,-3.5831,-3.4088,-0.429,1.0696,-1.7455,4.3449
3.857,-0.695,0.9877,-0.1108,-3.5831,-3.4088,-0.429,1.0696,-1.7455,4.3449
3.858,-0.7041,0.9867,-0.1098,-3.5831,-3.4088,-0.429,1.0696,-1.7455,4.3449
3.862,-0.706,0.9855,-0.1042,-3.5831,-3.4088,-0.429,1.0696,-1.7455,4.3449
3.863,-0.706,0.9855,-0.1042,-3.5831,-3.4088,-0.429,1.4334,0.6636,4.8326
3.864,-0.7053,0.9843,-0.0989,-3.5831,-3.4088,-0.429,1.4334,0.6636,4.8326
3.868,-0.7053,0.9843,-0.0989,-0.7484,-3.8969,0.2327,1.4334,0.6636,4.8326
3.869,-0.6921,0.9808,-0.0915,-0.7484,-3.8969,0.2327,1.4334,0.6636,4.8326
3.87,-0.6728,0.9772,-0.0837,-0.7484,-3.8969,0.2327,1.4334,0.6636,4.8326
3.872,-0.6486,0.9708,-0.0793,-0.7484,-3.8969,0.2327,1.4334,0.6636,4.8326
3.873,-0.6178,0.9645,-0.0737,-0.7484,-3.8969,0.2327,1.4334,0.6636,4.8326
3.876,-0.5775,0.9581,-0.0629,-0.7484,-3.8969,0.2327,1.4334,0.6636,4.8326
3.877,-0.5348,0.952,-0.0488,-0.7484,-3.8969,0.2327,1.4334,0.6636,4.8326
3.881,-0.4888,0.9444,-0.0273,-0.7484,-3.8969,0.2327,1.4334,0.6636,4.8326
3.882,-0.4446,0.943,-0.008,-0.7484,-3.8969,0.2327,1.4334,0.6636,4.8326
3.886,-0.4028,0.9408,0.0099,-0.7484,-3.8969,0.2327,1.4334,0.6636,4.8326
3.887,-0.3642,0.9442,0.0223,-0.7484,-3.8969,0.2327,1.4334,0.6636,4.8326
