time,gFx,gFy,gFz,ax,ay,az,wx,wy,wz
0.038,0.0914,0.9882,0.0326,0,0,0,0,0,0
0.038,0.0928,0.9916,0.0336,0,0,0,0,0,0
0.038,0.0963,0.9911,0.0394,0,0,0,0,0,0
0.038,0.0936,0.9928,0.0441,0,0,0,0,0,0
0.038,0.0948,0.9943,0.0458,0,0,0,0,0,0
0.038,0.0938,0.9948,0.0467,0,0,0,0,0,0
0.038,0.0931,0.9952,0.0485,0,0,0,0,0,0
0.038,0.096,0.9945,0.0499,0,0,0,0,0,0
0.049,0.1124,0.997,0.0436,0,0,0,0,0,0
0.05,0.1151,0.9965,0.0421,0,0,0,0,0,0
0.056,0.1158,0.997,0.0428,0,0,0,0,0,0
0.056,0.1151,0.9994,0.0414,0,0,0,0,0,0
0.057,0.1153,0.9989,0.0404,0,0,0,0,0,0
0.057,0.1175,1.0009,0.0426,0,0,0,0,0,0
0.061,0.1141,0.9982,0.0397,0,0,0,0,0,0
0.062,0.1148,0.9984,0.0392,0,0,0,0,0,0
0.066,0.1165,0.9972,0.038,0,0,0,0,0,0
0.066,0.1143,0.9979,0.0372,0,0,0,0,0,0
0.072,0.1136,0.9955,0.037,0,0,0,0,0,0
0.073,0.1116,0.9948,0.0372,0,0,0,0,0,0
0.076,0.1094,0.9945,0.0348,0,0,0,0,0,0
0.076,0.1046,0.996,0.0336,0,0,0,0,0,0
0.081,0.1026,0.9945,0.0343,0,0,0,0,0,0
0.082,0.1031,0.9957,0.0306,0,0,0,0,0,0
0.086,0.0999,0.9967,0.0311,0,0,0,0,0,0
0.086,0.0997,0.996,0.0277,0,0,0,0,0,0
0.091,0.0989,0.9957,0.0289,0,0,0,0,0,0
0.092,0.0989,0.9972,0.0311,0,0,0,0,0,0
0.097,0.1031,0.9982,0.0306,0,0,0,0,0,0
0.097,0.1046,0.9974,0.0306,0,0,0,0,0,0
0.101,0.1075,0.9994,0.0333,0,0,0,0,0,0
0.102,0.1053,0.9984,0.0355,0,0,0,0,0,0
0.106,0.105,0.9984,0.0365,0,0,0,0,0,0
0.106,0.1046,0.9952,0.0389,0,0,0,0,0,0
0.113,0.1031,0.994,0.0392,0,0,0,0,0,0
0.114,0.1041,0.9938,0.0384,0,0,0,0,0,0
0.115,0.1068,0.9911,0.0392,0,0,0,0,0,0
0.116,0.109,0.9906,0.0402,0,0,0,0,0,0
0.12,0.1116,0.9882,0.0448,0,0,0,0,0,0
0.12,0.1153,0.9884,0.0455,0,0,0,0,0,0
0.126,0.1182,0.9874,0.0499,0,0,0,0,0,0
0.126,0.1177,0.986,0.0477,0,0,0,0,0,0
0.13,0.1199,0.9908,0.0424,0,0,0,0,0,0
0.13,0.1173,0.9891,0.0436,0,0,0,0,0,0
0.135,0.1195,0.9904,0.0424,0,0,0,0,0,0
0.136,0.1155,0.9921,0.0402,0,0,0,0,0,0
0.141,0.1177,0.9916,0.0416,0,0,0,0,0,0
0.142,0.1165,0.9916,0.0426,0,0,0,0,0,0
0.146,0.1163,0.9948,0.0446,0,0,0,0,0,0
0.146,0.1175,0.9938,0.0426,0,0,0,0,0,0
0.15,0.1165,0.9948,0.0406,0,0,0,0,0,0
0.151,0.1141,0.997,0.0414,0,0,0,0,0,0
0.155,0.1143,0.9957,0.0406,0,0,0,0,0,0
0.156,0.1087,0.9984,0.0389,0,0,0,0,0,0
0.159,0.1063,0.997,0.0384,0,0,0,0,0,0
0.16,0.1024,0.9992,0.0358,0,0,0,0,0,0
0.164,0.098,1.0009,0.0326,0,0,0,0,0,0
0.164,0.0923,1.0009,0.0348,0,0,0,0,0,0
0.169,0.0914,1.0004,0.035,0,0,0,0,0,0
0.169,0.0914,1.0004,0.035,0,0,0,-0.0115,0.0217,-0.0181
0.17,0.0894,1.0006,0.037,0,0,0,-0.0115,0.0217,-0.0181
0.174,0.0882,0.9989,0.0409,0,0,0,-0.0115,0.0217,-0.0181
0.175,0.0862,0.9972,0.0416,0,0,0,-0.0115,0.0217,-0.0181
0.176,0.0862,0.9972,0.0416,0,0,0,-0.0115,0.0217,-0.0181
0.179,0.0853,0.9984,0.0402,0,0,0,-0.0115,0.0217,-0.0181
0.18,0.0835,0.9982,0.0375,0,0,0,-0.0115,0.0217,-0.0181
0.185,0.0848,0.9996,0.038,0,0,0,-0.0115,0.0217,-0.0181
0.185,0.085,0.996,0.0387,0,0,0,-0.0115,0.0217,-0.0181
0.19,0.0835,1.0001,0.0394,0,0,0,-0.0115,0.0217,-0.0181
0.19,0.0845,0.9974,0.0409,0,0,0,-0.0115,0.0217,-0.0181
0.195,0.0843,0.9977,0.0409,0,0,0,-0.0115,0.0217,-0.0181
0.195,0.084,0.9979,0.0397,0,0,0,-0.0115,0.0217,-0.0181
0.199,0.085,0.9965,0.0392,0,0,0,-0.0115,0.0217,-0.0181
0.2,0.0877,0.9943,0.0399,0,0,0,-0.0115,0.0217,-0.0181
0.203,0.0901,0.996,0.0419,0,0,0,-0.0115,0.0217,-0.0181
0.204,0.0938,0.9945,0.0414,0,0,0,-0.0115,0.0217,-0.0181
0.208,0.0941,0.993,0.0421,0,0,0,-0.0115,0.0217,-0.0181
0.208,0.0958,0.9935,0.0431,0,0,0,-0.0115,0.0217,-0.0181
0.213,0.096,0.9921,0.0414,0,0,0,-0.0115,0.0217,-0.0181
0.213,0.0984,0.9901,0.0409,0,0,0,-0.0115,0.0217,-0.0181
0.218,0.0987,0.9908,0.0397,0,0,0,-0.0115,0.0217,-0.0181
0.219,0.0997,0.9891,0.0424,0,0,0,-0.0115,0.0217,-0.0181
0.223,0.1009,0.9889,0.0399,0,0,0,-0.0115,0.0217,-0.0181
0.223,0.1016,0.9904,0.0404,0,0,0,-0.0115,0.0217,-0.0181
0.228,0.1033,0.9901,0.0421,0,0,0,-0.0115,0.0217,-0.0181
0.228,0.1028,0.9899,0.0431,0,0,0,-0.0115,0.0217,-0.0181
0.233,0.105,0.9904,0.0446,0,0,0,-0.0115,0.0217,-0.0181
0.233,0.1077,0.9913,0.0411,0,0,0,-0.0115,0.0217,-0.0181
0.238,0.1085,0.9911,0.0402,0,0,0,-0.0115,0.0217,-0.0181
0.238,0.1092,0.9948,0.0397,0,0,0,-0.0115,0.0217,-0.0181
0.239,0.1092,0.9948,0.0397,0,0,0,-0.0129,0.0171,-0.0069
0.243,0.1099,0.9965,0.0402,0,0,0,-0.0129,0.0171,-0.0069
0.243,0.1119,0.9952,0.0409,0,0,0,-0.0129,0.0171,-0.0069
0.245,0.1119,0.9952,0.0409,0.0011,-0.0149,0.0182,-0.0129,0.0171,-0.0069
0.247,0.1136,0.9962,0.0419,0.0011,-0.0149,0.0182,-0.0129,0.0171,-0.0069
0.248,0.1168,0.9955,0.0431,0.0011,-0.0149,0.0182,-0.0129,0.0171,-0.0069
0.252,0.118,0.994,0.0455,0.0011,-0.0149,0.0182,-0.0129,0.0171,-0.0069
0.252,0.1204,0.9935,0.0453,0.0011,-0.0149,0.0182,-0.0129,0.0171,-0.0069
0.258,0.1214,0.9923,0.0455,0.0011,-0.0149,0.0182,-0.0129,0.0171,-0.0069
0.259,0.1224,0.9928,0.0472,0.0011,-0.0149,0.0182,-0.0129,0.0171,-0.0069
0.262,0.1248,0.9908,0.0477,0.0011,-0.0149,0.0182,-0.0129,0.0171,-0.0069
0.263,0.1258,0.994,0.0472,0.0011,-0.0149,0.0182,-0.0129,0.0171,-0.0069
0.268,0.1231,0.9913,0.0494,0.0011,-0.0149,0.0182,-0.0129,0.0171,-0.0069
0.269,0.1243,0.9911,0.0475,0.0011,-0.0149,0.0182,-0.0129,0.0171,-0.0069
0.272,0.127,0.9889,0.0472,0.0011,-0.0149,0.0182,-0.0129,0.0171,-0.0069
0.272,0.1251,0.9916,0.0502,0.0011,-0.0149,0.0182,-0.0129,0.0171,-0.0069
0.276,0.1246,0.9894,0.0487,0.0011,-0.0149,0.0182,-0.0129,0.0171,-0.0069
0.276,0.1219,0.9913,0.0511,0.0011,-0.0149,0.0182,-0.0129,0.0171,-0.0069
0.281,0.1202,0.9901,0.0482,0.0011,-0.0149,0.0182,-0.0129,0.0171,-0.0069
0.282,0.1187,0.9906,0.0492,0.0011,-0.0149,0.0182,-0.0129,0.0171,-0.0069
0.286,0.1153,0.9945,0.0497,0.0011,-0.0149,0.0182,-0.0129,0.0171,-0.0069
0.286,0.1094,0.9926,0.0482,0.0011,-0.0149,0.0182,-0.0129,0.0171,-0.0069
0.291,0.1053,0.995,0.048,0.0011,-0.0149,0.0182,-0.0129,0.0171,-0.0069
0.292,0.0992,0.9955,0.0489,0.0011,-0.0149,0.0182,-0.0129,0.0171,-0.0069
0.296,0.0948,0.9962,0.0458,0.0011,-0.0149,0.0182,-0.0129,0.0171,-0.0069
0.297,0.0938,0.9952,0.0458,0.0011,-0.0149,0.0182,-0.0129,0.0171,-0.0069
0.302,0.0889,0.997,0.0436,0.0011,-0.0149,0.0182,-0.0129,0.0171,-0.0069
0.303,0.0889,0.9977,0.0421,0.0011,-0.0149,0.0182,-0.0129,0.0171,-0.0069
0.306,0.0853,0.9977,0.0424,0.0011,-0.0149,0.0182,-0.0129,0.0171,-0.0069
0.307,0.0853,0.9977,0.0424,0.0011,-0.0149,0.0182,-0.0124,0.011,-0.0086
0.307,0.0833,0.9996,0.0441,0.0011,-0.0149,0.0182,-0.0124,0.011,-0.0086
0.311,0.0826,0.9974,0.0426,0.0011,-0.0149,0.0182,-0.0124,0.011,-0.0086
0.311,0.0826,0.995,0.0411,0.0011,-0.0149,0.0182,-0.0124,0.011,-0.0086
0.312,0.0826,0.995,0.0411,-0.0789,-0.0103,0.0052,-0.0124,0.011,-0.0086
0.316,0.0828,0.9962,0.0397,-0.0789,-0.0103,0.0052,-0.0124,0.011,-0.0086
0.316,0.0794,0.9977,0.0362,-0.0789,-0.0103,0.0052,-0.0124,0.011,-0.0086
0.32,0.0804,0.9984,0.0331,-0.0789,-0.0103,0.0052,-0.0124,0.011,-0.0086
0.321,0.0809,0.997,0.0367,-0.0789,-0.0103,0.0052,-0.0124,0.011,-0.0086
0.325,0.0845,0.9974,0.0338,-0.0789,-0.0103,0.0052,-0.0124,0.011,-0.0086
0.326,0.0887,0.9982,0.0318,-0.0789,-0.0103,0.0052,-0.0124,0.011,-0.0086
0.33,0.0941,0.9965,0.0316,-0.0789,-0.0103,0.0052,-0.0124,0.011,-0.0086
0.33,0.0953,0.9928,0.0306,-0.0789,-0.0103,0.0052,-0.0124,0.011,-0.0086
0.336,0.0989,0.993,0.0314,-0.0789,-0.0103,0.0052,-0.0124,0.011,-0.0086
0.336,0.1019,0.995,0.0338,-0.0789,-0.0103,0.0052,-0.0124,0.011,-0.0086
0.341,0.1063,0.994,0.0301,-0.0789,-0.0103,0.0052,-0.0124,0.011,-0.0086
0.342,0.1075,0.9952,0.0277,-0.0789,-0.0103,0.0052,-0.0124,0.011,-0.0086
0.347,0.1104,0.997,0.027,-0.0789,-0.0103,0.0052,-0.0124,0.011,-0.0086
0.347,0.1146,0.9977,0.0284,-0.0789,-0.0103,0.0052,-0.0124,0.011,-0.0086
0.35,0.1148,0.995,0.027,-0.0789,-0.0103,0.0052,-0.0124,0.011,-0.0086
0.35,0.1173,0.995,0.0287,-0.0789,-0.0103,0.0052,-0.0124,0.011,-0.0086
0.355,0.1182,0.9957,0.0318,-0.0789,-0.0103,0.0052,-0.0124,0.011,-0.0086
0.356,0.1195,0.995,0.0301,-0.0789,-0.0103,0.0052,-0.0124,0.011,-0.0086
0.359,0.1192,0.9962,0.0279,-0.0789,-0.0103,0.0052,-0.0124,0.011,-0.0086
0.36,0.1177,0.9955,0.0304,-0.0789,-0.0103,0.0052,-0.0124,0.011,-0.0086
0.364,0.116,0.9952,0.0323,-0.0789,-0.0103,0.0052,-0.0124,0.011,-0.0086
0.365,0.1148,0.995,0.0328,-0.0789,-0.0103,0.0052,-0.0124,0.011,-0.0086
0.37,0.116,0.9967,0.0365,-0.0789,-0.0103,0.0052,-0.0124,0.011,-0.0086
0.37,0.1129,0.995,0.0377,-0.0789,-0.0103,0.0052,-0.0124,0.011,-0.0086
0.374,0.1129,0.995,0.0377,-0.0789,-0.0103,0.0052,-0.0158,0.0145,0.0003
0.374,0.1141,0.9945,0.0406,-0.0789,-0.0103,0.0052,-0.0158,0.0145,0.0003
0.375,0.1092,0.9943,0.0433,-0.0789,-0.0103,0.0052,-0.0158,0.0145,0.0003
0.381,0.1082,0.9945,0.0426,-0.0789,-0.0103,0.0052,-0.0158,0.0145,0.0003
0.381,0.106,0.997,0.0443,-0.0789,-0.0103,0.0052,-0.0158,0.0145,0.0003
0.382,0.106,0.997,0.0443,0.0465,-0.0091,0.0363,-0.0158,0.0145,0.0003
0.384,0.1055,0.9955,0.0482,0.0465,-0.0091,0.0363,-0.0158,0.0145,0.0003
0.385,0.1055,0.996,0.048,0.0465,-0.0091,0.0363,-0.0158,0.0145,0.0003
0.389,0.1038,0.9955,0.0497,0.0465,-0.0091,0.0363,-0.0158,0.0145,0.0003
0.39,0.1028,0.9965,0.0494,0.0465,-0.0091,0.0363,-0.0158,0.0145,0.0003
0.393,0.1033,0.9965,0.0509,0.0465,-0.0091,0.0363,-0.0158,0.0145,0.0003
0.394,0.1021,0.9955,0.0531,0.0465,-0.0091,0.0363,-0.0158,0.0145,0.0003
0.398,0.1021,0.9967,0.0558,0.0465,-0.0091,0.0363,-0.0158,0.0145,0.0003
0.399,0.1038,0.996,0.057,0.0465,-0.0091,0.0363,-0.0158,0.0145,0.0003
0.403,0.1046,0.9943,0.0553,0.0465,-0.0091,0.0363,-0.0158,0.0145,0.0003
0.404,0.105,0.9945,0.0585,0.0465,-0.0091,0.0363,-0.0158,0.0145,0.0003
0.408,0.105,0.994,0.0575,0.0465,-0.0091,0.0363,-0.0158,0.0145,0.0003
0.409,0.1068,0.9933,0.0551,0.0465,-0.0091,0.0363,-0.0158,0.0145,0.0003
0.413,0.1065,0.9921,0.0558,0.0465,-0.0091,0.0363,-0.0158,0.0145,0.0003
0.414,0.1053,0.994,0.0543,0.0465,-0.0091,0.0363,-0.0158,0.0145,0.0003
0.419,0.1043,0.9945,0.0563,0.0465,-0.0091,0.0363,-0.0158,0.0145,0.0003
0.42,0.1028,0.9933,0.0558,0.0465,-0.0091,0.0363,-0.0158,0.0145,0.0003
0.423,0.0977,0.9926,0.0563,0.0465,-0.0091,0.0363,-0.0158,0.0145,0.0003
0.424,0.1016,0.995,0.0536,0.0465,-0.0091,0.0363,-0.0158,0.0145,0.0003
0.429,0.0975,0.9918,0.0509,0.0465,-0.0091,0.0363,-0.0158,0.0145,0.0003
0.43,0.0945,0.9933,0.0509,0.0465,-0.0091,0.0363,-0.0158,0.0145,0.0003
0.433,0.0943,0.9938,0.048,0.0465,-0.0091,0.0363,-0.0158,0.0145,0.0003
0.434,0.0926,0.9923,0.0497,0.0465,-0.0091,0.0363,-0.0158,0.0145,0.0003
0.438,0.0931,0.9926,0.0475,0.0465,-0.0091,0.0363,-0.0158,0.0145,0.0003
0.439,0.0933,0.9911,0.0502,0.0465,-0.0091,0.0363,-0.0158,0.0145,0.0003
0.442,0.0933,0.9911,0.0502,0.0465,-0.0091,0.0363,-0.0213,0.0216,-0.0021
0.442,0.0945,0.9904,0.0497,0.0465,-0.0091,0.0363,-0.0213,0.0216,-0.0021
0.443,0.097,0.9896,0.0504,0.0465,-0.0091,0.0363,-0.0213,0.0216,-0.0021
0.448,0.097,0.9896,0.0504,-0.0028,0.0081,-0.0838,-0.0213,0.0216,-0.0021
0.449,0.0972,0.9882,0.0489,-0.0028,0.0081,-0.0838,-0.0213,0.0216,-0.0021
0.449,0.0997,0.9882,0.0467,-0.0028,0.0081,-0.0838,-0.0213,0.0216,-0.0021
0.452,0.1016,0.9906,0.0458,-0.0028,0.0081,-0.0838,-0.0213,0.0216,-0.0021
0.452,0.1058,0.9899,0.0433,-0.0028,0.0081,-0.0838,-0.0213,0.0216,-0.0021
0.457,0.1072,0.9891,0.0421,-0.0028,0.0081,-0.0838,-0.0213,0.0216,-0.0021
0.458,0.1114,0.9899,0.0426,-0.0028,0.0081,-0.0838,-0.0213,0.0216,-0.0021
0.462,0.1165,0.9884,0.0419,-0.0028,0.0081,-0.0838,-0.0213,0.0216,-0.0021
0.462,0.118,0.9891,0.0433,-0.0028,0.0081,-0.0838,-0.0213,0.0216,-0.0021
0.466,0.1231,0.9918,0.045,-0.0028,0.0081,-0.0838,-0.0213,0.0216,-0.0021
0.467,0.1236,0.9913,0.0436,-0.0028,0.0081,-0.0838,-0.0213,0.0216,-0.0021
0.471,0.1221,0.9926,0.0446,-0.0028,0.0081,-0.0838,-0.0213,0.0216,-0.0021
0.472,0.1253,0.9926,0.045,-0.0028,0.0081,-0.0838,-0.0213,0.0216,-0.0021
0.478,0.1251,0.9921,0.0433,-0.0028,0.0081,-0.0838,-0.0213,0.0216,-0.0021
0.479,0.1253,0.9935,0.0431,-0.0028,0.0081,-0.0838,-0.0213,0.0216,-0.0021
0.482,0.1261,0.994,0.0458,-0.0028,0.0081,-0.0838,-0.0213,0.0216,-0.0021
0.482,0.1283,0.9923,0.0428,-0.0028,0.0081,-0.0838,-0.0213,0.0216,-0.0021
0.486,0.127,0.9945,0.0448,-0.0028,0.0081,-0.0838,-0.0213,0.0216,-0.0021
0.486,0.1241,0.9948,0.0446,-0.0028,0.0081,-0.0838,-0.0213,0.0216,-0.0021
0.492,0.1248,0.9977,0.046,-0.0028,0.0081,-0.0838,-0.0213,0.0216,-0.0021
0.492,0.1214,0.9996,0.0487,-0.0028,0.0081,-0.0838,-0.0213,0.0216,-0.0021
0.497,0.1195,1.0006,0.0482,-0.0028,0.0081,-0.0838,-0.0213,0.0216,-0.0021
0.498,0.1151,0.9999,0.0482,-0.0028,0.0081,-0.0838,-0.0213,0.0216,-0.0021
0.502,0.1136,0.9999,0.0446,-0.0028,0.0081,-0.0838,-0.0213,0.0216,-0.0021
0.503,0.1109,0.9994,0.0463,-0.0028,0.0081,-0.0838,-0.0213,0.0216,-0.0021
0.506,0.1092,0.9984,0.0467,-0.0028,0.0081,-0.0838,-0.0213,0.0216,-0.0021
0.506,0.1058,0.9977,0.0511,-0.0028,0.0081,-0.0838,-0.0213,0.0216,-0.0021
0.511,0.1058,0.9977,0.0511,-0.0028,0.0081,-0.0838,-0.0161,0.0108,-0.0058
0.512,0.1016,0.9977,0.0546,-0.0028,0.0081,-0.0838,-0.0161,0.0108,-0.0058
0.512,0.0989,0.9962,0.0543,-0.0028,0.0081,-0.0838,-0.0161,0.0108,-0.0058
0.516,0.097,0.9928,0.0548,-0.0028,0.0081,-0.0838,-0.0161,0.0108,-0.0058
0.517,0.097,0.9928,0.0548,-0.0293,-0.0119,0.0738,-0.0161,0.0108,-0.0058
0.517,0.0953,0.994,0.0563,-0.0293,-0.0119,0.0738,-0.0161,0.0108,-0.0058
0.521,0.0909,0.9916,0.0575,-0.0293,-0.0119,0.0738,-0.0161,0.0108,-0.0058
0.521,0.0916,0.9923,0.0548,-0.0293,-0.0119,0.0738,-0.0161,0.0108,-0.0058
0.525,0.0919,0.9906,0.0541,-0.0293,-0.0119,0.0738,-0.0161,0.0108,-0.0058
0.526,0.0919,0.9935,0.0526,-0.0293,-0.0119,0.0738,-0.0161,0.0108,-0.0058
0.531,0.0901,0.9926,0.0536,-0.0293,-0.0119,0.0738,-0.0161,0.0108,-0.0058
0.532,0.0882,0.9921,0.0558,-0.0293,-0.0119,0.0738,-0.0161,0.0108,-0.0058
0.535,0.0838,0.9957,0.0516,-0.0293,-0.0119,0.0738,-0.0161,0.0108,-0.0058
0.536,0.0835,0.9948,0.0533,-0.0293,-0.0119,0.0738,-0.0161,0.0108,-0.0058
0.541,0.0845,0.994,0.0516,-0.0293,-0.0119,0.0738,-0.0161,0.0108,-0.0058
0.542,0.0838,0.993,0.0516,-0.0293,-0.0119,0.0738,-0.0161,0.0108,-0.0058
0.545,0.0857,0.9935,0.0494,-0.0293,-0.0119,0.0738,-0.0161,0.0108,-0.0058
0.546,0.0889,0.9928,0.0497,-0.0293,-0.0119,0.0738,-0.0161,0.0108,-0.0058
0.55,0.0933,0.9921,0.0475,-0.0293,-0.0119,0.0738,-0.0161,0.0108,-0.0058
0.55,0.098,0.9896,0.046,-0.0293,-0.0119,0.0738,-0.0161,0.0108,-0.0058
0.555,0.1004,0.9867,0.0467,-0.0293,-0.0119,0.0738,-0.0161,0.0108,-0.0058
0.555,0.1041,0.9884,0.0463,-0.0293,-0.0119,0.0738,-0.0161,0.0108,-0.0058
0.559,0.1068,0.9869,0.0455,-0.0293,-0.0119,0.0738,-0.0161,0.0108,-0.0058
0.56,0.1107,0.9835,0.0443,-0.0293,-0.0119,0.0738,-0.0161,0.0108,-0.0058
0.564,0.1138,0.985,0.0453,-0.0293,-0.0119,0.0738,-0.0161,0.0108,-0.0058
0.565,0.1182,0.9838,0.0438,-0.0293,-0.0119,0.0738,-0.0161,0.0108,-0.0058
0.57,0.1221,0.9835,0.0448,-0.0293,-0.0119,0.0738,-0.0161,0.0108,-0.0058
0.57,0.1258,0.9835,0.0441,-0.0293,-0.0119,0.0738,-0.0161,0.0108,-0.0058
0.574,0.1285,0.9835,0.0424,-0.0293,-0.0119,0.0738,-0.0161,0.0108,-0.0058
0.575,0.1295,0.9835,0.0414,-0.0293,-0.0119,0.0738,-0.0161,0.0108,-0.0058
0.579,0.1295,0.9835,0.0414,-0.0293,-0.0119,0.0738,-0.0161,-0.0029,-0.0057
0.58,0.1297,0.9843,0.0399,-0.0293,-0.0119,0.0738,-0.0161,-0.0029,-0.0057
0.58,0.1295,0.9879,0.0389,-0.0293,-0.0119,0.0738,-0.0161,-0.0029,-0.0057
0.585,0.1253,0.9882,0.0402,-0.0293,-0.0119,0.0738,-0.0161,-0.0029,-0.0057
0.586,0.1253,0.9879,0.0414,-0.0293,-0.0119,0.0738,-0.0161,-0.0029,-0.0057
0.586,0.1253,0.9879,0.0414,0.0978,-0.003,0.006,-0.0161,-0.0029,-0.0057
0.589,0.1246,0.9913,0.0436,0.0978,-0.003,0.006,-0.0161,-0.0029,-0.0057
0.59,0.1236,0.9911,0.0448,0.0978,-0.003,0.006,-0.0161,-0.0029,-0.0057
0.594,0.1182,0.9948,0.0424,0.0978,-0.003,0.006,-0.0161,-0.0029,-0.0057
0.595,0.1163,0.9955,0.045,0.0978,-0.003,0.006,-0.0161,-0.0029,-0.0057
0.598,0.109,0.9955,0.0453,0.0978,-0.003,0.006,-0.0161,-0.0029,-0.0057
0.598,0.1053,0.9952,0.0475,0.0978,-0.003,0.006,-0.0161,-0.0029,-0.0057
0.604,0.1014,0.9987,0.048,0.0978,-0.003,0.006,-0.0161,-0.0029,-0.0057
0.605,0.0958,0.9984,0.0463,0.0978,-0.003,0.006,-0.0161,-0.0029,-0.0057
0.609,0.0921,0.9989,0.0455,0.0978,-0.003,0.006,-0.0161,-0.0029,-0.0057
0.61,0.0884,0.9987,0.0465,0.0978,-0.003,0.006,-0.0161,-0.0029,-0.0057
0.614,0.0875,0.9996,0.0485,0.0978,-0.003,0.006,-0.0161,-0.0029,-0.0057
0.614,0.0848,1.0001,0.0509,0.0978,-0.003,0.006,-0.0161,-0.0029,-0.0057
0.618,0.0835,0.9967,0.0502,0.0978,-0.003,0.006,-0.0161,-0.0029,-0.0057
0.619,0.0835,0.9992,0.0511,0.0978,-0.003,0.006,-0.0161,-0.0029,-0.0057
0.623,0.0806,0.9989,0.0526,0.0978,-0.003,0.006,-0.0161,-0.0029,-0.0057
0.624,0.0782,0.9987,0.0511,0.0978,-0.003,0.006,-0.0161,-0.0029,-0.0057
0.628,0.0777,0.9996,0.0531,0.0978,-0.003,0.006,-0.0161,-0.0029,-0.0057
0.629,0.0772,0.9977,0.0511,0.0978,-0.003,0.006,-0.0161,-0.0029,-0.0057
0.636,0.0804,0.9977,0.0516,0.0978,-0.003,0.006,-0.0161,-0.0029,-0.0057
0.637,0.0843,0.9957,0.0502,0.0978,-0.003,0.006,-0.0161,-0.0029,-0.0057
0.638,0.086,0.995,0.0489,0.0978,-0.003,0.006,-0.0161,-0.0029,-0.0057
0.639,0.0899,0.9926,0.0502,0.0978,-0.003,0.006,-0.0161,-0.0029,-0.0057
0.644,0.096,0.9945,0.0504,0.0978,-0.003,0.006,-0.0161,-0.0029,-0.0057
0.644,0.0987,0.9935,0.0502,0.0978,-0.003,0.006,-0.0161,-0.0029,-0.0057
0.648,0.0987,0.9935,0.0502,0.0978,-0.003,0.006,-0.0129,0.0207,-0.0003
0.648,0.1041,0.993,0.0504,0.0978,-0.003,0.006,-0.0129,0.0207,-0.0003
0.649,0.1048,0.9938,0.0507,0.0978,-0.003,0.006,-0.0129,0.0207,-0.0003
0.653,0.1092,0.9921,0.0499,0.0978,-0.003,0.006,-0.0129,0.0207,-0.0003
0.653,0.1119,0.9928,0.0475,0.0978,-0.003,0.006,-0.0129,0.0207,-0.0003
0.654,0.1119,0.9928,0.0475,-0.0084,-0.0468,0.0063,-0.0129,0.0207,-0.0003
0.658,0.1136,0.994,0.0463,-0.0084,-0.0468,0.0063,-0.0129,0.0207,-0.0003
0.659,0.1148,0.9913,0.0453,-0.0084,-0.0468,0.0063,-0.0129,0.0207,-0.0003
0.663,0.1177,0.9938,0.0453,-0.0084,-0.0468,0.0063,-0.0129,0.0207,-0.0003
0.664,0.1177,0.9943,0.0433,-0.0084,-0.0468,0.0063,-0.0129,0.0207,-0.0003
0.669,0.1182,0.9933,0.0463,-0.0084,-0.0468,0.0063,-0.0129,0.0207,-0.0003
0.669,0.1195,0.9928,0.0497,-0.0084,-0.0468,0.0063,-0.0129,0.0207,-0.0003
0.672,0.1226,0.9896,0.0472,-0.0084,-0.0468,0.0063,-0.0129,0.0207,-0.0003
0.673,0.1204,0.9894,0.0524,-0.0084,-0.0468,0.0063,-0.0129,0.0207,-0.0003
0.677,0.1209,0.9857,0.0519,-0.0084,-0.0468,0.0063,-0.0129,0.0207,-0.0003
0.678,0.1207,0.9855,0.0533,-0.0084,-0.0468,0.0063,-0.0129,0.0207,-0.0003
0.682,0.1195,0.9862,0.0519,-0.0084,-0.0468,0.0063,-0.0129,0.0207,-0.0003
0.683,0.1177,0.9869,0.0524,-0.0084,-0.0468,0.0063,-0.0129,0.0207,-0.0003
0.687,0.116,0.9884,0.0502,-0.0084,-0.0468,0.0063,-0.0129,0.0207,-0.0003
0.688,0.1124,0.9896,0.0499,-0.0084,-0.0468,0.0063,-0.0129,0.0207,-0.0003
0.691,0.1107,0.9948,0.0509,-0.0084,-0.0468,0.0063,-0.0129,0.0207,-0.0003
0.692,0.1072,0.9957,0.0511,-0.0084,-0.0468,0.0063,-0.0129,0.0207,-0.0003
0.697,0.107,0.9962,0.0541,-0.0084,-0.0468,0.0063,-0.0129,0.0207,-0.0003
0.698,0.105,0.996,0.0541,-0.0084,-0.0468,0.0063,-0.0129,0.0207,-0.0003
0.703,0.105,0.9945,0.0546,-0.0084,-0.0468,0.0063,-0.0129,0.0207,-0.0003
0.704,0.1055,0.9965,0.0577,-0.0084,-0.0468,0.0063,-0.0129,0.0207,-0.0003
0.708,0.1026,0.9974,0.0604,-0.0084,-0.0468,0.0063,-0.0129,0.0207,-0.0003
0.709,0.1041,0.9938,0.0595,-0.0084,-0.0468,0.0063,-0.0129,0.0207,-0.0003
0.713,0.1028,0.9952,0.0629,-0.0084,-0.0468,0.0063,-0.0129,0.0207,-0.0003
0.713,0.1019,0.9935,0.0651,-0.0084,-0.0468,0.0063,-0.0129,0.0207,-0.0003
0.716,0.1019,0.9935,0.0651,-0.0084,-0.0468,0.0063,-0.0114,0.0152,0.0064
0.717,0.0992,0.9938,0.0638,-0.0084,-0.0468,0.0063,-0.0114,0.0152,0.0064
0.717,0.0989,0.9943,0.0599,-0.0084,-0.0468,0.0063,-0.0114,0.0152,0.0064
0.721,0.0963,0.9928,0.0577,-0.0084,-0.0468,0.0063,-0.0114,0.0152,0.0064
0.721,0.0963,0.9928,0.0577,-0.0799,0.0196,0.0074,-0.0114,0.0152,0.0064
0.722,0.0963,0.9911,0.0558,-0.0799,0.0196,0.0074,-0.0114,0.0152,0.0064
0.726,0.096,0.9913,0.0568,-0.0799,0.0196,0.0074,-0.0114,0.0152,0.0064
0.727,0.0967,0.9938,0.0543,-0.0799,0.0196,0.0074,-0.0114,0.0152,0.0064
0.731,0.1002,0.9882,0.0575,-0.0799,0.0196,0.0074,-0.0114,0.0152,0.0064
0.732,0.1026,0.9891,0.0575,-0.0799,0.0196,0.0074,-0.0114,0.0152,0.0064
0.736,0.1075,0.9886,0.057,-0.0799,0.0196,0.0074,-0.0114,0.0152,0.0064
0.737,0.1116,0.9889,0.0585,-0.0799,0.0196,0.0074,-0.0114,0.0152,0.0064
0.741,0.1141,0.9886,0.0587,-0.0799,0.0196,0.0074,-0.0114,0.0152,0.0064
0.741,0.118,0.9884,0.0604,-0.0799,0.0196,0.0074,-0.0114,0.0152,0.0064
0.746,0.1177,0.9901,0.058,-0.0799,0.0196,0.0074,-0.0114,0.0152,0.0064
0.746,0.1151,0.9928,0.0553,-0.0799,0.0196,0.0074,-0.0114,0.0152,0.0064
0.752,0.1163,0.9928,0.0546,-0.0799,0.0196,0.0074,-0.0114,0.0152,0.0064
0.753,0.1163,0.9926,0.0526,-0.0799,0.0196,0.0074,-0.0114,0.0152,0.0064
0.755,0.1187,0.9926,0.0516,-0.0799,0.0196,0.0074,-0.0114,0.0152,0.0064
0.755,0.1199,0.9935,0.0516,-0.0799,0.0196,0.0074,-0.0114,0.0152,0.0064
0.76,0.1197,0.9913,0.0519,-0.0799,0.0196,0.0074,-0.0114,0.0152,0.0064
0.76,0.1236,0.9913,0.0487,-0.0799,0.0196,0.0074,-0.0114,0.0152,0.0064
0.765,0.1261,0.9889,0.0485,-0.0799,0.0196,0.0074,-0.0114,0.0152,0.0064
0.766,0.1265,0.9862,0.0504,-0.0799,0.0196,0.0074,-0.0114,0.0152,0.0064
0.77,0.1234,0.9862,0.0497,-0.0799,0.0196,0.0074,-0.0114,0.0152,0.0064
0.771,0.1229,0.9867,0.0507,-0.0799,0.0196,0.0074,-0.0114,0.0152,0.0064
0.775,0.1219,0.9847,0.0504,-0.0799,0.0196,0.0074,-0.0114,0.0152,0.0064
0.775,0.1177,0.9869,0.0489,-0.0799,0.0196,0.0074,-0.0114,0.0152,0.0064
0.781,0.1153,0.9872,0.0492,-0.0799,0.0196,0.0074,-0.0114,0.0152,0.0064
0.781,0.1116,0.9877,0.0489,-0.0799,0.0196,0.0074,-0.0114,0.0152,0.0064
0.785,0.1116,0.9877,0.0489,-0.0799,0.0196,0.0074,-0.0069,-0.0047,-0.0001
0.785,0.109,0.9877,0.0487,-0.0799,0.0196,0.0074,-0.0069,-0.0047,-0.0001
0.786,0.1046,0.9894,0.0465,-0.0799,0.0196,0.0074,-0.0069,-0.0047,-0.0001
0.79,0.1019,0.9935,0.047,-0.0799,0.0196,0.0074,-0.0069,-0.0047,-0.0001
0.791,0.0992,0.994,0.0472,-0.0799,0.0196,0.0074,-0.0069,-0.0047,-0.0001
0.791,0.0992,0.994,0.0472,0.054,-0.0144,0.0433,-0.0069,-0.0047,-0.0001
0.795,0.0982,0.994,0.0482,0.054,-0.0144,0.0433,-0.0069,-0.0047,-0.0001
0.795,0.0994,0.9962,0.0497,0.054,-0.0144,0.0433,-0.0069,-0.0047,-0.0001
0.799,0.0965,0.994,0.0504,0.054,-0.0144,0.0433,-0.0069,-0.0047,-0.0001
0.801,0.0955,0.9952,0.0511,0.054,-0.0144,0.0433,-0.0069,-0.0047,-0.0001
0.804,0.0931,0.9967,0.0536,0.054,-0.0144,0.0433,-0.0069,-0.0047,-0.0001
0.804,0.0916,0.9957,0.0536,0.054,-0.0144,0.0433,-0.0069,-0.0047,-0.0001
0.81,0.0926,0.997,0.0546,0.054,-0.0144,0.0433,-0.0069,-0.0047,-0.0001
0.811,0.0926,0.995,0.0558,0.054,-0.0144,0.0433,-0.0069,-0.0047,-0.0001
0.814,0.096,0.9948,0.0595,0.054,-0.0144,0.0433,-0.0069,-0.0047,-0.0001
0.815,0.0984,0.9928,0.059,0.054,-0.0144,0.0433,-0.0069,-0.0047,-0.0001
0.819,0.0989,0.994,0.0582,0.054,-0.0144,0.0433,-0.0069,-0.0047,-0.0001
0.819,0.0982,0.9933,0.0595,0.054,-0.0144,0.0433,-0.0069,-0.0047,-0.0001
0.824,0.1024,0.9935,0.0602,0.054,-0.0144,0.0433,-0.0069,-0.0047,-0.0001
0.824,0.1033,0.9918,0.0575,0.054,-0.0144,0.0433,-0.0069,-0.0047,-0.0001
0.829,0.105,0.9938,0.0563,0.054,-0.0144,0.0433,-0.0069,-0.0047,-0.0001
0.83,0.1099,0.9938,0.0553,0.054,-0.0144,0.0433,-0.0069,-0.0047,-0.0001
0.835,0.1124,0.9957,0.0551,0.054,-0.0144,0.0433,-0.0069,-0.0047,-0.0001
0.835,0.1177,0.9945,0.0541,0.054,-0.0144,0.0433,-0.0069,-0.0047,-0.0001
0.838,0.1195,0.9928,0.0533,0.054,-0.0144,0.0433,-0.0069,-0.0047,-0.0001
0.839,0.1209,0.993,0.0516,0.054,-0.0144,0.0433,-0.0069,-0.0047,-0.0001
0.843,0.1199,0.994,0.0519,0.054,-0.0144,0.0433,-0.0069,-0.0047,-0.0001
0.843,0.1234,0.996,0.0507,0.054,-0.0144,0.0433,-0.0069,-0.0047,-0.0001
0.848,0.1258,0.9957,0.0494,0.054,-0.0144,0.0433,-0.0069,-0.0047,-0.0001
0.849,0.1219,0.9948,0.0497,0.054,-0.0144,0.0433,-0.0069,-0.0047,-0.0001
0.854,0.1217,0.9957,0.0497,0.054,-0.0144,0.0433,-0.0069,-0.0047,-0.0001
0.854,0.1217,0.9957,0.0497,0.054,-0.0144,0.0433,-0.0027,0.0043,-0.0011
0.854,0.1231,0.9938,0.046,0.054,-0.0144,0.0433,-0.0027,0.0043,-0.0011
0.858,0.1231,0.9938,0.046,0.074,-0.0357,0.0302,-0.0027,0.0043,-0.0011
0.859,0.1226,0.993,0.0467,0.074,-0.0357,0.0302,-0.0027,0.0043,-0.0011
0.859,0.1241,0.9938,0.0455,0.074,-0.0357,0.0302,-0.0027,0.0043,-0.0011
0.863,0.1243,0.9918,0.0472,0.074,-0.0357,0.0302,-0.0027,0.0043,-0.0011
0.863,0.1224,0.9926,0.0467,0.074,-0.0357,0.0302,-0.0027,0.0043,-0.0011
0.868,0.1212,0.9906,0.0487,0.074,-0.0357,0.0302,-0.0027,0.0043,-0.0011
0.868,0.1207,0.9906,0.0492,0.074,-0.0357,0.0302,-0.0027,0.0043,-0.0011
0.873,0.1175,0.9908,0.0509,0.074,-0.0357,0.0302,-0.0027,0.0043,-0.0011
0.873,0.1148,0.9913,0.0511,0.074,-0.0357,0.0302,-0.0027,0.0043,-0.0011
0.877,0.1107,0.9916,0.0553,0.074,-0.0357,0.0302,-0.0027,0.0043,-0.0011
0.878,0.1055,0.9928,0.0536,0.074,-0.0357,0.0302,-0.0027,0.0043,-0.0011
0.882,0.1033,0.9916,0.0538,0.074,-0.0357,0.0302,-0.0027,0.0043,-0.0011
0.883,0.0992,0.9913,0.0543,0.074,-0.0357,0.0302,-0.0027,0.0043,-0.0011
0.887,0.0965,0.9948,0.0551,0.074,-0.0357,0.0302,-0.0027,0.0043,-0.0011
0.887,0.0953,0.9933,0.0546,0.074,-0.0357,0.0302,-0.0027,0.0043,-0.0011
0.892,0.095,0.9943,0.0587,0.074,-0.0357,0.0302,-0.0027,0.0043,-0.0011
0.893,0.0945,0.9938,0.0577,0.074,-0.0357,0.0302,-0.0027,0.0043,-0.0011
0.896,0.0931,0.9938,0.057,0.074,-0.0357,0.0302,-0.0027,0.0043,-0.0011
0.896,0.0926,0.994,0.0575,0.074,-0.0357,0.0302,-0.0027,0.0043,-0.0011
0.903,0.0909,0.995,0.0565,0.074,-0.0357,0.0302,-0.0027,0.0043,-0.0011
0.903,0.0889,0.997,0.0563,0.074,-0.0357,0.0302,-0.0027,0.0043,-0.0011
0.908,0.0899,0.995,0.0533,0.074,-0.0357,0.0302,-0.0027,0.0043,-0.0011
0.908,0.0894,0.995,0.0521,0.074,-0.0357,0.0302,-0.0027,0.0043,-0.0011
0.913,0.0892,0.9943,0.0524,0.074,-0.0357,0.0302,-0.0027,0.0043,-0.0011
0.914,0.0904,0.9921,0.0489,0.074,-0.0357,0.0302,-0.0027,0.0043,-0.0011
0.917,0.0958,0.9921,0.0504,0.074,-0.0357,0.0302,-0.0027,0.0043,-0.0011
0.917,0.0984,0.9916,0.0524,0.074,-0.0357,0.0302,-0.0027,0.0043,-0.0011
0.921,0.1019,0.9906,0.0502,0.074,-0.0357,0.0302,-0.0027,0.0043,-0.0011
0.921,0.1019,0.9906,0.0502,0.074,-0.0357,0.0302,0.002,0.0147,-0.0054
0.922,0.105,0.9882,0.0494,0.074,-0.0357,0.0302,0.002,0.0147,-0.0054
0.926,0.1075,0.9886,0.0475,0.074,-0.0357,0.0302,0.002,0.0147,-0.0054
0.926,0.1075,0.9886,0.0475,0.0223,0.0088,0.0319,0.002,0.0147,-0.0054
0.927,0.1077,0.9889,0.0465,0.0223,0.0088,0.0319,0.002,0.0147,-0.0054
0.931,0.1109,0.9872,0.0458,0.0223,0.0088,0.0319,0.002,0.0147,-0.0054
0.932,0.1126,0.9882,0.046,0.0223,0.0088,0.0319,0.002,0.0147,-0.0054
0.936,0.1151,0.9867,0.0428,0.0223,0.0088,0.0319,0.002,0.0147,-0.0054
0.937,0.1173,0.9896,0.0431,0.0223,0.0088,0.0319,0.002,0.0147,-0.0054
0.941,0.1197,0.9901,0.0453,0.0223,0.0088,0.0319,0.002,0.0147,-0.0054
0.941,0.1224,0.9913,0.0458,0.0223,0.0088,0.0319,0.002,0.0147,-0.0054
0.945,0.1234,0.9908,0.0458,0.0223,0.0088,0.0319,0.002,0.0147,-0.0054
0.946,0.1226,0.9913,0.0482,0.0223,0.0088,0.0319,0.002,0.0147,-0.0054
0.95,0.1229,0.9921,0.048,0.0223,0.0088,0.0319,0.002,0.0147,-0.0054
0.951,0.1217,0.9901,0.0499,0.0223,0.0088,0.0319,0.002,0.0147,-0.0054
0.956,0.1182,0.9913,0.0482,0.0223,0.0088,0.0319,0.002,0.0147,-0.0054
0.956,0.1153,0.9935,0.0494,0.0223,0.0088,0.0319,0.002,0.0147,-0.0054
0.961,0.1092,0.9952,0.0519,0.0223,0.0088,0.0319,0.002,0.0147,-0.0054
0.961,0.1085,0.9974,0.0524,0.0223,0.0088,0.0319,0.002,0.0147,-0.0054
0.965,0.107,0.9948,0.0548,0.0223,0.0088,0.0319,0.002,0.0147,-0.0054
0.965,0.107,0.9952,0.0573,0.0223,0.0088,0.0319,0.002,0.0147,-0.0054
0.97,0.1063,0.9952,0.0577,0.0223,0.0088,0.0319,0.002,0.0147,-0.0054
0.971,0.1048,0.9948,0.0597,0.0223,0.0088,0.0319,0.002,0.0147,-0.0054
0.975,0.1043,0.9926,0.057,0.0223,0.0088,0.0319,0.002,0.0147,-0.0054
0.976,0.1028,0.9935,0.0573,0.0223,0.0088,0.0319,0.002,0.0147,-0.0054
0.98,0.1002,0.9948,0.059,0.0223,0.0088,0.0319,0.002,0.0147,-0.0054
0.98,0.1004,0.9916,0.0597,0.0223,0.0088,0.0319,0.002,0.0147,-0.0054
0.984,0.0994,0.9923,0.0565,0.0223,0.0088,0.0319,0.002,0.0147,-0.0054
0.985,0.0997,0.9913,0.0573,0.0223,0.0088,0.0319,0.002,0.0147,-0.0054
0.991,0.0997,0.9913,0.0573,0.0223,0.0088,0.0319,0.0031,0.0062,-0.0021
0.991,0.0984,0.9928,0.0541,0.0223,0.0088,0.0319,0.0031,0.0062,-0.0021
0.992,0.1011,0.9908,0.056,0.0223,0.0088,0.0319,0.0031,0.0062,-0.0021
0.995,0.1016,0.9908,0.0551,0.0223,0.0088,0.0319,0.0031,0.0062,-0.0021
0.996,0.1016,0.9908,0.0551,-0.0293,-0.0103,0.024,0.0031,0.0062,-0.0021
0.996,0.1011,0.9904,0.0551,-0.0293,-0.0103,0.024,0.0031,0.0062,-0.0021
1,0.1058,0.9901,0.0526,-0.0293,-0.0103,0.024,0.0031,0.0062,-0.0021
1.001,0.1085,0.9921,0.0489,-0.0293,-0.0103,0.024,0.0031,0.0062,-0.0021
1.004,0.1104,0.9928,0.0477,-0.0293,-0.0103,0.024,0.0031,0.0062,-0.0021
1.005,0.1114,0.995,0.0465,-0.0293,-0.0103,0.024,0.0031,0.0062,-0.0021
1.009,0.1109,0.9935,0.0463,-0.0293,-0.0103,0.024,0.0031,0.0062,-0.0021
1.01,0.1138,0.9933,0.048,-0.0293,-0.0103,0.024,0.0031,0.0062,-0.0021
1.014,0.1138,0.993,0.0492,-0.0293,-0.0103,0.024,0.0031,0.0062,-0.0021
1.014,0.1134,0.9938,0.0472,-0.0293,-0.0103,0.024,0.0031,0.0062,-0.0021
1.02,0.1119,0.9943,0.0467,-0.0293,-0.0103,0.024,0.0031,0.0062,-0.0021
1.02,0.1082,0.994,0.0482,-0.0293,-0.0103,0.024,0.0031,0.0062,-0.0021
1.025,0.1092,0.993,0.048,-0.0293,-0.0103,0.024,0.0031,0.0062,-0.0021
1.026,0.1104,0.9952,0.047,-0.0293,-0.0103,0.024,0.0031,0.0062,-0.0021
1.028,0.1124,0.994,0.0482,-0.0293,-0.0103,0.024,0.0031,0.0062,-0.0021
1.029,0.1141,0.996,0.0487,-0.0293,-0.0103,0.024,0.0031,0.0062,-0.0021
1.034,0.1151,0.9972,0.0487,-0.0293,-0.0103,0.024,0.0031,0.0062,-0.0021
1.034,0.116,0.9955,0.0521,-0.0293,-0.0103,0.024,0.0031,0.0062,-0.0021
1.038,0.1138,0.9965,0.0482,-0.0293,-0.0103,0.024,0.0031,0.0062,-0.0021
1.038,0.1126,0.9967,0.0487,-0.0293,-0.0103,0.024,0.0031,0.0062,-0.0021
1.044,0.1126,0.9982,0.0482,-0.0293,-0.0103,0.024,0.0031,0.0062,-0.0021
1.044,0.1116,0.9979,0.0514,-0.0293,-0.0103,0.024,0.0031,0.0062,-0.0021
1.048,0.1131,0.9965,0.0524,-0.0293,-0.0103,0.024,0.0031,0.0062,-0.0021
1.048,0.1129,0.9962,0.0536,-0.0293,-0.0103,0.024,0.0031,0.0062,-0.0021
1.053,0.1138,0.9933,0.0494,-0.0293,-0.0103,0.024,0.0031,0.0062,-0.0021
1.054,0.1136,0.9923,0.0526,-0.0293,-0.0103,0.024,0.0031,0.0062,-0.0021
1.058,0.1148,0.9918,0.0504,-0.0293,-0.0103,0.024,0.0031,0.0062,-0.0021
1.058,0.1148,0.9918,0.0504,-0.0293,-0.0103,0.024,0.001,0.0012,-0.0069
1.06,0.1143,0.9891,0.0516,-0.0293,-0.0103,0.024,0.001,0.0012,-0.0069
1.063,0.1143,0.9891,0.0516,0.0448,-0.0131,0.019,0.001,0.0012,-0.0069
1.064,0.1153,0.9911,0.0509,0.0448,-0.0131,0.019,0.001,0.0012,-0.0069
1.064,0.1153,0.9899,0.0548,0.0448,-0.0131,0.019,0.001,0.0012,-0.0069
1.067,0.1148,0.9901,0.056,0.0448,-0.0131,0.019,0.001,0.0012,-0.0069
1.068,0.1129,0.9913,0.0551,0.0448,-0.0131,0.019,0.001,0.0012,-0.0069
1.073,0.1134,0.9916,0.0546,0.0448,-0.0131,0.019,0.001,0.0012,-0.0069
1.073,0.1126,0.9906,0.0516,0.0448,-0.0131,0.019,0.001,0.0012,-0.0069
1.077,0.1112,0.9899,0.0536,0.0448,-0.0131,0.019,0.001,0.0012,-0.0069
1.077,0.1121,0.9933,0.0519,0.0448,-0.0131,0.019,0.001,0.0012,-0.0069
1.082,0.1121,0.9926,0.0492,0.0448,-0.0131,0.019,0.001,0.0012,-0.0069
1.083,0.1121,0.9918,0.0519,0.0448,-0.0131,0.019,0.001,0.0012,-0.0069
1.087,0.1126,0.9952,0.0497,0.0448,-0.0131,0.019,0.001,0.0012,-0.0069
1.088,0.1112,0.9957,0.0514,0.0448,-0.0131,0.019,0.001,0.0012,-0.0069
1.092,0.1068,0.9955,0.0497,0.0448,-0.0131,0.019,0.001,0.0012,-0.0069
1.093,0.1016,0.9952,0.0524,0.0448,-0.0131,0.019,0.001,0.0012,-0.0069
1.098,0.1031,0.9962,0.0538,0.0448,-0.0131,0.019,0.001,0.0012,-0.0069
1.098,0.1014,0.9933,0.0551,0.0448,-0.0131,0.019,0.001,0.0012,-0.0069
1.102,0.0984,0.996,0.0536,0.0448,-0.0131,0.019,0.001,0.0012,-0.0069
1.102,0.0955,0.9928,0.0543,0.0448,-0.0131,0.019,0.001,0.0012,-0.0069
1.108,0.095,0.9945,0.0553,0.0448,-0.0131,0.019,0.001,0.0012,-0.0069
1.109,0.0923,0.9928,0.0546,0.0448,-0.0131,0.019,0.001,0.0012,-0.0069
1.112,0.0914,0.9918,0.0541,0.0448,-0.0131,0.019,0.001,0.0012,-0.0069
1.112,0.0916,0.9921,0.0553,0.0448,-0.0131,0.019,0.001,0.0012,-0.0069
1.116,0.0906,0.9906,0.0533,0.0448,-0.0131,0.019,0.001,0.0012,-0.0069
1.117,0.0892,0.9933,0.0546,0.0448,-0.0131,0.019,0.001,0.0012,-0.0069
1.122,0.0906,0.993,0.0536,0.0448,-0.0131,0.019,0.001,0.0012,-0.0069
1.122,0.0923,0.9935,0.0548,0.0448,-0.0131,0.019,0.001,0.0012,-0.0069
1.126,0.0923,0.9935,0.0548,0.0448,-0.0131,0.019,0.0042,0.0099,-0.011
1.126,0.0901,0.9938,0.0546,0.0448,-0.0131,0.019,0.0042,0.0099,-0.011
1.127,0.0909,0.994,0.0543,0.0448,-0.0131,0.019,0.0042,0.0099,-0.011
1.132,0.0921,0.994,0.0536,0.0448,-0.0131,0.019,0.0042,0.0099,-0.011
1.132,0.0921,0.994,0.0536,0.0696,0.0051,-0.0035,0.0042,0.0099,-0.011
1.133,0.0941,0.9906,0.0519,0.0696,0.0051,-0.0035,0.0042,0.0099,-0.011
1.136,0.0984,0.9906,0.0507,0.0696,0.0051,-0.0035,0.0042,0.0099,-0.011
1.137,0.1011,0.9908,0.0509,0.0696,0.0051,-0.0035,0.0042,0.0099,-0.011
1.141,0.1055,0.9899,0.0509,0.0696,0.0051,-0.0035,0.0042,0.0099,-0.011
1.141,0.1107,0.9891,0.0497,0.0696,0.0051,-0.0035,0.0042,0.0099,-0.011
1.146,0.1165,0.9884,0.048,0.0696,0.0051,-0.0035,0.0042,0.0099,-0.011
1.146,0.1182,0.9874,0.0485,0.0696,0.0051,-0.0035,0.0042,0.0099,-0.011
1.15,0.1221,0.9867,0.0455,0.0696,0.0051,-0.0035,0.0042,0.0099,-0.011
1.151,0.1229,0.9879,0.0458,0.0696,0.0051,-0.0035,0.0042,0.0099,-0.011
1.156,0.1253,0.9874,0.0463,0.0696,0.0051,-0.0035,0.0042,0.0099,-0.011
1.157,0.1248,0.9872,0.0453,0.0696,0.0051,-0.0035,0.0042,0.0099,-0.011
1.161,0.1275,0.9874,0.0438,0.0696,0.0051,-0.0035,0.0042,0.0099,-0.011
1.161,0.129,0.9882,0.0431,0.0696,0.0051,-0.0035,0.0042,0.0099,-0.011
1.165,0.1307,0.9913,0.0446,0.0696,0.0051,-0.0035,0.0042,0.0099,-0.011
1.165,0.1292,0.9908,0.0458,0.0696,0.0051,-0.0035,0.0042,0.0099,-0.011
1.171,0.1295,0.9921,0.0502,0.0696,0.0051,-0.0035,0.0042,0.0099,-0.011
1.171,0.129,0.993,0.048,0.0696,0.0051,-0.0035,0.0042,0.0099,-0.011
1.175,0.1273,0.9945,0.0477,0.0696,0.0051,-0.0035,0.0042,0.0099,-0.011
1.176,0.1234,0.9943,0.0507,0.0696,0.0051,-0.0035,0.0042,0.0099,-0.011
1.18,0.1214,0.9938,0.0514,0.0696,0.0051,-0.0035,0.0042,0.0099,-0.011
1.181,0.1165,0.9945,0.0509,0.0696,0.0051,-0.0035,0.0042,0.0099,-0.011
1.185,0.1119,0.9943,0.0516,0.0696,0.0051,-0.0035,0.0042,0.0099,-0.011
1.186,0.1085,0.997,0.0509,0.0696,0.0051,-0.0035,0.0042,0.0099,-0.011
1.191,0.1024,0.9948,0.0514,0.0696,0.0051,-0.0035,0.0042,0.0099,-0.011
1.191,0.0984,0.996,0.0519,0.0696,0.0051,-0.0035,0.0042,0.0099,-0.011
1.195,0.0984,0.996,0.0519,0.0696,0.0051,-0.0035,0.0049,-0.0055,-0.0091
1.195,0.095,0.995,0.0536,0.0696,0.0051,-0.0035,0.0049,-0.0055,-0.0091
1.196,0.0919,0.995,0.0553,0.0696,0.0051,-0.0035,0.0049,-0.0055,-0.0091
1.199,0.0919,0.995,0.0553,-0.0315,-0.0046,0.0335,0.0049,-0.0055,-0.0091
1.2,0.0877,0.9948,0.0573,-0.0315,-0.0046,0.0335,0.0049,-0.0055,-0.0091
1.2,0.0867,0.9955,0.0577,-0.0315,-0.0046,0.0335,0.0049,-0.0055,-0.0091
1.204,0.0831,0.9952,0.0563,-0.0315,-0.0046,0.0335,0.0049,-0.0055,-0.0091
1.205,0.0809,0.996,0.057,-0.0315,-0.0046,0.0335,0.0049,-0.0055,-0.0091
1.211,0.0779,0.9974,0.0587,-0.0315,-0.0046,0.0335,0.0049,-0.0055,-0.0091
1.212,0.0767,0.9955,0.0592,-0.0315,-0.0046,0.0335,0.0049,-0.0055,-0.0091
1.215,0.0757,0.9952,0.056,-0.0315,-0.0046,0.0335,0.0049,-0.0055,-0.0091
1.216,0.0799,0.9948,0.0582,-0.0315,-0.0046,0.0335,0.0049,-0.0055,-0.0091
1.219,0.0796,0.9935,0.0568,-0.0315,-0.0046,0.0335,0.0049,-0.0055,-0.0091
1.22,0.0826,0.9938,0.0565,-0.0315,-0.0046,0.0335,0.0049,-0.0055,-0.0091
1.224,0.0848,0.9928,0.0558,-0.0315,-0.0046,0.0335,0.0049,-0.0055,-0.0091
1.225,0.0857,0.9916,0.056,-0.0315,-0.0046,0.0335,0.0049,-0.0055,-0.0091
1.229,0.0892,0.9926,0.0511,-0.0315,-0.0046,0.0335,0.0049,-0.0055,-0.0091
1.23,0.0945,0.9921,0.0516,-0.0315,-0.0046,0.0335,0.0049,-0.0055,-0.0091
1.235,0.0992,0.9891,0.0494,-0.0315,-0.0046,0.0335,0.0049,-0.0055,-0.0091
1.236,0.0999,0.9926,0.0482,-0.0315,-0.0046,0.0335,0.0049,-0.0055,-0.0091
1.24,0.1058,0.9938,0.048,-0.0315,-0.0046,0.0335,0.0049,-0.0055,-0.0091
1.24,0.1116,0.9938,0.0492,-0.0315,-0.0046,0.0335,0.0049,-0.0055,-0.0091
1.243,0.1146,0.9943,0.0489,-0.0315,-0.0046,0.0335,0.0049,-0.0055,-0.0091
1.244,0.1151,0.9938,0.0448,-0.0315,-0.0046,0.0335,0.0049,-0.0055,-0.0091
1.249,0.1153,0.9938,0.0424,-0.0315,-0.0046,0.0335,0.0049,-0.0055,-0.0091
1.249,0.1153,0.997,0.0414,-0.0315,-0.0046,0.0335,0.0049,-0.0055,-0.0091
1.253,0.1141,0.995,0.0387,-0.0315,-0.0046,0.0335,0.0049,-0.0055,-0.0091
1.253,0.1151,0.9979,0.0387,-0.0315,-0.0046,0.0335,0.0049,-0.0055,-0.0091
1.259,0.1158,1.0001,0.0409,-0.0315,-0.0046,0.0335,0.0049,-0.0055,-0.0091
1.26,0.1175,0.9974,0.0406,-0.0315,-0.0046,0.0335,0.0049,-0.0055,-0.0091
1.264,0.1175,0.9974,0.0406,-0.0315,-0.0046,0.0335,0.0046,-0.0112,-0.0048
1.264,0.1195,0.996,0.0421,-0.0315,-0.0046,0.0335,0.0046,-0.0112,-0.0048
1.265,0.1207,0.994,0.0411,-0.0315,-0.0046,0.0335,0.0046,-0.0112,-0.0048
1.268,0.1226,0.9943,0.0433,-0.0315,-0.0046,0.0335,0.0046,-0.0112,-0.0048
1.268,0.1234,0.9926,0.0426,-0.0315,-0.0046,0.0335,0.0046,-0.0112,-0.0048
1.269,0.1234,0.9926,0.0426,0.0861,-0.0162,-0.0001,0.0046,-0.0112,-0.0048
1.273,0.1197,0.9923,0.046,0.0861,-0.0162,-0.0001,0.0046,-0.0112,-0.0048
1.274,0.1168,0.9916,0.047,0.0861,-0.0162,-0.0001,0.0046,-0.0112,-0.0048
1.279,0.1155,0.9908,0.0504,0.0861,-0.0162,-0.0001,0.0046,-0.0112,-0.0048
1.28,0.1136,0.9913,0.0507,0.0861,-0.0162,-0.0001,0.0046,-0.0112,-0.0048
1.282,0.1131,0.9899,0.0514,0.0861,-0.0162,-0.0001,0.0046,-0.0112,-0.0048
1.283,0.1134,0.9899,0.0529,0.0861,-0.0162,-0.0001,0.0046,-0.0112,-0.0048
1.288,0.1104,0.993,0.0538,0.0861,-0.0162,-0.0001,0.0046,-0.0112,-0.0048
1.288,0.1119,0.9923,0.0543,0.0861,-0.0162,-0.0001,0.0046,-0.0112,-0.0048
1.293,0.1104,0.9913,0.0531,0.0861,-0.0162,-0.0001,0.0046,-0.0112,-0.0048
1.294,0.1085,0.9913,0.0553,0.0861,-0.0162,-0.0001,0.0046,-0.0112,-0.0048
1.297,0.1092,0.9916,0.0558,0.0861,-0.0162,-0.0001,0.0046,-0.0112,-0.0048
1.297,0.1092,0.9906,0.0548,0.0861,-0.0162,-0.0001,0.0046,-0.0112,-0.0048
1.305,0.1082,0.9906,0.0573,0.0861,-0.0162,-0.0001,0.0046,-0.0112,-0.0048
1.305,0.1087,0.9894,0.0602,0.0861,-0.0162,-0.0001,0.0046,-0.0112,-0.0048
1.307,0.1099,0.9882,0.059,0.0861,-0.0162,-0.0001,0.0046,-0.0112,-0.0048
1.308,0.1116,0.9869,0.0617,0.0861,-0.0162,-0.0001,0.0046,-0.0112,-0.0048
1.313,0.1116,0.9857,0.0604,0.0861,-0.0162,-0.0001,0.0046,-0.0112,-0.0048
1.313,0.1114,0.9852,0.0619,0.0861,-0.0162,-0.0001,0.0046,-0.0112,-0.0048
1.317,0.1114,0.983,0.0624,0.0861,-0.0162,-0.0001,0.0046,-0.0112,-0.0048
1.318,0.1121,0.983,0.0629,0.0861,-0.0162,-0.0001,0.0046,-0.0112,-0.0048
1.321,0.1129,0.985,0.0643,0.0861,-0.0162,-0.0001,0.0046,-0.0112,-0.0048
1.321,0.1134,0.9862,0.0597,0.0861,-0.0162,-0.0001,0.0046,-0.0112,-0.0048
1.326,0.1129,0.984,0.0599,0.0861,-0.0162,-0.0001,0.0046,-0.0112,-0.0048
1.327,0.1141,0.9821,0.0619,0.0861,-0.0162,-0.0001,0.0046,-0.0112,-0.0048
1.331,0.1141,0.9821,0.0619,0.0861,-0.0162,-0.0001,0.0033,-0.0032,-0.0081
1.331,0.1112,0.9843,0.0612,0.0861,-0.0162,-0.0001,0.0033,-0.0032,-0.0081
1.332,0.1072,0.983,0.0612,0.0861,-0.0162,-0.0001,0.0033,-0.0032,-0.0081
1.337,0.109,0.9818,0.0609,0.0861,-0.0162,-0.0001,0.0033,-0.0032,-0.0081
1.337,0.1085,0.9813,0.0568,0.0861,-0.0162,-0.0001,0.0033,-0.0032,-0.0081
1.338,0.1085,0.9813,0.0568,-0.0354,0.0093,-0.0019,0.0033,-0.0032,-0.0081
1.341,0.1082,0.9823,0.0587,-0.0354,0.0093,-0.0019,0.0033,-0.0032,-0.0081
1.342,0.1075,0.9794,0.0592,-0.0354,0.0093,-0.0019,0.0033,-0.0032,-0.0081
1.347,0.1063,0.9801,0.057,-0.0354,0.0093,-0.0019,0.0033,-0.0032,-0.0081
1.348,0.1026,0.9806,0.0565,-0.0354,0.0093,-0.0019,0.0033,-0.0032,-0.0081
1.351,0.1011,0.9801,0.0509,-0.0354,0.0093,-0.0019,0.0033,-0.0032,-0.0081
1.352,0.1002,0.9818,0.048,-0.0354,0.0093,-0.0019,0.0033,-0.0032,-0.0081
1.356,0.0984,0.9838,0.0458,-0.0354,0.0093,-0.0019,0.0033,-0.0032,-0.0081
1.356,0.1004,0.9855,0.0443,-0.0354,0.0093,-0.0019,0.0033,-0.0032,-0.0081
1.361,0.0992,0.9886,0.0463,-0.0354,0.0093,-0.0019,0.0033,-0.0032,-0.0081
1.361,0.0984,0.993,0.0431,-0.0354,0.0093,-0.0019,0.0033,-0.0032,-0.0081
1.365,0.096,0.9916,0.0402,-0.0354,0.0093,-0.0019,0.0033,-0.0032,-0.0081
1.366,0.0906,0.9955,0.0384,-0.0354,0.0093,-0.0019,0.0033,-0.0032,-0.0081
1.371,0.0879,0.9974,0.0353,-0.0354,0.0093,-0.0019,0.0033,-0.0032,-0.0081
1.371,0.0845,1.0011,0.0328,-0.0354,0.0093,-0.0019,0.0033,-0.0032,-0.0081
1.375,0.0855,1.0023,0.0316,-0.0354,0.0093,-0.0019,0.0033,-0.0032,-0.0081
1.376,0.0821,1.0026,0.0309,-0.0354,0.0093,-0.0019,0.0033,-0.0032,-0.0081
1.382,0.0848,1.0053,0.0331,-0.0354,0.0093,-0.0019,0.0033,-0.0032,-0.0081
1.382,0.086,1.0043,0.0333,-0.0354,0.0093,-0.0019,0.0033,-0.0032,-0.0081
1.386,0.0879,1.0033,0.0331,-0.0354,0.0093,-0.0019,0.0033,-0.0032,-0.0081
1.386,0.0882,1.0006,0.0316,-0.0354,0.0093,-0.0019,0.0033,-0.0032,-0.0081
1.391,0.0862,1.0011,0.0333,-0.0354,0.0093,-0.0019,0.0033,-0.0032,-0.0081
1.392,0.0899,0.9984,0.037,-0.0354,0.0093,-0.0019,0.0033,-0.0032,-0.0081
1.395,0.0916,0.9957,0.0365,-0.0354,0.0093,-0.0019,0.0033,-0.0032,-0.0081
1.396,0.0919,0.9955,0.037,-0.0354,0.0093,-0.0019,0.0033,-0.0032,-0.0081
1.399,0.0919,0.9955,0.037,-0.0354,0.0093,-0.0019,0.0026,-0.0262,-0.0014
1.4,0.095,0.994,0.0372,-0.0354,0.0093,-0.0019,0.0026,-0.0262,-0.0014
1.401,0.0987,0.9945,0.0345,-0.0354,0.0093,-0.0019,0.0026,-0.0262,-0.0014
1.404,0.0987,0.9945,0.0345,0.064,-0.0509,0.0704,0.0026,-0.0262,-0.0014
1.405,0.1006,0.9933,0.0343,0.064,-0.0509,0.0704,0.0026,-0.0262,-0.0014
1.405,0.1031,0.9945,0.035,0.064,-0.0509,0.0704,0.0026,-0.0262,-0.0014
1.409,0.1036,0.994,0.0343,0.064,-0.0509,0.0704,0.0026,-0.0262,-0.0014
1.41,0.1063,0.9992,0.0316,0.064,-0.0509,0.0704,0.0026,-0.0262,-0.0014
1.414,0.1077,0.9992,0.0328,0.064,-0.0509,0.0704,0.0026,-0.0262,-0.0014
1.414,0.1116,0.9996,0.0311,0.064,-0.0509,0.0704,0.0026,-0.0262,-0.0014
1.42,0.1136,1.0006,0.0318,0.064,-0.0509,0.0704,0.0026,-0.0262,-0.0014
1.42,0.1146,0.9996,0.0338,0.064,-0.0509,0.0704,0.0026,-0.0262,-0.0014
1.425,0.1134,0.9992,0.0375,0.064,-0.0509,0.0704,0.0026,-0.0262,-0.0014
1.426,0.1151,0.9987,0.0397,0.064,-0.0509,0.0704,0.0026,-0.0262,-0.0014
1.43,0.1153,0.9982,0.0414,0.064,-0.0509,0.0704,0.0026,-0.0262,-0.0014
1.43,0.1151,0.9984,0.0409,0.064,-0.0509,0.0704,0.0026,-0.0262,-0.0014
1.436,0.1143,0.9967,0.0406,0.064,-0.0509,0.0704,0.0026,-0.0262,-0.0014
1.437,0.1116,0.9979,0.0392,0.064,-0.0509,0.0704,0.0026,-0.0262,-0.0014
1.439,0.1082,0.997,0.0406,0.064,-0.0509,0.0704,0.0026,-0.0262,-0.0014
1.44,0.1038,0.9965,0.0406,0.064,-0.0509,0.0704,0.0026,-0.0262,-0.0014
1.443,0.0972,0.9965,0.0397,0.064,-0.0509,0.0704,0.0026,-0.0262,-0.0014
1.444,0.0941,0.9972,0.0382,0.064,-0.0509,0.0704,0.0026,-0.0262,-0.0014
1.448,0.0855,0.9989,0.0358,0.064,-0.0509,0.0704,0.0026,-0.0262,-0.0014
1.449,0.0796,0.9984,0.0309,0.064,-0.0509,0.0704,0.0026,-0.0262,-0.0014
1.453,0.0765,0.9987,0.0311,0.064,-0.0509,0.0704,0.0026,-0.0262,-0.0014
1.454,0.073,0.9992,0.0314,0.064,-0.0509,0.0704,0.0026,-0.0262,-0.0014
1.458,0.073,1.0006,0.0304,0.064,-0.0509,0.0704,0.0026,-0.0262,-0.0014
1.459,0.0767,1.0004,0.0299,0.064,-0.0509,0.0704,0.0026,-0.0262,-0.0014
1.464,0.0828,1.0006,0.0299,0.064,-0.0509,0.0704,0.0026,-0.0262,-0.0014
1.465,0.0887,1.0028,0.0301,0.064,-0.0509,0.0704,0.0026,-0.0262,-0.0014
1.468,0.0887,1.0028,0.0301,0.064,-0.0509,0.0704,-0.0189,-0.012,0.0185
1.468,0.0923,1.0072,0.0328,0.064,-0.0509,0.0704,-0.0189,-0.012,0.0185
1.468,0.0928,1.0111,0.0326,0.064,-0.0509,0.0704,-0.0189,-0.012,0.0185
1.473,0.0936,1.0163,0.0309,0.064,-0.0509,0.0704,-0.0189,-0.012,0.0185
1.473,0.0936,1.0163,0.0309,-0.1012,0.0034,-0.0936,-0.0189,-0.012,0.0185
1.474,0.0919,1.0228,0.0274,-0.1012,0.0034,-0.0936,-0.0189,-0.012,0.0185
1.478,0.0938,1.0285,0.0304,-0.1012,0.0034,-0.0936,-0.0189,-0.012,0.0185
1.479,0.0965,1.0307,0.0309,-0.1012,0.0034,-0.0936,-0.0189,-0.012,0.0185
1.482,0.1033,1.0307,0.0314,-0.1012,0.0034,-0.0936,-0.0189,-0.012,0.0185
1.483,0.1112,1.0282,0.0345,-0.1012,0.0034,-0.0936,-0.0189,-0.012,0.0185
1.488,0.1197,1.0248,0.0353,-0.1012,0.0034,-0.0936,-0.0189,-0.012,0.0185
1.488,0.1261,1.0194,0.0409,-0.1012,0.0034,-0.0936,-0.0189,-0.012,0.0185
1.492,0.1351,1.016,0.046,-0.1012,0.0034,-0.0936,-0.0189,-0.012,0.0185
1.493,0.1405,1.0111,0.0499,-0.1012,0.0034,-0.0936,-0.0189,-0.012,0.0185
1.497,0.1468,1.0057,0.0489,-0.1012,0.0034,-0.0936,-0.0189,-0.012,0.0185
1.498,0.1483,1.0006,0.0516,-0.1012,0.0034,-0.0936,-0.0189,-0.012,0.0185
1.502,0.1529,0.9982,0.0543,-0.1012,0.0034,-0.0936,-0.0189,-0.012,0.0185
1.502,0.1541,0.995,0.0585,-0.1012,0.0034,-0.0936,-0.0189,-0.012,0.0185
1.507,0.1546,0.9923,0.0629,-0.1012,0.0034,-0.0936,-0.0189,-0.012,0.0185
1.507,0.1554,0.9894,0.0678,-0.1012,0.0034,-0.0936,-0.0189,-0.012,0.0185
1.513,0.1559,0.9852,0.0724,-0.1012,0.0034,-0.0936,-0.0189,-0.012,0.0185
1.514,0.1563,0.9794,0.0778,-0.1012,0.0034,-0.0936,-0.0189,-0.012,0.0185
1.518,0.1541,0.9757,0.0839,-0.1012,0.0034,-0.0936,-0.0189,-0.012,0.0185
1.518,0.1502,0.9715,0.089,-0.1012,0.0034,-0.0936,-0.0189,-0.012,0.0185
1.521,0.1493,0.9642,0.0897,-0.1012,0.0034,-0.0936,-0.0189,-0.012,0.0185
1.521,0.1466,0.9628,0.0919,-0.1012,0.0034,-0.0936,-0.0189,-0.012,0.0185
1.526,0.1436,0.9623,0.0917,-0.1012,0.0034,-0.0936,-0.0189,-0.012,0.0185
1.527,0.1361,0.9608,0.0951,-0.1012,0.0034,-0.0936,-0.0189,-0.012,0.0185
1.532,0.1278,0.9652,0.0924,-0.1012,0.0034,-0.0936,-0.0189,-0.012,0.0185
1.533,0.1192,0.9681,0.0902,-0.1012,0.0034,-0.0936,-0.0189,-0.012,0.0185
1.536,0.1102,0.9728,0.0875,-0.1012,0.0034,-0.0936,-0.0189,-0.012,0.0185
1.537,0.1102,0.9728,0.0875,-0.1012,0.0034,-0.0936,-0.0411,0.0278,-0.0026
1.537,0.0958,0.9781,0.0822,-0.1012,0.0034,-0.0936,-0.0411,0.0278,-0.0026
1.542,0.0862,0.9828,0.0805,-0.1012,0.0034,-0.0936,-0.0411,0.0278,-0.0026
1.543,0.0862,0.9828,0.0805,-0.0569,0.0723,-0.1624,-0.0411,0.0278,-0.0026
1.543,0.0745,0.9855,0.0758,-0.0569,0.0723,-0.1624,-0.0411,0.0278,-0.0026
1.548,0.0628,0.9923,0.069,-0.0569,0.0723,-0.1624,-0.0411,0.0278,-0.0026
1.549,0.055,0.9938,0.058,-0.0569,0.0723,-0.1624,-0.0411,0.0278,-0.0026
1.551,0.0518,0.9955,0.0516,-0.0569,0.0723,-0.1624,-0.0411,0.0278,-0.0026
1.551,0.0489,0.995,0.0443,-0.0569,0.0723,-0.1624,-0.0411,0.0278,-0.0026
1.555,0.0462,0.9967,0.0375,-0.0569,0.0723,-0.1624,-0.0411,0.0278,-0.0026
1.556,0.0454,0.9955,0.0333,-0.0569,0.0723,-0.1624,-0.0411,0.0278,-0.0026
1.561,0.0469,0.9979,0.0243,-0.0569,0.0723,-0.1624,-0.0411,0.0278,-0.0026
1.562,0.0486,0.9984,0.0206,-0.0569,0.0723,-0.1624,-0.0411,0.0278,-0.0026
1.566,0.053,0.9972,0.0108,-0.0569,0.0723,-0.1624,-0.0411,0.0278,-0.0026
1.567,0.0581,0.9962,0.0064,-0.0569,0.0723,-0.1624,-0.0411,0.0278,-0.0026
1.57,0.0677,0.9955,0.0023,-0.0569,0.0723,-0.1624,-0.0411,0.0278,-0.0026
1.571,0.076,0.9957,0.0035,-0.0569,0.0723,-0.1624,-0.0411,0.0278,-0.0026
1.576,0.0845,0.993,0.0045,-0.0569,0.0723,-0.1624,-0.0411,0.0278,-0.0026
1.576,0.0928,0.9916,0.0064,-0.0569,0.0723,-0.1624,-0.0411,0.0278,-0.0026
1.58,0.1004,0.9918,0.0057,-0.0569,0.0723,-0.1624,-0.0411,0.0278,-0.0026
1.581,0.1085,0.9901,0.0067,-0.0569,0.0723,-0.1624,-0.0411,0.0278,-0.0026
1.586,0.116,0.9906,0.0062,-0.0569,0.0723,-0.1624,-0.0411,0.0278,-0.0026
1.586,0.1207,0.995,0.0091,-0.0569,0.0723,-0.1624,-0.0411,0.0278,-0.0026
1.594,0.1263,0.9938,0.0108,-0.0569,0.0723,-0.1624,-0.0411,0.0278,-0.0026
1.594,0.128,0.995,0.0143,-0.0569,0.0723,-0.1624,-0.0411,0.0278,-0.0026
1.595,0.1302,0.9957,0.0179,-0.0569,0.0723,-0.1624,-0.0411,0.0278,-0.0026
1.595,0.1283,0.995,0.0187,-0.0569,0.0723,-0.1624,-0.0411,0.0278,-0.0026
1.601,0.1251,0.9979,0.0194,-0.0569,0.0723,-0.1624,-0.0411,0.0278,-0.0026
1.601,0.1182,0.9943,0.0223,-0.0569,0.0723,-0.1624,-0.0411,0.0278,-0.0026
1.605,0.1182,0.9943,0.0223,-0.0569,0.0723,-0.1624,-0.0541,0.0798,0.0386
1.606,0.1138,0.9926,0.0262,-0.0569,0.0723,-0.1624,-0.0541,0.0798,0.0386
1.606,0.108,0.9955,0.0274,-0.0569,0.0723,-0.1624,-0.0541,0.0798,0.0386
1.609,0.1011,0.9952,0.0304,-0.0569,0.0723,-0.1624,-0.0541,0.0798,0.0386
1.61,0.0975,0.993,0.0331,-0.0569,0.0723,-0.1624,-0.0541,0.0798,0.0386
1.61,0.0975,0.993,0.0331,0.203,-0.0058,0.0882,-0.0541,0.0798,0.0386
1.615,0.0921,0.9935,0.0353,0.203,-0.0058,0.0882,-0.0541,0.0798,0.0386
1.616,0.086,0.9957,0.034,0.203,-0.0058,0.0882,-0.0541,0.0798,0.0386
1.62,0.0823,0.9952,0.0353,0.203,-0.0058,0.0882,-0.0541,0.0798,0.0386
1.621,0.0801,0.9952,0.034,0.203,-0.0058,0.0882,-0.0541,0.0798,0.0386
1.625,0.0733,0.9957,0.034,0.203,-0.0058,0.0882,-0.0541,0.0798,0.0386
1.625,0.0711,0.9957,0.0323,0.203,-0.0058,0.0882,-0.0541,0.0798,0.0386
1.629,0.0721,0.9982,0.0257,0.203,-0.0058,0.0882,-0.0541,0.0798,0.0386
1.63,0.0701,0.995,0.0206,0.203,-0.0058,0.0882,-0.0541,0.0798,0.0386
1.636,0.0701,0.9926,0.0133,0.203,-0.0058,0.0882,-0.0541,0.0798,0.0386
1.637,0.0694,0.9916,0.0091,0.203,-0.0058,0.0882,-0.0541,0.0798,0.0386
1.639,0.073,0.9864,0.0033,0.203,-0.0058,0.0882,-0.0541,0.0798,0.0386
1.64,0.0755,0.9838,0.0033,0.203,-0.0058,0.0882,-0.0541,0.0798,0.0386
1.644,0.077,0.9833,0.0025,0.203,-0.0058,0.0882,-0.0541,0.0798,0.0386
1.645,0.0799,0.9794,0.0013,0.203,-0.0058,0.0882,-0.0541,0.0798,0.0386
1.649,0.0835,0.975,0.002,0.203,-0.0058,0.0882,-0.0541,0.0798,0.0386
1.65,0.0884,0.9725,0.005,0.203,-0.0058,0.0882,-0.0541,0.0798,0.0386
1.656,0.0948,0.9711,0.0121,0.203,-0.0058,0.0882,-0.0541,0.0798,0.0386
1.657,0.1033,0.9696,0.0145,0.203,-0.0058,0.0882,-0.0541,0.0798,0.0386
1.659,0.1112,0.9679,0.0128,0.203,-0.0058,0.0882,-0.0541,0.0798,0.0386
1.66,0.1146,0.9742,0.0011,0.203,-0.0058,0.0882,-0.0541,0.0798,0.0386
1.664,0.117,0.9796,-0.0121,0.203,-0.0058,0.0882,-0.0541,0.0798,0.0386
1.664,0.1143,0.9899,-0.0231,0.203,-0.0058,0.0882,-0.0541,0.0798,0.0386
1.669,0.1143,1.0011,-0.0165,0.203,-0.0058,0.0882,-0.0541,0.0798,0.0386
1.67,0.1119,1.0131,0.0006,0.203,-0.0058,0.0882,-0.0541,0.0798,0.0386
1.674,0.109,1.0265,0.0174,0.203,-0.0058,0.0882,-0.0541,0.0798,0.0386
1.675,0.1019,1.0397,0.0243,0.203,-0.0058,0.0882,-0.0541,0.0798,0.0386
1.675,0.1019,1.0397,0.0243,0.203,-0.0058,0.0882,-0.1285,0.038,0.1052
1.678,0.0899,1.0531,0.0233,0.203,-0.0058,0.0882,-0.1285,0.038,0.1052
1.679,0.0799,1.0641,0.0199,0.203,-0.0058,0.0882,-0.1285,0.038,0.1052
1.679,0.0799,1.0641,0.0199,-0.2466,0.0269,-0.3859,-0.1285,0.038,0.1052
1.683,0.0765,1.0766,0.0179,-0.2466,0.0269,-0.3859,-0.1285,0.038,0.1052
1.684,0.0806,1.0837,0.0253,-0.2466,0.0269,-0.3859,-0.1285,0.038,0.1052
1.689,0.0928,1.0878,0.0372,-0.2466,0.0269,-0.3859,-0.1285,0.038,0.1052
1.689,0.1112,1.0856,0.0543,-0.2466,0.0269,-0.3859,-0.1285,0.038,0.1052
1.693,0.1322,1.0781,0.0685,-0.2466,0.0269,-0.3859,-0.1285,0.038,0.1052
1.694,0.1476,1.0678,0.0792,-0.2466,0.0269,-0.3859,-0.1285,0.038,0.1052
1.698,0.1578,1.0556,0.0841,-0.2466,0.0269,-0.3859,-0.1285,0.038,0.1052
1.698,0.1649,1.0404,0.0846,-0.2466,0.0269,-0.3859,-0.1285,0.038,0.1052
1.702,0.1666,1.0319,0.0856,-0.2466,0.0269,-0.3859,-0.1285,0.038,0.1052
1.703,0.1678,1.0197,0.0778,-0.2466,0.0269,-0.3859,-0.1285,0.038,0.1052
1.707,0.1691,1.0109,0.0775,-0.2466,0.0269,-0.3859,-0.1285,0.038,0.1052
1.708,0.1698,1.0062,0.0702,-0.2466,0.0269,-0.3859,-0.1285,0.038,0.1052
1.714,0.1739,0.9989,0.0682,-0.2466,0.0269,-0.3859,-0.1285,0.038,0.1052
1.715,0.1756,0.9967,0.0587,-0.2466,0.0269,-0.3859,-0.1285,0.038,0.1052
1.718,0.1796,0.9935,0.0509,-0.2466,0.0269,-0.3859,-0.1285,0.038,0.1052
1.718,0.1825,0.994,0.0438,-0.2466,0.0269,-0.3859,-0.1285,0.038,0.1052
1.721,0.1864,0.9933,0.0358,-0.2466,0.0269,-0.3859,-0.1285,0.038,0.1052
1.722,0.1876,0.995,0.0304,-0.2466,0.0269,-0.3859,-0.1285,0.038,0.1052
1.727,0.184,0.9965,0.0245,-0.2466,0.0269,-0.3859,-0.1285,0.038,0.1052
1.728,0.1835,1.0014,0.0174,-0.2466,0.0269,-0.3859,-0.1285,0.038,0.1052
1.732,0.1815,1.0021,0.0106,-0.2466,0.0269,-0.3859,-0.1285,0.038,0.1052
1.732,0.1769,1.0067,0.0018,-0.2466,0.0269,-0.3859,-0.1285,0.038,0.1052
1.736,0.1732,1.0057,-0.005,-0.2466,0.0269,-0.3859,-0.1285,0.038,0.1052
1.737,0.1705,1.0075,-0.0124,-0.2466,0.0269,-0.3859,-0.1285,0.038,0.1052
1.742,0.1683,1.0079,-0.0151,-0.2466,0.0269,-0.3859,-0.1285,0.038,0.1052
1.742,0.1683,1.0079,-0.0151,-0.2466,0.0269,-0.3859,-0.2251,0.0072,0.0175
1.743,0.1627,1.0116,-0.019,-0.2466,0.0269,-0.3859,-0.2251,0.0072,0.0175
1.749,0.1612,1.0116,-0.0212,-0.2466,0.0269,-0.3859,-0.2251,0.0072,0.0175
1.749,0.1539,1.0141,-0.0214,-0.2466,0.0269,-0.3859,-0.2251,0.0072,0.0175
1.75,0.1539,1.0141,-0.0214,-0.2141,0.0437,-0.5608,-0.2251,0.0072,0.0175
1.751,0.148,1.017,-0.0229,-0.2141,0.0437,-0.5608,-0.2251,0.0072,0.0175
1.751,0.1407,1.0194,-0.0241,-0.2141,0.0437,-0.5608,-0.2251,0.0072,0.0175
1.758,0.1329,1.0216,-0.0219,-0.2141,0.0437,-0.5608,-0.2251,0.0072,0.0175
1.759,0.1229,1.0228,-0.0229,-0.2141,0.0437,-0.5608,-0.2251,0.0072,0.0175
1.761,0.1119,1.0236,-0.0236,-0.2141,0.0437,-0.5608,-0.2251,0.0072,0.0175
1.762,0.1033,1.0224,-0.0221,-0.2141,0.0437,-0.5608,-0.2251,0.0072,0.0175
1.767,0.0923,1.0241,-0.0226,-0.2141,0.0437,-0.5608,-0.2251,0.0072,0.0175
1.767,0.0811,1.0224,-0.0219,-0.2141,0.0437,-0.5608,-0.2251,0.0072,0.0175
1.771,0.0699,1.0258,-0.0239,-0.2141,0.0437,-0.5608,-0.2251,0.0072,0.0175
1.771,0.0599,1.0268,-0.0214,-0.2141,0.0437,-0.5608,-0.2251,0.0072,0.0175
1.776,0.0491,1.0304,-0.0197,-0.2141,0.0437,-0.5608,-0.2251,0.0072,0.0175
1.776,0.0396,1.0336,-0.0192,-0.2141,0.0437,-0.5608,-0.2251,0.0072,0.0175
1.78,0.0286,1.036,-0.0168,-0.2141,0.0437,-0.5608,-0.2251,0.0072,0.0175
1.781,0.0186,1.0424,-0.0185,-0.2141,0.0437,-0.5608,-0.2251,0.0072,0.0175
1.786,0.0093,1.0446,-0.019,-0.2141,0.0437,-0.5608,-0.2251,0.0072,0.0175
1.787,-0.0012,1.0505,-0.017,-0.2141,0.0437,-0.5608,-0.2251,0.0072,0.0175
1.791,-0.0105,1.0519,-0.016,-0.2141,0.0437,-0.5608,-0.2251,0.0072,0.0175
1.792,-0.0193,1.0544,-0.0151,-0.2141,0.0437,-0.5608,-0.2251,0.0072,0.0175
1.795,-0.0305,1.0571,-0.0151,-0.2141,0.0437,-0.5608,-0.2251,0.0072,0.0175
1.796,-0.0384,1.06,-0.0129,-0.2141,0.0437,-0.5608,-0.2251,0.0072,0.0175
1.8,-0.0445,1.0605,-0.0116,-0.2141,0.0437,-0.5608,-0.2251,0.0072,0.0175
1.801,-0.0537,1.0588,-0.0107,-0.2141,0.0437,-0.5608,-0.2251,0.0072,0.0175
1.805,-0.0618,1.0607,-0.0119,-0.2141,0.0437,-0.5608,-0.2251,0.0072,0.0175
1.806,-0.0684,1.0585,-0.0104,-0.2141,0.0437,-0.5608,-0.2251,0.0072,0.0175
1.811,-0.0774,1.0588,-0.0102,-0.2141,0.0437,-0.5608,-0.2251,0.0072,0.0175
1.813,-0.0862,1.0592,-0.0107,-0.2141,0.0437,-0.5608,-0.2251,0.0072,0.0175
1.813,-0.0862,1.0592,-0.0107,-0.2141,0.0437,-0.5608,-0.292,0.2461,0.1028
1.817,-0.0923,1.0583,-0.0099,-0.2141,0.0437,-0.5608,-0.292,0.2461,0.1028
1.817,-0.0923,1.0583,-0.0099,0.3479,0.3119,-0.4952,-0.292,0.2461,0.1028
1.818,-0.1036,1.0573,-0.009,0.3479,0.3119,-0.4952,-0.292,0.2461,0.1028
1.82,-0.1121,1.058,-0.0085,0.3479,0.3119,-0.4952,-0.292,0.2461,0.1028
1.821,-0.1202,1.058,-0.0063,0.3479,0.3119,-0.4952,-0.292,0.2461,0.1028
1.824,-0.1292,1.0568,-0.0072,0.3479,0.3119,-0.4952,-0.292,0.2461,0.1028
1.825,-0.1375,1.0583,-0.0058,0.3479,0.3119,-0.4952,-0.292,0.2461,0.1028
1.83,-0.1468,1.0588,-0.0043,0.3479,0.3119,-0.4952,-0.292,0.2461,0.1028
1.831,-0.1554,1.059,-0.0021,0.3479,0.3119,-0.4952,-0.292,0.2461,0.1028
1.836,-0.1634,1.059,0.0045,0.3479,0.3119,-0.4952,-0.292,0.2461,0.1028
1.836,-0.1725,1.06,0.0079,0.3479,0.3119,-0.4952,-0.292,0.2461,0.1028
1.839,-0.1835,1.0607,0.0113,0.3479,0.3119,-0.4952,-0.292,0.2461,0.1028
1.84,-0.1925,1.059,0.015,0.3479,0.3119,-0.4952,-0.292,0.2461,0.1028
1.844,-0.202,1.0605,0.0179,0.3479,0.3119,-0.4952,-0.292,0.2461,0.1028
1.844,-0.2142,1.0619,0.0216,0.3479,0.3119,-0.4952,-0.292,0.2461,0.1028
1.849,-0.2252,1.0627,0.0282,0.3479,0.3119,-0.4952,-0.292,0.2461,0.1028
1.85,-0.235,1.061,0.0296,0.3479,0.3119,-0.4952,-0.292,0.2461,0.1028
1.854,-0.2436,1.0639,0.0372,0.3479,0.3119,-0.4952,-0.292,0.2461,0.1028
1.854,-0.2568,1.0651,0.0409,0.3479,0.3119,-0.4952,-0.292,0.2461,0.1028
1.861,-0.266,1.0658,0.0504,0.3479,0.3119,-0.4952,-0.292,0.2461,0.1028
1.862,-0.2783,1.069,0.0575,0.3479,0.3119,-0.4952,-0.292,0.2461,0.1028
1.864,-0.2846,1.0695,0.0643,0.3479,0.3119,-0.4952,-0.292,0.2461,0.1028
1.864,-0.2927,1.0742,0.0722,0.3479,0.3119,-0.4952,-0.292,0.2461,0.1028
1.869,-0.2954,1.0776,0.0819,0.3479,0.3119,-0.4952,-0.292,0.2461,0.1028
1.87,-0.2968,1.0805,0.091,0.3479,0.3119,-0.4952,-0.292,0.2461,0.1028
1.873,-0.2958,1.0849,0.0993,0.3479,0.3119,-0.4952,-0.292,0.2461,0.1028
1.874,-0.2944,1.0903,0.1054,0.3479,0.3119,-0.4952,-0.292,0.2461,0.1028
1.879,-0.2944,1.0903,0.1054,0.3479,0.3119,-0.4952,-0.4092,0.2729,0.5817
1.88,-0.2902,1.0908,0.1132,0.3479,0.3119,-0.4952,-0.4092,0.2729,0.5817
1.881,-0.2846,1.0944,0.1225,0.3479,0.3119,-0.4952,-0.4092,0.2729,0.5817
1.883,-0.2741,1.0996,0.1305,0.3479,0.3119,-0.4952,-0.4092,0.2729,0.5817
1.884,-0.2658,1.1044,0.1354,0.3479,0.3119,-0.4952,-0.4092,0.2729,0.5817
1.885,-0.2658,1.1044,0.1354,-1.3893,0.55,-1.2683,-0.4092,0.2729,0.5817
1.888,-0.2543,1.1081,0.1452,-1.3893,0.55,-1.2683,-0.4092,0.2729,0.5817
1.889,-0.2384,1.113,0.1535,-1.3893,0.55,-1.2683,-0.4092,0.2729,0.5817
1.893,-0.2213,1.1157,0.1601,-1.3893,0.55,-1.2683,-0.4092,0.2729,0.5817
1.893,-0.202,1.1145,0.166,-1.3893,0.55,-1.2683,-0.4092,0.2729,0.5817
1.898,-0.1808,1.1181,0.1745,-1.3893,0.55,-1.2683,-0.4092,0.2729,0.5817
1.899,-0.1605,1.1169,0.1838,-1.3893,0.55,-1.2683,-0.4092,0.2729,0.5817
1.903,-0.1383,1.1159,0.1882,-1.3893,0.55,-1.2683,-0.4092,0.2729,0.5817
1.904,-0.1163,1.1137,0.1909,-1.3893,0.55,-1.2683,-0.4092,0.2729,0.5817
1.908,-0.0955,1.1101,0.1945,-1.3893,0.55,-1.2683,-0.4092,0.2729,0.5817
1.908,-0.0752,1.1093,0.196,-1.3893,0.55,-1.2683,-0.4092,0.2729,0.5817
1.913,-0.0537,1.1096,0.1955,-1.3893,0.55,-1.2683,-0.4092,0.2729,0.5817
1.914,-0.0335,1.1059,0.1941,-1.3893,0.55,-1.2683,-0.4092,0.2729,0.5817
1.917,-0.0127,1.1062,0.1928,-1.3893,0.55,-1.2683,-0.4092,0.2729,0.5817
1.918,0.0076,1.1054,0.1904,-1.3893,0.55,-1.2683,-0.4092,0.2729,0.5817
1.922,0.0325,1.1032,0.1867,-1.3893,0.55,-1.2683,-0.4092,0.2729,0.5817
1.922,0.0547,1.1,0.1796,-1.3893,0.55,-1.2683,-0.4092,0.2729,0.5817
1.927,0.0755,1.0974,0.1765,-1.3893,0.55,-1.2683,-0.4092,0.2729,0.5817
1.928,0.0994,1.0939,0.1757,-1.3893,0.55,-1.2683,-0.4092,0.2729,0.5817
1.931,0.1248,1.0883,0.1745,-1.3893,0.55,-1.2683,-0.4092,0.2729,0.5817
1.932,0.1495,1.0847,0.1723,-1.3893,0.55,-1.2683,-0.4092,0.2729,0.5817
1.936,0.1725,1.0815,0.1709,-1.3893,0.55,-1.2683,-0.4092,0.2729,0.5817
1.937,0.1984,1.0778,0.1704,-1.3893,0.55,-1.2683,-0.4092,0.2729,0.5817
1.941,0.2184,1.0746,0.1657,-1.3893,0.55,-1.2683,-0.4092,0.2729,0.5817
1.942,0.2372,1.0744,0.1684,-1.3893,0.55,-1.2683,-0.4092,0.2729,0.5817
1.947,0.257,1.0729,0.1643,-1.3893,0.55,-1.2683,-0.4092,0.2729,0.5817
1.947,0.257,1.0729,0.1643,-1.3893,0.55,-1.2683,-0.4194,-0.0845,1.1821
1.948,0.2758,1.072,0.1574,-1.3893,0.55,-1.2683,-0.4194,-0.0845,1.1821
1.951,0.2758,1.072,0.1574,-4.4069,0.9901,-0.8617,-0.4194,-0.0845,1.1821
1.952,0.2941,1.0724,0.1496,-4.4069,0.9901,-0.8617,-0.4194,-0.0845,1.1821
1.952,0.3088,1.0746,0.1442,-4.4069,0.9901,-0.8617,-0.4194,-0.0845,1.1821
1.959,0.3254,1.0751,0.1376,-4.4069,0.9901,-0.8617,-0.4194,-0.0845,1.1821
1.959,0.3361,1.0759,0.1345,-4.4069,0.9901,-0.8617,-0.4194,-0.0845,1.1821
1.962,0.3467,1.0746,0.1291,-4.4069,0.9901,-0.8617,-0.4194,-0.0845,1.1821
1.962,0.354,1.0754,0.1232,-4.4069,0.9901,-0.8617,-0.4194,-0.0845,1.1821
1.966,0.3598,1.0707,0.1227,-4.4069,0.9901,-0.8617,-0.4194,-0.0845,1.1821
1.967,0.3652,1.0651,0.1186,-4.4069,0.9901,-0.8617,-0.4194,-0.0845,1.1821
1.971,0.3623,1.0619,0.1147,-4.4069,0.9901,-0.8617,-0.4194,-0.0845,1.1821
1.972,0.3647,1.0575,0.1076,-4.4069,0.9901,-0.8617,-0.4194,-0.0845,1.1821
1.976,0.363,1.0529,0.1042,-4.4069,0.9901,-0.8617,-0.4194,-0.0845,1.1821
1.977,0.3591,1.0495,0.1005,-4.4069,0.9901,-0.8617,-0.4194,-0.0845,1.1821
1.982,0.3554,1.0439,0.0966,-4.4069,0.9901,-0.8617,-0.4194,-0.0845,1.1821
1.983,0.3525,1.039,0.0983,-4.4069,0.9901,-0.8617,-0.4194,-0.0845,1.1821
1.986,0.3484,1.0329,0.0998,-4.4069,0.9901,-0.8617,-0.4194,-0.0845,1.1821
1.986,0.3454,1.026,0.1066,-4.4069,0.9901,-0.8617,-0.4194,-0.0845,1.1821
1.992,0.3427,1.0163,0.112,-4.4069,0.9901,-0.8617,-0.4194,-0.0845,1.1821
1.993,0.3442,1.0067,0.1164,-4.4069,0.9901,-0.8617,-0.4194,-0.0845,1.1821
1.996,0.3415,0.9992,0.1195,-4.4069,0.9901,-0.8617,-0.4194,-0.0845,1.1821
1.997,0.3408,0.993,0.1195,-4.4069,0.9901,-0.8617,-0.4194,-0.0845,1.1821
2.001,0.3401,0.9867,0.1191,-4.4069,0.9901,-0.8617,-0.4194,-0.0845,1.1821
2.002,0.3401,0.983,0.1174,-4.4069,0.9901,-0.8617,-0.4194,-0.0845,1.1821
2.005,0.3413,0.9769,0.1164,-4.4069,0.9901,-0.8617,-0.4194,-0.0845,1.1821
2.005,0.3405,0.9735,0.1164,-4.4069,0.9901,-0.8617,-0.4194,-0.0845,1.1821
2.01,0.342,0.9706,0.111,-4.4069,0.9901,-0.8617,-0.4194,-0.0845,1.1821
2.01,0.3386,0.9667,0.1073,-4.4069,0.9901,-0.8617,-0.4194,-0.0845,1.1821
2.016,0.3386,0.9667,0.1073,-4.4069,0.9901,-0.8617,-0.3449,-0.3305,1.1569
2.017,0.3371,0.9613,0.1007,-4.4069,0.9901,-0.8617,-0.3449,-0.3305,1.1569
2.017,0.3291,0.9559,0.0885,-4.4069,0.9901,-0.8617,-0.3449,-0.3305,1.1569
2.02,0.3291,0.9559,0.0885,-2.6122,1.4363,0.239,-0.3449,-0.3305,1.1569
2.021,0.3266,0.9518,0.0805,-2.6122,1.4363,0.239,-0.3449,-0.3305,1.1569
2.021,0.3188,0.9444,0.0729,-2.6122,1.4363,0.239,-0.3449,-0.3305,1.1569
2.025,0.3068,0.9361,0.068,-2.6122,1.4363,0.239,-0.3449,-0.3305,1.1569
2.025,0.2934,0.9305,0.0626,-2.6122,1.4363,0.239,-0.3449,-0.3305,1.1569
2.031,0.2814,0.9239,0.0621,-2.6122,1.4363,0.239,-0.3449,-0.3305,1.1569
2.032,0.2655,0.9168,0.0631,-2.6122,1.4363,0.239,-0.3449,-0.3305,1.1569
2.035,0.2502,0.9124,0.0651,-2.6122,1.4363,0.239,-0.3449,-0.3305,1.1569
2.035,0.2362,0.9046,0.0692,-2.6122,1.4363,0.239,-0.3449,-0.3305,1.1569
2.04,0.2208,0.8983,0.0766,-2.6122,1.4363,0.239,-0.3449,-0.3305,1.1569
2.04,0.2076,0.8904,0.0844,-2.6122,1.4363,0.239,-0.3449,-0.3305,1.1569
2.044,0.1952,0.8875,0.0927,-2.6122,1.4363,0.239,-0.3449,-0.3305,1.1569
2.045,0.1844,0.8812,0.0983,-2.6122,1.4363,0.239,-0.3449,-0.3305,1.1569
2.049,0.1788,0.8746,0.1081,-2.6122,1.4363,0.239,-0.3449,-0.3305,1.1569
2.05,0.173,0.8682,0.1122,-2.6122,1.4363,0.239,-0.3449,-0.3305,1.1569
2.054,0.1698,0.8584,0.1186,-2.6122,1.4363,0.239,-0.3449,-0.3305,1.1569
2.055,0.1688,0.8482,0.1252,-2.6122,1.4363,0.239,-0.3449,-0.3305,1.1569
2.06,0.1693,0.8387,0.1293,-2.6122,1.4363,0.239,-0.3449,-0.3305,1.1569
2.061,0.1752,0.8269,0.1315,-2.6122,1.4363,0.239,-0.3449,-0.3305,1.1569
2.064,0.1818,0.8137,0.1298,-2.6122,1.4363,0.239,-0.3449,-0.3305,1.1569
2.065,0.1913,0.8013,0.1303,-2.6122,1.4363,0.239,-0.3449,-0.3305,1.1569
2.069,0.2006,0.7856,0.1244,-2.6122,1.4363,0.239,-0.3449,-0.3305,1.1569
2.07,0.2081,0.77,0.1176,-2.6122,1.4363,0.239,-0.3449,-0.3305,1.1569
2.075,0.214,0.7563,0.1127,-2.6122,1.4363,0.239,-0.3449,-0.3305,1.1569
2.076,0.2184,0.7436,0.1083,-2.6122,1.4363,0.239,-0.3449,-0.3305,1.1569
2.079,0.2245,0.7314,0.1024,-2.6122,1.4363,0.239,-0.3449,-0.3305,1.1569
2.08,0.2282,0.7211,0.0995,-2.6122,1.4363,0.239,-0.3449,-0.3305,1.1569
2.083,0.2326,0.7119,0.0976,-2.6122,1.4363,0.239,-0.3449,-0.3305,1.1569
2.084,0.2326,0.7119,0.0976,-2.6122,1.4363,0.239,0.0751,-0.3907,0.6039
2.085,0.2362,0.7053,0.0959,-2.6122,1.4363,0.239,0.0751,-0.3907,0.6039
2.088,0.2362,0.7053,0.0959,0.163,0.7148,-0.2162,0.0751,-0.3907,0.6039
2.089,0.2382,0.7026,0.0961,0.163,0.7148,-0.2162,0.0751,-0.3907,0.6039
2.089,0.2397,0.7011,0.0956,0.163,0.7148,-0.2162,0.0751,-0.3907,0.6039
2.093,0.2401,0.7001,0.0976,0.163,0.7148,-0.2162,0.0751,-0.3907,0.6039
2.094,0.2453,0.7036,0.0998,0.163,0.7148,-0.2162,0.0751,-0.3907,0.6039
2.098,0.247,0.7053,0.1051,0.163,0.7148,-0.2162,0.0751,-0.3907,0.6039
2.098,0.2506,0.7092,0.109,0.163,0.7148,-0.2162,0.0751,-0.3907,0.6039
2.104,0.2504,0.7126,0.1127,0.163,0.7148,-0.2162,0.0751,-0.3907,0.6039
2.105,0.2533,0.7163,0.1134,0.163,0.7148,-0.2162,0.0751,-0.3907,0.6039
2.108,0.2572,0.7194,0.1149,0.163,0.7148,-0.2162,0.0751,-0.3907,0.6039
2.109,0.2626,0.7229,0.1169,0.163,0.7148,-0.2162,0.0751,-0.3907,0.6039
2.113,0.2646,0.7273,0.1161,0.163,0.7148,-0.2162,0.0751,-0.3907,0.6039
2.114,0.2629,0.7299,0.1137,0.163,0.7148,-0.2162,0.0751,-0.3907,0.6039
2.119,0.2633,0.7348,0.1112,0.163,0.7148,-0.2162,0.0751,-0.3907,0.6039
2.12,0.2568,0.7431,0.1066,0.163,0.7148,-0.2162,0.0751,-0.3907,0.6039
2.123,0.2506,0.7473,0.1056,0.163,0.7148,-0.2162,0.0751,-0.3907,0.6039
2.125,0.2436,0.7527,0.1056,0.163,0.7148,-0.2162,0.0751,-0.3907,0.6039
2.127,0.2362,0.76,0.1059,0.163,0.7148,-0.2162,0.0751,-0.3907,0.6039
2.128,0.2274,0.7632,0.1088,0.163,0.7148,-0.2162,0.0751,-0.3907,0.6039
2.132,0.2174,0.7688,0.1117,0.163,0.7148,-0.2162,0.0751,-0.3907,0.6039
2.133,0.2069,0.7737,0.1161,0.163,0.7148,-0.2162,0.0751,-0.3907,0.6039
2.137,0.1986,0.7803,0.1239,0.163,0.7148,-0.2162,0.0751,-0.3907,0.6039
2.137,0.1849,0.7849,0.1347,0.163,0.7148,-0.2162,0.0751,-0.3907,0.6039
2.143,0.1788,0.7898,0.1403,0.163,0.7148,-0.2162,0.0751,-0.3907,0.6039
2.143,0.1708,0.7966,0.1491,0.163,0.7148,-0.2162,0.0751,-0.3907,0.6039
2.147,0.1617,0.8042,0.155,0.163,0.7148,-0.2162,0.0751,-0.3907,0.6039
2.147,0.1541,0.8086,0.1584,0.163,0.7148,-0.2162,0.0751,-0.3907,0.6039
2.152,0.1454,0.8186,0.1618,0.163,0.7148,-0.2162,0.0751,-0.3907,0.6039
2.153,0.1454,0.8186,0.1618,0.163,0.7148,-0.2162,0.3535,-0.4453,-0.7451
2.153,0.1419,0.8242,0.1667,0.163,0.7148,-0.2162,0.3535,-0.4453,-0.7451
2.159,0.1348,0.8318,0.1672,0.163,0.7148,-0.2162,0.3535,-0.4453,-0.7451
2.159,0.1251,0.8408,0.1723,0.163,0.7148,-0.2162,0.3535,-0.4453,-0.7451
2.16,0.1251,0.8408,0.1723,-0.5276,-1.32,-0.0063,0.3535,-0.4453,-0.7451
2.162,0.1182,0.847,0.1748,-0.5276,-1.32,-0.0063,0.3535,-0.4453,-0.7451
2.162,0.1109,0.8528,0.1782,-0.5276,-1.32,-0.0063,0.3535,-0.4453,-0.7451
2.167,0.1041,0.8601,0.174,-0.5276,-1.32,-0.0063,0.3535,-0.4453,-0.7451
2.168,0.097,0.8665,0.1774,-0.5276,-1.32,-0.0063,0.3535,-0.4453,-0.7451
2.171,0.0906,0.8704,0.1794,-0.5276,-1.32,-0.0063,0.3535,-0.4453,-0.7451
2.172,0.087,0.876,0.1821,-0.5276,-1.32,-0.0063,0.3535,-0.4453,-0.7451
2.176,0.0811,0.8841,0.1836,-0.5276,-1.32,-0.0063,0.3535,-0.4453,-0.7451
2.176,0.0735,0.8882,0.1831,-0.5276,-1.32,-0.0063,0.3535,-0.4453,-0.7451
2.181,0.0701,0.8887,0.1833,-0.5276,-1.32,-0.0063,0.3535,-0.4453,-0.7451
2.181,0.0652,0.8922,0.1816,-0.5276,-1.32,-0.0063,0.3535,-0.4453,-0.7451
2.186,0.0606,0.8939,0.1806,-0.5276,-1.32,-0.0063,0.3535,-0.4453,-0.7451
2.187,0.0555,0.8948,0.177,-0.5276,-1.32,-0.0063,0.3535,-0.4453,-0.7451
2.194,0.052,0.8956,0.1787,-0.5276,-1.32,-0.0063,0.3535,-0.4453,-0.7451
2.194,0.0469,0.8953,0.1765,-0.5276,-1.32,-0.0063,0.3535,-0.4453,-0.7451
2.196,0.0437,0.8943,0.1757,-0.5276,-1.32,-0.0063,0.3535,-0.4453,-0.7451
2.196,0.0398,0.8956,0.1792,-0.5276,-1.32,-0.0063,0.3535,-0.4453,-0.7451
2.2,0.0413,0.8975,0.1777,-0.5276,-1.32,-0.0063,0.3535,-0.4453,-0.7451
2.201,0.0403,0.8968,0.1796,-0.5276,-1.32,-0.0063,0.3535,-0.4453,-0.7451
2.206,0.0408,0.8995,0.1792,-0.5276,-1.32,-0.0063,0.3535,-0.4453,-0.7451
2.206,0.0415,0.8992,0.1855,-0.5276,-1.32,-0.0063,0.3535,-0.4453,-0.7451
2.21,0.0442,0.8985,0.188,-0.5276,-1.32,-0.0063,0.3535,-0.4453,-0.7451
2.211,0.0508,0.9012,0.1919,-0.5276,-1.32,-0.0063,0.3535,-0.4453,-0.7451
2.215,0.0555,0.9031,0.1914,-0.5276,-1.32,-0.0063,0.3535,-0.4453,-0.7451
2.216,0.0577,0.9046,0.1848,-0.5276,-1.32,-0.0063,0.3535,-0.4453,-0.7451
2.221,0.0589,0.9061,0.1784,-0.5276,-1.32,-0.0063,0.3535,-0.4453,-0.7451
2.221,0.0589,0.9061,0.1784,-0.5276,-1.32,-0.0063,0.5481,-0.2123,-1.8791
2.222,0.0589,0.9105,0.1743,-0.5276,-1.32,-0.0063,0.5481,-0.2123,-1.8791
2.225,0.0589,0.9156,0.1716,-0.5276,-1.32,-0.0063,0.5481,-0.2123,-1.8791
2.225,0.0589,0.9156,0.1716,0.7084,-2.2042,0.6315,0.5481,-0.2123,-1.8791
2.226,0.0559,0.9205,0.1662,0.7084,-2.2042,0.6315,0.5481,-0.2123,-1.8791
2.23,0.0559,0.9266,0.1638,0.7084,-2.2042,0.6315,0.5481,-0.2123,-1.8791
2.231,0.0572,0.9317,0.1599,0.7084,-2.2042,0.6315,0.5481,-0.2123,-1.8791
2.235,0.0542,0.9369,0.1572,0.7084,-2.2042,0.6315,0.5481,-0.2123,-1.8791
2.235,0.052,0.9449,0.1479,0.7084,-2.2042,0.6315,0.5481,-0.2123,-1.8791
2.24,0.0462,0.9496,0.1406,0.7084,-2.2042,0.6315,0.5481,-0.2123,-1.8791
2.241,0.0362,0.9564,0.1327,0.7084,-2.2042,0.6315,0.5481,-0.2123,-1.8791
2.244,0.0269,0.9669,0.1249,0.7084,-2.2042,0.6315,0.5481,-0.2123,-1.8791
2.245,0.0132,0.9781,0.1166,0.7084,-2.2042,0.6315,0.5481,-0.2123,-1.8791
2.25,-0.0012,0.9886,0.1122,0.7084,-2.2042,0.6315,0.5481,-0.2123,-1.8791
2.25,-0.0108,0.9974,0.1054,0.7084,-2.2042,0.6315,0.5481,-0.2123,-1.8791
2.254,-0.0203,1.007,0.0988,0.7084,-2.2042,0.6315,0.5481,-0.2123,-1.8791
2.255,-0.0288,1.0172,0.0915,0.7084,-2.2042,0.6315,0.5481,-0.2123,-1.8791
2.26,-0.0374,1.0246,0.0883,0.7084,-2.2042,0.6315,0.5481,-0.2123,-1.8791
2.26,-0.0464,1.0312,0.0812,0.7084,-2.2042,0.6315,0.5481,-0.2123,-1.8791
2.264,-0.0528,1.0358,0.0734,0.7084,-2.2042,0.6315,0.5481,-0.2123,-1.8791
2.265,-0.0559,1.0378,0.0668,0.7084,-2.2042,0.6315,0.5481,-0.2123,-1.8791
2.269,-0.0603,1.0412,0.0629,0.7084,-2.2042,0.6315,0.5481,-0.2123,-1.8791
2.27,-0.0611,1.0424,0.0563,0.7084,-2.2042,0.6315,0.5481,-0.2123,-1.8791
2.275,-0.0596,1.0409,0.0489,0.7084,-2.2042,0.6315,0.5481,-0.2123,-1.8791
2.275,-0.0584,1.04,0.0448,0.7084,-2.2042,0.6315,0.5481,-0.2123,-1.8791
2.279,-0.0537,1.0414,0.0421,0.7084,-2.2042,0.6315,0.5481,-0.2123,-1.8791
2.279,-0.0506,1.0426,0.0382,0.7084,-2.2042,0.6315,0.5481,-0.2123,-1.8791
2.284,-0.0457,1.0436,0.034,0.7084,-2.2042,0.6315,0.5481,-0.2123,-1.8791
2.284,-0.0437,1.0441,0.0292,0.7084,-2.2042,0.6315,0.5481,-0.2123,-1.8791
2.289,-0.0437,1.0441,0.0292,0.7084,-2.2042,0.6315,0.6453,-0.334,-2.4094
2.29,-0.0396,1.0439,0.0277,0.7084,-2.2042,0.6315,0.6453,-0.334,-2.4094
2.29,-0.0376,1.0439,0.0233,0.7084,-2.2042,0.6315,0.6453,-0.334,-2.4094
2.293,-0.0337,1.0417,0.0223,0.7084,-2.2042,0.6315,0.6453,-0.334,-2.4094
2.294,-0.0337,1.0417,0.0223,0.7959,-1.0008,1.5579,0.6453,-0.334,-2.4094
2.294,-0.0322,1.0429,0.0243,0.7959,-1.0008,1.5579,0.6453,-0.334,-2.4094
2.298,-0.0288,1.0424,0.0231,0.7959,-1.0008,1.5579,0.6453,-0.334,-2.4094
2.298,-0.0232,1.039,0.0255,0.7959,-1.0008,1.5579,0.6453,-0.334,-2.4094
2.304,-0.02,1.0351,0.0289,0.7959,-1.0008,1.5579,0.6453,-0.334,-2.4094
2.304,-0.0171,1.0319,0.0321,0.7959,-1.0008,1.5579,0.6453,-0.334,-2.4094
2.309,-0.0127,1.028,0.0382,0.7959,-1.0008,1.5579,0.6453,-0.334,-2.4094
2.31,-0.0068,1.0246,0.0499,0.7959,-1.0008,1.5579,0.6453,-0.334,-2.4094
2.313,0.001,1.0199,0.0604,0.7959,-1.0008,1.5579,0.6453,-0.334,-2.4094
2.313,0.0071,1.015,0.0722,0.7959,-1.0008,1.5579,0.6453,-0.334,-2.4094
2.318,0.0156,1.0114,0.0839,0.7959,-1.0008,1.5579,0.6453,-0.334,-2.4094
2.318,0.02,1.0084,0.0919,0.7959,-1.0008,1.5579,0.6453,-0.334,-2.4094
2.322,0.0283,1.004,0.0951,0.7959,-1.0008,1.5579,0.6453,-0.334,-2.4094
2.323,0.0342,0.9996,0.0985,0.7959,-1.0008,1.5579,0.6453,-0.334,-2.4094
2.327,0.0425,0.9945,0.0968,0.7959,-1.0008,1.5579,0.6453,-0.334,-2.4094
2.328,0.0462,0.9899,0.0941,0.7959,-1.0008,1.5579,0.6453,-0.334,-2.4094
2.332,0.0498,0.9811,0.0888,0.7959,-1.0008,1.5579,0.6453,-0.334,-2.4094
2.332,0.0511,0.9759,0.0858,0.7959,-1.0008,1.5579,0.6453,-0.334,-2.4094
2.338,0.0479,0.9696,0.0814,0.7959,-1.0008,1.5579,0.6453,-0.334,-2.4094
2.339,0.0459,0.9637,0.0775,0.7959,-1.0008,1.5579,0.6453,-0.334,-2.4094
2.341,0.0418,0.9615,0.0719,0.7959,-1.0008,1.5579,0.6453,-0.334,-2.4094
2.345,0.033,0.9571,0.07,0.7959,-1.0008,1.5579,0.6453,-0.334,-2.4094
2.347,0.0288,0.9542,0.0687,0.7959,-1.0008,1.5579,0.6453,-0.334,-2.4094
2.349,0.0232,0.953,0.069,0.7959,-1.0008,1.5579,0.6453,-0.334,-2.4094
2.35,0.0132,0.9525,0.0668,0.7959,-1.0008,1.5579,0.6453,-0.334,-2.4094
2.354,0.0132,0.9525,0.0668,0.7959,-1.0008,1.5579,0.5438,0.0603,-2.0893
2.355,0.0049,0.9505,0.0687,0.7959,-1.0008,1.5579,0.5438,0.0603,-2.0893
2.355,-0.0029,0.9496,0.069,0.7959,-1.0008,1.5579,0.5438,0.0603,-2.0893
2.36,-0.0103,0.9508,0.0702,0.7959,-1.0008,1.5579,0.5438,0.0603,-2.0893
2.36,-0.0222,0.9547,0.0748,0.7959,-1.0008,1.5579,0.5438,0.0603,-2.0893
2.364,-0.0222,0.9547,0.0748,1.2942,0.2577,0.9408,0.5438,0.0603,-2.0893
2.365,-0.031,0.9606,0.0729,1.2942,0.2577,0.9408,0.5438,0.0603,-2.0893
2.366,-0.0415,0.9669,0.0714,1.2942,0.2577,0.9408,0.5438,0.0603,-2.0893
2.369,-0.0508,0.9774,0.0692,1.2942,0.2577,0.9408,0.5438,0.0603,-2.0893
2.369,-0.0606,0.9901,0.067,1.2942,0.2577,0.9408,0.5438,0.0603,-2.0893
2.379,-0.066,0.9999,0.0621,1.2942,0.2577,0.9408,0.5438,0.0603,-2.0893
2.379,-0.0669,1.0126,0.0575,1.2942,0.2577,0.9408,0.5438,0.0603,-2.0893
2.381,-0.063,1.0241,0.0538,1.2942,0.2577,0.9408,0.5438,0.0603,-2.0893
2.381,-0.0567,1.0294,0.0497,1.2942,0.2577,0.9408,0.5438,0.0603,-2.0893
2.383,-0.0452,1.0341,0.0438,1.2942,0.2577,0.9408,0.5438,0.0603,-2.0893
2.384,-0.0337,1.0378,0.038,1.2942,0.2577,0.9408,0.5438,0.0603,-2.0893
2.39,-0.02,1.0375,0.0304,1.2942,0.2577,0.9408,0.5438,0.0603,-2.0893
2.392,-0.0066,1.0336,0.0248,1.2942,0.2577,0.9408,0.5438,0.0603,-2.0893
2.394,0.0042,1.0297,0.0213,1.2942,0.2577,0.9408,0.5438,0.0603,-2.0893
2.394,0.0144,1.0224,0.0162,1.2942,0.2577,0.9408,0.5438,0.0603,-2.0893
2.399,0.0213,1.0165,0.0152,1.2942,0.2577,0.9408,0.5438,0.0603,-2.0893
2.399,0.0264,1.0057,0.0155,1.2942,0.2577,0.9408,0.5438,0.0603,-2.0893
2.403,0.0303,0.9965,0.0172,1.2942,0.2577,0.9408,0.5438,0.0603,-2.0893
2.403,0.0347,0.9847,0.0213,1.2942,0.2577,0.9408,0.5438,0.0603,-2.0893
2.409,0.033,0.9772,0.0279,1.2942,0.2577,0.9408,0.5438,0.0603,-2.0893
2.409,0.0315,0.9691,0.036,1.2942,0.2577,0.9408,0.5438,0.0603,-2.0893
2.414,0.0203,0.9664,0.0455,1.2942,0.2577,0.9408,0.5438,0.0603,-2.0893
2.415,0.0117,0.9623,0.0536,1.2942,0.2577,0.9408,0.5438,0.0603,-2.0893
2.418,0,0.962,0.0634,1.2942,0.2577,0.9408,0.5438,0.0603,-2.0893
2.419,-0.0132,0.9593,0.0763,1.2942,0.2577,0.9408,0.5438,0.0603,-2.0893
2.422,-0.0279,0.9593,0.0875,1.2942,0.2577,0.9408,0.5438,0.0603,-2.0893
2.422,-0.0279,0.9593,0.0875,1.2942,0.2577,0.9408,0.4588,0.2258,-1.0698
2.423,-0.0401,0.9591,0.099,1.2942,0.2577,0.9408,0.4588,0.2258,-1.0698
2.427,-0.0508,0.9603,0.113,1.2942,0.2577,0.9408,0.4588,0.2258,-1.0698
2.428,-0.0599,0.9586,0.1227,1.2942,0.2577,0.9408,0.4588,0.2258,-1.0698
2.433,-0.0694,0.962,0.1308,1.2942,0.2577,0.9408,0.4588,0.2258,-1.0698
2.433,-0.0694,0.962,0.1308,2.1212,0.175,1.0833,0.4588,0.2258,-1.0698
2.434,-0.0743,0.9615,0.1398,2.1212,0.175,1.0833,0.4588,0.2258,-1.0698
2.437,-0.0767,0.9613,0.1457,2.1212,0.175,1.0833,0.4588,0.2258,-1.0698
2.438,-0.0752,0.9574,0.1547,2.1212,0.175,1.0833,0.4588,0.2258,-1.0698
2.443,-0.0723,0.954,0.1618,2.1212,0.175,1.0833,0.4588,0.2258,-1.0698
2.443,-0.0721,0.951,0.1662,2.1212,0.175,1.0833,0.4588,0.2258,-1.0698
2.447,-0.0647,0.9452,0.173,2.1212,0.175,1.0833,0.4588,0.2258,-1.0698
2.448,-0.0564,0.9395,0.1762,2.1212,0.175,1.0833,0.4588,0.2258,-1.0698
2.452,-0.0437,0.9322,0.1779,2.1212,0.175,1.0833,0.4588,0.2258,-1.0698
2.452,-0.0298,0.9246,0.1779,2.1212,0.175,1.0833,0.4588,0.2258,-1.0698
2.457,-0.0161,0.9158,0.1752,2.1212,0.175,1.0833,0.4588,0.2258,-1.0698
2.458,-0.0039,0.9073,0.1718,2.1212,0.175,1.0833,0.4588,0.2258,-1.0698
2.462,0.0098,0.9,0.165,2.1212,0.175,1.0833,0.4588,0.2258,-1.0698
2.462,0.0178,0.8946,0.1535,2.1212,0.175,1.0833,0.4588,0.2258,-1.0698
2.467,0.0232,0.8887,0.1457,2.1212,0.175,1.0833,0.4588,0.2258,-1.0698
2.467,0.0271,0.887,0.1345,2.1212,0.175,1.0833,0.4588,0.2258,-1.0698
2.471,0.0296,0.887,0.1254,2.1212,0.175,1.0833,0.4588,0.2258,-1.0698
2.472,0.0337,0.8909,0.1147,2.1212,0.175,1.0833,0.4588,0.2258,-1.0698
2.476,0.0393,0.8958,0.1068,2.1212,0.175,1.0833,0.4588,0.2258,-1.0698
2.477,0.0452,0.9031,0.0978,2.1212,0.175,1.0833,0.4588,0.2258,-1.0698
2.483,0.0552,0.9107,0.0849,2.1212,0.175,1.0833,0.4588,0.2258,-1.0698
2.484,0.0686,0.9227,0.0734,2.1212,0.175,1.0833,0.4588,0.2258,-1.0698
2.487,0.0877,0.941,0.0643,2.1212,0.175,1.0833,0.4588,0.2258,-1.0698
2.488,0.1099,0.9667,0.0489,2.1212,0.175,1.0833,0.4588,0.2258,-1.0698
2.494,0.1383,0.9972,0.0338,2.1212,0.175,1.0833,0.4588,0.2258,-1.0698
2.494,0.1383,0.9972,0.0338,2.1212,0.175,1.0833,0.0516,-0.658,0.5662
2.495,0.1683,1.0307,0.0184,2.1212,0.175,1.0833,0.0516,-0.658,0.5662
2.496,0.2059,1.0698,0.0003,2.1212,0.175,1.0833,0.0516,-0.658,0.5662
2.497,0.2318,1.0981,-0.017,2.1212,0.175,1.0833,0.0516,-0.658,0.5662
2.5,0.2404,1.1157,-0.039,2.1212,0.175,1.0833,0.0516,-0.658,0.5662
2.503,0.2404,1.1157,-0.039,1.2924,0.1216,0.8357,0.0516,-0.658,0.5662
2.504,0.2194,1.1186,-0.0654,1.2924,0.1216,0.8357,0.0516,-0.658,0.5662
2.505,0.1593,1.1211,-0.1008,1.2924,0.1216,0.8357,0.0516,-0.658,0.5662
2.506,0.0586,1.1308,-0.1299,1.2924,0.1216,0.8357,0.0516,-0.658,0.5662
2.51,-0.0836,1.1582,-0.1489,1.2924,0.1216,0.8357,0.0516,-0.658,0.5662
2.511,-0.2506,1.2166,-0.1489,1.2924,0.1216,0.8357,0.0516,-0.658,0.5662
2.515,-0.4307,1.3079,-0.1399,1.2924,0.1216,0.8357,0.0516,-0.658,0.5662
2.516,-0.6071,1.4418,-0.1177,1.2924,0.1216,0.8357,0.0516,-0.658,0.5662
2.521,-0.7695,1.6111,-0.0861,1.2924,0.1216,0.8357,0.0516,-0.658,0.5662
2.522,-0.8846,1.8075,-0.0473,1.2924,0.1216,0.8357,0.0516,-0.658,0.5662
2.526,-0.9376,2.0037,0.014,1.2924,0.1216,0.8357,0.0516,-0.658,0.5662
2.526,-0.9447,2.164,0.0841,1.2924,0.1216,0.8357,0.0516,-0.658,0.5662
2.53,-0.9249,2.2768,0.1095,1.2924,0.1216,0.8357,0.0516,-0.658,0.5662
2.531,-0.866,2.3408,0.057,1.2924,0.1216,0.8357,0.0516,-0.658,0.5662
2.535,-0.7571,2.3445,-0.0368,1.2924,0.1216,0.8357,0.0516,-0.658,0.5662
2.536,-0.609,2.2685,-0.1316,1.2924,0.1216,0.8357,0.0516,-0.658,0.5662
2.54,-0.4412,2.1256,-0.1804,1.2924,0.1216,0.8357,0.0516,-0.658,0.5662
2.541,-0.2831,1.9443,-0.1758,1.2924,0.1216,0.8357,0.0516,-0.658,0.5662
2.545,-0.1607,1.7511,-0.1225,1.2924,0.1216,0.8357,0.0516,-0.658,0.5662
2.546,-0.0767,1.5569,-0.0304,1.2924,0.1216,0.8357,0.0516,-0.658,0.5662
2.549,-0.0244,1.3776,0.0722,1.2924,0.1216,0.8357,0.0516,-0.658,0.5662
2.55,0.0085,1.2083,0.1902,1.2924,0.1216,0.8357,0.0516,-0.658,0.5662
2.554,0.0322,1.0549,0.3179,1.2924,0.1216,0.8357,0.0516,-0.658,0.5662
2.555,0.0523,0.9376,0.4408,1.2924,0.1216,0.8357,0.0516,-0.658,0.5662
2.559,0.0589,0.8496,0.5603,1.2924,0.1216,0.8357,0.0516,-0.658,0.5662
2.56,0.0589,0.8496,0.5603,1.2924,0.1216,0.8357,0.2704,-0.6271,1.3606
2.561,0.0689,0.7854,0.6785,1.2924,0.1216,0.8357,0.2704,-0.6271,1.3606
2.565,0.076,0.738,0.785,1.2924,0.1216,0.8357,0.2704,-0.6271,1.3606
2.566,0.087,0.6994,0.861,1.2924,0.1216,0.8357,0.2704,-0.6271,1.3606
2.569,0.0972,0.6742,0.8932,1.2924,0.1216,0.8357,0.2704,-0.6271,1.3606
2.57,0.0975,0.6608,0.851,1.2924,0.1216,0.8357,0.2704,-0.6271,1.3606
2.571,0.0975,0.6608,0.851,0.8939,-0.3947,1.4675,0.2704,-0.6271,1.3606
2.574,0.075,0.6669,0.7291,0.8939,-0.3947,1.4675,0.2704,-0.6271,1.3606
2.575,0.0335,0.6857,0.5593,0.8939,-0.3947,1.4675,0.2704,-0.6271,1.3606
2.583,-0.0173,0.7033,0.3585,0.8939,-0.3947,1.4675,0.2704,-0.6271,1.3606
2.583,-0.0733,0.7109,0.1398,0.8939,-0.3947,1.4675,0.2704,-0.6271,1.3606
2.584,-0.1209,0.7099,-0.0818,0.8939,-0.3947,1.4675,0.2704,-0.6271,1.3606
2.585,-0.1559,0.6935,-0.286,0.8939,-0.3947,1.4675,0.2704,-0.6271,1.3606
2.589,-0.1622,0.6694,-0.4817,0.8939,-0.3947,1.4675,0.2704,-0.6271,1.3606
2.589,-0.1283,0.6457,-0.63,0.8939,-0.3947,1.4675,0.2704,-0.6271,1.3606
2.593,-0.052,0.6288,-0.7189,0.8939,-0.3947,1.4675,0.2704,-0.6271,1.3606
2.594,0.0633,0.6222,-0.7541,0.8939,-0.3947,1.4675,0.2704,-0.6271,1.3606
2.599,0.2111,0.6388,-0.7462,0.8939,-0.3947,1.4675,0.2704,-0.6271,1.3606
2.6,0.3718,0.6828,-0.7191,0.8939,-0.3947,1.4675,0.2704,-0.6271,1.3606
2.604,0.5316,0.7422,-0.6759,0.8939,-0.3947,1.4675,0.2704,-0.6271,1.3606
2.604,0.6828,0.8125,-0.6194,0.8939,-0.3947,1.4675,0.2704,-0.6271,1.3606
2.609,0.8211,0.8853,-0.5672,0.8939,-0.3947,1.4675,0.2704,-0.6271,1.3606
2.609,0.9288,0.9581,-0.5349,0.8939,-0.3947,1.4675,0.2704,-0.6271,1.3606
2.617,1.0067,1.0231,-0.5208,0.8939,-0.3947,1.4675,0.2704,-0.6271,1.3606
2.618,1.0492,1.0712,-0.5215,0.8939,-0.3947,1.4675,0.2704,-0.6271,1.3606
2.618,1.0605,1.0932,-0.5281,0.8939,-0.3947,1.4675,0.2704,-0.6271,1.3606
2.619,1.0466,1.0915,-0.533,0.8939,-0.3947,1.4675,0.2704,-0.6271,1.3606
2.623,1.0224,1.0654,-0.5288,0.8939,-0.3947,1.4675,0.2704,-0.6271,1.3606
2.623,0.9935,1.0228,-0.5105,0.8939,-0.3947,1.4675,0.2704,-0.6271,1.3606
2.628,0.9655,0.9659,-0.4682,0.8939,-0.3947,1.4675,0.2704,-0.6271,1.3606
2.629,0.9655,0.9659,-0.4682,0.8939,-0.3947,1.4675,-0.0072,-0.7834,1.3545
2.63,0.9386,0.9085,-0.4116,0.8939,-0.3947,1.4675,-0.0072,-0.7834,1.3545
2.632,0.9041,0.8555,-0.3561,0.8939,-0.3947,1.4675,-0.0072,-0.7834,1.3545
2.634,0.8646,0.8203,-0.3075,0.8939,-0.3947,1.4675,-0.0072,-0.7834,1.3545
2.637,0.8646,0.8203,-0.3075,-3.0422,4.5308,1.5402,-0.0072,-0.7834,1.3545
2.638,0.8089,0.8057,-0.2672,-3.0422,4.5308,1.5402,-0.0072,-0.7834,1.3545
2.638,0.7424,0.8145,-0.23,-3.0422,4.5308,1.5402,-0.0072,-0.7834,1.3545
2.643,0.6686,0.8406,-0.1939,-3.0422,4.5308,1.5402,-0.0072,-0.7834,1.3545
2.644,0.5795,0.8831,-0.1487,-3.0422,4.5308,1.5402,-0.0072,-0.7834,1.3545
2.647,0.4844,0.9322,-0.1035,-3.0422,4.5308,1.5402,-0.0072,-0.7834,1.3545
2.647,0.3889,0.9857,-0.0622,-3.0422,4.5308,1.5402,-0.0072,-0.7834,1.3545
2.652,0.2907,1.0363,-0.0241,-3.0422,4.5308,1.5402,-0.0072,-0.7834,1.3545
2.654,0.1957,1.0839,0.013,-3.0422,4.5308,1.5402,-0.0072,-0.7834,1.3545
2.657,0.1026,1.1281,0.0463,-3.0422,4.5308,1.5402,-0.0072,-0.7834,1.3545
2.657,0.0159,1.1609,0.0687,-3.0422,4.5308,1.5402,-0.0072,-0.7834,1.3545
2.662,-0.0652,1.1829,0.0907,-3.0422,4.5308,1.5402,-0.0072,-0.7834,1.3545
2.662,-0.1334,1.1948,0.1086,-3.0422,4.5308,1.5402,-0.0072,-0.7834,1.3545
2.667,-0.1835,1.1936,0.1237,-3.0422,4.5308,1.5402,-0.0072,-0.7834,1.3545
2.668,-0.2233,1.1829,0.1342,-3.0422,4.5308,1.5402,-0.0072,-0.7834,1.3545
2.672,-0.2511,1.1628,0.1423,-3.0422,4.5308,1.5402,-0.0072,-0.7834,1.3545
2.672,-0.2687,1.1357,0.1506,-3.0422,4.5308,1.5402,-0.0072,-0.7834,1.3545
2.677,-0.2763,1.1074,0.1528,-3.0422,4.5308,1.5402,-0.0072,-0.7834,1.3545
2.678,-0.279,1.0727,0.1467,-3.0422,4.5308,1.5402,-0.0072,-0.7834,1.3545
2.682,-0.2726,1.0382,0.1369,-3.0422,4.5308,1.5402,-0.0072,-0.7834,1.3545
2.683,-0.2643,1.0097,0.1213,-3.0422,4.5308,1.5402,-0.0072,-0.7834,1.3545
2.687,-0.2463,0.9855,0.1061,-3.0422,4.5308,1.5402,-0.0072,-0.7834,1.3545
2.688,-0.2169,0.9637,0.0902,-3.0422,4.5308,1.5402,-0.0072,-0.7834,1.3545
2.691,-0.1766,0.9518,0.0719,-3.0422,4.5308,1.5402,-0.0072,-0.7834,1.3545
2.692,-0.1226,0.9471,0.0443,-3.0422,4.5308,1.5402,-0.0072,-0.7834,1.3545
2.696,-0.1226,0.9471,0.0443,-3.0422,4.5308,1.5402,0.1185,0.6831,0.9516
2.697,-0.0577,0.9454,0.0157,-3.0422,4.5308,1.5402,0.1185,0.6831,0.9516
2.697,0.0132,0.9474,-0.0119,-3.0422,4.5308,1.5402,0.1185,0.6831,0.9516
2.701,0.0901,0.954,-0.0348,-3.0422,4.5308,1.5402,0.1185,0.6831,0.9516
2.701,0.1654,0.9613,-0.0585,-3.0422,4.5308,1.5402,0.1185,0.6831,0.9516
2.706,0.2406,0.9713,-0.0859,-3.0422,4.5308,1.5402,0.1185,0.6831,0.9516
2.707,0.2406,0.9713,-0.0859,3.8889,-1.7489,-2.7328,0.1185,0.6831,0.9516
2.708,0.3085,0.983,-0.1076,3.8889,-1.7489,-2.7328,0.1185,0.6831,0.9516
2.712,0.3679,0.9935,-0.124,3.8889,-1.7489,-2.7328,0.1185,0.6831,0.9516
2.712,0.4185,1.0038,-0.137,3.8889,-1.7489,-2.7328,0.1185,0.6831,0.9516
2.715,0.4566,1.0094,-0.144,3.8889,-1.7489,-2.7328,0.1185,0.6831,0.9516
2.716,0.4891,1.0109,-0.1458,3.8889,-1.7489,-2.7328,0.1185,0.6831,0.9516
2.721,0.5098,1.0136,-0.1409,3.8889,-1.7489,-2.7328,0.1185,0.6831,0.9516
2.721,0.5208,1.0099,-0.1348,3.8889,-1.7489,-2.7328,0.1185,0.6831,0.9516
2.725,0.5221,1.0072,-0.1269,3.8889,-1.7489,-2.7328,0.1185,0.6831,0.9516
2.726,0.5201,0.9992,-0.1167,3.8889,-1.7489,-2.7328,0.1185,0.6831,0.9516
2.731,0.5064,0.9908,-0.1052,3.8889,-1.7489,-2.7328,0.1185,0.6831,0.9516
2.732,0.4879,0.9811,-0.093,3.8889,-1.7489,-2.7328,0.1185,0.6831,0.9516
2.735,0.4637,0.9708,-0.0847,3.8889,-1.7489,-2.7328,0.1185,0.6831,0.9516
2.736,0.4339,0.9618,-0.0803,3.8889,-1.7489,-2.7328,0.1185,0.6831,0.9516
2.74,0.4006,0.9544,-0.0786,3.8889,-1.7489,-2.7328,0.1185,0.6831,0.9516
2.741,0.365,0.95,-0.0805,3.8889,-1.7489,-2.7328,0.1185,0.6831,0.9516
2.745,0.3261,0.9508,-0.0818,3.8889,-1.7489,-2.7328,0.1185,0.6831,0.9516
2.745,0.2885,0.9552,-0.0842,3.8889,-1.7489,-2.7328,0.1185,0.6831,0.9516
2.751,0.2502,0.9596,-0.0849,3.8889,-1.7489,-2.7328,0.1185,0.6831,0.9516
2.752,0.2191,0.9662,-0.0901,3.8889,-1.7489,-2.7328,0.1185,0.6831,0.9516
2.755,0.1874,0.9698,-0.0954,3.8889,-1.7489,-2.7328,0.1185,0.6831,0.9516
2.756,0.161,0.9789,-0.1008,3.8889,-1.7489,-2.7328,0.1185,0.6831,0.9516
2.76,0.1375,0.9843,-0.1015,3.8889,-1.7489,-2.7328,0.1185,0.6831,0.9516
2.761,0.1124,0.9864,-0.1069,3.8889,-1.7489,-2.7328,0.1185,0.6831,0.9516
2.765,0.1124,0.9864,-0.1069,3.8889,-1.7489,-2.7328,0.0131,0.1449,0.7197
2.766,0.0916,0.9884,-0.1064,3.8889,-1.7489,-2.7328,0.0131,0.1449,0.7197
2.766,0.0748,0.9894,-0.1113,3.8889,-1.7489,-2.7328,0.0131,0.1449,0.7197
2.77,0.0574,0.9879,-0.1184,3.8889,-1.7489,-2.7328,0.0131,0.1449,0.7197
2.77,0.043,0.9874,-0.1196,3.8889,-1.7489,-2.7328,0.0131,0.1449,0.7197
2.776,0.043,0.9874,-0.1196,-1.0533,0.3753,0.7172,0.0131,0.1449,0.7197
2.776,0.0283,0.9838,-0.1211,-1.0533,0.3753,0.7172,0.0131,0.1449,0.7197
2.777,0.0178,0.9833,-0.1164,-1.0533,0.3753,0.7172,0.0131,0.1449,0.7197
2.78,0.0093,0.9821,-0.1142,-1.0533,0.3753,0.7172,0.0131,0.1449,0.7197
2.78,0.0044,0.9791,-0.113,-1.0533,0.3753,0.7172,0.0131,0.1449,0.7197
2.784,0.0027,0.9759,-0.1157,-1.0533,0.3753,0.7172,0.0131,0.1449,0.7197
2.785,0.0017,0.9718,-0.1172,-1.0533,0.3753,0.7172,0.0131,0.1449,0.7197
2.789,-0.0017,0.9693,-0.1086,-1.0533,0.3753,0.7172,0.0131,0.1449,0.7197
2.789,-0.002,0.9669,-0.094,-1.0533,0.3753,0.7172,0.0131,0.1449,0.7197
2.794,-0.0005,0.964,-0.0842,-1.0533,0.3753,0.7172,0.0131,0.1449,0.7197
2.795,0,0.9664,-0.0752,-1.0533,0.3753,0.7172,0.0131,0.1449,0.7197
2.799,-0.0027,0.9664,-0.0708,-1.0533,0.3753,0.7172,0.0131,0.1449,0.7197
2.799,-0.0024,0.9715,-0.0588,-1.0533,0.3753,0.7172,0.0131,0.1449,0.7197
2.804,0,0.9752,-0.0419,-1.0533,0.3753,0.7172,0.0131,0.1449,0.7197
2.804,0.0027,0.9825,-0.0258,-1.0533,0.3753,0.7172,0.0131,0.1449,0.7197
2.809,0.0122,0.9869,-0.0126,-1.0533,0.3753,0.7172,0.0131,0.1449,0.7197
2.81,0.0237,0.9916,-0.0021,-1.0533,0.3753,0.7172,0.0131,0.1449,0.7197
2.813,0.0347,0.9962,0.0016,-1.0533,0.3753,0.7172,0.0131,0.1449,0.7197
2.814,0.0481,1.0031,-0.0016,-1.0533,0.3753,0.7172,0.0131,0.1449,0.7197
2.818,0.0608,1.0116,-0.0028,-1.0533,0.3753,0.7172,0.0131,0.1449,0.7197
2.819,0.0723,1.0172,-0.0026,-1.0533,0.3753,0.7172,0.0131,0.1449,0.7197
2.823,0.0838,1.0207,-0.0038,-1.0533,0.3753,0.7172,0.0131,0.1449,0.7197
2.823,0.0943,1.0233,-0.0053,-1.0533,0.3753,0.7172,0.0131,0.1449,0.7197
2.829,0.1019,1.0219,-0.0102,-1.0533,0.3753,0.7172,0.0131,0.1449,0.7197
2.83,0.1011,1.0185,-0.009,-1.0533,0.3753,0.7172,0.0131,0.1449,0.7197
2.833,0.1011,1.0185,-0.009,-1.0533,0.3753,0.7172,-0.0346,0.4665,0.784
2.833,0.1033,1.0153,-0.0133,-1.0533,0.3753,0.7172,-0.0346,0.4665,0.784
2.834,0.0994,1.0114,-0.019,-1.0533,0.3753,0.7172,-0.0346,0.4665,0.784
2.838,0.0953,1.0057,-0.0246,-1.0533,0.3753,0.7172,-0.0346,0.4665,0.784
2.838,0.0909,0.9989,-0.029,-1.0533,0.3753,0.7172,-0.0346,0.4665,0.784
2.843,0.0884,0.9896,-0.0395,-1.0533,0.3753,0.7172,-0.0346,0.4665,0.784
2.843,0.0862,0.9825,-0.0517,-1.0533,0.3753,0.7172,-0.0346,0.4665,0.784
2.844,0.0862,0.9825,-0.0517,1.108,0.0282,-0.6882,-0.0346,0.4665,0.784
2.849,0.0882,0.9813,-0.0639,1.108,0.0282,-0.6882,-0.0346,0.4665,0.784
2.849,0.0984,0.9759,-0.0766,1.108,0.0282,-0.6882,-0.0346,0.4665,0.784
2.853,0.1131,0.9733,-0.0854,1.108,0.0282,-0.6882,-0.0346,0.4665,0.784
2.854,0.1285,0.9701,-0.0925,1.108,0.0282,-0.6882,-0.0346,0.4665,0.784
2.859,0.1446,0.965,-0.0937,1.108,0.0282,-0.6882,-0.0346,0.4665,0.784
2.859,0.1615,0.965,-0.0954,1.108,0.0282,-0.6882,-0.0346,0.4665,0.784
2.862,0.1776,0.9632,-0.0954,1.108,0.0282,-0.6882,-0.0346,0.4665,0.784
2.863,0.1905,0.9659,-0.0976,1.108,0.0282,-0.6882,-0.0346,0.4665,0.784
2.868,0.2042,0.9669,-0.1032,1.108,0.0282,-0.6882,-0.0346,0.4665,0.784
2.869,0.2172,0.9725,-0.1069,1.108,0.0282,-0.6882,-0.0346,0.4665,0.784
2.873,0.2301,0.974,-0.1118,1.108,0.0282,-0.6882,-0.0346,0.4665,0.784
2.874,0.2433,0.9769,-0.1157,1.108,0.0282,-0.6882,-0.0346,0.4665,0.784
2.877,0.255,0.9808,-0.1177,1.108,0.0282,-0.6882,-0.0346,0.4665,0.784
2.878,0.2646,0.9833,-0.1182,1.108,0.0282,-0.6882,-0.0346,0.4665,0.784
2.882,0.2746,0.9884,-0.1228,1.108,0.0282,-0.6882,-0.0346,0.4665,0.784
2.884,0.2792,0.9879,-0.1284,1.108,0.0282,-0.6882,-0.0346,0.4665,0.784
2.887,0.2826,0.9916,-0.135,1.108,0.0282,-0.6882,-0.0346,0.4665,0.784
2.888,0.2875,0.9943,-0.1309,1.108,0.0282,-0.6882,-0.0346,0.4665,0.784
2.894,0.2905,0.996,-0.1269,1.108,0.0282,-0.6882,-0.0346,0.4665,0.784
2.895,0.2966,0.9957,-0.1269,1.108,0.0282,-0.6882,-0.0346,0.4665,0.784
2.896,0.2995,0.9926,-0.1238,1.108,0.0282,-0.6882,-0.0346,0.4665,0.784
2.897,0.2997,0.9874,-0.1235,1.108,0.0282,-0.6882,-0.0346,0.4665,0.784
2.901,0.2983,0.9833,-0.1216,1.108,0.0282,-0.6882,-0.0346,0.4665,0.784
2.901,0.2983,0.9833,-0.1216,1.108,0.0282,-0.6882,-0.1361,0.335,0.9171
2.903,0.2944,0.9799,-0.1157,1.108,0.0282,-0.6882,-0.1361,0.335,0.9171
2.906,0.29,0.9742,-0.1035,1.108,0.0282,-0.6882,-0.1361,0.335,0.9171
2.906,0.2841,0.9706,-0.0969,1.108,0.0282,-0.6882,-0.1361,0.335,0.9171
2.912,0.2802,0.9706,-0.0937,1.108,0.0282,-0.6882,-0.1361,0.335,0.9171
2.912,0.2802,0.9706,-0.0937,-2.1095,0.245,-0.2277,-0.1361,0.335,0.9171
2.914,0.2756,0.9718,-0.0935,-2.1095,0.245,-0.2277,-0.1361,0.335,0.9171
2.917,0.2707,0.9728,-0.0864,-2.1095,0.245,-0.2277,-0.1361,0.335,0.9171
2.917,0.2655,0.9784,-0.0737,-2.1095,0.245,-0.2277,-0.1361,0.335,0.9171
2.922,0.2609,0.9833,-0.0666,-2.1095,0.245,-0.2277,-0.1361,0.335,0.9171
2.922,0.2536,0.9891,-0.0612,-2.1095,0.245,-0.2277,-0.1361,0.335,0.9171
2.926,0.2489,0.9952,-0.0551,-2.1095,0.245,-0.2277,-0.1361,0.335,0.9171
2.926,0.2428,1.0011,-0.0512,-2.1095,0.245,-0.2277,-0.1361,0.335,0.9171
2.931,0.2306,1.004,-0.0439,-2.1095,0.245,-0.2277,-0.1361,0.335,0.9171
2.931,0.2204,1.0072,-0.0388,-2.1095,0.245,-0.2277,-0.1361,0.335,0.9171
2.937,0.2106,1.0067,-0.0329,-2.1095,0.245,-0.2277,-0.1361,0.335,0.9171
2.938,0.1998,1.0084,-0.0309,-2.1095,0.245,-0.2277,-0.1361,0.335,0.9171
2.941,0.1893,1.0092,-0.0253,-2.1095,0.245,-0.2277,-0.1361,0.335,0.9171
2.942,0.1835,1.0079,-0.0251,-2.1095,0.245,-0.2277,-0.1361,0.335,0.9171
2.946,0.1761,1.0065,-0.0292,-2.1095,0.245,-0.2277,-0.1361,0.335,0.9171
2.946,0.1742,1.0045,-0.0368,-2.1095,0.245,-0.2277,-0.1361,0.335,0.9171
2.95,0.1698,1.0048,-0.0397,-2.1095,0.245,-0.2277,-0.1361,0.335,0.9171
2.951,0.172,1.0011,-0.0324,-2.1095,0.245,-0.2277,-0.1361,0.335,0.9171
2.955,0.1727,0.9948,-0.0212,-2.1095,0.245,-0.2277,-0.1361,0.335,0.9171
2.955,0.1761,0.9877,-0.0187,-2.1095,0.245,-0.2277,-0.1361,0.335,0.9171
2.961,0.18,0.9821,-0.0246,-2.1095,0.245,-0.2277,-0.1361,0.335,0.9171
2.962,0.1857,0.972,-0.0331,-2.1095,0.245,-0.2277,-0.1361,0.335,0.9171
2.965,0.193,0.9671,-0.0346,-2.1095,0.245,-0.2277,-0.1361,0.335,0.9171
2.966,0.1998,0.9647,-0.0356,-2.1095,0.245,-0.2277,-0.1361,0.335,0.9171
2.97,0.1998,0.9647,-0.0356,-2.1095,0.245,-0.2277,-0.2307,0.307,0.9609
2.971,0.2133,0.963,-0.0361,-2.1095,0.245,-0.2277,-0.2307,0.307,0.9609
2.971,0.2311,0.9598,-0.0383,-2.1095,0.245,-0.2277,-0.2307,0.307,0.9609
2.975,0.2494,0.9559,-0.0422,-2.1095,0.245,-0.2277,-0.2307,0.307,0.9609
2.975,0.2665,0.9542,-0.0434,-2.1095,0.245,-0.2277,-0.2307,0.307,0.9609
2.979,0.2665,0.9542,-0.0434,-0.8853,0.2976,-0.9956,-0.2307,0.307,0.9609
2.98,0.288,0.9564,-0.0451,-0.8853,0.2976,-0.9956,-0.2307,0.307,0.9609
2.98,0.3078,0.9564,-0.0436,-0.8853,0.2976,-0.9956,-0.2307,0.307,0.9609
2.984,0.3276,0.9576,-0.0478,-0.8853,0.2976,-0.9956,-0.2307,0.307,0.9609
2.985,0.3467,0.9586,-0.0475,-0.8853,0.2976,-0.9956,-0.2307,0.307,0.9609
2.989,0.364,0.9557,-0.0419,-0.8853,0.2976,-0.9956,-0.2307,0.307,0.9609
2.99,0.3806,0.9508,-0.0358,-0.8853,0.2976,-0.9956,-0.2307,0.307,0.9609
2.994,0.3948,0.9466,-0.0317,-0.8853,0.2976,-0.9956,-0.2307,0.307,0.9609
2.995,0.4043,0.9435,-0.0363,-0.8853,0.2976,-0.9956,-0.2307,0.307,0.9609
3,0.4131,0.9361,-0.038,-0.8853,0.2976,-0.9956,-0.2307,0.307,0.9609
3,0.417,0.9334,-0.0412,-0.8853,0.2976,-0.9956,-0.2307,0.307,0.9609
3.006,0.416,0.93,-0.0414,-0.8853,0.2976,-0.9956,-0.2307,0.307,0.9609
3.007,0.4146,0.93,-0.0449,-0.8853,0.2976,-0.9956,-0.2307,0.307,0.9609
3.009,0.4107,0.9303,-0.0556,-0.8853,0.2976,-0.9956,-0.2307,0.307,0.9609
3.01,0.405,0.9295,-0.0678,-0.8853,0.2976,-0.9956,-0.2307,0.307,0.9609
3.014,0.4011,0.9317,-0.0759,-0.8853,0.2976,-0.9956,-0.2307,0.307,0.9609
3.015,0.3994,0.9327,-0.0818,-0.8853,0.2976,-0.9956,-0.2307,0.307,0.9609
3.019,0.3931,0.9386,-0.0752,-0.8853,0.2976,-0.9956,-0.2307,0.307,0.9609
3.019,0.3862,0.9444,-0.0759,-0.8853,0.2976,-0.9956,-0.2307,0.307,0.9609
3.024,0.3767,0.9522,-0.072,-0.8853,0.2976,-0.9956,-0.2307,0.307,0.9609
3.024,0.364,0.9603,-0.0659,-0.8853,0.2976,-0.9956,-0.2307,0.307,0.9609
3.028,0.3518,0.9671,-0.0549,-0.8853,0.2976,-0.9956,-0.2307,0.307,0.9609
3.029,0.3425,0.9742,-0.0493,-0.8853,0.2976,-0.9956,-0.2307,0.307,0.9609
3.034,0.3252,0.9816,-0.0412,-0.8853,0.2976,-0.9956,-0.2307,0.307,0.9609
3.034,0.3127,0.9869,-0.0383,-0.8853,0.2976,-0.9956,-0.2307,0.307,0.9609
3.038,0.3032,0.9935,-0.0378,-0.8853,0.2976,-0.9956,-0.2307,0.307,0.9609
3.039,0.3032,0.9935,-0.0378,-0.8853,0.2976,-0.9956,-0.3097,0.2711,1.0403
3.039,0.291,0.9989,-0.0336,-0.8853,0.2976,-0.9956,-0.3097,0.2711,1.0403
3.042,0.2802,1.0018,-0.0319,-0.8853,0.2976,-0.9956,-0.3097,0.2711,1.0403
3.043,0.2778,1.005,-0.0283,-0.8853,0.2976,-0.9956,-0.3097,0.2711,1.0403
3.048,0.2717,1.0106,-0.0231,-0.8853,0.2976,-0.9956,-0.3097,0.2711,1.0403
3.048,0.2717,1.0106,-0.0231,-1.5967,0.6031,-0.6276,-0.3097,0.2711,1.0403
3.049,0.269,1.0143,-0.0102,-1.5967,0.6031,-0.6276,-0.3097,0.2711,1.0403
3.053,0.2673,1.0165,0.004,-1.5967,0.6031,-0.6276,-0.3097,0.2711,1.0403
3.053,0.2677,1.0207,0.0135,-1.5967,0.6031,-0.6276,-0.3097,0.2711,1.0403
3.06,0.267,1.0243,0.0201,-1.5967,0.6031,-0.6276,-0.3097,0.2711,1.0403
3.061,0.2697,1.0272,0.0296,-1.5967,0.6031,-0.6276,-0.3097,0.2711,1.0403
3.062,0.2736,1.0294,0.0345,-1.5967,0.6031,-0.6276,-0.3097,0.2711,1.0403
3.063,0.2761,1.0299,0.0355,-1.5967,0.6031,-0.6276,-0.3097,0.2711,1.0403
3.068,0.2778,1.0334,0.0384,-1.5967,0.6031,-0.6276,-0.3097,0.2711,1.0403
3.07,0.2817,1.0351,0.0416,-1.5967,0.6031,-0.6276,-0.3097,0.2711,1.0403
3.072,0.2836,1.0365,0.0463,-1.5967,0.6031,-0.6276,-0.3097,0.2711,1.0403
3.073,0.2846,1.0407,0.0504,-1.5967,0.6031,-0.6276,-0.3097,0.2711,1.0403
3.078,0.2795,1.038,0.0533,-1.5967,0.6031,-0.6276,-0.3097,0.2711,1.0403
3.078,0.2753,1.0412,0.0509,-1.5967,0.6031,-0.6276,-0.3097,0.2711,1.0403
3.082,0.2655,1.0404,0.047,-1.5967,0.6031,-0.6276,-0.3097,0.2711,1.0403
3.083,0.2526,1.0431,0.0441,-1.5967,0.6031,-0.6276,-0.3097,0.2711,1.0403
3.087,0.2392,1.0492,0.0416,-1.5967,0.6031,-0.6276,-0.3097,0.2711,1.0403
3.087,0.2247,1.0529,0.0414,-1.5967,0.6031,-0.6276,-0.3097,0.2711,1.0403
3.093,0.2064,1.0556,0.0394,-1.5967,0.6031,-0.6276,-0.3097,0.2711,1.0403
3.094,0.1903,1.0592,0.0306,-1.5967,0.6031,-0.6276,-0.3097,0.2711,1.0403
3.097,0.1739,1.0634,0.0262,-1.5967,0.6031,-0.6276,-0.3097,0.2711,1.0403
3.098,0.1544,1.0698,0.0218,-1.5967,0.6031,-0.6276,-0.3097,0.2711,1.0403
3.102,0.1373,1.0727,0.0162,-1.5967,0.6031,-0.6276,-0.3097,0.2711,1.0403
3.103,0.1224,1.0839,0.0091,-1.5967,0.6031,-0.6276,-0.3097,0.2711,1.0403
3.106,0.107,1.0932,-0.0014,-1.5967,0.6031,-0.6276,-0.3097,0.2711,1.0403
3.107,0.107,1.0932,-0.0014,-1.5967,0.6031,-0.6276,-0.3871,0.5433,1.2754
3.107,0.0899,1.104,-0.0119,-1.5967,0.6031,-0.6276,-0.3871,0.5433,1.2754
3.111,0.0716,1.1159,-0.0221,-1.5967,0.6031,-0.6276,-0.3871,0.5433,1.2754
3.112,0.053,1.1291,-0.0334,-1.5967,0.6031,-0.6276,-0.3871,0.5433,1.2754
3.116,0.053,1.1291,-0.0334,-0.9706,0.7029,-1.0676,-0.3871,0.5433,1.2754
3.117,0.0278,1.1452,-0.0412,-0.9706,0.7029,-1.0676,-0.3871,0.5433,1.2754
3.118,0.0044,1.1577,-0.0522,-0.9706,0.7029,-1.0676,-0.3871,0.5433,1.2754
3.121,-0.0161,1.1733,-0.0607,-0.9706,0.7029,-1.0676,-0.3871,0.5433,1.2754
3.122,-0.0354,1.1904,-0.0759,-0.9706,0.7029,-1.0676,-0.3871,0.5433,1.2754
3.126,-0.0537,1.209,-0.0857,-0.9706,0.7029,-1.0676,-0.3871,0.5433,1.2754
3.127,-0.064,1.231,-0.0979,-0.9706,0.7029,-1.0676,-0.3871,0.5433,1.2754
3.131,-0.0701,1.2547,-0.1081,-0.9706,0.7029,-1.0676,-0.3871,0.5433,1.2754
3.131,-0.0684,1.2808,-0.113,-0.9706,0.7029,-1.0676,-0.3871,0.5433,1.2754
3.136,-0.0643,1.3131,-0.1167,-0.9706,0.7029,-1.0676,-0.3871,0.5433,1.2754
3.136,-0.0567,1.3463,-0.1182,-0.9706,0.7029,-1.0676,-0.3871,0.5433,1.2754
3.141,-0.0489,1.381,-0.1152,-0.9706,0.7029,-1.0676,-0.3871,0.5433,1.2754
3.142,-0.0388,1.4211,-0.1089,-0.9706,0.7029,-1.0676,-0.3871,0.5433,1.2754
3.145,-0.0318,1.4597,-0.1006,-0.9706,0.7029,-1.0676,-0.3871,0.5433,1.2754
3.146,-0.0244,1.5,-0.0908,-0.9706,0.7029,-1.0676,-0.3871,0.5433,1.2754
3.151,-0.0195,1.5356,-0.083,-0.9706,0.7029,-1.0676,-0.3871,0.5433,1.2754
3.152,-0.0161,1.5698,-0.0744,-0.9706,0.7029,-1.0676,-0.3871,0.5433,1.2754
3.156,-0.0151,1.5982,-0.07,-0.9706,0.7029,-1.0676,-0.3871,0.5433,1.2754
3.157,-0.0125,1.6245,-0.0671,-0.9706,0.7029,-1.0676,-0.3871,0.5433,1.2754
3.161,-0.0115,1.648,-0.0656,-0.9706,0.7029,-1.0676,-0.3871,0.5433,1.2754
3.161,-0.0078,1.6629,-0.0681,-0.9706,0.7029,-1.0676,-0.3871,0.5433,1.2754
3.165,-0.0007,1.6781,-0.0639,-0.9706,0.7029,-1.0676,-0.3871,0.5433,1.2754
3.166,0.0134,1.6861,-0.0549,-0.9706,0.7029,-1.0676,-0.3871,0.5433,1.2754
3.17,0.0291,1.6969,-0.0458,-0.9706,0.7029,-1.0676,-0.3871,0.5433,1.2754
3.171,0.0533,1.7081,-0.0358,-0.9706,0.7029,-1.0676,-0.3871,0.5433,1.2754
3.175,0.0533,1.7081,-0.0358,-0.9706,0.7029,-1.0676,-0.6812,0.6076,2.0061
3.176,0.0806,1.724,-0.0336,-0.9706,0.7029,-1.0676,-0.6812,0.6076,2.0061
3.177,0.1165,1.7394,-0.0497,-0.9706,0.7029,-1.0676,-0.6812,0.6076,2.0061
3.18,0.1446,1.7643,-0.08,-0.9706,0.7029,-1.0676,-0.6812,0.6076,2.0061
3.181,0.1498,1.7997,-0.1169,-0.9706,0.7029,-1.0676,-0.6812,0.6076,2.0061
3.185,0.1498,1.7997,-0.1169,-3.5125,2.3777,-0.9807,-0.6812,0.6076,2.0061
3.186,0.1312,1.8439,-0.1609,-3.5125,2.3777,-0.9807,-0.6812,0.6076,2.0061
3.186,0.0801,1.8908,-0.1973,-3.5125,2.3777,-0.9807,-0.6812,0.6076,2.0061
3.19,0.0024,1.9358,-0.2261,-3.5125,2.3777,-0.9807,-0.6812,0.6076,2.0061
3.191,-0.0958,1.9707,-0.2332,-3.5125,2.3777,-0.9807,-0.6812,0.6076,2.0061
3.194,-0.2096,1.9925,-0.2088,-3.5125,2.3777,-0.9807,-0.6812,0.6076,2.0061
3.195,-0.3303,1.9966,-0.1641,-3.5125,2.3777,-0.9807,-0.6812,0.6076,2.0061
3.2,-0.4446,1.9844,-0.1169,-3.5125,2.3777,-0.9807,-0.6812,0.6076,2.0061
3.2,-0.5397,1.9563,-0.0715,-3.5125,2.3777,-0.9807,-0.6812,0.6076,2.0061
3.204,-0.6041,1.9079,-0.0246,-3.5125,2.3777,-0.9807,-0.6812,0.6076,2.0061
3.205,-0.6288,1.851,0.0235,-3.5125,2.3777,-0.9807,-0.6812,0.6076,2.0061
3.209,-0.6193,1.7877,0.0719,-3.5125,2.3777,-0.9807,-0.6812,0.6076,2.0061
3.21,-0.5914,1.7313,0.1088,-3.5125,2.3777,-0.9807,-0.6812,0.6076,2.0061
3.215,-0.5553,1.689,0.1303,-3.5125,2.3777,-0.9807,-0.6812,0.6076,2.0061
3.216,-0.5257,1.6551,0.1374,-3.5125,2.3777,-0.9807,-0.6812,0.6076,2.0061
3.219,-0.5028,1.6336,0.134,-3.5125,2.3777,-0.9807,-0.6812,0.6076,2.0061
3.22,-0.4808,1.6221,0.1313,-3.5125,2.3777,-0.9807,-0.6812,0.6076,2.0061
3.224,-0.4681,1.6133,0.1259,-3.5125,2.3777,-0.9807,-0.6812,0.6076,2.0061
3.226,-0.4493,1.6074,0.1098,-3.5125,2.3777,-0.9807,-0.6812,0.6076,2.0061
3.228,-0.4204,1.5994,0.0932,-3.5125,2.3777,-0.9807,-0.6812,0.6076,2.0061
3.229,-0.3777,1.5879,0.0817,-3.5125,2.3777,-0.9807,-0.6812,0.6076,2.0061
3.233,-0.3254,1.5754,0.0648,-3.5125,2.3777,-0.9807,-0.6812,0.6076,2.0061
3.234,-0.2626,1.5588,0.0485,-3.5125,2.3777,-0.9807,-0.6812,0.6076,2.0061
3.238,-0.1928,1.5398,0.0326,-3.5125,2.3777,-0.9807,-0.6812,0.6076,2.0061
3.239,-0.1197,1.5114,0.0257,-3.5125,2.3777,-0.9807,-0.6812,0.6076,2.0061
3.243,-0.0491,1.4785,0.0231,-3.5125,2.3777,-0.9807,-0.6812,0.6076,2.0061
3.243,-0.0491,1.4785,0.0231,-3.5125,2.3777,-0.9807,-0.8846,0.7148,2.7022
3.244,0.0261,1.4347,0.0314,-3.5125,2.3777,-0.9807,-0.8846,0.7148,2.7022
3.249,0.0965,1.3861,0.0502,-3.5125,2.3777,-0.9807,-0.8846,0.7148,2.7022
3.249,0.1754,1.3299,0.0756,-3.5125,2.3777,-0.9807,-0.8846,0.7148,2.7022
3.254,0.2577,1.2598,0.099,-3.5125,2.3777,-0.9807,-0.8846,0.7148,2.7022
3.255,0.342,1.1809,0.1252,-3.5125,2.3777,-0.9807,-0.8846,0.7148,2.7022
3.255,0.342,1.1809,0.1252,-6.7322,7.8896,-2.5928,-0.8846,0.7148,2.7022
3.258,0.4263,1.101,0.1474,-6.7322,7.8896,-2.5928,-0.8846,0.7148,2.7022
3.259,0.5167,1.0204,0.1625,-6.7322,7.8896,-2.5928,-0.8846,0.7148,2.7022
3.262,0.601,0.941,0.1691,-6.7322,7.8896,-2.5928,-0.8846,0.7148,2.7022
3.263,0.6821,0.8729,0.1662,-6.7322,7.8896,-2.5928,-0.8846,0.7148,2.7022
3.267,0.7629,0.8054,0.1538,-6.7322,7.8896,-2.5928,-0.8846,0.7148,2.7022
3.268,0.8374,0.7451,0.1301,-6.7322,7.8896,-2.5928,-0.8846,0.7148,2.7022
3.273,0.9073,0.6904,0.102,-6.7322,7.8896,-2.5928,-0.8846,0.7148,2.7022
3.274,0.9684,0.6479,0.0704,-6.7322,7.8896,-2.5928,-0.8846,0.7148,2.7022
3.278,1.0282,0.6041,0.0406,-6.7322,7.8896,-2.5928,-0.8846,0.7148,2.7022
3.278,1.0837,0.5729,0.0123,-6.7322,7.8896,-2.5928,-0.8846,0.7148,2.7022
3.282,1.1343,0.5433,-0.009,-6.7322,7.8896,-2.5928,-0.8846,0.7148,2.7022
3.283,1.1814,0.5169,-0.0177,-6.7322,7.8896,-2.5928,-0.8846,0.7148,2.7022
3.288,1.2239,0.4966,-0.0275,-6.7322,7.8896,-2.5928,-0.8846,0.7148,2.7022
3.289,1.2603,0.4808,-0.0353,-6.7322,7.8896,-2.5928,-0.8846,0.7148,2.7022
3.293,1.2835,0.4668,-0.041,-6.7322,7.8896,-2.5928,-0.8846,0.7148,2.7022
3.294,1.3031,0.4502,-0.0424,-6.7322,7.8896,-2.5928,-0.8846,0.7148,2.7022
3.297,1.3141,0.4326,-0.0363,-6.7322,7.8896,-2.5928,-0.8846,0.7148,2.7022
3.298,1.318,0.4172,-0.0207,-6.7322,7.8896,-2.5928,-0.8846,0.7148,2.7022
3.301,1.3153,0.4018,0.0052,-6.7322,7.8896,-2.5928,-0.8846,0.7148,2.7022
3.301,1.3084,0.3887,0.0248,-6.7322,7.8896,-2.5928,-0.8846,0.7148,2.7022
3.307,1.2972,0.3708,0.0409,-6.7322,7.8896,-2.5928,-0.8846,0.7148,2.7022
3.308,1.2777,0.3579,0.0465,-6.7322,7.8896,-2.5928,-0.8846,0.7148,2.7022
3.311,1.2562,0.3464,0.0472,-6.7322,7.8896,-2.5928,-0.8846,0.7148,2.7022
3.311,1.2562,0.3464,0.0472,-6.7322,7.8896,-2.5928,-0.992,-1.9357,2.4192
3.312,1.2383,0.333,0.0448,-6.7322,7.8896,-2.5928,-0.992,-1.9357,2.4192
3.316,1.2122,0.3222,0.0367,-6.7322,7.8896,-2.5928,-0.992,-1.9357,2.4192
3.317,1.1809,0.3115,0.0328,-6.7322,7.8896,-2.5928,-0.992,-1.9357,2.4192
3.322,1.1809,0.3115,0.0328,-10.5615,10.6265,-1.0895,-0.992,-1.9357,2.4192
3.323,1.1489,0.3002,0.0218,-10.5615,10.6265,-1.0895,-0.992,-1.9357,2.4192
3.323,1.1111,0.2961,0.0196,-10.5615,10.6265,-1.0895,-0.992,-1.9357,2.4192
3.331,1.0673,0.29,0.0201,-10.5615,10.6265,-1.0895,-0.992,-1.9357,2.4192
3.332,1.0128,0.2861,0.0231,-10.5615,10.6265,-1.0895,-0.992,-1.9357,2.4192
3.333,0.952,0.2812,0.0311,-10.5615,10.6265,-1.0895,-0.992,-1.9357,2.4192
3.333,0.8895,0.2748,0.0384,-10.5615,10.6265,-1.0895,-0.992,-1.9357,2.4192
3.337,0.8286,0.2712,0.0448,-10.5615,10.6265,-1.0895,-0.992,-1.9357,2.4192
3.339,0.7676,0.2616,0.0553,-10.5615,10.6265,-1.0895,-0.992,-1.9357,2.4192
3.341,0.718,0.2511,0.0612,-10.5615,10.6265,-1.0895,-0.992,-1.9357,2.4192
3.342,0.6772,0.2377,0.0678,-10.5615,10.6265,-1.0895,-0.992,-1.9357,2.4192
3.345,0.6457,0.2208,0.0722,-10.5615,10.6265,-1.0895,-0.992,-1.9357,2.4192
3.346,0.6256,0.202,0.078,-10.5615,10.6265,-1.0895,-0.992,-1.9357,2.4192
3.351,0.6127,0.1795,0.0846,-10.5615,10.6265,-1.0895,-0.992,-1.9357,2.4192
3.352,0.6012,0.1551,0.09,-10.5615,10.6265,-1.0895,-0.992,-1.9357,2.4192
3.355,0.5961,0.1292,0.0897,-10.5615,10.6265,-1.0895,-0.992,-1.9357,2.4192
3.356,0.5873,0.1028,0.0939,-10.5615,10.6265,-1.0895,-0.992,-1.9357,2.4192
3.36,0.5804,0.0721,0.0968,-10.5615,10.6265,-1.0895,-0.992,-1.9357,2.4192
3.361,0.5765,0.044,0.1027,-10.5615,10.6265,-1.0895,-0.992,-1.9357,2.4192
3.365,0.5753,0.0146,0.1122,-10.5615,10.6265,-1.0895,-0.992,-1.9357,2.4192
3.366,0.5809,-0.0149,0.1217,-10.5615,10.6265,-1.0895,-0.992,-1.9357,2.4192
3.371,0.5927,-0.0398,0.1327,-10.5615,10.6265,-1.0895,-0.992,-1.9357,2.4192
3.372,0.6095,-0.0648,0.1374,-10.5615,10.6265,-1.0895,-0.992,-1.9357,2.4192
3.375,0.6322,-0.0782,0.1393,-10.5615,10.6265,-1.0895,-0.992,-1.9357,2.4192
3.376,0.6567,-0.086,0.1364,-10.5615,10.6265,-1.0895,-0.992,-1.9357,2.4192
3.38,0.6794,-0.085,0.1369,-10.5615,10.6265,-1.0895,-0.992,-1.9357,2.4192
3.381,0.6794,-0.085,0.1369,-10.5615,10.6265,-1.0895,0.0531,0.3953,0.1137
3.382,0.7028,-0.0779,0.1349,-10.5615,10.6265,-1.0895,0.0531,0.3953,0.1137
3.384,0.7229,-0.066,0.1347,-10.5615,10.6265,-1.0895,0.0531,0.3953,0.1137
3.385,0.7407,-0.0477,0.1318,-10.5615,10.6265,-1.0895,0.0531,0.3953,0.1137
3.39,0.7407,-0.0477,0.1318,2.6745,-0.3446,-0.9361,0.0531,0.3953,0.1137
3.391,0.7556,-0.0235,0.1315,2.6745,-0.3446,-0.9361,0.0531,0.3953,0.1137
3.391,0.7686,0.0029,0.1305,2.6745,-0.3446,-0.9361,0.0531,0.3953,0.1137
3.398,0.7813,0.0259,0.1305,2.6745,-0.3446,-0.9361,0.0531,0.3953,0.1137
3.399,0.7898,0.0508,0.1301,2.6745,-0.3446,-0.9361,0.0531,0.3953,0.1137
3.399,0.7969,0.0747,0.1305,2.6745,-0.3446,-0.9361,0.0531,0.3953,0.1137
3.399,0.7979,0.0984,0.1305,2.6745,-0.3446,-0.9361,0.0531,0.3953,0.1137
3.404,0.7937,0.1216,0.1303,2.6745,-0.3446,-0.9361,0.0531,0.3953,0.1137
3.405,0.7852,0.1439,0.1323,2.6745,-0.3446,-0.9361,0.0531,0.3953,0.1137
3.41,0.7744,0.1617,0.1345,2.6745,-0.3446,-0.9361,0.0531,0.3953,0.1137
3.411,0.761,0.1805,0.1393,2.6745,-0.3446,-0.9361,0.0531,0.3953,0.1137
3.415,0.7409,0.1964,0.1474,2.6745,-0.3446,-0.9361,0.0531,0.3953,0.1137
3.416,0.7207,0.2086,0.1535,2.6745,-0.3446,-0.9361,0.0531,0.3953,0.1137
3.42,0.698,0.2208,0.1608,2.6745,-0.3446,-0.9361,0.0531,0.3953,0.1137
3.421,0.6801,0.2279,0.1669,2.6745,-0.3446,-0.9361,0.0531,0.3953,0.1137
3.423,0.6606,0.2345,0.1757,2.6745,-0.3446,-0.9361,0.0531,0.3953,0.1137
3.424,0.6425,0.2335,0.1787,2.6745,-0.3446,-0.9361,0.0531,0.3953,0.1137
3.429,0.6276,0.2338,0.1806,2.6745,-0.3446,-0.9361,0.0531,0.3953,0.1137
3.43,0.6127,0.2316,0.1843,2.6745,-0.3446,-0.9361,0.0531,0.3953,0.1137
3.433,0.5968,0.2291,0.1887,2.6745,-0.3446,-0.9361,0.0531,0.3953,0.1137
3.434,0.579,0.2279,0.1965,2.6745,-0.3446,-0.9361,0.0531,0.3953,0.1137
3.439,0.5611,0.2247,0.2004,2.6745,-0.3446,-0.9361,0.0531,0.3953,0.1137
3.44,0.5428,0.2247,0.206,2.6745,-0.3446,-0.9361,0.0531,0.3953,0.1137
3.444,0.5247,0.224,0.2129,2.6745,-0.3446,-0.9361,0.0531,0.3953,0.1137
3.445,0.5057,0.2235,0.2187,2.6745,-0.3446,-0.9361,0.0531,0.3953,0.1137
3.448,0.4857,0.2272,0.2224,2.6745,-0.3446,-0.9361,0.0531,0.3953,0.1137
3.449,0.4857,0.2272,0.2224,2.6745,-0.3446,-0.9361,1.2078,0.9534,-2.6158
3.45,0.4666,0.2308,0.2285,2.6745,-0.3446,-0.9361,1.2078,0.9534,-2.6158
3.454,0.4529,0.236,0.2358,2.6745,-0.3446,-0.9361,1.2078,0.9534,-2.6158
3.455,0.4383,0.2396,0.2363,2.6745,-0.3446,-0.9361,1.2078,0.9534,-2.6158
3.458,0.4243,0.2482,0.2378,2.6745,-0.3446,-0.9361,1.2078,0.9534,-2.6158
3.46,0.4104,0.2555,0.2351,2.6745,-0.3446,-0.9361,1.2078,0.9534,-2.6158
3.46,0.4104,0.2555,0.2351,0.8002,-6.2776,-0.3962,1.2078,0.9534,-2.6158
3.463,0.3984,0.265,0.2349,0.8002,-6.2776,-0.3962,1.2078,0.9534,-2.6158
3.464,0.3882,0.2751,0.2302,0.8002,-6.2776,-0.3962,1.2078,0.9534,-2.6158
3.467,0.3821,0.288,0.2268,0.8002,-6.2776,-0.3962,1.2078,0.9534,-2.6158
3.468,0.3779,0.3032,0.2341,0.8002,-6.2776,-0.3962,1.2078,0.9534,-2.6158
3.473,0.3769,0.3259,0.2446,0.8002,-6.2776,-0.3962,1.2078,0.9534,-2.6158
3.474,0.3779,0.3447,0.2449,0.8002,-6.2776,-0.3962,1.2078,0.9534,-2.6158
3.477,0.3779,0.3571,0.2351,0.8002,-6.2776,-0.3962,1.2078,0.9534,-2.6158
3.478,0.3774,0.3628,0.2195,0.8002,-6.2776,-0.3962,1.2078,0.9534,-2.6158
3.484,0.3757,0.3694,0.2019,0.8002,-6.2776,-0.3962,1.2078,0.9534,-2.6158
3.485,0.3738,0.3718,0.1833,0.8002,-6.2776,-0.3962,1.2078,0.9534,-2.6158
3.488,0.3708,0.3757,0.1757,0.8002,-6.2776,-0.3962,1.2078,0.9534,-2.6158
3.488,0.3674,0.3786,0.1718,0.8002,-6.2776,-0.3962,1.2078,0.9534,-2.6158
3.494,0.3677,0.3804,0.1743,0.8002,-6.2776,-0.3962,1.2078,0.9534,-2.6158
3.495,0.3728,0.3804,0.1789,0.8002,-6.2776,-0.3962,1.2078,0.9534,-2.6158
3.498,0.3811,0.3811,0.1848,0.8002,-6.2776,-0.3962,1.2078,0.9534,-2.6158
3.499,0.3884,0.3794,0.1911,0.8002,-6.2776,-0.3962,1.2078,0.9534,-2.6158
3.502,0.3992,0.3813,0.2014,0.8002,-6.2776,-0.3962,1.2078,0.9534,-2.6158
3.503,0.4058,0.3794,0.2073,0.8002,-6.2776,-0.3962,1.2078,0.9534,-2.6158
3.507,0.4143,0.3808,0.2121,0.8002,-6.2776,-0.3962,1.2078,0.9534,-2.6158
3.509,0.416,0.3779,0.2204,0.8002,-6.2776,-0.3962,1.2078,0.9534,-2.6158
3.512,0.4168,0.3752,0.2278,0.8002,-6.2776,-0.3962,1.2078,0.9534,-2.6158
3.513,0.416,0.3735,0.2368,0.8002,-6.2776,-0.3962,1.2078,0.9534,-2.6158
3.517,0.4163,0.372,0.2402,0.8002,-6.2776,-0.3962,1.2078,0.9534,-2.6158
3.518,0.4107,0.3686,0.2422,0.8002,-6.2776,-0.3962,1.2078,0.9534,-2.6158
3.518,0.4107,0.3686,0.2422,0.8002,-6.2776,-0.3962,1.7847,0.654,-4.3524
3.521,0.4094,0.3694,0.2415,0.8002,-6.2776,-0.3962,1.7847,0.654,-4.3524
3.522,0.4085,0.3676,0.2385,0.8002,-6.2776,-0.3962,1.7847,0.654,-4.3524
3.527,0.4121,0.3689,0.2302,0.8002,-6.2776,-0.3962,1.7847,0.654,-4.3524
3.528,0.4121,0.3689,0.2302,2.5889,-7.0153,1.2465,1.7847,0.654,-4.3524
3.528,0.4094,0.3725,0.2219,2.5889,-7.0153,1.2465,1.7847,0.654,-4.3524
3.531,0.4102,0.3806,0.2121,2.5889,-7.0153,1.2465,1.7847,0.654,-4.3524
3.531,0.4077,0.3889,0.2065,2.5889,-7.0153,1.2465,1.7847,0.654,-4.3524
3.537,0.4089,0.404,0.1982,2.5889,-7.0153,1.2465,1.7847,0.654,-4.3524
3.538,0.4068,0.418,0.1955,2.5889,-7.0153,1.2465,1.7847,0.654,-4.3524
3.541,0.4028,0.4343,0.1936,2.5889,-7.0153,1.2465,1.7847,0.654,-4.3524
3.542,0.3977,0.451,0.1977,2.5889,-7.0153,1.2465,1.7847,0.654,-4.3524
3.546,0.3904,0.4676,0.2068,2.5889,-7.0153,1.2465,1.7847,0.654,-4.3524
3.547,0.3794,0.4854,0.2158,2.5889,-7.0153,1.2465,1.7847,0.654,-4.3524
3.551,0.3689,0.5062,0.2278,2.5889,-7.0153,1.2465,1.7847,0.654,-4.3524
3.552,0.353,0.5284,0.2385,2.5889,-7.0153,1.2465,1.7847,0.654,-4.3524
3.556,0.3344,0.5492,0.2483,2.5889,-7.0153,1.2465,1.7847,0.654,-4.3524
3.557,0.3149,0.5746,0.2615,2.5889,-7.0153,1.2465,1.7847,0.654,-4.3524
3.561,0.2954,0.6007,0.2747,2.5889,-7.0153,1.2465,1.7847,0.654,-4.3524
3.562,0.2751,0.6293,0.2886,2.5889,-7.0153,1.2465,1.7847,0.654,-4.3524
3.566,0.256,0.6571,0.3028,2.5889,-7.0153,1.2465,1.7847,0.654,-4.3524
3.567,0.2411,0.6845,0.3191,2.5889,-7.0153,1.2465,1.7847,0.654,-4.3524
3.572,0.2272,0.7119,0.3333,2.5889,-7.0153,1.2465,1.7847,0.654,-4.3524
3.573,0.2135,0.739,0.3467,2.5889,-7.0153,1.2465,1.7847,0.654,-4.3524
3.575,0.2015,0.7688,0.3565,2.5889,-7.0153,1.2465,1.7847,0.654,-4.3524
3.576,0.1893,0.7974,0.3702,2.5889,-7.0153,1.2465,1.7847,0.654,-4.3524
3.58,0.1778,0.8259,0.3819,2.5889,-7.0153,1.2465,1.7847,0.654,-4.3524
3.581,0.1676,0.8604,0.39,2.5889,-7.0153,1.2465,1.7847,0.654,-4.3524
3.585,0.1595,0.8914,0.3946,2.5889,-7.0153,1.2465,1.7847,0.654,-4.3524
3.586,0.1595,0.8914,0.3946,2.5889,-7.0153,1.2465,1.7734,-0.4873,-5.6595
3.587,0.1515,0.9254,0.3919,2.5889,-7.0153,1.2465,1.7734,-0.4873,-5.6595
3.589,0.1471,0.9586,0.3929,2.5889,-7.0153,1.2465,1.7734,-0.4873,-5.6595
3.59,0.137,0.9928,0.3866,2.5889,-7.0153,1.2465,1.7734,-0.4873,-5.6595
3.595,0.137,0.9928,0.3866,3.7379,-5.9777,2.7617,1.7734,-0.4873,-5.6595
3.596,0.1295,1.027,0.3753,3.7379,-5.9777,2.7617,1.7734,-0.4873,-5.6595
3.596,0.1209,1.0607,0.3565,3.7379,-5.9777,2.7617,1.7734,-0.4873,-5.6595
3.599,0.1136,1.093,0.3362,3.7379,-5.9777,2.7617,1.7734,-0.4873,-5.6595
3.6,0.1109,1.1257,0.3081,3.7379,-5.9777,2.7617,1.7734,-0.4873,-5.6595
3.604,0.1124,1.1589,0.273,3.7379,-5.9777,2.7617,1.7734,-0.4873,-5.6595
3.605,0.1197,1.1968,0.229,3.7379,-5.9777,2.7617,1.7734,-0.4873,-5.6595
3.61,0.1319,1.2383,0.176,3.7379,-5.9777,2.7617,1.7734,-0.4873,-5.6595
3.611,0.1537,1.2857,0.1147,3.7379,-5.9777,2.7617,1.7734,-0.4873,-5.6595
3.614,0.1852,1.3424,0.0511,3.7379,-5.9777,2.7617,1.7734,-0.4873,-5.6595
3.616,0.2226,1.4113,-0.0094,3.7379,-5.9777,2.7617,1.7734,-0.4873,-5.6595
3.619,0.2765,1.4895,-0.0676,3.7379,-5.9777,2.7617,1.7734,-0.4873,-5.6595
3.62,0.3437,1.5693,-0.125,3.7379,-5.9777,2.7617,1.7734,-0.4873,-5.6595
3.624,0.4158,1.6409,-0.1721,3.7379,-5.9777,2.7617,1.7734,-0.4873,-5.6595
3.624,0.4888,1.6976,-0.2154,3.7379,-5.9777,2.7617,1.7734,-0.4873,-5.6595
3.629,0.5638,1.7391,-0.263,3.7379,-5.9777,2.7617,1.7734,-0.4873,-5.6595
3.63,0.6349,1.7614,-0.3124,3.7379,-5.9777,2.7617,1.7734,-0.4873,-5.6595
3.634,0.6992,1.7636,-0.3573,3.7379,-5.9777,2.7617,1.7734,-0.4873,-5.6595
3.635,0.7505,1.7474,-0.4015,3.7379,-5.9777,2.7617,1.7734,-0.4873,-5.6595
3.639,0.7737,1.7169,-0.4277,3.7379,-5.9777,2.7617,1.7734,-0.4873,-5.6595
3.64,0.7729,1.6724,-0.4233,3.7379,-5.9777,2.7617,1.7734,-0.4873,-5.6595
3.644,0.7493,1.6245,-0.3847,3.7379,-5.9777,2.7617,1.7734,-0.4873,-5.6595
3.644,0.7065,1.575,-0.3219,3.7379,-5.9777,2.7617,1.7734,-0.4873,-5.6595
3.648,0.6542,1.5261,-0.2308,3.7379,-5.9777,2.7617,1.7734,-0.4873,-5.6595
3.65,0.5883,1.478,-0.1116,3.7379,-5.9777,2.7617,1.7734,-0.4873,-5.6595
3.654,0.5108,1.4335,0.0262,3.7379,-5.9777,2.7617,1.7734,-0.4873,-5.6595
3.655,0.4243,1.39,0.1738,3.7379,-5.9777,2.7617,1.7734,-0.4873,-5.6595
3.655,0.4243,1.39,0.1738,3.7379,-5.9777,2.7617,0.8289,-1.5084,-5.1816
3.658,0.331,1.3407,0.3133,3.7379,-5.9777,2.7617,0.8289,-1.5084,-5.1816
3.659,0.2426,1.2938,0.4288,3.7379,-5.9777,2.7617,0.8289,-1.5084,-5.1816
3.663,0.2426,1.2938,0.4288,5.7275,-2.5536,3.6858,0.8289,-1.5084,-5.1816
3.664,0.1661,1.2386,0.5141,5.7275,-2.5536,3.6858,0.8289,-1.5084,-5.1816
3.665,0.1028,1.1873,0.5583,5.7275,-2.5536,3.6858,0.8289,-1.5084,-5.1816
3.668,0.0574,1.1421,0.5656,5.7275,-2.5536,3.6858,0.8289,-1.5084,-5.1816
3.668,0.0315,1.101,0.5395,5.7275,-2.5536,3.6858,0.8289,-1.5084,-5.1816
3.673,0.0274,1.0722,0.4757,5.7275,-2.5536,3.6858,0.8289,-1.5084,-5.1816
3.674,0.0325,1.0551,0.3805,5.7275,-2.5536,3.6858,0.8289,-1.5084,-5.1816
3.679,0.052,1.0519,0.2463,5.7275,-2.5536,3.6858,0.8289,-1.5084,-5.1816
3.679,0.0691,1.071,0.081,5.7275,-2.5536,3.6858,0.8289,-1.5084,-5.1816
3.683,0.085,1.1118,-0.0952,5.7275,-2.5536,3.6858,0.8289,-1.5084,-5.1816
3.684,0.0948,1.1709,-0.2655,5.7275,-2.5536,3.6858,0.8289,-1.5084,-5.1816
3.688,0.0984,1.241,-0.4125,5.7275,-2.5536,3.6858,0.8289,-1.5084,-5.1816
3.688,0.096,1.314,-0.5291,5.7275,-2.5536,3.6858,0.8289,-1.5084,-5.1816
3.693,0.087,1.3807,-0.5989,5.7275,-2.5536,3.6858,0.8289,-1.5084,-5.1816
3.694,0.0779,1.4272,-0.6048,5.7275,-2.5536,3.6858,0.8289,-1.5084,-5.1816
3.698,0.0711,1.455,-0.5557,5.7275,-2.5536,3.6858,0.8289,-1.5084,-5.1816
3.699,0.0745,1.4621,-0.4587,5.7275,-2.5536,3.6858,0.8289,-1.5084,-5.1816
3.703,0.076,1.454,-0.3409,5.7275,-2.5536,3.6858,0.8289,-1.5084,-5.1816
3.703,0.0791,1.4333,-0.2051,5.7275,-2.5536,3.6858,0.8289,-1.5084,-5.1816
3.706,0.0787,1.4035,-0.07,5.7275,-2.5536,3.6858,0.8289,-1.5084,-5.1816
3.707,0.0708,1.3658,0.0494,5.7275,-2.5536,3.6858,0.8289,-1.5084,-5.1816
3.712,0.0559,1.3224,0.154,5.7275,-2.5536,3.6858,0.8289,-1.5084,-5.1816
3.712,0.0484,1.2755,0.2412,5.7275,-2.5536,3.6858,0.8289,-1.5084,-5.1816
3.717,0.044,1.2154,0.3152,5.7275,-2.5536,3.6858,0.8289,-1.5084,-5.1816
3.718,0.062,1.1448,0.3748,5.7275,-2.5536,3.6858,0.8289,-1.5084,-5.1816
3.722,0.1119,1.0612,0.4076,5.7275,-2.5536,3.6858,0.8289,-1.5084,-5.1816
3.723,0.1119,1.0612,0.4076,5.7275,-2.5536,3.6858,0.0143,-0.0817,0.4243
3.724,0.1923,0.9759,0.4034,5.7275,-2.5536,3.6858,0.0143,-0.0817,0.4243
3.727,0.2968,0.8983,0.3572,5.7275,-2.5536,3.6858,0.0143,-0.0817,0.4243
3.728,0.407,0.8186,0.2576,5.7275,-2.5536,3.6858,0.0143,-0.0817,0.4243
3.731,0.407,0.8186,0.2576,6.1491,5.0536,0.5578,0.0143,-0.0817,0.4243
3.732,0.4949,0.7512,0.1198,6.1491,5.0536,0.5578,0.0143,-0.0817,0.4243
3.732,0.5203,0.7055,-0.0155,6.1491,5.0536,0.5578,0.0143,-0.0817,0.4243
3.737,0.46,0.6957,-0.1343,6.1491,5.0536,0.5578,0.0143,-0.0817,0.4243
3.737,0.2956,0.7348,-0.2259,6.1491,5.0536,0.5578,0.0143,-0.0817,0.4243
3.741,0.0247,0.8377,-0.2833,6.1491,5.0536,0.5578,0.0143,-0.0817,0.4243
3.742,-0.3337,1.0177,-0.2984,6.1491,5.0536,0.5578,0.0143,-0.0817,0.4243
3.746,-0.7456,1.2857,-0.273,6.1491,5.0536,0.5578,0.0143,-0.0817,0.4243
3.747,-1.1372,1.6285,-0.2076,6.1491,5.0536,0.5578,0.0143,-0.0817,0.4243
3.751,-1.4702,2.0105,-0.1164,6.1491,5.0536,0.5578,0.0143,-0.0817,0.4243
3.752,-1.713,2.3894,-0.0155,6.1491,5.0536,0.5578,0.0143,-0.0817,0.4243
3.756,-1.8545,2.698,0.1066,6.1491,5.0536,0.5578,0.0143,-0.0817,0.4243
3.757,-1.9351,2.8946,0.2102,6.1491,5.0536,0.5578,0.0143,-0.0817,0.4243
3.761,-1.9436,2.9902,0.2136,6.1491,5.0536,0.5578,0.0143,-0.0817,0.4243
3.762,-1.8496,3.0153,0.1164,6.1491,5.0536,0.5578,0.0143,-0.0817,0.4243
3.767,-1.6644,2.9648,-0.0471,6.1491,5.0536,0.5578,0.0143,-0.0817,0.4243
3.767,-1.4003,2.848,-0.2046,6.1491,5.0536,0.5578,0.0143,-0.0817,0.4243
3.773,-1.0969,2.6692,-0.3097,6.1491,5.0536,0.5578,0.0143,-0.0817,0.4243
3.774,-0.7888,2.4329,-0.3126,6.1491,5.0536,0.5578,0.0143,-0.0817,0.4243
3.775,-0.4954,2.1718,-0.2405,6.1491,5.0536,0.5578,0.0143,-0.0817,0.4243
3.776,-0.2216,1.9065,-0.1262,6.1491,5.0536,0.5578,0.0143,-0.0817,0.4243
3.782,0.0376,1.6419,0.0179,6.1491,5.0536,0.5578,0.0143,-0.0817,0.4243
3.783,0.279,1.3912,0.1684,6.1491,5.0536,0.5578,0.0143,-0.0817,0.4243
3.785,0.4918,1.1526,0.3204,6.1491,5.0536,0.5578,0.0143,-0.0817,0.4243
3.786,0.6833,0.9359,0.4726,6.1491,5.0536,0.5578,0.0143,-0.0817,0.4243
3.79,0.6833,0.9359,0.4726,6.1491,5.0536,0.5578,0.1466,-1.1767,1.7635
3.791,0.8526,0.7456,0.5957,6.1491,5.0536,0.5578,0.1466,-1.1767,1.7635
3.792,0.9962,0.5873,0.6592,6.1491,5.0536,0.5578,0.1466,-1.1767,1.7635
3.795,1.1074,0.4629,0.6682,6.1491,5.0536,0.5578,0.1466,-1.1767,1.7635
3.796,1.1804,0.3684,0.6379,6.1491,5.0536,0.5578,0.1466,-1.1767,1.7635
3.8,1.1804,0.3684,0.6379,2.2372,2.2908,1.1269,0.1466,-1.1767,1.7635
3.8,1.2093,0.3056,0.5869,2.2372,2.2908,1.1269,0.1466,-1.1767,1.7635
3.801,1.1975,0.2765,0.5292,2.2372,2.2908,1.1269,0.1466,-1.1767,1.7635
3.804,1.1489,0.2802,0.4601,2.2372,2.2908,1.1269,0.1466,-1.1767,1.7635
3.805,1.0705,0.3097,0.3756,2.2372,2.2908,1.1269,0.1466,-1.1767,1.7635
3.81,0.9774,0.3645,0.2732,2.2372,2.2908,1.1269,0.1466,-1.1767,1.7635
3.811,0.8863,0.4334,0.145,2.2372,2.2908,1.1269,0.1466,-1.1767,1.7635
3.815,0.825,0.5023,-0.0036,2.2372,2.2908,1.1269,0.1466,-1.1767,1.7635
3.816,0.8054,0.5633,-0.1643,2.2372,2.2908,1.1269,0.1466,-1.1767,1.7635
3.819,0.8313,0.6127,-0.3366,2.2372,2.2908,1.1269,0.1466,-1.1767,1.7635
3.82,0.8956,0.6466,-0.5051,2.2372,2.2908,1.1269,0.1466,-1.1767,1.7635
3.825,0.9913,0.6672,-0.6524,2.2372,2.2908,1.1269,0.1466,-1.1767,1.7635
3.826,1.0942,0.6791,-0.7751,2.2372,2.2908,1.1269,0.1466,-1.1767,1.7635
3.829,1.2,0.6899,-0.8652,2.2372,2.2908,1.1269,0.1466,-1.1767,1.7635
3.831,1.2913,0.7058,-0.9292,2.2372,2.2908,1.1269,0.1466,-1.1767,1.7635
3.834,1.3654,0.7295,-0.9659,2.2372,2.2908,1.1269,0.1466,-1.1767,1.7635
3.835,1.4103,0.771,-0.9737,2.2372,2.2908,1.1269,0.1466,-1.1767,1.7635
3.838,1.4255,0.8208,-0.9619,2.2372,2.2908,1.1269,0.1466,-1.1767,1.7635
3.84,1.4157,0.876,-0.9246,2.2372,2.2908,1.1269,0.1466,-1.1767,1.7635
3.845,1.3817,0.9286,-0.8589,2.2372,2.2908,1.1269,0.1466,-1.1767,1.7635
3.845,1.3251,0.9723,-0.7719,2.2372,2.2908,1.1269,0.1466,-1.1767,1.7635
3.849,1.2469,1.0021,-0.6678,2.2372,2.2908,1.1269,0.1466,-1.1767,1.7635
3.85,1.1494,1.0219,-0.5542,2.2372,2.2908,1.1269,0.1466,-1.1767,1.7635
3.853,1.0407,1.0265,-0.4343,2.2372,2.2908,1.1269,0.1466,-1.1767,1.7635
3.854,0.9325,1.0209,-0.3109,2.2372,2.2908,1.1269,0.1466,-1.1767,1.7635
3.86,0.8294,1.0077,-0.179,2.2372,2.2908,1.1269,0.1466,-1.1767,1.7635
3.862,0.7304,0.9933,-0.0478,2.2372,2.2908,1.1269,0.1466,-1.1767,1.7635
3.862,0.7304,0.9933,-0.0478,2.2372,2.2908,1.1269,-0.0049,-0.6626,1.5327
3.863,0.6357,0.9862,0.0856,2.2372,2.2908,1.1269,-0.0049,-0.6626,1.5327
3.863,0.546,0.9874,0.207,2.2372,2.2908,1.1269,-0.0049,-0.6626,1.5327
3.869,0.4529,1.0023,0.3157,2.2372,2.2908,1.1269,-0.0049,-0.6626,1.5327
3.871,0.4529,1.0023,0.3157,-3.3781,6.3525,1.3592,-0.0049,-0.6626,1.5327
3.871,0.3506,1.0316,0.4122,-3.3781,6.3525,1.3592,-0.0049,-0.6626,1.5327
3.874,0.2372,1.0724,0.5038,-3.3781,6.3525,1.3592,-0.0049,-0.6626,1.5327
3.875,0.1192,1.1245,0.562,-3.3781,6.3525,1.3592,-0.0049,-0.6626,1.5327
3.879,-0.0042,1.1824,0.5825,-3.3781,6.3525,1.3592,-0.0049,-0.6626,1.5327
3.88,-0.1261,1.2364,0.5649,-3.3781,6.3525,1.3592,-0.0049,-0.6626,1.5327
3.883,-0.2463,1.285,0.5246,-3.3781,6.3525,1.3592,-0.0049,-0.6626,1.5327
3.884,-0.3518,1.3204,0.4686,-3.3781,6.3525,1.3592,-0.0049,-0.6626,1.5327
3.888,-0.4341,1.337,0.4042,-3.3781,6.3525,1.3592,-0.0049,-0.6626,1.5327
3.889,-0.4905,1.3377,0.3248,-3.3781,6.3525,1.3592,-0.0049,-0.6626,1.5327
3.894,-0.5265,1.3167,0.2349,-3.3781,6.3525,1.3592,-0.0049,-0.6626,1.5327
3.895,-0.5397,1.2811,0.1496,-3.3781,6.3525,1.3592,-0.0049,-0.6626,1.5327
3.898,-0.5348,1.2347,0.0638,-3.3781,6.3525,1.3592,-0.0049,-0.6626,1.5327
3.899,-0.5111,1.1792,-0.0016,-3.3781,6.3525,1.3592,-0.0049,-0.6626,1.5327
3.903,-0.4695,1.1196,-0.0546,-3.3781,6.3525,1.3592,-0.0049,-0.6626,1.5327
3.904,-0.4187,1.0634,-0.0971,-3.3781,6.3525,1.3592,-0.0049,-0.6626,1.5327
3.907,-0.3537,1.0104,-0.1304,-3.3781,6.3525,1.3592,-0.0049,-0.6626,1.5327
3.908,-0.2819,0.9637,-0.1585,-3.3781,6.3525,1.3592,-0.0049,-0.6626,1.5327
3.912,-0.2042,0.9251,-0.1819,-3.3781,6.3525,1.3592,-0.0049,-0.6626,1.5327
3.912,-0.1243,0.8985,-0.2124,-3.3781,6.3525,1.3592,-0.0049,-0.6626,1.5327
3.919,-0.0489,0.8797,-0.2423,-3.3781,6.3525,1.3592,-0.0049,-0.6626,1.5327
3.92,0.0239,0.8733,-0.2696,-3.3781,6.3525,1.3592,-0.0049,-0.6626,1.5327
3.922,0.0923,0.8768,-0.2984,-3.3781,6.3525,1.3592,-0.0049,-0.6626,1.5327
3.922,0.1556,0.889,-0.3273,-3.3781,6.3525,1.3592,-0.0049,-0.6626,1.5327
3.928,0.2155,0.9046,-0.3524,-3.3781,6.3525,1.3592,-0.0049,-0.6626,1.5327
3.93,0.2155,0.9046,-0.3524,-3.3781,6.3525,1.3592,0.0928,1.1426,0.8516
3.93,0.268,0.9273,-0.3639,-3.3781,6.3525,1.3592,0.0928,1.1426,0.8516
3.932,0.3137,0.9522,-0.3612,-3.3781,6.3525,1.3592,0.0928,1.1426,0.8516
3.932,0.3523,0.9825,-0.3656,-3.3781,6.3525,1.3592,0.0928,1.1426,0.8516
3.937,0.3831,1.0065,-0.3776,-3.3781,6.3525,1.3592,0.0928,1.1426,0.8516
3.938,0.4068,1.0272,-0.3927,-3.3781,6.3525,1.3592,0.0928,1.1426,0.8516
3.938,0.4068,1.0272,-0.3927,9.7229,-2.2183,-2.5619,0.0928,1.1426,0.8516
3.942,0.4209,1.0448,-0.404,9.7229,-2.2183,-2.5619,0.0928,1.1426,0.8516
3.942,0.4217,1.0561,-0.4137,9.7229,-2.2183,-2.5619,0.0928,1.1426,0.8516
3.947,0.4092,1.059,-0.4118,9.7229,-2.2183,-2.5619,0.0928,1.1426,0.8516
3.947,0.3774,1.0578,-0.4064,9.7229,-2.2183,-2.5619,0.0928,1.1426,0.8516
