time,gFx,gFy,gFz,ax,ay,az,wx,wy,wz,subject_number,foot
3.2089999999999996,-0.3067925555756268,1.204116096114463,-0.11725216383825572,2.6648177034931093,2.4580963290944045,-0.598703915078623,0.02195038464702318,1.0124174750877666,-1.6936233407140107,2,right
3.21,-0.31306826479693084,1.2007255953731923,-0.11595194223605258,2.6466593439252395,2.492865966353316,-0.6123887590103407,0.027429528043005892,0.9902135954634482,-1.6893366310575837,2,right
3.21,-0.31897205216995367,1.197281833195298,-0.11461805345209347,2.6258821548932825,2.527501903393062,-0.6260356348575316,0.03272913505051655,0.9682298976924716,-1.6841893671896964,2,right
3.215,-0.32449801582670085,1.1937878210227617,-0.11325209807950364,2.6024768074081495,2.5619423460795505,-0.6396355889240747,0.03784612083903491,0.946472258599704,-1.6781990328295835,2,right
3.216,-0.3296413099526123,1.1902464701453477,-0.11185574956811098,2.5764367766512,2.5961242478971407,-0.6531789263273011,0.04277774149566983,0.9249458714771505,-1.6713837203954993,2,right
3.219,-0.33439813127160645,1.1866606074022417,-0.1104307539936485,2.547758471162481,2.629983451323344,-0.6666552214799816,0.04752158965191032,0.9036552639595495,-1.6637621104268818,2,right
3.22,-0.3387656969915967,1.183032991103915,-0.10897892856973083,2.516441365010866,2.6634548351835496,-0.6800533318891514,0.05207558969126523,0.8826043173505448,-1.655353450165899,2,right
3.2260000000000004,-0.34274221513205755,1.1793663269550587,-0.10750215886109456,2.482488132871281,2.696472468083823,-0.6933614153106584,0.056437992551953926,0.8617962873375993,-1.6461775312788376,2,right
3.2260000000000004,-0.3463268483242645,1.1756632837520955,-0.10600239483784234,2.4459047879266356,2.728969768018914,-0.7065669502981221,0.06060737013827089,0.8412338260345017,-1.6362546666954796,2,right
3.23,-0.34951967224030533,1.171926508583384,-0.10448164603704134,2.406700822504491,2.760879668251486,-0.7196567601847683,0.06458260935370318,0.8209190052909949,-1.6256056665423602,2,right
3.2310000000000003,-0.35232162978552256,1.1681586412054374,-0.10294197614024266,2.3648893513509446,2.7921347895572644,-0.7326170405363431,0.06836290576832962,0.8008533412097588,-1.6142518131435846,2,right
3.235,-0.3547344821084043,1.1643623272288353,-0.10138549723777157,2.3204872574366595,2.8226676189293327,-0.7454333901130143,0.07194775693247675,0.7810378198116804,-1.6022148350607435,2,right
3.235,-0.35676075737327506,1.160540229739016,-0.09981436396321597,2.27351534018244,2.8524106948330807,-0.7580908453778314,0.07533695534804974,0.7614729237910558,-1.5895168801413824,2,right
3.24,-0.35840369813356276,1.1566950390078417,-0.09823076757976866,2.2239984659842795,2.8812967991014626,-0.770573918588948,0.07853058110839682,0.7421586603030816,-1.5761804875434566,2,right
3.24,-0.3596672080472745,1.1528294800194543,-0.0966369300107879,2.1719657209103684,2.9092591555581246,-0.7828666395123914,0.08152899422089692,0.723094589713846,-1.5622285587353355,2,right
3.241,-0.3605557985690823,1.1489463176239394,-0.09503509774953359,2.1174505654351807,2.9362316354537015,-0.7949526007917064,0.08433282664535674,0.7042798551793984,-1.547684327639497,2,right
3.245,-0.36107453613198265,1.1450483592247531,-0.09342753556377119,2.060490991068449,2.962148969798125,-0.8068150070102992,0.08694297411576729,0.685713212805379,-1.532571330393092,2,right
3.2460000000000004,-0.36122899026722644,1.1411384549902133,-0.0918165199164499,2.0011296787296264,2.986946968669123,-0.8184367274817617,0.0893605878318683,0.6673930620750614,-1.5169133753672623,2,right
3.252,-0.36102518315310805,1.1372194956596031,-0.09020433204489696,1.9394141587113107,3.010562747574263,-0.8298003528028596,0.09158706608695154,0.6493174762987209,-1.5007345139149137,2,right
3.253,-0.3604695411593118,1.1332944080956633,-0.08859325068806588,1.8753969720680896,3.032934960940848,-0.840888255203223,0.093624045862754,0.6314842329537749,-1.4840590120081594,2,right
3.253,-0.3595688489664556,1.1293661488059135,-0.08698554452011507,1.8091358328076144,3.054004042429766,-0.8516826526260376,0.09547339440228064,0.613890843850194,-1.4669113227545973,2,right
3.2539999999999996,-0.3583302067659739,1.1254376956871672,-0.08538346440296087,1.7406937879901043,3.073712449891017,-0.8621656759780403,0.09713720076695634,0.596534585069252,-1.4493160597459962,2,right
3.2539999999999996,-0.35676099091783786,1.1215120382351857,-0.08378923558674539,1.6701393687609527,3.0920049094000532,-0.8723194380948649,0.09861776738396266,0.5794125266243785,-1.43129797119154,2,right
3.26,-0.3548688183291835,1.1175921664530755,-0.08220504998806351,1.5975467230708267,3.1088286509353575,-0.882126102471694,0.099917601589077,0.5625215617935679,-1.412881914786421,2,right
3.26,-0.3526615147514497,1.1136810587293842,-0.08063305868864126,1.5229957230952462,3.124133630128757,-0.8915679503035253,0.1010394071697981,0.5458584360734807,-1.394092833265291,2,right
3.264,-0.35014708713787895,1.1097816690112998,-0.07907536480816969,1.446572044434503,3.137872733890918,-0.9006274452698805,0.10198607591301725,0.5294197757060393,-1.3749557305888613,2,right
3.265,-0.34733370011750986,1.105896913624718,-0.07753401688985455,1.368367216432777,3.150001969585241,-0.9092872959930363,0.10276067916097452,0.5132021157289909,-1.355495648710799,2,right
3.2689999999999997,-0.3442296565413588,1.1020296580889,-0.07601100290042588,1.2884786434024718,3.1604806377940213,-0.9175305161968678,0.10336645937872944,0.4972019275025603,-1.335737644871002,2,right
3.27,-0.3408433819675175,1.0981827042548817,-0.07450824490729169,1.2070095965344225,3.1692714887162485,-0.9253404825922884,0.10380682173587177,0.48141564566496203,-1.3157067693603297,2,right
3.2739999999999996,-0.3371834128798258,1.0943587780712036,-0.07302759446721628,1.1240691762695225,3.1763408622318066,-0.9327009905141304,0.10408532570470487,0.46583969447017487,-1.2954280437009331,2,right
3.275,-0.3332583883770693,1.0905605182504892,-0.0715708287470688,1.0397722449024962,3.181658811662093,-0.9395963073331082,0.10420567667664922,0.45047051346200623,-1.274926439185489,2,right
3.279,-0.32907704502546725,1.0867904660759573,-0.0701396473930845,0.9542393291840101,3.1851992112522365,-0.9460112236652681,0.10417171759813874,0.4353045824390898,-1.2542268557178426,2,right
3.279,-0.32464821453615356,1.083051056545928,-0.06873567016113145,0.8675964926831055,3.1869398473951587,-0.9519311024000333,0.10398742062681784,0.4203384456660631,-1.2333541008968565,2,right
3.285,-0.31998082390877514,1.0793446110060048,-0.06736043530962357,0.7799751776680509,3.1868624936127063,-0.9573419255666208,0.10365687880839344,0.40556873528676524,-1.2123328692846282,2,right
3.286,-0.3150838976678971,1.0756733313647515,-0.06601539873818357,0.6915120162601716,3.184952969303968,-0.962230339057227,0.10318429777405283,0.39099219389588036,-1.1911877217996625,2,right
3.2880000000000003,-0.30996656180832266,1.0720392959319678,-0.06470193383193293,0.6023486106120352,3.1812011822657422,-0.9665836952239576,0.10257398745792676,0.37660569622602535,-1.1699430651750884,2,right
3.2889999999999997,-0.30463804905928316,1.068444456861033,-0.06342133194738962,0.5126312818585794,3.175601154984899,-0.9703900933650172,0.10183035383365728,0.3624062699078456,-1.1486231314215882,2,right
3.293,-0.29910770507520923,1.0648906391208361,-0.062174803456048824,0.42251078758735255,3.1681510346971336,-0.9736384181141757,0.10095789066872206,0.3483911152612383,-1.127251957234347,2,right
3.295,-0.2933849951601097,1.0613795408724909,-0.060963479249189864,0.3321420075720396,3.1588530872013174,-0.976318375745989,0.09996117129477114,0.33455762407636663,-1.105853363283041,2,right
3.298,-0.287479511133394,1.057912735084347,-0.0597884126022103,0.24168359751186563,3.14771367441336,-0.9784205284076871,0.09884484039185003,0.320903397343669,-1.0844509333236745,2,right
3.299,-0.2814009779494683,1.054491672186907,-0.058650581296548966,0.15129761051831733,3.134743215638173,-0.9799363262870386,0.09761360578401222,0.30742626189259553,-1.0630679930709186,2,right
3.303,-0.2751592596921244,1.0511176835475233,-0.057550889899546494,0.06114908608991822,3.1199561325330603,-0.9808581377238704,0.09627223024346787,0.29412428589932643,-1.0417275887695352,2,right
3.303,-0.26876436457698666,1.0477919855329532,-0.05649017210572606,-0.028594393684455342,3.1033707777305284,-0.9811792772712621,0.09482552330007217,0.28099579322424323,-1.0204524654034473,2,right
3.3080000000000003,-0.2622264486123666,1.0445156839257321,-0.05546919304779223,-0.1177631809530176,3.0850093470833118,-0.980894031710754,0.09327833305262631,0.26803937654043203,-0.9992650444810824,2,right
3.3089999999999997,-0.2555558175937369,1.041289778468396,-0.05448865149510065,-0.2061860722178881,3.064897775489159,-0.9799976840242016,0.09163553797814811,0.2552539092150021,-0.9781874013357316,2,right
3.31,-0.24876292714373416,1.0381151673296865,-0.053549181873209284,-0.2936908519987212,3.0430656162477905,-0.9784865353231882,0.08990203873968426,0.24263855590948813,-0.9572412419174217,2,right
3.312,-0.24185838056303202,1.0349926513219705,-0.0526513560593102,-0.3801048702989402,3.0195459038973307,-0.9763579247351641,0.08808275001653564,0.23019278188602932,-0.9364478792409062,2,right
3.313,-0.2348529243229205,1.0319229377451022,-0.05179568493177517,-0.4652556541282209,2.9943750004725027,-0.9736102472437321,0.08618259242295014,0.21791636104238224,-0.9158282099928192,2,right
3.318,-0.22775744108880058,1.028906643772878,-0.050982619675372993,-0.5489715533322307,2.9675924251219437,-0.9702429694787296,0.0842064846046653,0.20580938271924487,-0.8954026919892637,2,right
3.318,-0.220582940204851,1.0259442993261696,-0.05021255286584327,-0.6310824197633176,2.9392406673823763,-0.9662566434378539,0.08215933557884839,0.1938722573039264,-0.8751913229876973,2,right
3.32,-0.21334054560443716,1.0230363494017058,-0.04948581937394892,-0.711420312751322,2.9093649862287845,-0.9616529180591108,0.08004603734029124,0.18210572061901145,-0.8552136210193428,2,right
3.327,-0.20604148114963353,1.0201831558559842,-0.048802697136622074,-0.7898202129019574,2.878013200302149,-0.956434548452356,0.07787145773291136,0.1705108370652256,-0.8354886062210594,2,right
3.3280000000000003,-0.1986970534539508,1.017384998681396,-0.04816340784963428,-0.8661207201747042,2.8452354765379586,-0.9506054025357351,0.07564043358068877,0.15908900148421162,-0.8160347841086564,2,right
3.3289999999999997,-0.19131863231101143,1.0146420768561537,-0.047568117649322686,-0.9401647182579684,2.811084122588186,-0.9441704648817417,0.07335776407197805,0.14784193970741646,-0.7968701302342983,2,right
3.3289999999999997,-0.18391762892914218,1.0119545088916584,-0.04701693785963839,-1.0117999981813086,2.775613385138132,-0.9371358376850908,0.07102820439095928,0.13677170775778297,-0.7780120761713768,2,right
3.332,-0.17650547223886426,1.0093223332254582,-0.04650992587207981,-1.0808798401694044,2.7388792543893272,-0.9295087388235302,0.0686564595898288,0.1258806896714385,-0.7594774967710016,2,right
3.333,-0.16909358358778404,1.006745508607888,-0.04604708620181337,-1.1472635539501448,2.7009392746104903,-0.9212974969931227,0.06624717869518267,0.11517159390707474,-0.7412826986350957,2,right
3.3360000000000003,-0.16169335016498101,1.004223914608236,-0.045628371732725895,-1.2108169777223148,2.66185236065477,-0.9125115438978016,0.06380494904191067,0.10464744831122186,-0.7234434097519545,2,right
3.3369999999999997,-0.15431609750735822,1.0017573523294183,-0.045253685133775166,-1.2714129359810225,2.6216786203378675,-0.9031614034713105,0.06133429082779771,0.09431159360813639,-0.70597477024106,2,right
3.342,-0.14697306143936156,0.9993455453791104,-0.044922880402603976,-1.328931656391279,2.5804791825681725,-0.8932586781079546,0.05883965188192096,0.08416767538354449,-0.6888913241549156,2,right
3.342,-0.13967535979069856,0.996988141108881,-0.04463576447270579,-1.3832611458920334,2.5383160311167603,-0.882816031876951,0.05632540263983672,0.07421963453201491,-0.6722070122866851,2,right
3.347,-0.13243396422643358,0.9946847121053977,-0.044392098808728714,-1.434297526204478,2.4952518439119653,-0.8718471706935405,0.053795831318469205,0.06447169613827738,-0.6559351659334862,2,right
3.3480000000000003,-0.1252596725105585,0.9924347578996907,-0.044191600909760466,-1.4819453289096174,2.4513498377403202,-0.8603668194184385,0.05125513928354397,0.05492835676335404,-0.6400885015662914,2,right
3.352,-0.11816308150924831,0.9902377068496985,-0.044033945640706035,-1.5261177502509586,2.4066736182328614,-0.8483906958556598,0.04870743660235267,0.045594370106934935,-0.6246791163585356,2,right
3.353,-0.11115456122440434,0.9880929181446432,-0.04391876631717873,-1.5667368658087217,2.361287035013232,-0.8359354816172341,0.046156737774591214,0.03647473101800419,-0.6097184845267135,2,right
3.3569999999999998,-0.10424423012922122,0.9859996838761055,-0.04384565548187849,-1.6037338051822698,2.3152540418815977,-0.8230187898218688,0.04360695763398164,0.02757465782631141,-0.595217454437469,2,right
3.358,-0.09744193205215534,0.9839572311216462,-0.04381416533137692,-1.6370488868074833,2.268638561906174,-0.8096591295931902,0.04106190741336726,0.01889957296788514,-0.5811862464369343,2,right
3.364,-0.09075721482485075,0.981964723993975,-0.043823807778429605,-1.6666317130256196,2.2215043572921105,-0.7958758673218194,0.038525290965962265,0.010455081878401265,-0.567634451359365,2,right
3.365,-0.08419931087713715,0.9800212656212267,-0.043874054159448374,-1.692441225509813,2.1739149038956365,-0.7816891846542176,0.036000701135439024,0.0022469501288504873,-0.5545710296734342,2,right
3.366,-0.07777711993052931,0.9781259000398025,-0.043964334614072585,-1.7144457211448048,2.1259332702496927,-0.7671200331699638,0.03349161626754982,-0.005718921221404232,-0.5420043112259001,2,right
3.367,-0.07149919391114412,0.9762776139981464,-0.04409403717416663,-1.7326228284448106,2.0776220009657744,-0.7521900857079132,0.03100139685600373,-0.01343652207842666,-0.5299419955437336,2,right
3.3710000000000004,-0.06537372417237027,0.9744753386840482,-0.044262506606950074,-1.7469594445835883,2.0290430043754157,-0.7369216843005246,0.028533282315353747,-0.02089976159792977,-0.5183911526571984,2,right
3.3710000000000004,-0.059408531083070475,0.9727179513957577,-0.04446904306450152,-1.7574516330998784,1.9802574442736098,-0.7213377846745529,0.026090387873693287,-0.028102498322792612,-0.5073582244077979,2,right
3.3760000000000003,-0.05361105599403285,0.9710042771793385,-0.04471290060118307,-1.7641044823304057,1.931325635625515,-0.7054618972752632,0.023675701578015542,-0.03503857219602906,-0.4968490262064524,2,right
3.377,-0.04798835554648597,0.9693330904557285,-0.04499328563012808,-1.766931924611619,1.8823069440970184,-0.6893180247703555,0.021292081409285995,-0.041701838411901226,-0.48686874921552964,2,right
3.378,-0.042547098246702164,0.9677031166617898,-0.045309355392616386,-1.7659565162803184,1.8332596892691435,-0.6729305959888804,0.018942252525021127,-0.04808620277345218,-0.4774219629637946,2,right
3.38,-0.03729356321063188,0.9661130339291292,-0.045660216505151396,-1.7612091784923132,1.784241051395862,-0.6563243962495908,0.016628804684453345,-0.0541856576953612,-0.46851261846596937,2,right
3.3810000000000002,-0.032233640967837505,0.9645614748261796,-0.046044923636119145,-1.752728898867284,1.735306981564615,-0.639524494032407,0.01435418993212132,-0.05999431769657156,-0.46014405195406827,2,right
3.386,-0.02737283618951765,0.9630470281945811,-0.046462478355891734,-1.7405623947075362,1.6865121151706077,-0.6225561640709277,0.012120720595151567,-0.06550645352000936,-0.45231898929524855,2,right
3.387,-0.022716272187754655,0.9615682411128935,-0.046911828197312586,-1.7247637422796418,1.6379096888752185,-0.6054448075680962,0.009930567612394903,-0.07071652454449937,-0.4450395511113385,2,right
3.387,-0.01826869703763247,0.9601236210141384,-0.04739186595222399,-1.705393983391091,1.5895514616856523,-0.5882158713612028,0.007785759193022392,-0.07561920944681821,-0.43830725858279834,2,right
3.391,-0.014034491175466507,0.95871163797449,-0.04790142921793252,-1.6825207242356246,1.5414876410525689,-0.5708947684867233,0.0056881797981693264,-0.08020943512970814,-0.4321230399146397,2,right
3.392,-0.01001767629967759,0.9573307271831595,-0.04843930019996396,-1.656217737718375,1.4937668146237668,-0.5535068019702807,0.0036395694393398944,-0.08448240393080667,-0.4264872374433951,2,right
3.395,-0.006221925361977586,0.9559792915949525,-0.049004205773359615,-1.6265645737078667,1.4464358878261458,-0.5360770925420506,0.001641523287415105,-0.08843361912656564,-0.42139961536579956,2,right
3.3960000000000004,-0.002650573410416499,0.9546557047556151,-0.049594817803149324,-1.593646177899749,1.3995400271898144,-0.5186305103528622,-0.00030450841375804366,-0.09205890874433567,-0.4168593680714185,2,right
3.4010000000000002,0.0006933709663414748,0.9533583137795982,-0.050209753726593816,-1.5575525192168806,1.35312260927736,-0.5011916106411,-0.0021972201350778453,-0.09535444769488148,-0.4128651290630326,2,right
3.4010000000000002,0.0038072138495887785,0.9520854424532245,-0.0508475774042971,-1.5183782256607519,1.3072251750824058,-0.4837845733003874,-0.004035450556936336,-0.09831677823666997,-0.4094149804501614,2,right
3.406,0.006688564112523796,0.9508353944340903,-0.051506800251138206,-1.4762222285198794,1.2618873897628289,-0.4664331462979872,-0.005818181776592534,-0.10094282878233715,-0.4065064630026806,2,right
3.407,0.009335321705346043,0.9496064565200023,-0.05218588265970653,-1.431187414831688,1.217147007575388,-0.4491605928938726,-0.007544538233605222,-0.10322993105679398,-0.40413658675305386,2,right
3.41,0.01174566634469783,0.9483969019663637,-0.05288323572894584,-1.3833802879855523,1.173039841879989,-0.43198964261051426,-0.009213785358603833,-0.10517583561547406,-0.402301842137263,2,right
3.41,0.013918046831440599,0.9472049938371923,-0.053597223309054365,-1.3329106363461214,1.1295997400834301,-0.4149424459035877,-0.010825327950516841,-0.10677872573026174,-0.4009982116660747,2,right
3.415,0.015851171196834078,0.9460289883807741,-0.05432616437043243,-1.279891209767781,1.0868585633941776,-0.39804053248403076,-0.012378708287215472,-0.10803722964966607,-0.4002211821198273,2,right
3.4160000000000004,0.01754399784676607,0.9448671384256847,-0.05506833570058526,-1.224437403863152,1.0448461712615325,-0.3813047732421706,-0.013873603974366712,-0.10895043123882626,-0.39996575726145994,2,right
3.42,0.018995727836886526,0.9437176967950014,-0.05582197492933605,-1.1666669518808805,1.0035904103744693,-0.36475534572499524,-0.015309825537124188,-0.1095178790039511,-0.40022647106402753,2,right
3.4210000000000003,0.020205798369373522,0.9425789197360308,-0.05658528388015759,-1.1066996240406604,0.9631171080974265,-0.3484117031180597,-0.016687313759118663,-0.10973959350480507,-0.4009974014504602,2,right
3.425,0.021173877557066085,0.9414490703615261,-0.05735643224420267,-1.0446569341664362,0.9234500702224152,-0.3322925466839921,-0.018006136773042178,-0.10961607315786397,-0.4022721845448203,2,right
3.425,0.02189986045628728,0.940326422097043,-0.05813356157266791,-0.9806618534520856,0.8846110829189877,-0.3164158016101008,-0.019266486906951596,-0.10914829843177001,-0.40404402943579387,2,right
3.429,0.022383866328912587,0.939209262128541,-0.05891478958065786,-0.9148385311875716,0.8466199187658482,-0.3007985962181706,-0.02046867729024882,-0.10833773443572449,-0.40630573345461785,2,right
3.43,0.022626237057670737,0.9380958948453925,-0.059698214751707245,-0.8473120222676003,0.8094943467501982,-0.2854572444901821,-0.021613138223126778,-0.10718633190046531,-0.40904969797108964,2,right
3.435,0.022627536604160604,0.9369846452751301,-0.060481921228905555,-0.778208021299206,0.773250146123286,-0.27040723186437976,-0.022700413313102446,-0.10569652655048865,-0.41226794471273465,2,right
3.4360000000000004,0.022388551364618488,0.9358738625055045,-0.0612639839766802,-0.7076526031194449,0.7379011240030615,-0.25566320425686084,-0.02373115538209142,-0.10387123686519056,-0.4159521326136118,2,right
3.44,0.02191029124552114,0.9347619230868346,-0.06204247419231902,-0.6357719695294792,0.7034591366173147,-0.24123896026464672,-0.02470612214731297,-0.10171386022562594,-0.4200935752006228,2,right
3.4419999999999997,0.021193991254486733,0.9336472344031751,-0.06281546493333658,-0.5626922020468077,0.6699341140832121,-0.22714744650703342,-0.025626171679150392,-0.09922826744261135,-0.4246832585265527,2,right
3.445,0.020241113385643814,0.9325282379924441,-0.06358103690702986,-0.4885390204732249,0.6373340886217048,-0.21340075606289546,-0.026492257638929387,-0.09641879566093556,-0.4297118596604062,2,right
3.446,0.01905334857632197,0.9314034127837542,-0.06433728435116493,-0.4134375470722902,0.6056652261078894,-0.2000101299625337,-0.027305424303901208,-0.09329023965880003,-0.43516976572743704,2,right
3.446,0.01763261853078261,0.9302712782112965,-0.06508232093153782,-0.3375120761466365,0.5749318608610297,-0.18698596169361226,-0.028066801408980678,-0.08984784168722691,-0.4410470933951509,2,right
3.45,0.015981077242517384,0.9291303971627535,-0.06581428559401349,-0.26088584880236554,0.5451365335806,-0.1743378046817183,-0.028777598874991765,-0.0860972802210464,-0.4473337085274968,2,right
3.451,0.014101112070318339,0.9279793787213481,-0.06653134832038855,-0.1836808326850524,0.5162800323373858,-0.1620743827070991,-0.029439101515442212,-0.08204465811871657,-0.4540192456332892,2,right
3.4539999999999997,0.011995344218471858,0.9268168806605046,-0.06723171573849161,-0.10601750660076609,0.4883614365028264,-0.15020360317462228,-0.030052663791279542,-0.07769649056077106,-0.4610931268335126,2,right
3.455,0.009666628466609277,0.9256416116548193,-0.06791363653652936,-0.02801465058978596,0.46137816335982884,-0.13873257292728486,-0.030619704642577947,-0.07305969290800228,-0.4685445802486621,2,right
3.455,0.007118052015560609,0.9244523331854856,-0.06857540664048162,0.05021085679966236,0.435326016884208,-0.127667615884662,-0.031141702403543574,-0.0681415684930634,-0.47636265780582115,2,right
3.4589999999999996,0.004352932341733791,0.9232478611402715,-0.06921537412756157,0.12854423163536144,0.41019923804594594,-0.11701429156101432,-0.03162018980260382,-0.06294979633301301,-0.4845362524857763,2,right
3.4589999999999996,0.001374813960457263,0.9220270671363122,-0.06983194386265046,0.2068729663777217,0.38599055612479916,-0.10677741374671738,-0.032056749049212685,-0.05749241874949784,-0.49305411503154994,2,right
3.464,-0.001812535998621741,0.9207888796276968,-0.07042358185884126,0.28508699974599827,0.36269124079422127,-0.09696106904788046,-0.03245300700887526,-0.05177782888246165,-0.501904870140787,2,right
3.465,-0.005205133482073312,0.9195322848926493,-0.07098881937416496,0.3630788747676366,0.34029115487287337,-0.08756863520800097,-0.032810630467769074,-0.04581475808248301,-0.5110770321654516,2,right
3.47,-0.008798784511385412,0.9182563280174516,-0.07152625675592239,0.4407438852355276,0.31877880767415784,-0.07860279918225539,-0.033131321488220115,-0.03961226316608242,-0.5205590203432795,2,right
3.47,-0.012589093490003884,0.9169601140003442,-0.07203456703134216,0.5179802107976279,0.2981414088868214,-0.07006557493623444,-0.03341681285617533,-0.03317971351760123,-0.5303391735863859,2,right
3.4739999999999998,-0.016571472778333183,0.9156428090880557,-0.07251249922567683,0.5946890409027717,0.27836492292225284,-0.06195832094214623,-0.03366886362170269,-0.026526778020541354,-0.5404057648533551,2,right
3.475,-0.020741153460264387,0.9143036424324926,-0.07295888137236371,0.6707746878255633,0.25943412366664886,-0.054281757346735265,-0.0338892547334438,-0.019663411800567916,-0.5507470151320241,2,right
3.4789999999999996,-0.02509319719197502,0.9129419081190759,-0.0733726231698329,0.7461446889920184,0.2413326495787321,-0.04703598278639514,-0.03407978476784299,-0.012599842761716747,-0.5613511070610314,2,right
3.48,-0.029622508992229735,0.9115569675772506,-0.07375271824185962,0.8207098988261124,0.224043059076176,-0.04022049082618636,-0.03424226575388079,-0.0053465578967159325,-0.572206198219025,2,right
3.485,-0.034323850804835215,0.9101482523451736,-0.0740982459731111,0.8943845703356091,0.20754688615631806,-0.033834186000707055,-0.034378519093948734,0.002085710648273124,-0.5833004341112095,2,right
3.486,-0.03919185564170471,0.9087152671305613,-0.07440837291141493,0.9670864266534961,0.1918246961991231,-0.027875399436000026,-0.03449037158141683,0.009685999774764281,-0.5946219608836735,2,right
3.488,-0.044221042100490916,0.9072575930909551,-0.0746823537461878,1.0387367227490485,0.1768561419026888,-0.0223419040329149,-0.034579651515364344,0.01744312991971854,-0.6061589377966508,2,right
3.489,-0.04940582904301231,0.9057748912481773,-0.07491953188499519,1.1092602975199912,0.1626200193038621,-0.017230929193575478,-0.03464818491286921,0.025345719851306535,-0.6178995494885643,2,right
3.4930000000000003,-0.05474055021870314,0.9042669059497233,-0.07511933965459548,1.1785856164744444,0.14909432383875712,-0.012539175073829657,-0.03469779181918136,0.03338220179447118,-0.6298320180633494,2,right
3.4930000000000003,-0.06021946862136223,0.902733468290923,-0.07528129814722873,1.2466448052083183,0.13625630640012856,-0.008262826345779566,-0.03473028271604043,0.041540836908550066,-0.6419446150341743,2,right
3.498,-0.06583679037837638,0.9011744994136378,-0.07540501672043377,1.3133736738806063,0.12408252935065636,-0.0043975654557023985,-0.03474745502833855,0.049809731139634814,-0.6542256731572589,2,right
3.4989999999999997,-0.07158667798917168,0.8995900135972368,-0.0754901921474208,1.3787117328855747,0.11254892245323683,-0.0009385853638755839,-0.0347510897292747,0.058176851470728694,-0.6666635981900465,2,right
3.503,-0.07746326275326165,0.8979801210541238,-0.0755366074130055,1.4426021999172323,0.10163083868134977,0.0021193982459878427,-0.03474294804409778,0.06663004259311456,-0.6792468806085,2,right
3.5039999999999996,-0.08346065625792028,0.8963450303375999,-0.07554413016067996,1.504991998617642,0.09130310987447765,0.00478213529880786,-0.0347247682524916,0.0751570440226614,-0.6919641073187764,2,right
3.508,-0.08957296083152404,0.8946850502683195,-0.07551271081818023,1.5658317489966518,0.08154010220539076,0.007055830211658194,-0.034698262589616044,0.08374550768507998,-0.7048039733989867,2,right
3.509,-0.09579427891076052,0.8930005912878132,-0.07544238046441723,1.6250757498064685,0.07231577142787951,0.008947131337536314,-0.03466511424578466,0.09238301599438473,-0.7177552939071646,2,right
3.512,-0.10211872131805187,0.8912921661501496,-0.07533324856390522,1.6826819530502017,0.0636037178752098,0.010463120977045381,-0.03462697446473031,0.1010571004490314,-0.7308070157919531,2,right
3.513,-0.10854041449841594,0.8895603898650559,-0.07518550078120254,1.7386119307990502,0.05537724118119877,0.011611305964534208,-0.03458545974157116,0.10975526074908162,-0.7439482299244354,2,right
3.514,-0.11505350681077545,0.8878059788164283,-0.07499939713192676,1.792830834488237,0.04760939469735528,0.012399608834143665,-0.03454214912749556,0.1184649843314161,-0.7571681831776831,2,right
3.5180000000000002,-0.12165217398793693,0.886029749007917,-0.074775270649182,1.8453073468570969,0.0402730395809998,0.012836359570130736,-0.03449858165883458,0.12717376602847594,-0.770456290314968,2,right
3.52,-0.12833062387369887,0.8842326134235866,-0.07451352655197996,1.8960136266939103,0.03334089853067368,0.012930287944785745,-0.034456253934106534,0.1358691274496096,-0.78380214535567,2,right
3.523,-0.13508310054647116,0.8824155785144159,-0.0742146416958547,1.9449252465411757,0.026785609146464027,0.012690516446225248,-0.03441661785668738,0.1445386357906075,-0.797195532180312,2,right
3.5239999999999996,-0.1419038879768281,0.8805797398205606,-0.07387916397778382,1.9920211235120089,0.0205797768941103,0.012126553797334112,-0.034381078550095014,0.15316992196865026,-0.8106264343022614,2,right
3.5239999999999996,-0.1487873134354259,0.8787262767288138,-0.07350771141107201,2.037283443462817,0.014696027649525933,0.011248289037154021,-0.03435099244695414,0.16175069808632953,-0.8240850438259838,2,right
3.529,-0.1557277509188791,0.8768564463632091,-0.07310097073890877,2.080697579259896,0.00910705978448396,0.010065985990097176,-0.03432766555153072,0.17026877424961945,-0.837561769630301,2,right
3.53,-0.16271962485958705,0.8749715766207331,-0.07265969561803666,2.122252004768175,0.00378569572467874,0.008590277686503828,-0.03431235187573691,0.178712074764568,-0.8510472448152163,2,right
3.533,-0.16975741436375802,0.87307305839562,-0.07218470451542022,2.161938206682735,-0.0012950671046657988,0.006832160152199459,-0.034306252048522896,0.18706865373733236,-0.8645323334509472,2,right
3.533,-0.1768356582178561,0.871162337085378,-0.07167687850982314,2.1997505958207477,-0.006162006012656803,0.004802985128795548,-0.034310512098591206,0.19532671010200223,-0.8780081366678638,2,right
3.5380000000000003,-0.18394896089295296,0.8692409035301247,-0.07113715915957053,2.235686418590394,-0.010841623491767505,0.0025144515465653217,-0.03432622241039223,0.20347460210044052,-0.8914659981260517,2,right
3.5380000000000003,-0.19109199972884922,0.8673102845906029,-0.07056654649009735,2.2697456688502835,-0.015360098400093392,-2.140428412384026e-05,-0.03435441685338579,0.21150086123812267,-0.9048975089032185,2,right
3.542,-0.19825953340926392,0.8653720336144126,-0.06996609703099711,2.3019310002679902,-0.019743237890868005,-0.0027922197686254206,-0.034396072084583375,0.2193942057396727,-0.9182945118396395,2,right
3.543,-0.20544641176677875,0.8634277210757665,-0.06933692175978744,2.3322476392809435,-0.024016430102738056,-0.005785318417624615,-0.03445210702441845,0.22714355352747742,-0.9316491053787831,2,right
3.5469999999999997,-0.21264758688383723,0.8614789257025557,-0.0686801838088603,2.3607032987575187,-0.02820459762383382,-0.008987723537803236,-0.03452338250602786,0.2347380347464125,-0.9449536469421856,2,right
3.548,-0.21985812538052563,0.8595272264258484,-0.06799709584537396,2.387308092450805,-0.03233215174228104,-0.012386173231491177,-0.03461070109806601,0.24216700385733156,-0.9582007558770432,2,right
3.552,-0.22707322170109842,0.857574195500556,-0.06728891711443073,2.412074450332151,-0.03642294749548377,-0.01596713671387485,-0.034714807101214676,0.24942005132155723,-0.9713833160148699,2,right
3.553,-0.23428821213204046,0.8556213931490646,-0.06655695021894957,2.4350170348862608,-0.04050023953026224,-0.01971683195693371,-0.03483638671859489,0.2564870148981672,-0.9844944778794247,2,right
3.556,-0.24149858920756853,0.8536703640656761,-0.06580253776982155,2.4561526584442936,-0.04458663878575447,-0.023621244669838542,-0.03497606840033336,0.2633579905753954,-0.9975276605819474,2,right
3.557,-0.24870001608558817,0.8517226360783922,-0.06502705905383815,2.4755002016261476,-0.04870407001088346,-0.027666148626069,-0.03513442336258399,0.2700233431569614,-1.0104765534415616,2,right
3.562,-0.255888340413207,0.84977972118546,-0.0642319268259761,2.4930805329578676,-0.052873730128151636,-0.03183712734799207,-0.03531196628135502,0.2764737165236096,-1.0233351173684921,2,right
3.563,-0.263059607156968,0.8478431190641512,-0.06341858425555522,2.5089164297249393,-0.057116047455548886,-0.03611959716008719,-0.035509156161544514,0.28270004358957396,-1.0360975860475259,2,right
3.5669999999999997,-0.2702100698610993,0.8459143229978509,-0.06258850198415415,2.523032500117092,-0.061450641798448204,-0.04049883162240683,-0.035726397381639935,0.2886935559730981,-1.0487584669589014,2,right
3.5669999999999997,-0.27733619982289465,0.8439948280037333,-0.06174317522763471,2.535455106715164,-0.06589628542351111,-0.04495998735622339,-0.03596404091459303,0.2944457933995198,-1.061312542273554,2,right
3.572,-0.2844346927346136,0.8420861407895172,-0.060884120888475855,2.546212291365575,-0.07047086492683231,-0.04948813127413287,-0.03622238572543732,0.2999486128547884,-1.0737548696593673,2,right
3.573,-0.29150247242889676,0.840189791045821,-0.06001287471588197,2.5553337014830144,-0.07519134400881596,-0.054068269227163915,-0.03650168034627297,0.3051941975066141,-1.0860807830347914,2,right
3.576,-0.29853669147520767,0.8383073435080504,-0.05913098861877003,2.5628505178170955,-0.08007372716859337,-0.05868537608167578,-0.03680212462930244,0.3101750654097572,-1.0982858933058839,2,right
3.577,-0.3055347285062031,0.8364404102059612,-0.05824002826562165,2.568795383713936,-0.08513302433116021,-0.06332442723902089,-0.037123871678659597,0.31488407801124735,-1.1103660891225033,2,right
3.5810000000000004,-0.3124941822930429,0.8345906623584857,-0.05734157108298143,2.5732023358989418,-0.09038321642082818,-0.06797043161109735,-0.03746702995986897,0.31931444846200896,-1.1223175376762955,2,right
3.582,-0.31941286270446134,0.8327598414627752,-0.05643720470674504,2.576106736802452,-0.09583722189504955,-0.07260846606502276,-0.03783166557600253,0.3234597496977189,-1.1341366854989594,2,right
3.583,-0.3262887787579449,0.8309497692470185,-0.0555285258739947,2.5775452084454007,-0.10150686425317842,-0.07722371135022361,-0.03821780468196802,0.32731392217374294,-1.1458202591040667,2,right
3.5860000000000003,-0.33312012404499636,0.8291623562521555,-0.05461713967611112,2.5775555678977287,-0.10740284053527908,-0.0818014895212551,-0.038625435998594256,0.33087128109530756,-1.1573652652515383,2,right
3.5869999999999997,-0.33990525993188775,0.8273996088496209,-0.05370465902401789,2.5761767643179727,-0.11353469082667464,-0.0863273028696432,-0.03905451339807058,0.33412652302613616,-1.168768990677306,2,right
3.591,-0.34664269707212764,0.8256636345265059,-0.05279270412497032,2.5734488175782424,-0.11991076878454675,-0.0907868743779757,-0.03950495855005354,0.33707473183514225,-1.1800290012451464,2,right
3.592,-0.35333107585850704,0.8239566453119612,-0.05188290177087262,2.569412758474696,-0.12653821320354386,-0.09516618970936176,-0.03997666362764567,0.33971138398280976,-1.1911431405410902,2,right
3.593,-0.35996914646792844,0.8222809592699794,-0.05097688429563922,2.5641105704788827,-0.133422920665884,-0.09945154067993459,-0.0404694940744789,0.3420323531566013,-1.2021095279431562,2,right
3.596,-0.3665557491009374,0.8206390000248018,-0.05007628814164157,2.557585132777635,-0.14056951946139584,-0.10362956983539974,-0.04098329143419627,0.34403391426385416,-1.2129265561987579,2,right
3.5980000000000003,-0.3730897949065581,0.8190332943147565,-0.04918275204594354,2.549880163978583,-0.14798134521433073,-0.10768731516473551,-0.041517876243686816,0.3457127467897297,-1.223592888541703,2,right
3.6010000000000004,-0.3795702479925301,0.8174664675987188,-0.048297914906971315,2.541040165650927,-0.15566041879377449,-0.11161225365740046,-0.04207305099148902,0.3470659375268746,-1.2341074553802858,2,right
3.6010000000000004,-0.3859961089058126,0.8159412377768852,-0.047423413428457586,2.5311103650713926,-0.1636074269459772,-0.11539234273657736,-0.042648603142838436,0.34809098268253874,-1.2444694505875469,2,right
3.6069999999999998,-0.3923663999744169,0.8144604071337647,-0.04656087965209489,2.5201366569087615,-0.17182170583700973,-0.11901605918830553,-0.04324430823289489,0.3487857893679645,-1.2546783274243347,2,right
3.608,-0.3986801528638731,0.8130268526559813,-0.04571193847153249,2.508165543780922,-0.18030122755566053,-0.12247243553245465,-0.043859933029743524,0.34914867647393016,-1.2647337941253782,2,right
3.61,-0.4049363986284402,0.8116435149110882,-0.0448782051767152,2.4952440756560126,-0.1890425895994011,-0.12575109384637437,-0.04449523876882266,0.3491783749353872,-1.2746358091781333,2,right
3.611,-0.41113416046094664,0.8103133856932481,-0.044061283031314756,2.4814197880662276,-0.19804100736701266,-0.12884227705160592,-0.04514998446048937,0.3488740273871851,-1.2843845763237303,2,right
3.616,-0.4172724492779898,0.8090394946505843,-0.04326276085575374,2.4667406391000064,-0.20729030968222661,-0.1317368776735629,-0.04582393027249065,0.34823518721192115,-1.2939805393089086,2,right
3.617,-0.4233502622199201,0.8078248951133642,-0.04248421058105837,2.451254945135577,-0.21678293737347995,-0.13442646408357883,-0.04651684098916467,0.34726181698000125,-1.3034243764173867,2,right
3.62,-0.4293665840934667,0.8066726493466654,-0.041727184749121515,2.4350113152762547,-0.22650994493562218,-0.13690330423218192,-0.047228489549252864,0.345954286281034,-1.312716994808673,2,right
3.6210000000000004,-0.43532039173067766,0.8055858134566272,-0.0409932139515644,2.418058584445426,-0.23646100530012834,-0.13916038688189444,-0.04795866066425797,0.3443133689447248,-1.3218595246918832,2,right
3.6260000000000003,-0.4412106611727302,0.8045674221836591,-0.04028380421278751,2.400445745096835,-0.2466244177410687,-0.1411914403472665,-0.04870715451933836,0.34234023964847404,-1.3308533133617018,2,right
3.627,-0.44703637750724273,0.8036204738158856,-0.039600434326911745,2.3822218774936137,-0.25698711894475634,-0.14299094874924428,-0.049473790558782496,0.34003646990792374,-1.339699919123178,2,right
3.63,-0.4527965470971941,0.802747915448957,-0.03894455314927395,2.3634360785074664,-0.2675346972716334,-0.1445541657903436,-0.050258411358160636,0.3374040234457423,-1.3484011051316291,2,right
3.6310000000000002,-0.458490211850062,0.8019526288050655,-0.03831757682233049,2.344137388887509,-0.27825141023956507,-0.14587712605645106,-0.05106088658530372,0.33444525093298216,-1.3569588331734883,2,right
3.636,-0.4641164651001305,0.8012374168092593,-0.03772088589299154,2.3243747189465247,-0.2891202052582795,-0.1469566538504125,-0.05188111705231131,0.331162884096397,-1.365375257413515,2,right
3.636,-0.469674468622187,0.8006049911086399,-0.03715582226786755,2.3041967726107653,-0.3001227436452203,-0.14779036956189082,-0.05271903886084244,0.32756002918415983,-1.3736527181333675,2,right
3.64,-0.47516347026025146,0.8000579607096144,-0.036623685964205094,2.283651969777974,-0.31123942795356085,-0.1483766935772866,-0.05357462764299435,0.3236401597814898,-1.3817937354861303,2,right
3.642,-0.48058282163577976,0.7995988218968745,-0.03612573164528029,2.2627883669269537,-0.3224494326435643,-0.1487148477328183,-0.05444790290012543,0.31940710896676394,-1.389801003290974,2,right
3.645,-0.4859319953920852,0.7992299495796991,-0.035663164967145854,2.2416535759208274,-0.3337307381288541,-0.14880485431315243,-0.055338932442029226,0.31486506079777177,-1.3976773828917353,2,right
3.645,-0.4912106014340088,0.7989535901790712,-0.035237138792857794,2.2202946809450608,-0.3450601682294863,-0.1486475325972677,-0.05624783692891763,0.31001854111686006,-1.4054258971028106,2,right
3.65,-0.49641840164244805,0.7987718561194915,-0.034848749338844784,2.1987581535204317,-0.3564134310639783,-0.14824449295252384,-0.05717479451073221,0.30487240767862966,-1.4130497242558497,2,right
3.6510000000000002,-0.5015553226055753,0.7986867219321349,-0.03449903230543243,2.1770897655303183,-0.36776516341265325,-0.1475981284771955,-0.058120045518404884,0.2994318396820274,-1.4205521923127593,2,right
3.6510000000000002,-0.5066214660129117,0.7987000219234197,-0.03418895902269549,2.155334500201054,-0.379088978584794,-0.146711604191023,-0.05908389708983253,0.29370232693012327,-1.4279367729244805,2,right
3.655,-0.5116171164511694,0.7988134493061334,-0.03391943263060226,2.133536460973582,-0.3903575178221666,-0.14558884377262712,-0.060066727573433155,0.2876896589190702,-1.4352070752670363,2,right
3.655,-0.516542746388314,0.799028556613725,-0.03369128431095971,2.111738778204252,-0.40154250527146784,-0.1442345138419378,-0.06106899059215292,0.2813999140778322,-1.4423668395336058,2,right
3.659,-0.5213990181845176,0.7993467571337141,-0.03350526958491259,2.0899835136323635,-0.4126148065581667,-0.14265400578509865,-0.06209121872275491,0.2748394492371139,-1.4494199300467219,2,right
3.66,-0.5261867830721193,0.7997693270339153,-0.0333620646827065,2.0683115627071764,-0.4235444909152674,-0.14085341516112584,-0.06313402678522426,0.26801488932604617,-1.456370328001967,2,right
3.661,-0.5309070771628815,0.8002974078431618,-0.03326226299462656,2.046762555643421,-0.43430089642635344,-0.13883951894140634,-0.06419811474517007,0.2609331172785727,-1.4632221238637424,2,right
3.6639999999999997,-0.5355611146153675,0.8009320089845173,-0.03320637161678521,2.025374759471754,-0.4448526972328853,-0.13661975121491857,-0.06528427023216196,0.2536012641307045,-1.4699795094333823,2,right
3.665,-0.5401502781459376,0.8016740100917064,-0.033194807996937456,2.004184984127153,-0.4551679711613895,-0.13420217820389788,-0.06639337067699864,0.24602669928905296,-1.4766467696095888,2,right
3.67,-0.5446761071433077,0.8025241628310501,-0.03322789667479075,1.9832284948422814,-0.4652142666196013,-0.1315954732215872,-0.06752638507096678,0.2382170209503127,-1.4832282738608777,2,right
3.67,-0.549140283747617,0.8034830919416683,-0.03330586611701335,1.9625389317160225,-0.47495866831909583,-0.128808891820678,-0.0686843753502125,0.23018004665064662,-1.4897284674294586,2,right
3.674,-0.5535446173423505,0.8045512952480822,-0.0334288456616449,1.9421482365516343,-0.4843678617751869,-0.12585224716800889,-0.06986849740841372,0.22192380392323133,-1.4961518622857117,2,right
3.675,-0.5578910279610291,0.8057291424860773,-0.033596862590430675,1.9220865869043973,-0.4934081966128828,-0.1227358856380537,-0.07108000174101037,0.2134565210415434,-1.502503027852177,2,right
3.68,-0.5621815291307539,0.8070168728809188,-0.03380983933646315,1.9023823372793915,-0.50204574870682,-0.11947066261721473,-0.07232023372432161,0.20478661782531601,-1.508786581515739,2,right
3.68,-0.5664182106641166,0.8084145915021288,-0.034067590822730705,1.883061967420887,-0.5102463811821324,-0.11606791851045008,-0.07359063353295453,0.1959226964854662,-1.5150071789464723,2,right
3.685,-0.570603221870791,0.8099222644787194,-0.03436982193497814,1.864150037635779,-0.5179758043021543,-0.11253945494130577,-0.07489273569898738,0.18687353248368604,-1.5211695042413962,2,right
3.6860000000000004,-0.5747387555915955,0.8115397131924544,-0.03471612516470382,1.8456691510945182,-0.5251996342676956,-0.10889751113599706,-0.07622816831649347,0.17764806538181027,-1.5272782599112078,2,right
3.6889999999999996,-0.5788270333657339,0.8132666075835481,-0.035105978496822184,1.827639923054089,-0.5318834509513751,-0.10515474048178919,-0.07759865189505834,0.16825538965551518,-1.5333381567278688,2,right
3.6889999999999996,-0.5828702919386013,0.8151024587142109,-0.035538743639571206,1.8100809569487533,-0.5379928545891418,-0.1013241872495675,-0.07900599786603459,0.158704745446373,-1.539353903450758,2,right
3.694,-0.5868707712203775,0.8170466107473344,-0.03601366469381893,1.7930088272955145,-0.5434935214496615,-0.09741926347016194,-0.08045210674537417,0.14900550922577804,-1.5453301964489543,2,right
3.694,-0.5908307037283999,0.8190982325123929,-0.03652986733642501,1.7764380693625499,-0.5483512585006964,-0.09345372595370206,-0.08193896595697918,0.13916718434378253,-1.5512717092370614,2,right
3.698,-0.5947523054929185,0.8212563088470519,-0.03708635855360523,1.7603811755502026,-0.552532057089955,-0.08944165344102706,-0.08346864732061807,0.12919939143542572,-1.5571830819418704,2,right
3.699,-0.5986377683716554,0.8235196319168915,-0.037682026920364604,1.7448485984355218,-0.5560021456561379,-0.085397423875963,-0.0850433042085661,0.11911185865671331,-1.5630689107170392,2,right
3.702,-0.6024892536958383,0.8258867927224763,-0.038315643398640534,1.7298487604327744,-0.5587280414840654,-0.08133569178710529,-0.08666516837524556,0.10891441172200501,-1.5689337371228633,2,right
3.7030000000000003,-0.6063088871521243,0.8283561730006473,-0.038985862622634836,1.7153880700238253,-0.5606766015158202,-0.077271365767612,-0.08833654646426498,0.0986169637141967,-1.5747820374881334,2,right
3.708,-0.6100987547862091,0.8309259377149772,-0.0396912246418517,1.7014709445137801,-0.5618150722278048,-0.07321958604142143,-0.09005981619738554,0.08822950463873923,-1.5806182122709969,2,right
3.7089999999999996,-0.6138608999936455,0.8335940283083029,-0.04043015708939257,1.6880998392688167,-0.5621111385814713,-0.06919570210425778,-0.09183742225007886,0.07776209069222058,-1.5864465754356798,2,right
3.714,-0.6175973213444877,0.8363581568595299,-0.04120097773554202,1.6752752833946725,-0.5615329720532528,-0.06521525042778194,-0.09367187181848291,0.06722483321595157,-1.592271343861879,2,right
3.714,-0.6213099710746309,0.8392158012528301,-0.04200189737934195,1.6629959218158104,-0.5600492777468936,-0.061293932215280525,-0.09556572988271156,0.05662788730473584,-1.598096626803604,2,right
3.718,-0.6250007540693364,0.8421642014374588,-0.04283102302413363,1.6512585637168575,-0.5576293405889646,-0.05744759119736744,-0.0975216141716298,0.04598144004077601,-1.6039264154142154,2,right
3.718,-0.6286715271654826,0.8452003568356649,-0.0436863612760197,1.6400582373094683,-0.5542430706058321,-0.05369219145629665,-0.09954218983428031,0.035295698339344574,-1.6097645723533314,2,right
3.719,-0.6323240986155229,0.8483210249429183,-0.044565821902224016,1.6293882508893291,-0.5498610472777532,-0.050043795267655566,-0.10163016382286899,0.02458087647706297,-1.615614821485909,2,right
3.7230000000000003,-0.63596022758601,0.8515227211544864,-0.045467221495286696,1.6192402601495788,-0.544454562963081,-0.046518540948423864,-0.10378827899158728,0.013847183525386088,-1.6214807376741631,2,right
3.7239999999999998,-0.639581623581753,0.8548017198418547,-0.046388287202729896,1.6096043417184556,-0.5379956653827885,-0.04313262070064414,-0.10601930791528616,0.003104810996163142,-1.6273657366576497,2,right
3.7289999999999996,-0.6431899456758328,0.8581540566867285,-0.04732666049011741,1.6004690727635442,-0.53045719916649,-0.03990225843532963,-0.10832604643265935,-0.0076360790783242495,-1.63327306502223,2,right
3.73,-0.6467868014101859,0.8615755322573957,-0.048279900909704826,1.5918216158717386,-0.5218128465273458,-0.036843687536945634,-0.11071130691960283,-0.018365365560396082,-1.6392057902683417,2,right
3.7310000000000003,-0.6503737452385966,0.8650617167842193,-0.049245489851964454,1.5836478072729263,-0.51203716725468,-0.03397312848484479,-0.11317791129907602,-0.029072979131040826,-1.6451667909944165,2,right
3.7319999999999998,-0.6539522763985453,0.8686079560500191,-0.05022083425940657,1.5759322458420748,-0.5011056382791885,-0.0313067662238404,-0.11572868379409722,-0.039748912753849015,-1.6511587472124212,2,right
3.733,-0.6575238361011582,0.8722093782474482,-0.051203270277865046,1.5686583809505672,-0.4889946929932934,-0.028860727201238317,-0.1183664434307317,-0.05038323170961428,-1.6571841308125705,2,right
3.738,-0.6610898039385898,0.8758609015839053,-0.052190066816465035,1.5618085983815524,-0.47568176038148335,-0.026651056032544782,-0.12109399629816461,-0.0609660832323404,-1.6632451961943424,2,right
3.74,-0.6646514934488198,0.8795572423634223,-0.053178428993101996,1.5553643041601621,-0.4611453039430175,-0.02469369178329654,-0.12391412757319192,-0.07148770577730207,-1.6693439710810143,2,right
3.7430000000000003,-0.66821014684173,0.8832929232587451,-0.05416550145769121,1.5493060062776571,-0.4453648603721511,-0.023004443860021033,-0.12682959331671376,-0.08193843795168777,-1.6754822475350357,2,right
3.7439999999999998,-0.6717669289574546,0.887062281504241,-0.05514837160226924,1.5436133942897876,-0.4283210779575926,-0.021598967504013245,-0.12984311205007107,-0.09230872713820534,-1.6816615731916513,2,right
3.747,-0.6753229205865872,0.8908594767830199,-0.0561240726771686,1.5382654167708105,-0.40999575465938887,-0.02049273888234018,-0.13295735611933324,-0.10258913784185532,-1.6878832427282977,2,right
3.748,-0.6788791113275235,0.8946784986382116,-0.05708958683355106,1.5332403566057209,-0.39037187581786364,-0.019701029771253965,-0.13617494285591794,-0.11277035978987372,-1.6941482895874167,2,right
3.752,-0.6824363921876909,0.8985131732980046,-0.0580418481076673,1.5285159041042908,-0.3694336514456081,-0.019238881828009362,-0.13949842554220587,-0.12284321581461478,-1.700457477970432,2,right
3.753,-0.6859955481522012,0.9023571698592238,-0.058977745358944164,1.5240692279215151,-0.3471665530498421,-0.01912108044794067,-0.14293028419110257,-0.1327986695488866,-1.7068112951207703,2,right
3.7569999999999997,-0.6895572509448521,0.9062040058197656,-0.05989412517952381,1.5198770437699733,-0.32355734992873986,-0.019362128204556024,-0.14647291614879585,-0.1426278329629681,-1.7132099439139221,2,right
3.758,-0.6931220521930035,0.9100470519834628,-0.0607877948071019,1.515915680910489,-0.29859414488153646,-0.019976217871353345,-0.15012862653026188,-0.152321973772224,-1.7196533357726695,2,right
3.765,-0.6966903771833285,0.9138795367831252,-0.061655525091065526,1.5121611464082607,-0.2722664092684215,-0.0209772050250507,-0.15389961849738373,-0.16187252274389863,-1.7261410839257383,2,right
3.767,-0.700262519364269,0.9176945500842563,-0.06249405358082268,1.5085891871423756,-0.2445650173523697,-0.022378580230954178,-0.15778798338986458,-0.17127108093130558,-1.7326724970282477,2,right
3.767,-0.7038386357165222,0.9214850465500678,-0.06330008782178419,1.5051753495572673,-0.2154822798511741,-0.024193440812257164,-0.16179569071944194,-0.18050942686324406,-1.739246573162474,2,right
3.7680000000000002,-0.7074187430776319,0.925243848669758,-0.06407030895357306,1.5018950371452835,-0.18501197662402896,-0.026434462206175683,-0.16592457803824082,-0.18957952371605982,-1.7458619942375595,2,right
3.772,-0.7110027154734692,0.928963649572111,-0.06480137570375355,1.49872356565005,-0.15314938841306777,-0.029113868910973766,-0.17017634069243984,-0.19847352649533234,-1.7525171208069301,2,right
3.7739999999999996,-0.7145902824816729,0.9326370157600063,-0.06548992886023779,1.4956362159807703,-0.1198913275562955,-0.032243405029119744,-0.17455252147276776,-0.20718378925371056,-1.7592099873223062,2,right
3.7769999999999997,-0.7181810286334028,0.9362563899062446,-0.06613259628811226,1.492608284827983,-0.08523616758437219,-0.035834304413037685,-0.1790545001736949,-0.21570287237093602,-1.7659382978433018,2,right
3.779,-0.7217743938494101,0.9398140938474514,-0.06672599853201931,1.4896151329716127,-0.04918387160970795,-0.039897260421176424,-0.18368348307353732,-0.22402354992158707,-1.7726994222217338,2,right
3.781,-0.7253696748989752,0.9433023319034413,-0.06726675501664416,1.486632231272398,-0.0117360194123247,-0.04444239529341075,-0.18844049234804786,-0.23213881715555054,-1.7794903927798542,2,right
3.782,-0.7289660278601529,0.9467131946401082,-0.06775149083200609,1.483635204337936,0.027104166877070478,-0.04947922915611343,-0.19332635543043006,-0.24004189811567797,-1.7863079015018366,2,right
3.787,-0.7325624715468781,0.9500386631888077,-0.06817684407226873,1.4805998718546969,0.0673317986003659,-0.05501664866859169,-0.1983416943357027,-0.24772625340565704,-1.7931482977502136,2,right
3.7880000000000003,-0.7361578918590141,0.9532706142310294,-0.0685394736887286,1.4775022875773902,0.10894029800925023,-0.06106287532396562,-0.203486914990849,-0.25518558806624775,-1.8000075864804679,2,right
3.7889999999999997,-0.7397510470074182,0.9564008257532697,-0.06883606781784797,1.474318775967012,0.15192137742790893,-0.067625433418977,-0.20876219665420448,-0.26241385941970236,-1.8068814268576219,2,right
3.7910000000000004,-0.7433405735549022,0.9594209836889531,-0.06906335254597504,1.4710259664688108,0.1962650202567612,-0.07471111770865392,-0.2141674815310478,-0.26940528468727026,-1.8137651311401415,2,right
3.7910000000000004,-0.7469249931830154,0.962322689602078,-0.06921810106707013,1.467600825421218,0.2419594639367498,-0.08232596076321652,-0.2197024646695936,-0.2761543482383324,-1.8206536637351134,2,right
3.798,-0.7505027200523339,0.9650974696095459,-0.06929714318121355,1.4640206855865485,0.28899118499763493,-0.09047520004609094,-0.2253665841803071,-0.2826558084267699,-1.8275416403981344,2,right
3.799,-0.754072068589098,0.9677367847569947,-0.06929737507616625,1.4602632732939604,0.3373448863176553,-0.09916324473339984,-0.23115901179869688,-0.28890470402378116,-1.8344233275899626,2,right
3.799,-0.7576312615156354,0.9702320430500551,-0.06921576933494852,1.4563067332194735,0.38700348667652196,-0.1083936423291028,-0.23707864380748403,-0.2948963602665248,-1.8412926420097069,2,right
3.8,-0.761178437953432,0.9725746133066305,-0.06904938512082053,1.4521296510008117,0.4379481124411914,-0.1181690452929279,-0.24312409233441812,-0.3006263945412544,-1.8481431503243297,2,right
3.802,-0.7647116614586987,0.974755840945827,-0.06879537850363741,1.4477110741964887,0.4901580907842098,-0.12849117819036288,-0.24929367704237748,-0.3060907217188861,-1.8549680691142219,2,right
3.807,-0.7682289278690035,0.9767670657785472,-0.06845101289882645,1.4430305322713965,0.5436109435918064,-0.13936080603696469,-0.2555854172287561,-0.31128555916020295,-1.8617602650545628,2,right
3.8080000000000003,-0.7717281728253406,0.9785996418173847,-0.06801366958601764,1.4380680561171115,0.5982823814689645,-0.15077770434937596,-0.261997024351501,-0.3162074314071471,-1.8685122553521394,2,right
3.812,-0.7752072788069021,0.9802449590680207,-0.06748085825957827,1.432804197302282,0.6541462976957743,-0.16274063112642337,-0.268525894999519,-0.3208531745758898,-1.8752162084572066,2,right
3.813,-0.7786640815031282,0.9816944671950009,-0.06685022754312168,1.4272200470742913,0.7111747622393008,-0.17524730082381026,-0.2751691043255225,-0.3252199404665954,-1.8818639450698935,2,right
3.815,-0.7820963753542124,0.9829397008824027,-0.06611957538125589,1.4212972550979006,0.7693380159779654,-0.18829436035519806,-0.28192339995972715,-0.32930520040401073,-1.888446939460529,2,right
3.8160000000000003,-0.7855019181149835,0.9839723066477628,-0.06528685920564656,1.4150180479157073,0.8286044652988636,-0.20187736715403815,-0.288785196423152,-0.33310674882222024,-1.8949563211231288,2,right
3.821,-0.7888784343398649,0.9847840708207607,-0.06435020575563016,1.4083652471143389,0.8889406772317839,-0.2159907693320752,-0.2957505700595977,-0.33662270660610694,-1.9013828767811252,2,right
3.822,-0.7922236177464568,0.9853669483669455,-0.06330792042119719,1.401322287179328,0.9503113752869464,-0.2306278879719932,-0.30281525450569946,-0.3398515242012486,-1.9077170527642278,2,right
3.826,-0.7955351324833996,0.9857130922212496,-0.062158495978776936,1.3938732330205954,1.0126794361666427,-0.24578090159321245,-0.30997463671875763,-0.3427919845031672,-1.9139489577751005,2,right
3.827,-0.7988106133934708,0.9858148827934969,-0.0609006206094155,1.3860027971493898,1.0760058875240366,-0.2614408328313671,-0.3172237535823478,-0.3454432055360283,-1.9200683660642908,2,right
3.8310000000000004,-0.8020476654155423,0.985664957311177,-0.059533185117062105,1.3776963564864215,1.1402499069453436,-0.27759753737349524,-0.324557289109993,-0.34780464293006264,-1.9260647210315873,2,right
3.832,-0.8052438623038466,0.9852562386660565,-0.05805528929285634,1.3689399687797565,1.205368822334472,-0.2942396951924523,-0.33196957226745694,-0.34987609220615673,-1.9319271392716904,2,right
3.835,-0.8083967448620853,0.9845819634298677,-0.0564662473919644,1.3597203886098286,1.27131811388196,-0.31135480412551336,-0.33945457543446983,-0.3516576908752262,-1.9376444150817482,2,right
3.8360000000000003,-0.8115038189002862,0.9836357087070339,-0.054765592698565915,1.3500250829576794,1.3380514178026688,-0.3289291758435528,-0.34700591352694243,-0.3531499203591555,-1.94320502544796,2,right
3.84,-0.8145625531295086,0.9824114175085541,-0.05295308115497169,1.3398422463112414,1.4055205320292106,-0.3469479342585841,-0.35461684380094893,-0.3543536077392555,-1.9485971355280682,2,right
3.841,-0.8175703772150777,0.980903422365342,-0.0510286940321501,1.3291608152831509,1.4736754240504621,-0.3653950164187969,-0.3622802663599676,-0.3552699273373577,-1.9538086046461345,2,right
3.845,-0.8205246802123326,0.9791064669494028,-0.048992639630164134,1.3179704827122158,1.5424642410867675,-0.3842531759415453,-0.3699887253870566,-0.35590040213383306,-1.9588269928155502,2,right
3.847,-0.8234228096077797,0.977015725533427,-0.04684535401990673,1.306261711219261,1.6118333227955444,-0.4035039890360166,-0.37773441112381545,-0.3562469050259976,-1.9636395678057463,2,right
3.8510000000000004,-0.8262620711786669,0.974626820192673,-0.04458750086843772,1.2940257461866422,1.6817272167029733,-0.42312786316853646,-0.3855091626181289,-0.35631165992953795,-1.9682333127675444,2,right
3.852,-0.8290397298589557,0.9719358357378226,-0.042219970422681274,1.2812546281292654,1.7520886965592641,-0.44310404842464574,-0.3933044712628232,-0.35609724272477367,-1.9725949344315397,2,right
3.8539999999999996,-0.8317530117542906,0.9689393324590204,-0.03974387775013554,1.2679412044234506,1.8228587838166597,-0.46341065162320805,-0.40111148514746664,-0.35560658204875667,-1.976710871893314,2,right
3.855,-0.8343991073866064,0.9656343568414755,-0.037160560341321064,1.2540791403584775,1.8939767724308416,-0.4840246532388794,-0.4089210142396936,-0.3548429599296416,-1.9805673059941717,2,right
3.8560000000000003,-0.8369751761883718,0.9620184504530656,-0.03447157516504388,1.2396629294741084,1.9653802571877403,-0.5049219271902772,-0.4167235363827945,-0.3538100122401761,-1.9841501692830816,2,right
3.86,-0.8394783522229149,0.9580896571976152,-0.031678695242873554,1.2246879031458258,2.0370051657589223,-0.5260772635521357,-0.4245092040429035,-0.35251172891255267,-1.9874451565045514,2,right
3.861,-0.8419057510728819,0.9538465291118547,-0.028783905789600894,1.2091502393779536,2.108785794689719,-0.5474643942506139,-0.43226785170942783,-0.3509524538372972,-1.990437735534077,2,right
3.865,-0.8442544777980674,0.9492881308894424,-0.02578939995895498,1.1930469707632387,2.180654849525091,-0.5690560218017341,-0.4399890038820359,-0.34913688438687995,-1.993113158704361,2,right
3.866,-0.8465216358241836,0.9444140433164974,-0.022697574228430606,1.1763759915685519,2.2525434892213143,-0.5908238511244333,-0.44766188363091547,-0.34707007053778777,-1.9954564745049146,2,right
3.867,-0.8487043366078609,0.9392243657686488,-0.019511023444450337,1.1591360639181993,2.324381374704426,-0.6127386243142011,-0.45527542174663216,-0.34475741358282913,-1.9974525396591363,2,right
3.8689999999999998,-0.8507997099294143,0.9337197178620147,-0.016232535533721726,1.1413268230689104,2.3960967209189032,-0.6347701580007522,-0.4628182665017435,-0.34220466442846975,-1.999086031586521,2,right
3.87,-0.8528049146585002,0.9279012402992609,-0.012865085875638916,1.1229487817823811,2.46761635142251,-0.6568873827675119,-0.4702787940461882,-0.33941792147127114,-2.0003414612566983,2,right
3.8739999999999997,-0.8547171497953927,0.9217705949166396,-0.009411831323873868,1.1040033337861774,2.538865754870692,-0.6790583842572874,-0.4776451194582974,-0.33640362804680146,-2.0012031864409994,2,right
3.877,-0.8565336655376735,0.915329963909327,-0.005876103859845386,1.084492756287972,2.6097691432512513,-0.7012504458519404,-0.48490510847307133,-0.33316856944369894,-2.001655425366217,2,right
3.8789999999999996,-0.8582517740948631,0.9085820481834447,-0.0022614038554042907,1.064420211493008,2.6802495120170735,-0.7234300929602959,-0.4920463899091283,-0.32971986947489523,-2.001682270774125,2,right
3.88,-0.859868859978128,0.9015300647576535,0.001428607083676052,1.043789747070371,2.7502287023214285,-0.7455631389779058,-0.49905636881546084,-0.3260649865973549,-2.001267704389206,2,right
3.884,-0.8613823895186743,0.8941777431208661,0.005190113728775215,1.0226062955120303,2.819627465559361,-0.7676147329823512,-0.5059222403588285,-0.3222117095710524,-2.000395611795842,2,right
3.885,-0.8627899194095485,0.8865293204477867,0.009019155336146703,1.0008756723269887,2.8883655304174756,-0.7895494092277209,-0.5126310044722759,-0.31816815264729575,-1.9990497977250243,2,right
3.888,-0.8640891041158888,0.8785895355809665,0.012911634296318043,0.9786045730112912,2.9563616726329776,-0.8113311385017778,-0.5191694812848854,-0.31394275027591395,-1.9972140017493403,2,right
3.889,-0.8652777020528262,0.8703636217052884,0.01686332536820022,0.9558005687330476,3.023533787661161,-0.8329233814090812,-0.5255243273524596,-0.309544251320256,-1.9948719143837148,2,right
3.8939999999999997,-0.8663535804852743,0.8618572976646086,0.020869885535770964,0.9324721006700604,3.089798966448636,-0.8542891436430042,-0.5316820527083801,-0.3049817127684042,-1.9920071935879908,2,right
3.8960000000000004,-0.8673147191595498,0.8530767578960662,0.024926864516585136,0.9086284729360904,3.1550735745074463,-0.8753910333091371,-0.5376290387533946,-0.300264492928482,-1.9886034816660474,2,right
3.898,-0.8681592127321285,0.8440286609815127,0.02902971593472526,0.8842798440302727,3.2192733344828794,-0.8961913203620274,-0.5433515570025605,-0.29540224409543925,-1.984644422554689,2,right
3.8989999999999996,-0.8688852721118536,0.8347201168367607,0.03317380914228927,0.8594372167426855,3.2823134124051387,-0.9166519982165543,-0.5488357887070048,-0.2904049046762292,-1.9801136794940437,2,right
3.903,-0.8694912248739709,0.8251586725795333,0.03735444163522977,0.8341124264475954,3.3441085078122192,-0.9367348475944756,-0.5540678453675538,-0.2852826907598467,-1.9749949530696544,2,right
3.903,-0.8699755149351658,0.8153522971372352,0.04156685196936676,0.8083181277144591,3.40457294792823,-0.9564015026658187,-0.5590337901566452,-0.2800460871182802,-1.9692719996148575,2,right
3.908,-0.8703367016980617,0.8053093646762023,0.04580623305135848,0.7820677791653361,3.463620786078078,-0.9756135195438136,-0.5637196602642434,-0.27470583762404427,-1.9629286499603935,2,right
3.909,-0.8705734588805238,0.795038636956125,0.05006774566558672,0.7553756265059941,3.5211659045158514,-0.9943324471909744,-0.5681114901827609,-0.2692729350695999,-1.9559488285165165,2,right
3.9130000000000003,-0.8706845732374271,0.7845492447372266,0.054346532100819266,0.7282566836566313,3.5771221218404166,-1.0125199007927472,-0.5721953359452209,-0.263758610373643,-1.9483165726711222,2,right
3.9139999999999997,-0.8706689433603529,0.7738506683902165,0.058637729749197905,0.7007267119068376,3.631403305167661,-1.0301376376538298,-0.5759573003300927,-0.25817432115894323,-1.9400160524856382,2,right
3.918,-0.8705255787093935,0.7629527178742409,0.06293648455276363,0.6728021970181475,3.683923487224528,-1.0471476356708564,-0.5793835590453855,-0.25253173968615017,-1.9310315906685922,2,right
3.918,-0.8702535989978423,0.751865512252428,0.06723796416870403,0.6445003241963142,3.7345969885253814,-1.0635121744336136,-0.5824603879037026,-0.24684274012775034,-1.9213476828048976,2,right
3.9219999999999997,-0.8698522340180397,0.7405994589088019,0.07153737072249272,0.6158389508542519,3.783338544786474,-1.0791939190053137,-0.5851741909990346,-0.24111938516615783,-1.9109490178169766,2,right
3.923,-0.8693208239649646,0.7291652326155491,0.07582995302557642,0.5868365770854655,3.830063439729193,-1.0941560064307136,-0.587511529860415,-0.23537391191493565,-1.8998204986355915,2,right
3.924,-0.868658820285298,0.7175737545736736,0.0801110181535123,0.557512313766702,3.874687643417482,-1.1083621350190052,-0.5894591533831192,-0.22961871723791383,-1.887947263074804,2,right
3.928,-0.867865787057543,0.7058361715163293,0.08437594230653087,0.5278858482075262,3.9171279562692707,-1.121776656446451,-0.5910040280248495,-0.2238663426774982,-1.8753147049368382,2,right
3.929,-0.866941402893007,0.6939638349405671,0.08862018089452627,0.49797740726354683,3.9573021588759647,-1.1343646707216684,-0.5921333675798276,-0.2181294592793033,-1.861908495389088,2,right
3.932,-0.865885463333985,0.6819682805295161,0.09283927779676132,0.4678077178946774,3.995129167575369,-1.1460921239196071,-0.5928346620160371,-0.21242085252431248,-1.8477146046348136,2,right
3.9330000000000003,-0.8646978837146999,0.6698612078243512,0.0970288737544453,0.4373979654768687,4.03052919480396,-1.156925907914567,-0.5930957051718978,-0.20675340744315085,-1.8327193238634747,2,right
3.9339999999999997,-0.8633787024442673,0.6576544601878211,0.10118471387059115,0.4067697507651925,4.063423911604157,-1.1668339601280473,-0.5929046212808999,-0.20114009391119905,-1.8169092874458734,2,right
3.938,-0.8619280846631361,0.645360005081846,0.10530265420968819,0.3759450467333249,4.093736608742324,-1.1757853606313213,-0.5922498903261868,-0.19559395210817565,-1.8002714953332979,2,right
3.94,-0.8603463262090402,0.6329899146747633,0.1093786675031526,0.3449461561858705,4.121392353799448,-1.1837504246134942,-0.5911203722258106,-0.19012807812593557,-1.782793335617564,2,right
3.943,-0.8586338578094416,0.6205563467903795,0.11340884797722062,0.31379567044909,4.146318143232986,-1.1907007894353223,-0.5895053298480873,-0.18475560970838684,-1.7644626072065108,2,right
3.944,-0.8567912494025897,0.6080715261988582,0.11738941533000359,0.2825164291171119,4.168443049314184,-1.1966094961597593,-0.5873944508551464,-0.17948971210762157,-1.7452675425671194,2,right
3.948,-0.8548192144881712,0.5955477262324753,0.12131671789573618,0.251131480764625,4.187698362020129,-1.20145106558205,-0.5847778683714063,-0.17434356404058726,-1.7251968304860261,2,right
3.949,-0.852718614430864,0.5829972507008228,0.12518723505462603,0.2196640445366142,4.2040177259520135,-1.2052015687792812,-0.5816461804723155,-0.1693303437308927,-1.704239638794741,2,right
3.952,-0.8504904626772989,0.5704324160878718,0.12899757897701794,0.18813747252533192,4.217337272343005,-1.2078386921963051,-0.5779904684872718,-0.16446321502065017,-1.6823856370044075,2,right
3.9530000000000003,-0.8481359288682269,0.5578655340326738,0.13274449581116082,0.15657521284439466,4.227595746210904,-1.2093417972818963,-0.5738023141091848,-0.15975531353759834,-1.6596250187924215,2,right
3.958,-0.8456563428129383,0.5453088941153935,0.1364248664154533,0.12500077330965773,4.2347346287023235,-1.2096919746858672,-0.5690738153016655,-0.15521973290313237,-1.6359485242806822,2,right
3.9589999999999996,-0.8430531982537213,0.532774746981857,0.14003570670456703,0.09343768563635085,4.238698254666537,-1.2088720930246724,-0.563797600993321,-0.1508695109672882,-1.6113474620426735,2,right
3.963,-0.8403281563096917,0.5202752878379446,0.14357416764430467,0.061909470061855605,4.239433925488318,-1.20686684221978,-0.5579668445471095,-0.146717616057184,-1.5858137307739706,2,right
3.965,-0.8374830484682085,0.5078226403316582,0.1470375349066111,0.030439600303470083,4.236892017200178,-1.2036627714097794,-0.5515752759911527,-0.1427769332259176,-1.5593398405581376,2,right
3.968,-0.8345198789928915,0.49542884082494315,0.15042322819028472,-0.0009485312394606106,4.231026083885269,-1.1992483214338372,-0.5446171929958349,-0.1390602504894511,-1.5319189336573238,2,right
3.969,-0.8314408266362737,0.4831058230492438,0.15372880022466184,-0.032231648129569794,4.221792956372954,-1.1936138518807091,-0.537087470580425,-0.1355802450395824,-1.503544804754197,2,right
3.971,-0.8282482455728375,0.4708654031411517,0.15695193549414221,-0.06338662447200465,4.209152836219643,-1.1867516626940835,-0.5289815695308494,-0.13234946942171186,-1.4742119205691393,2,right
3.972,-0.824944665495509,0.45871926506413707,0.1600904487366369,-0.09439051952159135,4.193069384957962,-1.178656010321549,-0.520295543508613,-0.12938033766675297,-1.4439154387739233,2,right
3.977,-0.8215327908424822,0.4466789464345076,0.16314228326769425,-0.12522061240644813,4.173509808587625,-1.1693231183909878,-0.5110260448292302,-0.12668511136721788,-1.4126512261203443,2,right
3.978,-0.8180154991405275,0.4347558247805802,0.166105509162312,-0.15585443705749677,4.15044493727165,-1.1587511828946646,-0.5011703288868706,-0.12427588568822297,-1.3804158756995342,2,right
3.9810000000000003,-0.8143958384612162,0.42296110427070077,0.16897832129646234,-0.18626981743288942,4.123849300191599,-1.1469403718577516,-0.49072625720025814,-0.12216457530491154,-1.3472067232449099,2,right
3.9819999999999998,-0.8106770239835376,0.4113058029468154,0.17175903722558752,-0.21644490312586936,4.093701195505636,-1.1338928194644693,-0.4796922990531912,-0.12036290025857697,-1.3130218623889416,2,right
3.987,-0.8068624336433092,0.39980074049744346,0.17444609487243615,-0.2463582054440204,4.059982755343061,-1.1196126146114784,-0.46806753170136506,-0.11888237172459079,-1.2778601587811262,2,right
3.988,-0.8029556028370173,0.3884565266000532,0.1770380500150512,-0.27598863404723323,4.022680005758876,-1.1041057838545933,-0.4558516391154902,-0.1177342776860959,-1.2417212629717624,2,right
3.991,-0.7989602181472095,0.3772835498586804,0.17953357359847055,-0.30531553423102764,3.981782921561748,-1.0873802687113465,-0.4430449092290075,-0.11692966850831389,-1.2046056219633232,2,right
3.992,-0.7948801100734191,0.3662919673577741,0.18193144892659754,-0.3343187249411178,3.937285475918461,-1.0694458972783933,-0.42964822965700433,-0.11647934240923749,-1.1665144893284132,2,right
3.9930000000000003,-0.7907192447793738,0.3554916948478381,0.1842305688098546,-0.3629785376042966,3.8891856846276855,-1.050314350119227,-0.41566308188484985,-0.1163938308289684,-1.127449933828246,2,right
3.998,-0.7864817148885859,0.3448923975712553,0.1864299327416881,-0.39127585585984404,3.837485644945558,-1.0299991203741774,-0.4010915340914277,-0.11668338372861944,-1.0874148466515487,2,right
3.9989999999999997,-0.7821717293686046,0.33450348172729766,0.18852864415793216,-0.4191921562747358,3.782191568835235,-1.0085154680411965,-0.38593623307264874,-0.1173579549005274,-1.046412947730781,2,right
4.002,-0.7777936025482813,0.32433408656769724,0.19052590781182616,-0.4467095501249424,3.7233138105022645,-0.9858803683725023,-0.3702003958972921,-0.11842718740024308,-1.0044487917785327,2,right
4.002,-0.7733517423224161,0.31439307711032716,0.19242102728163007,-0.47381082632407034,3.6608668880672464,-0.962112454328751,-0.35388780175748485,-0.11990039918416931,-0.9615277744954073,2,right
4.004,-0.7688506376079326,0.3046890374538378,0.1942134026131853,-0.5004794955156288,3.594869499248717,-0.9372319531509056,-0.3370027841719559,-0.12178656898801246,-0.9176561390581395,2,right
4.006,-0.764294845113098,0.29523026466801366,0.19590252808456898,-0.5266998350246948,3.525344531077609,-0.9112606177158769,-0.31955022353047857,-0.12409432245467383,-0.8728409828051585,2,right
4.007,-0.7596889754667376,0.28602476322670983,0.19748799006882167,-0.5524569337886945,3.4523190639400836,-0.8842216544353695,-0.30153553993264987,-0.12683191851583217,-0.827090263996312,2,right
4.01,-0.755037678740936,0.2770802399434525,0.19896946496385196,-0.5777367360664097,3.3758243703940716,-0.8561396500633902,-0.28296468627250987,-0.13000723603265457,-0.7804128085207318,2,right
4.011,-0.7503456293981868,0.26840409936121357,0.20034671715486527,-0.6025260830424001,3.2958959090360067,-0.8270404991655244,-0.2638441415188769,-0.13362776070228302,-0.7328183164241199,2,right
4.02,-0.7456175106992841,0.26000343953715566,0.20161959697963586,-0.6268127520175634,3.2125733133985004,-0.7969513329034225,-0.24418090413965982,-0.1377005722379779,-0.6843173681240402,2,right
4.021,-0.7408579986157934,0.2518850481524987,0.20278803868353798,-0.650585493194555,3.1259003756910277,-0.7659004491757264,-0.22398248561681225,-0.14223233183205639,-0.6349214301791488,2,right
4.022,-0.736071745302525,0.24405539886860622,0.2038520583724526,-0.6738340641292524,3.035925025154098,-0.7339172440318986,-0.20325690399701576,-0.14722926991204194,-0.5846428604756572,2,right
4.023,-0.7312633622037719,0.23652064784379528,0.2048117519882855,-0.6965492619180098,2.9426993007876394,-0.7010321442725758,-0.18201267742162067,-0.1526971742017393,-0.5334949126917231,2,right
4.026,-0.726437402889231,0.22928663032282615,0.20566729333909534,-0.7187229531889751,2.8462793182047124,-0.6672765411473125,-0.16025881757783736,-0.1586413781002667,-0.4814917398978946,2,right
4.027,-0.7215983457362881,0.22235885721526458,0.2064189322141751,-0.7403481019642327,2.746725230352193,-0.6326827250578992,-0.13800482301165712,-0.165066749393413,-0.4286483971491981,2,right
4.031000000000001,-0.716750576593015,0.21574251159242683,0.20706699260701128,-0.7614187954580147,2.6441011818307274,-0.5972838211728512,-0.11526067224149295,-0.17197767931303884,-0.37498084292196776,2,right
4.032,-0.711898371572553,0.2094424450555248,0.20761187105722465,-0.7819302678746585,2.538475256537106,-0.5611137258561687,-0.09203681661006784,-0.1793780719616083,-0.3205059392460567,2,right
4.035,-0.7070458801448405,0.20346317395707816,0.20805403510557302,-0.8018789222684263,2.429919418343194,-0.5242070438110613,-0.06834417281064233,-0.18727133412031935,-0.2652414503806594,2,right
4.0360000000000005,-0.7021971087019662,0.1978088754891971,0.20839402183574776,-0.821262350525705,2.3185094445167627,-0.48659902583701553,-0.04419411502226561,-0.1956603654606941,-0.20920603987960956,2,right
4.042,-0.6973559047743517,0.19248338368289203,0.20863243645909682,-0.8400793515285007,2.2043248515809326,-0.4483255070963747,-0.019598466587358216,-0.2045475491808962,-0.15241926588969942,2,right
4.043,-0.6925259420660825,0.1874901853931334,0.20876995088842945,-0.8583299475565328,2.0874488133005475,-0.40942284578448424,0.005430508836412275,-0.21393474308945643,-0.09490157452330042,2,right
4.045,-0.6877107064619205,0.18283241637800884,0.20880730224625696,-0.8760153989836076,1.9679680704755962,-0.36992786209544115,0.030880116719313427,-0.22382327116051123,-0.0366742911443531,2,right
4.046,-0.6829134831399306,0.17851285761608354,0.2087452912627534,-0.8931382173223272,1.8459728322138353,-0.3298777773735764,0.05673724176841858,-0.23421391558608878,0.022240390595363396,2,right
4.052,-0.6781373449062829,0.17453393203642237,0.20858478053703589,-0.9097021766695651,1.7215566683470542,-0.2893101533389923,0.08298835877404002,-0.245106909352412,0.08181942213486915,2,right
4.052,-0.6733851418536501,0.17089770185073747,0.20832669264911635,-0.9257123236035212,1.5948163926479335,-0.24826283127377727,0.10961954426680647,-0.2565019293686276,0.14203891596475235,2,right
4.055,-0.6686594924271589,0.1676058666710967,0.2079720081035142,-0.9411749855815518,1.465851936497244,-0.20677387105392464,0.1366164890596363,-0.2683980901778113,0.20287416433926572,2,right
4.056,-0.6639627759558234,0.16465976257096246,0.20752176305902317,-0.9560977778863711,1.3347662126441722,-0.16488148991049795,0.16396451174998902,-0.280793938281541,0.26429966091085366,2,right
4.059,-0.6592971266715966,0.1620603622079424,0.20697704677433634,-0.9704896091666283,1.2016649686959062,-0.12262400080220587,0.19164857325886842,-0.2936874471107707,0.32628912546005134,2,right
4.06,-0.6546644291988263,0.15980827608083753,0.2063389987020677,-0.9843606856163,1.0666566299662175,-0.08003975028028311,0.2196532924458981,-0.3070760126602953,0.3888155318053016,2,right
4.061,-0.6500663154653735,0.15790375494984055,0.20560880519747082,-0.9977225138357828,0.929852131306691,-0.03716705572541347,0.24796296264978326,-0.3209564497211201,0.45185113852811004,2,right
4.064,-0.6455041629700778,0.15634669341310486,0.2047876958556797,-1.0105879024160558,0.791364737538477,0.005955858164616447,0.27656156866061127,-0.3353249884945432,0.5153675213391096,2,right
4.066,-0.6409790943317758,0.15513663460166052,0.20387693954376504,-1.0229709622857817,0.6513098520969578,0.04929092375878369,0.30543280344035045,-0.3501772712887689,0.5793356054613259,2,right
4.07,-0.6364919780332574,0.15427277592209265,0.20287784024859917,-1.0348871058011715,0.5098048138583144,0.09280029578006331,0.3345600840997954,-0.3655083490846924,0.6437256968592169,2,right
4.071000000000001,-0.6320434302684184,0.15375397575142535,0.2017917328956126,-1.0463530442640607,0.36696868392087345,0.1364464170724389,0.36392656698486225,-0.3813126779108315,0.7085075119549075,2,right
4.072,-0.6276338178118208,0.1535787609805017,0.20061997928770164,-1.0573867830249464,0.2229220273653119,0.1801920836036219,0.39351516191693575,-0.3975841150531814,0.7736502059251562,2,right
4.0760000000000005,-0.6232632618449214,0.153745335295486,0.19936396428834133,-1.068007613033447,0.07778669682236068,0.2240005070037549,0.4233085456709055,-0.4143159151440209,0.8391223997639647,2,right
4.077,-0.6189316426799808,0.15425158806592823,0.19802509235204158,-1.0782360979903125,-0.06831437713589641,0.26783537339692653,0.4532891747752181,-0.4315007261750588,0.9048922062968631,2,right
4.081,-0.6146386053266871,0.1550951036870898,0.1966047844758664,-1.0880940567811757,-0.21525738702420677,0.3116608981036977,0.4834392977189064,-0.4491305854816509,0.9709272553339413,2,right
4.082,-0.6103835658530593,0.15627317122568446,0.195104475594365,-1.0976045411640138,-0.36291784094674173,0.3554418762491794,0.5137409666511477,-0.46719691574613553,1.0371947181496435,2,right
4.084,-0.606165718494306,0.15778279424091332,0.1935256123847248,-1.1067918087397488,-0.5111707469935413,0.39914372940251125,0.5441760486594381,-0.4856905210696398,1.1036613314781931,2,right
4.084,-0.601984043453959,0.15962070068447534,0.19186965141433918,-1.1156812912343557,-0.6598907899526696,0.44273254837356313,0.5747262367129597,-0.5046015831629826,1.1702934212142801,2,right
4.0889999999999995,-0.597837315322322,0.1617833528167365,0.1901380575574387,-1.1242995581198523,-0.808952500762003,0.48617513229255704,0.6053730603581466,-0.5239196577085552,1.2370569260093074,2,right
4.091,-0.5937241120156185,0.16426695710871714,0.1883323026239835,-1.132674275600618,-0.9582304191262704,0.5294390240980803,0.6360978962538457,-0.5436336709462841,1.3039174209540627,2,right
4.093,-0.5896428241233526,0.16706747412898906,0.18645386416949414,-1.1408341609906363,-1.1075992497263094,0.5724925425586369,0.6668819786337925,-0.5637319165379828,1.370840141539163,2,right
4.093999999999999,-0.5855916645456003,0.17018062843745532,0.18450422447682757,-1.1488089325064774,-1.2569340124484818,0.6153048109524669,0.6977064097844041,-0.584202052765561,1.4377900080849875,2,right
4.099,-0.5815686783061831,0.17360191852016962,0.1824848697138538,-1.1566292545001426,-1.4061101870628157,0.6578457825298493,0.7285521706261113,-0.605031100119702,1.5047316508330986,2,right
4.1,-0.5775717524400958,0.17732662679989342,0.1803972892739964,-1.164326678155275,-1.5550038527787007,0.7000862628815064,0.7594001314866248,-0.6262054393367159,1.5716294358913239,2,right
4.104,-0.5735986258715143,0.18134982974918032,0.17824297530126662,-1.1719335776697113,-1.703491823106867,0.7419979293360309,0.7902310631546444,-0.647710809942349,1.638447492224757,2,right
4.105,-0.5696468992183925,0.18566640812052396,0.17602342239037516,-1.1794830819469087,-1.851451776455926,0.783553347508481,0.8210256483025815,-0.6695323093623529,1.7051497398848974,2,right
4.1080000000000005,-0.565714044476694,0.19027105729441912,0.17374012744069348,-1.1870090018184294,-1.9987623828909364,0.8247259851214308,0.8517644933668721,-0.691654392660614,1.7716999196690442,2,right
4.109,-0.5617974145488873,0.19515829773280172,0.17139458963579915,-1.1945457528194074,-2.145303427480303,0.865490223218816,0.8824281409744068,-0.7140608729665882,1.8380616244018027,2,right
4.114,-0.5578942525876925,0.20032248551304077,0.16898831051995528,-1.2021282735387573,-2.290955930655791,0.9058213648918958,0.9129970830035019,-0.7367349226546954,1.9041983320302545,2,right
4.114,-0.5540017011285157,0.205757822906853,0.16652279414674412,-1.2097919395658177,-2.435602266008586,0.9456956416355539,0.9434517743676731,-0.7596590753391916,1.9700734407238885,2,right
4.119,-0.5501168109838173,0.21145836896000866,0.1639995472809288,-1.2175724730551594,-2.5791262759421145,0.98509021745199,0.9737726476102587,-0.7828152287488462,2.035650306169852,2,right
4.12,-0.5462365498723886,0.21741805002336057,0.16142007964302924,-1.2255058479314138,-2.721413385599789,1.0239831908176122,1.0039401283976672,-0.8061846485465267,2.100892281253443,2,right
4.123,-0.5423578107588389,0.22363067018322969,0.158785904197065,-1.2336281907562143,-2.8623507154829646,1.0623535946276284,1.0339346519986936,-0.8297479731595062,2.1657627583129964,2,right
4.123,-0.5384774198843139,0.23008992153828234,0.15609853749167585,-1.241975677279681,-3.001827193171163,1.100181394231458,1.063736680836968,-0.8534852196869734,2.23022521415748,2,right
4.128,-0.534592144478461,0.2367893942699295,0.15335950006915358,-1.2505844246993163,-3.1397336645530736,1.1374474836706518,1.093326723203156,-0.8773757909518393,2.2942432580341388,2,right
4.129,-0.5306987001543688,0.24372258645482642,0.15057031695524908,-1.259490379649723,-3.275963004972966,1.174133680229501,1.1226853531682717,-0.9013984837525653,2.357780682610971,2,right
4.13,-0.5267937579989961,0.25088291357432063,0.14773251823731282,-1.2687292019472016,-3.410410230692964,1.2102227174069669,1.1517932315150803,-0.9255314983116303,2.4208015174301765,2,right
4.133,-0.5228739513781018,0.25826371768696604,0.14484763973214526,-1.278336144114036,-3.542972611067114,1.2456982364169435,1.1806311271010763,-0.9497524488103908,2.4832700831939944,2,right
4.1339999999999995,-0.5189358824807955,0.2658582762385716,0.1419172237401984,-1.288345926708128,-3.6735497818183678,1.280544776322209,1.2091799378420283,-0.9740383748408652,2.5451510446354915,2,right
4.138999999999999,-0.5149761286384656,0.27365981048386095,0.13894281988101395,-1.298792609643448,-3.8020438596083754,1.3147477628992277,1.2374207107281894,-0.9983657536648907,2.606409460332856,2,right
4.141,-0.510991248459119,0.28166149349270897,0.13592598600553654,-1.3097094604820614,-3.9283595571039553,1.3482934962968145,1.265334660687385,-1.0227105132786558,2.667010828917612,2,right
4.141,-0.5069777878161966,0.28985645772072255,0.13286828918172208,-1.3211288221092983,-4.052404295973297,1.3811691374915827,1.2929031883321829,-1.0470480463404008,2.726921131732953,2,right
4.1419999999999995,-0.5029322857307059,0.2982378021330051,0.1297713067488941,-1.3330819829991145,-4.174088314258378,1.4133626935088592,1.3201078966722346,-1.0713532250311197,2.7861068721180953,2,right
4.143,-0.49885128019430364,0.3067985988738768,0.12663662743444304,-1.3455990524838122,-4.293324765544437,1.444863001408248,1.3469306068719396,-1.0956004169181495,2.844535111492674,2,right
4.147,-0.4947313139889022,0.3155318994779343,0.12346585252603615,-1.3587088420140792,-4.410029809105912,1.475659711089396,1.3733533731325855,-1.1197635018915042,2.9021735024132127,2,right
4.148,-0.4905689405555051,0.3244307406249355,0.12026059709480695,-1.3724387526026005,-4.5241226911821055,1.5057432670039477,1.39935849677708,-1.1438158902427256,2.9589903187716247,2,right
4.1530000000000005,-0.4863607299547689,0.3334881494513669,0.11702249126786243,-1.3868146684872649,-4.635525817724927,1.535104888864154,1.424928539614288,-1.1677305419558437,3.0149544833035216,2,right
4.154,-0.4821032749516747,0.34269714844120025,0.11375318154751494,-1.4018608570516815,-4.744164818953808,1.5637365514365893,1.4500463366588434,-1.1914799872798103,3.0700355925718394,2,right
4.158,-0.47779319724969455,0.3520507599251165,0.11045433216879354,-1.4175998750425085,-4.849968606045378,1.5916309635073747,1.4746950082811048,-1.2150363486514397,3.1242039395889374,2,right
4.159,-0.4734271538954152,0.3615420102210477,0.10712762647922078,-1.4340524811249415,-4.952869420277766,1.6187815461032449,1.4988579718606698,-1.2383713640374978,3.177430534237875,2,right
4.163,-0.46900184387125343,0.37116393344973025,0.10377476831828815,-1.451237554819638,-5.052802874941481,1.6451824100506889,1.522518953015573,-1.261456411764107,3.229687121651034,2,right
4.164,-0.46451401489130417,0.38090957505762296,0.10039748336866831,-1.4691720218663313,-5.149707990320647,1.6708283329532838,1.5456619964779386,-1.284262536901077,3.2809461987016344,2,right
4.168,-0.45996047041330307,0.3907719950766227,0.09699752044589309,-1.4878707860614426,-5.243527222040089,1.69571473566521,1.5682714766854653,-1.3067604792681327,3.331181028760993,2,right
4.169,-0.45533807687642713,0.4007442711461618,0.09357665268634173,-1.507346667619093,-5.334206483065196,1.7198376583367732,1.5903321081566835,-1.328920703129297,3.3803656548715777,2,right
4.171,-0.45064377116877247,0.4108195013192313,0.09013667858446683,-1.527610348107069,-5.421695159632841,1.7431937361056,1.6118289557164327,-1.3507134286408813,3.428474911483061,2,right
4.172,-0.44587456832003486,0.42099080667083577,0.08667942282226497,-1.5486703220114906,-5.505946121382737,1.7657801745049935,1.632747444636479,-1.3721086651176466,3.475484434895625,2,right
4.177,-0.4410275694044419,0.4312513337261027,0.08320673683141652,-1.5705328549861437,-5.586915725949636,1.7875947246587338,1.6530733707546126,-1.3930762461807378,3.521370672551755,2,right
4.178,-0.43609996962691266,0.44159425672495756,0.07972049903236957,-1.593201948844719,-5.664563818267593,1.8086356583294203,1.6727929106339505,-1.4135858668499268,3.5661108913146804,2,right
4.1819999999999995,-0.4310890665536547,0.45201277973967524,0.07622261470231322,-1.6166793133564625,-5.73885372482823,1.828901742885228,1.6918926318225076,-1.433607122641562,3.6096831848684534,2,right
4.183,-0.4259922684384001,0.462500138660906,0.07271501543318871,-1.6409643449080515,-5.809752243125528,1.8483922162477495,1.7103595032713939,-1.453109550732396,3.6520664803714347,2,right
4.187,-0.4208071025872665,0.47304960306868776,0.06919965815267037,-1.6660541120968297,-5.877229626510111,1.8671067618813604,1.728180905968264,-1.472062673248143,3.6932405444916685,2,right
4.188,-0.41553122369855305,0.4836544780084395,0.0656785236978205,-1.691943348322834,-5.941259564666383,1.8850454838823254,1.7453446438408522,-1.490436042734219,3.7331859889492773,2,right
4.191,-0.41016242210823645,0.49430810569696204,0.06215361495236229,-1.7186244514493796,-6.001819159916121,1.9022088822236365,1.76183895498362,-1.5081992898646153,3.7718842756875754,2,right
4.191,-0.40469863186773186,0.5050038671885411,0.058626954580270806,-1.7460874906042618,-6.058888899542312,1.9185978282093468,1.777652523258686,-1.5253221734432991,3.809317721791157,2,right
4.197,-0.3991379385796001,0.5157351840349694,0.055100582406266606,-1.7743202201959356,-6.112452624317125,1.9342135401899296,1.7927744903203209,-1.541774632750852,3.8454695042656604,2,right
4.198,-0.39347858692114324,0.5264955199744694,0.05157655250356646,-1.8033081012212977,-6.162497493407937,1.9490575595879769,1.8071944680868257,-1.5575268422165924,3.880323664759838,2,right
4.199,-0.3877189877946821,0.5372783826832603,0.04805693004678533,-1.8330343299439391,-6.2090139458253475,1.9631317272813125,1.8209025515639683,-1.5725492680410278,3.9138651141544125,2,right
4.2010000000000005,-0.38185772505374216,0.5480773256209909,0.04454378797579239,-1.8634798740239402,-6.251995658567017,1.976438160388394,1.8338893317103186,-1.5868127257551223,3.9460796366639483,2,right
4.202,-0.3758935617614602,0.5588859499983251,0.041039203507290116,-1.894623516182449,-6.291439501601061,1.9889792294986417,1.8461459079151212,-1.600288437347285,3.976953892941753,2,right
4.207,-0.3698254459393072,0.5696979068932003,0.03754525453337174,-1.9264419054863957,-6.327345489822631,2.0007575363881314,1.8576638997749844,-1.612948086940457,4.006475421826552,2,right
4.207,-0.36365251576558616,0.5805068995428665,0.03406401595297856,-1.9589096163407624,-6.359716732107152,2.011775892258886,1.8684354580654436,-1.624763874635931,4.034632640640424,2,right
4.208,-0.3573741041886062,0.5913066858398874,0.030597555981785627,-1.9919992151292312,-6.388559377600286,2.022037296551857,1.8784532749190543,-1.6357085684918358,4.061414844096155,2,right
4.211,-0.35098974292677526,0.6020910810596445,0.02714793247629885,-2.0256813337030417,-6.4138825595083615,2.031544916451819,1.887710593243083,-1.645755554672596,4.086812201898811,2,right
4.212,-0.3444991658338132,0.6128539608457676,0.02371718929399164,-2.059924747582455,-6.435698336883806,2.040302067326782,1.8962012154077255,-1.6548788858032495,4.110815755122366,2,right
4.216,-0.33790231161296236,0.6235892644793471,0.020307352700763236,-2.094696455994061,-6.454021635023714,2.048312194412655,1.9039195112336156,-1.663053327560011,4.133417411438333,2,right
4.217,-0.33119932587296674,0.6342909984556625,0.016920427833592697,-2.1299617616118103,-6.468870184955851,2.0555788559814387,1.9108604253052106,-1.6702544035258835,4.154609939269309,2,right
4.221,-0.3243905625325844,0.6449532403870611,0.013558395226402176,-2.1656843492085436,-6.480264462235385,2.06210570810248,1.917019483634423,-1.6764584383374734,4.174386960936398,2,right
4.2219999999999995,-0.31747658459787287,0.6555701432431826,0.01022320740600908,-2.201826363169251,-6.488227625131775,2.067896491033871,1.9223927996966663,-1.6816425991464428,4.192742944865403,2,right
4.225,-0.310458164353189,0.6661359399303145,0.006916785562127483,-2.2383484839672856,-6.492785452248533,2.072955017264879,1.926977079859244,-1.6857849354162284,4.209673196912675,2,right
4.226,-0.303336283018132,0.6766449482011099,0.003641016293237789,-2.275210003706069,-6.493966279608625,2.077285161228164,1.9307696282197655,-1.6888644170718088,4.2251738508674075,2,right
4.231,-0.29611212992643604,0.6870915758763786,0.0003977484316884391,-2.3123689008300397,-6.491800937228451,2.0808908506984243,1.9337683508700196,-1.690860971017356,4.239241858183096,2,right
4.232,-0.2887871012805721,0.6974703263531195,-0.0028112100426528285,-2.349781914109667,-6.48632268519357,2.0837760598920165,1.9359717595984667,-1.6917555160336348,4.251874976986802,2,right
4.236000000000001,-0.28136279853012075,0.7077758043660477,-0.00598409498282983,-2.3874046160063367,-6.477567149239604,2.08594480427999,1.9373789750422428,-1.6915299960639478,4.263071760410732,2,right
4.237,-0.2738410264140369,0.7180027219624446,-0.009119188925048965,-2.4251914855237606,-6.4655722558321935,2.087401137124908,1.9379897292972847,-1.69016741189432,4.272831544286551,2,right
4.242,-0.2662237906962688,0.7281459046420151,-0.012214823780686907,-2.4630959806532995,-6.450378166730324,2.0881491477497516,1.9378043679929053,-1.6876518512304568,4.281154434238713,2,right
4.243,-0.25851329561021363,0.7382002976044401,-0.01526938334100364,-2.5010706105211664,-6.43202721300798,2.088192961545145,1.9368238518348615,-1.6839685171707919,4.288041292208972,2,right
4.245,-0.2507119410114363,0.7481609720386665,-0.018281305566114743,-2.5390670073459782,-6.41056382849973,2.087536741719095,1.9350497576186674,-1.6791037550716736,4.293493722440109,2,right
4.246,-0.242822319223016,0.7580231313832446,-0.02124908463184063,-2.5770359983154316,-6.3860344826267,2.0861846927913987,1.9324842787126253,-1.67304507779743,4.297514056942799,2,right
4.249,-0.23484721154708157,0.7677821174890379,-0.024171272712483986,-2.6149276774910946,-6.358487612550296,2.084141065832861,1.92913022500776,-1.665781189344706,4.3001053404653895,2,right
4.25,-0.2267895844110525,0.7774334166236899,-0.027046481485561838,-2.652691477850359,-6.32797355459214,2.0814101654474437,1.9249910223295656,-1.6573020068270694,4.301271314982265,2,right
4.255,-0.21865258511728294,0.7869726652686175,-0.029873383355972758,-2.690276243574528,-6.294544474849848,2.0779963584934635,1.9200707113041977,-1.6475986808024543,4.301016403712363,2,right
4.256,-0.21043953716943317,0.7963956556717144,-0.03265071240909949,-2.7276303026917694,-6.258254298929609,2.0739040845379897,1.9143739456694884,-1.636663613922555,4.299345694675272,2,right
4.26,-0.2021539351571104,0.8056983411312271,-0.035377265111266196,-2.7647015401833244,-6.21915864070805,2.0691378680365977,1.9079059900188964,-1.6244904778797928,4.29626492378829,2,right
4.261,-0.19379943919033477,0.8148768409982315,-0.0380519007800322,-2.8014374716608192,-6.177314730027435,2.0637023322286843,1.900672716964271,-1.6110742286239634,4.291780457503718,2,right
4.266,-0.18537986888613525,0.8239274453965311,-0.04067354184588074,-2.837785317721887,-6.132781339220088,2.0576022147365953,1.8926806037010746,-1.5964111198171387,4.28589927498159,2,right
4.2669999999999995,-0.1768991969204984,0.8328466196684994,-0.043241173922442526,-2.873692079090471,-6.085618708349861,2.050842384854888,1.8839367279651364,-1.58049871450848,4.278628949814078,2,right
4.268,-0.1683615421666543,0.8416310085624411,-0.04575384569785021,-2.909104612647241,-6.03588846905053,2.043427862514117,1.874448763406009,-1.5633358950902516,4.26997763143902,2,right
4.269,-0.15977116244318157,0.8502774401814723,-0.0482106686588915,-2.9439697084544094,-5.9836535668333495,2.0353638389016413,1.8642249744685788,-1.544922871742497,4.259954026601535,2,right
4.27,-0.15113244689930488,0.8587829297157613,-0.05061081666410573,-2.9782341678780018,-5.928978181728408,2.0266556987200306,1.853274210910625,-1.5252611896534467,4.248567381343972,2,right
4.274,-0.14244990807509372,0.8671446829788525,-0.052953525389957956,-3.011844882851933,-5.871927647209804,2.017309044014799,1.8416059020436777,-1.504353735215956,4.2358274638751885,2,right
4.275,-0.13372817368122542,0.87536009976602,-0.05523809168091844,-3.044748916040422,-5.812568367811271,2.007329719266362,1.8292300507136652,-1.4822047412469048,4.221744548440713,2,right
4.276,-0.12497197813909385,0.8834267770507149,-0.057463872837048374,-3.076893581138269,-5.750967736666711,1.9967238370163338,1.8161572269975532,-1.4588197911897303,4.206329400186165,2,right
4.279,-0.11618615392008773,0.8913425120344746,-0.05963028587529266,-3.1082265222603853,-5.6871940546670325,1.9854978030614987,1.8023985615824767,-1.4342058222400351,4.189593260977362,2,right
4.28,-0.10737562273505817,0.8991053050642681,-0.06173680680720647,-3.138695791656192,-5.621316452454278,1.973658340481924,1.787965738791833,-1.4083711273306596,4.171547836136658,2,right
4.2860000000000005,-0.09854538664262633,0.9067133624289451,-0.06378296998284602,-3.168249925497613,-5.55340481563278,1.9612125121908126,1.7728709892208074,-1.3813253559090513,4.15220528205128,2,right
4.287,-0.08970051915443546,0.9141650990444528,-0.06576836755210791,-3.196838017773295,-5.483529713107058,1.9481677419268675,1.7571270819418283,-1.3530795134362397,4.131578194605587,2,right
4.289,-0.08084615641554287,0.9214591410349771,-0.06769264909040468,-3.224409792376481,-5.411762328357322,1.9345318336551727,1.7407473162385223,-1.3236459595332237,4.109679598385455,2,right
4.289,-0.07198748853390229,0.928594328211834,-0.06955552142871729,-3.2509156734713307,-5.3381743934577015,1.9203129893408526,1.7237455128248274,-1.2930384046970964,4.086522936599239,2,right
4.293,-0.06312975112702848,0.9355697164439334,-0.07135674872165097,-3.276306854219701,-5.2628381256365575,1.9055198250580514,1.706136004504068,-1.2612719055057935,4.062122061656091,2,right
4.294,-0.05427821714666825,0.9423845799055083,-0.07309615278076034,-3.300535363947486,-5.185826166172906,1.8901613853950818,1.6879336262209688,-1.2283628582269412,4.036491226338748,2,right
4.2989999999999995,-0.04543818903267969,0.9490384131802642,-0.07477361369117068,-3.3235541338265597,-5.107211521417701,1.8742471561149092,1.66915370445779,-1.1943289907429064,4.009645075504291,2,right
4.3,-0.0366149912355911,0.9555309331959283,-0.07638907071630137,-3.345317061145159,-5.027067505723699,1.8577870750284975,1.6498120459240386,-1.1591893527008275,3.9815986382428354,2,right
4.303999999999999,-0.027813963136219116,0.9618620809590572,-0.07794252348157588,-3.3657790722362018,-4.945467686062841,1.8407915410369147,1.6299249254874866,-1.1229643037931278,3.95236732042052,2,right
4.305,-0.019040452382459452,0.9680320230578314,-0.07943403341725837,-3.384896184129581,-4.8624858281054655,1.823271421296505,1.6095090732925876,-1.0856755000707803,3.921966897529726,2,right
4.309,-0.010299808657150395,0.9740411529012917,-0.08086372543159048,-3.4026255649908377,-4.778195843531282,1.8052380564598616,1.5885816610107657,-1.0473458781884204,3.8904135077659805,2,right
4.31,-0.0015973778848816296,0.9798900916659231,-0.0822317897734902,-3.4189255934049205,-4.692671738337848,1.7867032639437996,1.567160287165474,-1.00799963747729,3.8577236452476114,2,right
4.313,0.007061503120758997,0.9855796889218573,-0.0835384840300319,-3.43375591655984,-4.605987561908316,1.7676793391740266,1.5452629614734172,-0.9676622197389403,3.823914153290852,2,right
4.314,0.01567151157407222,0.991111022909332,-0.08478413519465043,-3.4470775073810733,-4.518217356596488,1.748179054754727,1.5229080881418569,-0.9263602866496359,3.7890022176497826,2,right
4.319,0.024227343208748583,0.996485400432264,-0.08596914174043489,-3.458852720663451,-4.429435107583618,1.7282156575098422,1.5001144480604942,-0.8841216946624816,3.7530053596272466,2,right
4.32,0.03272371636230289,1.001704356332279,-0.08709397563443412,-3.4690453482430472,-4.339714692758134,1.707802863341427,1.4769011798250735,-0.8409754672914531,3.7159414289596393,2,right
4.324,0.041155375683744125,1.0067696525044214,-0.08815918422895418,-3.4776206732472597,-4.249129832366275,1.6869548498490852,1.4532877595285214,-0.7969517646587405,3.6778285963753286,2,right
4.325,0.049517095510580054,1.0116832764146126,-0.08916539196446456,-3.4845455234568314,-4.157754038178764,1.6656862466531712,1.4292939792541828,-0.7520818501841281,3.638685345723325,2,right
4.329,0.057803682978182384,1.0164474390785248,-0.0901133018183686,-3.4897883238090213,-4.065660561915932,1.6440121233631433,1.404939924204512,-0.7063980542925256,3.5985304655657693,2,right
4.33,0.06600998093962272,1.0210645724630882,-0.09100369643654133,-3.4933191480664787,-3.9729223426712266,1.62194797513121,1.380245948397429,-0.6599337350132534,3.5573830401247952,2,right
4.333,0.07413087078418584,1.0255373262768326,-0.09183743889095818,-3.49510976967166,-3.8796119530707642,1.5995097057302046,1.3552326488614495,-0.6127232353422495,3.5152624394713445,2,right
4.335,0.08216127524452584,1.0298685641233007,-0.09261547301647216,-3.495133711801769,-3.7858015439045154,1.5767136080934547,1.32992083830745,-0.564801837320073,3.472188308891192,2,right
4.335,0.09009616127456513,1.0340613590011005,-0.09333882329213807,-3.4933662966343184,-3.6915627869628795,1.5535763422532973,1.3043315164928038,-0.516205713196547,3.4281805576133095,2,right
4.338,0.09793054306661929,1.0381189881434525,-0.09400859424649866,-3.489784693828385,-3.596966815810741,1.5301149106138199,1.2784858409226694,-0.46697187480710345,3.3832593475378827,2,right
4.3389999999999995,0.10565948526472681,1.0420449271978134,-0.09462596938009765,-3.4843679682215902,-3.5020841642296707,1.5063466304923694,1.252405097771213,-0.41713812270406553,3.3374450828513034,2,right
4.343,0.11327810642448315,1.0458428437509548,-0.09519220961063474,-3.477097126699092,-3.406984702181549,1.4822891039365043,1.2261106736658909,-0.36674299616395334,3.290758401160025,2,right
4.343999999999999,0.12078158276241474,1.0495165902075732,-0.09570865125579146,-3.4679551639928423,-3.311737569765093,1.4579601851876398,1.199624028547226,-0.31582572443370677,3.2432201663175886,2,right
4.345,0.1281651522270637,1.053070196032828,-0.09617670357648461,-3.4569271068169325,-3.2164111107505517,1.4333779468196761,1.172966669576973,-0.26442617915678984,3.1948514628637956,2,right
4.348,0.13542411891150022,1.0565078593719903,-0.09659784591378531,-3.444000055546695,-3.1210728078964602,1.4085606459455822,1.1461601260191834,-0.21258482783448807,3.1456735919419647,2,right
4.349,0.14255385781263522,1.0598339380635045,-0.09697362446895627,-3.429163222836695,-3.025789221632661,1.3835266915186089,1.1192259250181242,-0.16034268817621444,3.0957080685577454,2,right
4.352,0.14954981992528243,1.0630529400638358,-0.09730564879260042,-3.4124079689144757,-2.930625932578979,1.3582946130961693,1.092185568196521,-0.10774128319125316,3.044976620040586,2,right
4.354,0.15640753764047624,1.066169513302542,-0.09759558805944475,-3.3937278334743435,-2.835647487749648,1.332883031068234,1.065060508997162,-0.05482259687310329,2.9935011855666285,2,right
4.357,0.1631226304006937,1.0691884349856051,-0.09784516721088006,-3.3731185641285286,-2.7409173501699144,1.3073106282783626,1.0378721306905356,-0.0016290303264340814,2.9413039165995354,2,right
4.3580000000000005,0.16969081055102198,1.0721146003665036,-0.09805616305225254,-3.3505781413675932,-2.646497851631573,1.2815961229649313,1.0106417249708648,0.0517966418143676,2.8884071781035643,2,right
4.364,0.17610788931695678,1.0749530110079377,-0.09823040039365859,-3.3261067999764036,-2.5524501483147253,1.255758242949592,0.9833904710626662,0.10541131482698742,2.834833550381057,2,right
4.365,0.18236978283705185,1.077708762560402,-0.09836974830967703,-3.299707046846463,-2.4588341790037602,1.2298157009995427,0.9561394152597704,0.15917159735603034,2.7806058313844497,2,right
4.367,0.18847251817926364,1.0803870320848346,-0.09847611655677978,-3.2713836751198486,-2.3657086256264472,1.2037871712897772,0.9289094508186257,0.21303385503430872,2.7257470393508827,2,right
4.368,0.19441223926978393,1.0829930649460295,-0.09855145213832797,-3.241143774594465,-2.2731308758460953,1.17769126689113,0.9017212981276449,0.2669542544244991,2.670280415605568,2,right
4.373,0.20018521266048858,1.085532161305676,-0.0985977359694081,-3.208996738314777,-2.1811569874379733,1.1515465182096303,0.8745954850743543,0.32088880743551257,2.6142294273781768,2,right
4.374,0.2057878330540676,1.0880096622539555,-0.0986169795798615,-3.174954265266676,-2.089841654182588,1.125371352302434,0.8475523275321656,0.3747934163682162,2.557617770474702,2,right
4.377,0.21121662849248332,1.0904309356366855,-0.0986112217978777,-3.1390303590896296,-1.9992381730099926,1.0991840729954017,0.8206119098887107,0.42862391974530994,2.5004693716455093,2,right
4.379,0.21646826509675196,1.0928013616538859,-0.09858252536571765,-3.1012413227137885,-1.9093984121310215,1.073002841727261,0.7937940655378577,0.4823361390802033,2.4428083904886044,2,right
4.382,0.2215395512313511,1.0951263183173368,-0.0985329734457069,-3.061605748824284,-1.8203727798932456,1.046845659045198,0.7671183572577636,0.5358859267396504,2.384659220725538,2,right
4.382,0.22642744096190615,1.0974111668556819,-0.09846466597918142,-3.020144506049554,-1.7322101941014807,1.0207303466766828,0.7406040573976139,0.5892292150546888,2.32604649068583,2,right
4.387,0.23112903668246457,1.0996612371460401,-0.09837971586999396,-2.97688072076518,-1.6449580515448678,0.9946745301023623,0.7142701277960509,0.6423220668340881,2.26699506283432,2,right
4.388,0.23564159080698763,1.1018818132336474,-0.09828024498337587,-2.931839754399416,-1.5586621974748904,0.9686956215549126,0.6881351993546985,0.6951207274340476,2.2075300321744513,2,right
4.3919999999999995,0.23996250644692468,1.1040781189801765,-0.09816837997932674,-2.8850491761213526,-1.4733668947811567,0.9428108033688676,0.662217551190659,0.7475816785372897,2.147676723359164,2,right
4.393,0.24408933703198904,1.1062553038606397,-0.09804624802878772,-2.836538730787486,-1.3891147926143956,0.9170370116066096,0.6365350892923687,0.7996616937939757,2.0874606863398064,2,right
4.397,0.24801978487242876,1.1084184289099426,-0.0979159724808142,-2.7863403020173587,-1.305946894208859,0.8913909198859277,0.611105324603774,0.8513178964760272,2.026907690382301,2,right
4.399,0.25175169870363534,1.110572452805182,-0.09777966855482578,-2.734487870263923,-1.223902523659188,0.8658889233348226,0.5859453504624117,0.9025078192954679,1.9660437162786686,2,right
4.402,0.2552830702918486,1.112722218061491,-0.09763943912470605,-2.681017465739334,-1.1430192914098005,0.8405471225995501,0.5610718193176544,0.9531894665363014,1.9048949465809883,2,right
4.4030000000000005,0.2586120302061465,1.1148724373195147,-0.09749737064507703,-2.625967116052044,-1.0633330582179639,0.8153813078322653,0.5365009187056244,1.0033213785406885,1.8434877537488992,2,right
4.4030000000000005,0.2617368428696115,1.1170276797102363,-0.0973555292496331,-2.5693767884063097,-0.9848778973549432,0.7904069425850412,0.5122483467056766,1.0528626980511262,1.7818486864258767,2,right
4.408,0.264655900994148,1.1191923572941462,-0.09721595703185906,-2.5112883262105954,-0.9076860548129452,0.7656391475374972,0.4883292875498774,1.101773236940982,1.7200044546437534,2,right
4.409,0.2673677194988564,1.121370711584003,-0.09708066850214497,-2.451745379936808,-0.8317879072890152,0.741092683985773,0.46475838830539307,1.1500135413264407,1.6579819150792225,2,right
4.4110000000000005,0.2698709290247481,1.1235668001739652,-0.09695164720273804,-2.39079333206789,-0.7572119177205758,0.716781937021139,0.4415497373029966,1.197544953588946,1.5958080571603745,2,right
4.412,0.27216426917535724,1.1257844835133342,-0.09683084245358464,-2.328479215966987,-0.6839845881509187,0.6927208983271212,0.4187168445401526,1.2443296708032967,1.533509990235695,2,right
4.413,0.27424658161471405,1.1280274118781575,-0.09672016619790837,-2.264851628654712,-0.612130409871986,0.6689231485608491,0.3962726240405188,1.290330799602352,1.4711149316924101,2,right
4.417,0.2761168031382988,1.1302990126016568,-0.0966214899171287,-2.199960638264326,-0.5416718116221083,0.6454018394659707,0.37422937810322215,1.335512407614811,1.4086501958456286,2,right
4.418,0.27777395880826405,1.132602477622582,-0.09653664159212762,-2.1338576883579954,-0.4726291081080073,0.6221696761909226,0.3525987833763449,1.3798395716103846,1.3461431834193753,2,right
4.421,0.2792171552265167,1.1349407514099497,-0.09646740270058987,-2.0665955020708573,-0.40502045195084896,0.5992389004680552,0.33139187869017,1.4232784224844348,1.283621371440328,2,right
4.422,0.28044557401445463,1.1373165193329573,-0.0964155052545993,-1.9982279882586536,-0.3388617913336033,0.5766212751289531,0.3106190545868872,1.465796187211797,1.221112303364873,2,right
4.427,0.281458465564629,1.1397321965591154,-0.09638262889748038,-1.9288101504039727,-0.27416683414325277,0.554328070106386,0.2902900444846447,1.5073612278970572,1.1586435792599747,2,right
4.427,0.28225514311703365,1.1421899175698107,-0.09637039809345353,-1.858397998245458,-0.21094701857897172,0.5323700498932342,0.27041391741504617,1.547943078045994,1.0962428458583082,2,right
4.4319999999999995,0.28283497719495615,1.1446915263788668,-0.09638037945411372,-1.7870484619337026,-0.14921149003624903,0.5107574623934399,0.2509990722744407,1.5875124761802701,1.0339377863081405,2,right
4.433,0.28319739041853353,1.1472385675309595,-0.09641407924553552,-1.714819308514534,-0.08896708408112808,0.4895000291009628,0.2320532335306235,1.6260413969147045,0.971756109438569,2,right
4.435,0.28334185269909434,1.149832277946859,-0.09647294110556691,-1.641769060537528,-0.030218315332969543,0.46860693654368457,0.21358344832786852,1.6635030796136467,0.9097255383609112,2,right
4.436,0.2832678768042943,1.1524735796721803,-0.09655834397616861,-1.567956916584917,0.027032627921597715,0.44808682893019414,0.1955960849345347,1.6998720547400632,0.847873798227321,2,right
4.442,0.2829750142753851,1.1551630735748992,-0.0966716002278052,-1.493442673513517,0.08278588355659434,0.42794780193840815,0.17809683247883534,1.7351241680079648,0.7862286029680619,2,right
4.4430000000000005,0.28246285167464485,1.1579010340253846,-0.09681395392871343,-1.4182866501999514,0.1370439100452414,0.4081973975860242,0.16109070191972524,1.7692366024457344,0.7248176408292973,2,right
4.446000000000001,0.2817310071414865,1.1606874045831992,-0.09698657919677388,-1.342549612577256,0.18981147567361165,0.3888426001238758,0.1445820282012451,1.802187898474783,0.6636685585337755,2,right
4.446000000000001,0.2807791272394463,1.1635217947073375,-0.09719057856791334,-1.266292699748934,0.24109564268955053,0.3698898328943506,0.12857447354006302,1.8339579721047528,0.6028089438873772,2,right
4.45,0.2796068840840352,1.166403477499035,-0.09742698132016588,-1.1895773509646919,0.2909057465427462,0.35134495609815086,0.11307103179736872,1.8645281313432216,0.542266306655169,2,right
4.4510000000000005,0.27821397275448956,1.1693313884775016,-0.09769674170213666,-1.1124652332404135,0.339253370367551,0.3332132654138059,0.09807403388770325,1.8938810909145205,0.48206805753135673,2,right
4.455,0.2766001090124363,1.1723041253794022,-0.0980007370252153,-1.0350181694034384,0.3861523148558996,0.3154994914155062,0.08358515417874496,1.922000985378894,0.42224148502836506,2,right
4.456,0.2747650273762547,1.1753199489650112,-0.09833976559084631,-0.9572980663428965,0.43161856366344103,0.2982077997359937,0.06960541783751979,1.948873380739786,0.36281373011117823,2,right
4.461,0.2727084796250903,1.1783767848104567,-0.09871454444122647,-0.8793668432437067,0.47567024448780315,0.28134179192243225,0.056135209079956984,1.9744852846235397,0.30381175840406915,2,right
4.463,0.2704302338251409,1.1814722260672506,-0.09912570694645073,-0.8012863595818921,0.5183275859537526,0.26490450693438,0.043174280282169776,1.99882515511226,0.24526232979790794,2,right
4.466,0.26793007398349183,1.1846035371750705,-0.09957380027228531,-0.7231183426580718,0.5596128704359019,0.2488984232341963,0.030721761913301834,2.021882908307009,0.187191965287388,2,right
4.467,0.2652078004454287,1.187767658517955,-0.10005928280815674,-0.6449243144453903,0.599550382945555,0.23332546142143942,0.018776173251242572,2.043649924694887,0.12962691086873077,2,right
4.471,0.2622632311577709,1.1909612120167996,-0.10058252166655159,-0.5667655175277104,0.6381663562042835,0.21818698736403916,0.007335433844478915,2.0641190543622256,0.0725930984439927,2,right
4.4719999999999995,0.2590962039110289,1.1941805076582785,-0.10114379037234962,-0.4887028399036484,0.6754889120228881,0.2034838157802683,-0.003603124312676067,2.0832846209540756,0.01611610425078729,2,right
4.473,0.25570657963681226,1.1974215509892512,-0.10174326682743673,-0.41079673843195075,0.7115479991005287,0.18921621422677828,-0.014042743918257671,2.1011424240274237,-0.03977889363394584,2,right
4.476,0.2520942467777443,1.2006800516789549,-0.102381031572507,-0.33310716069381613,0.7463753273550203,0.17538390744921223,-0.023987228837044634,2.117689739303471,-0.09506715659465322,2,right
4.477,0.24825912667581349,1.203951433366823,-0.1030570663004908,-0.25569346504803814,0.7800042988915761,0.16198608205315781,-0.033440929935064354,2.1329253164589392,-0.14972442403060557,2,right
4.479,0.24420117985777354,1.207230845121472,-0.10377125252525454,-0.17861433865529505,0.8124699357136521,0.14902139145445198,-0.042408730301190335,2.146849374341664,-0.20372694863700205,2,right
4.48,0.23992041306124323,1.2105131748705455,-0.10452337028753904,-0.10192771341215744,0.8438088042782133,0.1364879610817035,-0.05089602988390633,2.1594635936303312,-0.25705152845825374,2,right
4.481,0.23541688686004014,1.213793065099116,-0.10531309679170923,-0.025690680554298875,0.8740589370052708,0.12438339386816703,-0.0589087295704057,2.170771106982133,-0.309675535870411,2,right
4.485,0.23069072379176614,1.2170649309872925,-0.10614000490338181,0.05004059383802373,0.9032597508679591,0.11270477618478197,-0.06645321473379968,2.180776486708341,-0.3615769436478198,2,right
4.485,0.2257421169260844,1.2203229810038878,-0.10700356147979243,0.12521094937990548,0.9314519631971621,0.10144868443044827,-0.07353633827282906,2.189485730014039,-0.4127343482671453,2,right
4.49,0.220571338820712,1.2235612398024576,-0.10790312552589666,0.19976630573166265,0.958677504820598,0.09061119243382154,-0.08016540316711117,2.1969062418345153,-0.4631269905998903,2,right
4.4910000000000005,0.21517875080841545,1.2267735730844904,-0.10883794615012114,0.2736537299943248,0.984979430633507,0.08018787970869533,-0.08634814456961068,2.203046815297067,-0.5127347741424614,2,right
4.495,0.2095648125744187,1.2299537139351817,-0.10980716024934392,0.34682149720295347,1.0104018276842148,0.07017384054323013,-0.09209271145669733,2.2079176098332463,-0.5615382809306989,2,right
4.495,0.20373009205317025,1.2330952900384884,-0.11080978984164143,0.4192191441318509,1.0349897208528769,0.06056369389188667,-0.09740764785485113,2.2115301269628977,-0.6095187852835932,2,right
4.499,0.19767527581730457,1.2361918511502485,-0.11184473904611024,0.4907975166238062,1.0587889761990568,0.051351594040109534,-0.10230187366179391,2.2138971837676356,-0.6566582655186544,2,right
4.5,0.1914011803405048,1.2392368962436549,-0.11291079089039033,0.5615088106534619,1.0818462020512662,0.042531242012981633,-0.106784665078568,2.2150328840677833,-0.7029394137790953,2,right
4.505,0.1849087647387982,1.2422238998390405,-0.11400660436439401,0.6313066073326735,1.1042086479092033,0.03409589770022981,-0.11086563466784989,2.2149525873131846,-0.7483456441106237,2,right
4.506,0.178199145748189,1.2451463371922695,-0.11513071235492513,0.7001459020633866,1.1259241012271537,0.02603839267110391,-0.11455471105257874,2.2136728751947103,-0.7928610989232259,2,right
4.5089999999999995,0.1712736156940595,1.247997708232162,-0.11628152119604572,0.7679831280410641,1.1470407821448982,0.018351143653776353,-0.11786211826779784,2.2112115159797563,-0.8364706539708598,2,right
4.51,0.16413366400010349,1.2507715603712044,-0.11745731248658954,0.8347761743090772,1.1676072362304675,0.011026166655014295,-0.1207983547774544,2.2075874265715467,-0.8791599219794622,2,right
4.513,0.15678100239407675,1.2534615105062354,-0.11865624757144676,0.9004843985617259,1.1876722252972323,0.004055091696960911,-0.12337417216677726,2.202820632288593,-0.9209152550511188,2,right
4.513999999999999,0.14921759348916305,1.2560612666226076,-0.11987637475130002,0.9650686348906722,1.2072846163560957,-0.0025708218510747186,-0.12560055351975638,2.1969322243572864,-0.9617237459696456,2,right
4.518,0.14144568197646865,1.2585646494054974,-0.1211156389871759,1.0284911966665808,1.226493268761975,-0.008860669366879927,-0.12748869149018238,2.1899443151072493,-1.0015732285301868,2,right
4.519,0.13346782735343585,1.260965614181785,-0.12237189366074773,1.0907158747446442,1.2453469196123188,-0.014823884515697825,-0.12904996607366936,2.181879990855808,-1.0404522770127531,2,right
4.524,0.12528693697920626,1.2632582734107083,-0.1236429138393675,1.1517079311794427,1.263894067454107,-0.020470222255737764,-0.13029592208708085,2.172763262464705,-1.0783502049169065,2,right
4.524,0.11690629828444594,1.2654369198342443,-0.12492641045215899,1.2114340886312593,1.2821828543546185,-0.025809741326926303,-0.13123824636080766,2.162619013549037,-1.115257063072043,2,right
4.529,0.10832960912816784,1.2674960502943615,-0.12622004478488147,1.2698625156425303,1.3002609463902337,-0.030852786240050386,-0.13188874464840744,2.1514729463152986,-1.1511636372349408,2,right
4.529,0.09956100552975897,1.269430390132106,-0.12752144273363403,1.32696280795957,1.3181754126066552,-0.03560996878253485,-0.13225931825721074,2.1393515250023953,-1.1860614452834204,2,right
4.534,0.09060508625808446,1.2712349180159916,-0.1288282083201001,1.382705966071081,1.3359726025031902,-0.04009214905621552,-0.13236194040262558,2.126281916896541,-1.2199427341121267,2,right
4.534,0.08146693400559749,1.2729048910054677,-0.13013793604584672,1.437064369131235,1.353698022093127,-0.044310416061618105,-0.13220863228803514,2.112291930888078,-1.2528004763335554,2,right
4.538,0.07215213311752194,1.274435869618921,-0.13144822170766554,1.4900117454312933,1.3713962085917715,-0.04827606784243236,-0.13181143891137895,2.0974099535354545,-1.2846283668845668,2,right
4.538,0.0626667840955335,1.2758237426112051,-0.13275667129938382,1.5415231395798428,1.3891106037833665,-0.052000591203081516,-0.1311824045987382,2.081664882598873,-1.3154208196357007,2,right
4.539,0.05301751533059985,1.277064751060908,-0.13406090764369766,1.5915748765477504,1.4068834261179108,-0.05549564101152933,-0.13033354828872237,2.0650860581009547,-1.3451729640795715,2,right
4.543,0.04321149265926551,1.2781555112721563,-0.1353585744915333,1.6401445227298825,1.4247555415888127,-0.058773019098741636,-0.12927683871181286,2.0477031914565558,-1.3738806420811795,2,right
4.544,0.03325642732184894,1.2790930359547403,-0.13664733800618517,1.6872108441715206,1.4427663334423593,-0.061844652765527176,-0.12802416982605846,2.029546294088631,-1.4015404045071054,2,right
4.548,0.02316058279432627,1.2798747531066494,-0.1379248857930705,1.7327537621739506,1.4609535709276724,-0.06472257291855227,-0.12658733699094532,2.0106456074320005,-1.4281495074570918,2,right
4.5489999999999995,0.012932780846349362,1.2804985219577412,-0.13918892388397253,1.7767543068431868,1.4793532780837566,-0.06741889191534296,-0.12497801423960786,1.9910315357372121,-1.4537059079089971,2,right
4.5489999999999995,0.002582406995884903,1.28096264532458,-0.14043717227873168,1.8191945697781755,1.497999604978392,-0.06994578130305716,-0.12320773279107775,1.9707345822072324,-1.4782082587479861,2,right
4.553,-0.00788058479813691,1.281265877779098,-0.14166735985170514,1.8600576574441834,1.5169247046017773,-0.0723154496938969,-0.12128786082268024,1.9497852885102018,-1.5016559032382963,2,right
4.553999999999999,-0.018445668837503298,1.2814074290852273,-0.14287721969807055,1.899327646418914,1.536158617830795,-0.07454012096086528,-0.11922958449797968,1.9282141776119799,-1.5240488690109921,2,right
4.5569999999999995,-0.0291017469366702,1.2813869624701915,-0.14406448611292907,1.9369895410577118,1.5557291674627016,-0.07663201283152637,-0.11704389024521292,1.9060516998702322,-1.5453878616380954,2,right
4.558,-0.03983715178381565,1.281204587542164,-0.14522689407363398,1.9730292337659558,1.5756618615302072,-0.07860331589833093,-0.11474154828071963,1.883328182329949,-1.5656742578604523,2,right
4.564,-0.05063965607843001,1.280860847965136,-0.14636218136110896,2.0074334679914174,1.5959798059532573,-0.08046617305192469,-0.11233309737148027,1.8600737811584873,-1.584910098533663,2,right
4.565,-0.06149648887182838,1.2803567042396975,-0.14746809266667119,2.0401898040447466,1.6167036265837924,-0.08223265934347537,-0.10982883083050586,1.8363184371565393,-1.603098081353385,2,right
4.567,-0.07239436004142635,1.2796935120788822,-0.14854238456106167,2.071286587851591,1.637851400700795,-0.08391476228170733,-0.10723878373848837,1.81209183427981,-1.6202415534182857,2,right
4.5680000000000005,-0.08331949324029528,1.2788729969315178,-0.14958283019588778,2.100712922735156,1.6594385980140407,-0.08552436257002131,-0.10457272138481512,1.7874233611046686,-1.6363445036859134,2,right
4.573,-0.09425766710938785,1.2778972252213066,-0.15058722297145827,2.128458644323277,1.6814780312361217,-0.08707321528880006,-0.10184012892077442,1.7623420751695902,-1.6514115553737405,2,right
4.574,-0.10519426408766124,1.2767685728607907,-0.15155337893902582,2.1545142986693233,1.7039798162835313,-0.08857293152775722,-0.09905020221753331,1.7368766701228584,-1.6654479583546373,2,right
4.577,-0.11611432583005155,1.2754896915864011,-0.15247913821289583,2.1788711236714295,1.7269513421688496,-0.09003496047297911,-0.09621183992124875,1.711055445605726,-1.6784595815930448,2,right
4.578,-0.12700261405311086,1.274063473666088,-0.15336236601071582,2.201521033869755,1.7503972506473637,-0.09147057195313368,-0.09333363669748214,1.6849062797990393,-1.6904529056651467,2,right
4.582,-0.13784367557082414,1.272493015566011,-0.1542009540583812,2.2224566086965964,1.7743194256827852,-0.09289083944917963,-0.09042387765692157,1.6584566045602342,-1.7014350154033668,2,right
4.583,-0.14862191033942093,1.2707815812166066,-0.1549928230011706,2.2416710842493064,1.7987169927980613,-0.09430662357179985,-0.08749053395427638,1.6317333830765905,-1.7114135927025929,2,right
4.587,-0.15932164146475802,1.2689325655644474,-0.15573592622150878,2.259158348651072,1.8235863283786398,-0.0957285560107074,-0.0845412595520938,1.6047630899596745,-1.7203969095225904,2,right
4.588,-0.1699271862981483,1.2669494591099304,-0.15642825517097486,2.2749129410596796,1.8489210789969064,-0.09716702395992732,-0.08158338914115572,1.5775716937050541,-1.7283938211181764,2,right
4.592,-0.18042292791854234,1.2648358141015876,-0.15706784607040974,2.2889300543794513,1.8747121908278774,-0.09863215502314435,-0.07862393720904533,1.5501846414405707,-1.735413759525831,2,right
4.592,-0.19079338644096663,1.2625952129897053,-0.1576527876780414,2.301205541726576,1.9009479492275725,-0.10013380260322376,-0.07566959824842708,1.5226268458857457,-1.7414667273325792,2,right
4.599,-0.20102328968288186,1.260231239645425,-0.15818122978848628,2.3117359266930873,1.9276140285468324,-0.10168153178005952,-0.07272674809655776,1.4949226744442627,-1.7465632917501326,2,right
4.6,-0.2110976427520209,1.2577474537371391,-0.15865139217667976,2.3205184174497404,1.9546935522546443,-0.10328460568097983,-0.06980144639754152,1.4670959403509052,-1.7507145790144742,2,right
4.602,-0.22100179609446996,1.255147368533762,-0.15906157378338864,2.3275509247230532,1.9821671634463138,-0.10495197234804453,-0.06689944017885548,1.4391698957938335,-1.7539322691283104,2,right
4.603,-0.23072151147510103,1.2524344322827463,-0.1594101620004523,2.332832083676746,2.010013105813053,-0.10669225210670061,-0.06402616853370496,1.4111672269326665,-1.7562285909610396,2,right
4.607,-0.24024302527479868,1.2496120131948552,-0.15969564193122013,2.3363612797228157,2.03820731515073,-0.10851372544042016,-0.06118676840081719,1.3831100507324816,-1.7576163177182025,2,right
4.607,-0.2495531084159355,1.2466833879665533,-0.15991660548633602,2.3381386782824367,2.066723521486665,-0.11042432137612929,-0.05838608141465317,1.355019913525154,-1.7581087627690972,2,right
