time,gFx,gFy,gFz,ax,ay,az,wx,wy,wz,subject_number,foot
0.9470000000000001,-0.599037648905007,0.8190201219827569,0.2879282871241405,0.3102551456011999,0.5295102561392914,-0.7175517561967716,-0.3726624996245881,-0.20813667721990037,-0.20911777775516463,1,right
0.9470000000000001,-0.5995242044498698,0.8188304126147946,0.2896988448447145,0.30989504170493476,0.5415927466618096,-0.7292670966608673,-0.3779793170180098,-0.20914046624247407,-0.212036019069265,1,right
0.95,-0.5999752636254071,0.8185876269547723,0.2915117103111219,0.3093635966389975,0.5537649371236912,-0.74086187935411,-0.383248764764198,-0.210093192543175,-0.21495750200443403,1,right
0.951,-0.6003891810287938,0.8182902964296972,0.293365938675751,0.30866009078415213,0.5660201868490919,-0.7523236461610097,-0.388465733076376,-0.21099256847906092,-0.21788078570620037,1,right
0.956,-0.6007643391827707,0.8179369475812521,0.2952605256163026,0.30778413300684604,0.578351623498016,-0.7636398457194771,-0.3936250212004327,-0.2118362296188929,-0.22080437469312417,1,right
0.9570000000000001,-0.6010991520611421,0.817526103934407,0.2971944071970014,0.30673566901975924,0.5907521408152409,-0.7747978424976328,-0.3987213391447839,-0.2126217340184253,-0.2237267169777122,1,right
0.961,-0.601392068670594,0.8170562880322345,0.29916645977324224,0.3055149891124523,0.6032143963573431,-0.7857849258505494,-0.40374930953669763,-0.21334656172680938,-0.22664620215165648,1,right
0.9620000000000001,-0.6016415766832036,0.8165260236450388,0.3011754999401872,0.30412273524959516,0.6157308092332356,-0.7965883190894066,-0.4087034696198947,-0.21400811452652904,-0.2295611594437918,1,right
0.966,-0.6018462061131341,0.8159338381604359,0.3032202845282591,0.30255990753376694,0.6282935578938247,-0.8071951885950877,-0.41357827340805225,-0.21460371590911942,-0.23246985575916362,1,right
0.966,-0.6020045330311258,0.8152782651581026,0.30529951065128325,0.30082787002931977,0.6408945780065697,-0.8175926530077504,-0.41836809400864394,-0.2151306112887455,-0.23537049370759,1,right
0.971,-0.6021151833114897,0.8145578471698693,0.3074118158141509,0.2989283559433108,0.653525560450887,-0.8277677925233815,-0.4230672261313348,-0.2155859684555348,-0.23826120963008726,1,right
0.971,-0.6021768364089697,0.8137711386242439,0.3095557780856917,0.296863472159015,0.6661779494704684,-0.8377076583277774,-0.42766988879492396,-0.21596687827036987,-0.241140071631512,1,right
0.975,-0.6021882291662983,0.8129167089743239,0.31172991634069586,0.2946357031170463,0.6788429410186949,-0.8473992821977933,-0.432170228246583,-0.21627035560264748,-0.2440050776277475,1,right
0.976,-0.6021481596557332,0.8119931460083426,0.3139326905737676,0.292247914038636,0.6915114813334168,-0.8568296862990605,-0.436562321106876,-0.21649334051230715,-0.24685415341573552,1,right
0.981,-0.6020554910586522,0.8109990593425987,0.3161625022864336,0.289703353485141,0.7041742657774226,-0.8659858932087021,-0.44084017775377077,-0.21663269967721602,-0.2496851507746183,1,right
0.982,-0.6019091555870084,0.8099330840969912,0.318417694947627,0.2870056552473887,0.7168217379809639,-0.8748549361908583,-0.4449977459585587,-0.21668522806677584,-0.25249584560621746,1,right
0.985,-0.601708158449433,0.808793884752971,0.3206965545269901,0.2841588395580058,0.7294440893227103,-0.8834238697520851,-0.4490289147862849,-0.2166476508623855,-0.25528393612302946,1,right
0.986,-0.6014515818628062,0.8075801591926182,0.32299731010048555,0.28116731361942926,0.7420312587854859,-0.8916797805029014,-0.45292751877296705,-0.21651662562515292,-0.2580470410918658,1,right
0.99,-0.6011385891071149,0.8062906429168392,0.3253181345278876,0.2780358714398581,0.7545729332231054,-0.8996097983509354,-0.4566873423915318,-0.21628874471099985,-0.2607826981412074,1,right
0.991,-0.6007684286177751,0.8049241134407763,0.3276571452014909,0.27476969296897763,0.767058548074544,-0.9072011080502591,-0.46030212481803706,-0.2159605379330446,-0.2634883621402767,1,right
0.991,-0.6003404381062467,0.8034793948648722,0.33001240486497696,0.2713743425248722,0.7794772885615802,-0.9144409611306006,-0.46376556500340416,-0.215528475473231,-0.26616140365630675,1,right
0.9940000000000001,-0.599854048697562,0.8019553626198108,0.3323819225010342,0.2678557665031422,0.7918180914059162,-0.9213166882291842,-0.46707132702568327,-0.2149889710566537,-0.26879910748913377,1,right
0.995,-0.5993087890710913,0.80035094838243,0.3347636542860095,0.26422029035885425,0.8040696471016242,-0.9278157118469833,-0.47021304564380834,-0.2143383854229099,-0.27139867126906575,1,right
1.0,-0.5987042895856063,0.7986651451578393,0.3371555046085343,0.2604746148525758,0.8162204027641664,-0.9339255595394836,-0.47318433194355913,-0.21357303014027026,-0.2739572040966134,1,right
1.001,-0.5980402863630137,0.7968970125210944,0.3395553271467515,0.2566258115563508,0.8282585655050212,-0.9396338774976678,-0.47597877899579866,-0.21268917179639152,-0.27647172520984026,1,right
1.001,-0.5973166253014375,0.7950456820106446,0.34196092599821115,0.2526813176240682,0.8401721061510918,-0.9449284443778192,-0.4785899675002334,-0.2116830365778062,-0.2789391626780678,1,right
1.005,-0.596533265984876,0.7931103626650311,0.3443700568588187,0.24864892983531725,0.8519487630557878,-0.9497971851842819,-0.4810114714172561,-0.210550815238335,-0.2813563521278246,1,right
1.006,-0.5956902854479075,0.7910903466932095,0.34678042824997013,0.24453679791656907,0.863576045820339,-0.9542281850615052,-0.4832368635958852,-0.2092886684538745,-0.28372003550825664,1,right
1.011,-0.5947878817430832,0.7889850152674207,0.3491897027943198,0.24035341713432198,0.8750412388731458,-0.9582097029465398,-0.4852597214052898,-0.20789273256066207,-0.2860268599030795,1,right
1.012,-0.5938263772518207,0.7867938444254089,0.35159549854083144,0.23610762014963574,0.8863314049265686,-0.9617301850852775,-0.4870736323768402,-0.20635912567375592,-0.2882733763960109,1,right
1.014,-0.5928062216767122,0.7845164110646844,0.35399539034028976,0.23180856812226025,0.8974333883445318,-0.9647782784251366,-0.4886721998630652,-0.20468395418209764,-0.29045603899646455,1,right
1.015,-0.5917279946516902,0.7821523990047758,0.35638691127482774,0.22746574105236003,0.9083338184538506,-0.9673428438956087,-0.4900490487193117,-0.20286331961613782,-0.2925712036321266,1,right
1.02,-0.590592407905776,0.7797016050844657,0.35876755414943434,0.22308892734765673,0.9190191128316861,-0.9694129695867535,-0.49119783101330555,-0.20089332588361086,-0.29461512721485994,1,right
1.021,-0.5894003069162336,0.7771639452513329,0.3611347730588307,0.21868821260366061,0.9294754806009932,-0.9709779838343756,-0.492112231767191,-0.19877008686863873,-0.29658396678619875,1,right
1.025,-0.5881526719890391,0.7745394605929738,0.363485985048287,0.21427396758453604,0.9396889257652451,-0.9720274682192245,-0.4927859747359904,-0.19648973438892436,-0.29847377874850084,1,right
1.025,-0.5868506187113652,0.7718283232546428,0.36581857189081984,0.2098568353920492,0.9496452506131019,-0.9725512704861451,-0.49321282822577184,-0.19404842650536733,-0.3002805181876225,1,right
1.03,-0.5854953977327512,0.7690308421865285,0.368129882005605,0.20544771780997864,0.9593300592230304,-0.9725395173876503,-0.49338661095413594,-0.19144235617799432,-0.3020000382927626,1,right
1.031,-0.5840883938438688,0.7661474686643651,0.37041723254432396,0.20105776081133006,0.9687287610971856,-0.9719826274549093,-0.4933011979549459,-0.18866776026164495,-0.3036280898788958,1,right
1.034,-0.582631124328429,0.7631788015286897,0.37267791167403586,0.19669833921569005,0.9778265749531261,-0.970871323697634,-0.4929505265285128,-0.18572092883439154,-0.3051603210169769,1,right
1.035,-0.5811252365650814,0.7601255920908015,0.37490918108536425,0.19238104048407667,0.9866085327011501,-0.96919664623281,-0.49232860223772196,-0.18259821485119807,-0.30659227677684664,1,right
1.0390000000000001,-0.5795725048591486,0.7569887486580652,0.37710827875057207,0.18811764763869948,0.9950594836342246,-0.9669499648406525,-0.49142950494984294,-0.17929604411484001,-0.30791939908750654,1,right
1.0390000000000001,-0.5779748264946417,0.7537693406374809,0.3792724219468517,0.1839201212951313,1.0031640988566073,-0.9641229914445748,-0.4902473949230016,-0.17581092555561129,-0.3091370267191542,1,right
1.044,-0.5763342170141819,0.7504686021824107,0.3813988105487292,0.17980058079451416,1.0109068759763602,-0.9607077925103404,-0.48877651893551605,-0.1721394618108403,-0.3102403953910844,1,right
1.045,-0.574652804753769,0.7470879353506088,0.38348463058394994,0.17577128442357778,1.018272144085996,-0.9566968013579275,-0.4870112164554995,-0.16827836009472108,-0.31122463800925676,1,right
1.05,-0.5729328246783794,0.7436289127424592,0.3855270580421615,0.17184460871043847,1.0252440690545088,-0.9520828303779653,-0.48494592584732377,-0.16422444334844036,-0.3120847850370191,1,right
1.051,-0.5711766115822765,0.7400932795893624,0.3875232629250571,0.16803302678437007,1.0318066591529964,-0.946859083142917,-0.4825751906107039,-0.1599746616600468,-0.3128157650021442,1,right
1.053,-0.5693865927336474,0.7364829552654217,0.3894704135273682,0.16434908578799884,1.0379437710350004,-0.9410191664014703,-0.479893665647322,-0.15552610394296304,-0.3134124051429981,1,right
1.054,-0.5675652800562198,0.7328000342001115,0.39136568093666013,0.16080538333066877,1.043639116091557,-0.9345571019428671,-0.4768961235490448,-0.15087600986148805,-0.31386943219629915,1,right
1.0590000000000002,-0.5657152619487116,0.7290467861739524,0.39320624373633994,0.15741454297205468,1.0488762671997762,-0.927467338316151,-0.47357746090231406,-0.14602178198618787,-0.3141814733321655,1,right
1.06,-0.5638391948399242,0.7252256559829772,0.3949892928938441,0.1541891887254672,1.0536386658825443,-0.9197447623875452,-0.46993270460939685,-0.14096099813705928,-0.3143430572598073,1,right
1.061,-0.5619397945633374,0.721339262460872,0.3967120368155106,0.15114191857069675,1.0579096298956767,-0.9113847107173819,-0.46595701823888136,-0.1356914238277813,-0.31434861555929794,1,right
1.065,-0.5600198276258602,0.7173903968502112,0.39837170654728504,0.14828527696668287,1.0616723612575303,-0.9023829807362077,-0.4616457084238832,-0.13021102469934098,-0.31419248431248575,1,right
1.0659999999999998,-0.5580821024509046,0.7133820205164582,0.3999655610945736,0.14563172635476992,1.0649099547347187,-0.8927358416978698,-0.45699423131848754,-0.1245179788551688,-0.3138689060876323,1,right
1.069,-0.5561294606830608,0.7093172620002304,0.40149089283083883,0.14319361766217267,1.0676054068137744,-0.8824400453922625,-0.45199819910939903,-0.11861068905331192,-0.3133720322994339,1,right
1.07,-0.5541647686343307,0.7051994134043945,0.402945032967943,0.14098315990756882,1.0697416252751837,-0.871492836632104,-0.446653386571805,-0.11248779473501,-0.31269592594757384,1,right
1.07,-0.552190908933529,0.7010319261139353,0.4043253570690566,0.13901238917646636,1.071301439643193,-0.8598919635866131,-0.4409557376560795,-0.10614818387331537,-0.3118345647328641,1,right
1.073,-0.5502107724275063,0.6968184058508116,0.4056292905908205,0.13729313732635973,1.072267612871273,-0.8476356880666227,-0.4349013720909675,-0.09959100462478446,-0.3107818445495358,1,right
1.074,-0.5482272503829817,0.692562607073433,0.40685431444280823,0.1358370006905944,1.0726228545334713,-0.8347227958302676,-0.42848659198788586,-0.09281567676664869,-0.30953158335172287,1,right
1.078,-0.5462432270412598,0.6882684267376957,0.40799797055145326,0.1346553088854012,1.0723498356317576,-0.8211526069161544,-0.42170788842996487,-0.08582190290125118,-0.3080775253916522,1,right
1.079,-0.5442615725742299,0.6839398974420303,0.40905786741472855,0.13375909373353623,1.071431205039703,-0.8069249859755063,-0.41456194802843055,-0.07860967940891068,-0.3064133458265018,1,right
1.083,-0.542285136479418,0.6795811799846553,0.4100316856331701,0.13315905830036742,1.0698496075834778,-0.7920403525661861,-0.4070456594278909,-0.07117930712974865,-0.3045326556903226,1,right
1.084,-0.5403167414388411,0.6751965553684317,0.41091718340190053,0.1328655460390371,1.067587703759348,-0.7764996913696146,-0.39915611974104676,-0.06353140175438796,-0.30242900722683247,1,right
1.088,-0.5383591776530559,0.6707904162961642,0.4117122019466691,0.13288851004214874,1.064628191084993,-0.760304562289712,-0.3908906408922914,-0.055666903902805424,-0.3000958995782885,1,right
1.089,-0.5364151976491426,0.6663672582058112,0.41241467088459416,0.13323748239827654,1.0609538270800645,-0.743457110391106,-0.38224675584860085,-0.04758708886999376,-0.2975267848250212,1,right
1.093,-0.5344875115498884,0.6619316699005809,0.41302261348796765,0.1339215436524761,1.0565474538694486,-0.7259600756319646,-0.3732222247150441,-0.0392935760164646,-0.2947150743695719,1,right
1.094,-0.5325787827813241,0.6574883238332155,0.41353415182741887,0.1349492923708826,1.0513920244006958,-0.7078168023449347,-0.3638150406711637,-0.030788337781002876,-0.29165414565871856,1,right
1.0979999999999999,-0.530691624186648,0.6530419661072893,0.4139475117688162,0.1363288148104188,1.0454706302650234,-0.6890312484177938,-0.35402343572339046,-0.022073708292464803,-0.2883373492359947,1,right
1.099,-0.5288285945052515,0.648597406260895,0.4142610277971556,0.1380676546955961,1.0387665311091983,-0.6696079941235574,-0.3438458862475624,-0.013152391556798655,-0.28475801611660984,1,right
1.103,-0.5269921951663721,0.6441595068989509,0.41447314764148824,0.14017278310537853,1.0312631856234504,-0.6495522505479318,-0.3332811182945205,-0.004027469194860099,-0.2809094654759641,1,right
1.104,-0.5251848673402945,0.6397331732398721,0.41458243667729844,0.14265056847408944,1.022944284088373,-0.6288698675601537,-0.3223281126306485,0.005297592294006864,-0.276785012642214,1,right
1.1079999999999999,-0.5234089891868482,0.6353233426412157,0.4145875820845266,0.14550674671137054,1.0137937824615117,-0.6075673412714311,-0.31098610948411703,0.014818934768245294,-0.2723779773825926,1,right
1.109,-0.5216668732390487,0.6309349741665425,0.41448739673878415,0.14874639144725488,1.0037959379820571,-0.585651820923383,-0.29925461296648037,0.024532302206423048,-0.2676816924724147,1,right
1.112,-0.5199607638580239,0.6265730382516369,0.41428082280994416,0.15237388440948377,0.9929353462697026,-0.5631311151470784,-0.28713339513815833,0.03443303502241295,-0.2626895125349025,1,right
1.112,-0.5182928346948628,0.6222425065230988,0.4139669350379688,0.15639288594128364,0.9811969798913509,-0.5400136975314911,-0.2746224996852206,0.044516064960758495,-0.25739482313915896,1,right
1.117,-0.5166651860960182,0.6179483418168015,0.4135449436532578,0.1608063056689193,0.9685662283669139,-0.5163087114384315,-0.2617222451737712,0.054775910600119,-0.25179105014278186,1,right
1.117,-0.5150798423911589,0.6136954884375956,0.41301419690878893,0.16561627332945172,0.9550289395829707,-0.4920259739992769,-0.24843322784711164,0.0652066734932254,-0.24587166926476425,1,right
1.122,-0.513538749006223,0.6094888626948978,0.4123741831930139,0.1708241097702528,0.9405714625805385,-0.46717597922710963,-0.23475632392974394,0.07580203497230072,-0.23963021587345612,1,right
1.123,-0.5120437693499114,0.6053333437423026,0.41162453269555727,0.17643029813295952,0.9251806916806318,-0.44176990017618706,-0.22069269140115494,0.08655525364940642,-0.23306029497347533,1,right
1.127,-0.510596681428988,0.6012337647442255,0.4107650186020335,0.1824344552356884,0.9088441119086991,-0.4158195900790073,-0.20624377120120854,0.09745916364166571,-0.22615559137454938,1,right
1.128,-0.5091991741572739,0.5971949043890482,0.40979555779923604,0.1888353031684724,0.8915498456763731,-0.3893375823896076,-0.19141128782785793,0.10850617355178688,-0.2189098800243437,1,right
1.128,-0.5078528433349376,0.5932214787651858,0.4087162110775669,0.19563064111802386,0.8732867006762932,-0.3623370896601357,-0.17619724930521485,0.11968826623098763,-0.21131703648868788,1,right
1.133,-0.5065591872860047,0.5893181336120851,0.40752718282327327,0.20281731743906917,0.8540442189430464,-0.3348320011761741,-0.16060394659108104,0.13099699933297818,-0.20337104757313998,1,right
1.1340000000000001,-0.5053196021504788,0.5854894369524206,0.40622882019745366,0.21039120199063885,0.8338127270305183,-0.3068368792747678,-0.14463395265785922,0.14242350663409675,-0.19506602209953333,1,right
1.136,-0.5041353768349501,0.581739872107562,0.40482161180244153,0.218347158756827,0.8125833872531694,-0.2783669542676225,-0.12829012157184025,0.15395850007620335,-0.18639620186164474,1,right
1.137,-0.503007687636101,0.5780738310970263,0.4033061858422019,0.2266790187726567,0.7903482499359338,-0.24943811789048803,-0.1115755878025997,0.16559227250817551,-0.17735597277161744,1,right
1.138,-0.5019375925636351,0.5744956084216726,0.4016833077929317,0.23537955342562983,0.7671003065599642,-0.22006691521692606,-0.09449376582724141,0.17731470113616182,-0.1679398761870571,1,right
1.143,-0.5009260253963365,0.5710093952282445,0.3999538776085106,0.24444044844879567,0.7428335434153778,-0.19027053506623373,-0.07704835000097839,0.18911525171193377,-0.15814262039618135,1,right
1.1440000000000001,-0.4999737895071554,0.5676192738508123,0.3981189264887101,0.2538522793617373,0.7175429948775052,-0.1600667991012671,-0.0592433146460421,0.20098298349273522,-0.14795909223504033,1,right
1.147,-0.49908155150122546,0.5643292127238421,0.3961796132410065,0.2636044893610921,0.6912247951470425,-0.12947414990357486,-0.04108291430985628,0.21290655500628236,-0.13738436880974747,1,right
1.148,-0.4982498347320598,0.5611430616620173,0.3941372202753777,0.2736853704190948,0.6638762275647775,-0.09851163821909639,-0.022571684142368,0.22487423065479004,-0.12641372929556452,1,right
1.1520000000000001,-0.4974790127877894,0.5580645475028355,0.3919931492808877,0.2840820479101507,0.6354957711003862,-0.06719890939922092,-0.0037144403413960974,0.236873888192093,-0.11504266678357522,1,right
1.153,-0.4967693030583555,0.5550972701080112,0.38974891663448036,0.29478046884226017,0.6060831438850506,-0.035556188967952394,0.015483719386163476,0.2488930271080901,-0.10326690014455947,1,right
1.156,-0.49612076050230847,0.5522446987174867,0.38740614858476163,0.30576539372222794,0.5756393437093265,-0.0036042672262748677,0.03501741540044265,0.26091877795486546,-0.09108238587854259,1,right
1.157,-0.49553327173022116,0.5495101686447432,0.38496657624197383,0.3170203920844923,0.5441666854047338,0.028635517196190813,0.054880985796177506,0.27293791264893086,-0.07848532991734425,1,right
1.16,-0.495006549512413,0.5468968782949603,0.38243203039694784,0.3285278417142757,0.5116688350245753,0.06114129493309558,0.07506848621689546,0.2849368557840903,-0.06547219934628978,1,right
1.161,-0.49454012780566736,0.5444078864804447,0.37980443619050064,0.34026893159657856,0.47815084073653247,0.09389068470857928,0.09557368987181618,0.296901696989444,-0.05203973401007285,1,right
1.166,-0.49413335738278497,0.5420461100026355,0.3770858076584297,0.3522236686233104,0.4436191603366347,0.12686081349236555,0.11639008781251617,0.3088182043670316,-0.03818495796657384,1,right
1.167,-0.49378540214211825,0.539814321468028,0.3742782421811996,0.36437088809157486,0.4080816852912527,0.16002833807606667,0.13751088952733712,0.32067183904355284,-0.02390519075124382,1,right
1.171,-0.49349523616876706,0.5377151473068369,0.3713839148692889,0.3766882680267964,0.3715477612108443,0.19336946816472955,0.15892902391242972,0.33244777087050836,-0.009198058413459635,1,right
1.172,-0.4932616416116689,0.5357510659671789,0.36840507291510244,0.38915234736498433,0.3340282046562678,0.2268599910782867,0.18063714067921843,0.34413089530696145,0.005938495714956655,1,right
1.176,-0.4930832074304469,0.5339244062622901,0.36534402994081366,0.4017385480289825,0.2955353161755938,0.2604752981581424,0.2026276122589464,0.3557058515189412,0.021506200560081068,1,right
1.176,-0.49295832905381237,0.5322373458530508,0.3622031603693028,0.4144212009340382,0.25608288946648644,0.29419041297462273,0.2248925362658131,0.3671570417292836,0.037506447197347824,1,right
1.18,-0.4928852089799185,0.5306919098535163,0.35898489384352994,0.4271735759584438,0.21568621655639744,0.3279800214314448,0.2474237385810503,0.37846865185144046,0.05394027913761332,1,right
1.181,-0.4928618583392094,0.5292899695531013,0.35569170971810865,0.4399679159153524,0.17436208889002205,0.3618185038637199,0.27021277712109143,0.38962467344047386,0.07080838305254882,1,right
1.185,-0.492886099430862,0.5280332412540002,0.3523261316444347,0.4527754745621441,0.13212879421071388,0.3956799692262906,0.29325094635377885,0.4006089269940981,0.0881110799853285,1,right
1.186,-0.49295556923468825,0.5269232852261021,0.3488907222669518,0.46556655868391705,0.08900610911984598,0.4295382914694146,0.3165292826273163,0.411405086636231,0.10584831709382443,1,right
1.19,-0.493067723892314,0.5259615047853385,0.3453880780432174,0.4783105742877953,0.04501528719544426,0.46336714819894864,0.3400385703774144,0.42199670621506596,0.12401965997476676,1,right
1.1909999999999998,-0.4932198441437373,0.5251491455052045,0.34182082419537596,0.4909760769447838,0.00017904254881097816,0.49714006171825265,0.3637693492787938,0.4323672468471869,0.1426242856185747,1,right
1.196,-0.4934090416962828,0.5244872945742949,0.3381916097969805,0.5035308263158488,-0.04547847130469607,0.5308304425490209,0.38771192240789626,0.4425001059387036,0.16166097604581242,1,right
1.196,-0.4936322664933831,0.5239768803147006,0.3345031029969811,0.5159418448987665,-0.0919316873870536,0.5644116355281662,0.41185636545239385,0.45237864767925384,0.18112811266115694,1,right
1.197,-0.4938863148443929,0.5236186718760989,0.3307579863803539,0.5281754810320557,-0.13915365613988254,0.5978569685777197,0.43619253684407966,0.4619862348313624,0.20102367128045168,1,right
1.2,-0.4941678383755561,0.5234132791181839,0.32695895246206214,0.5401974761919888,-0.1871160813787845,0.6311398042444732,0.46071008840498373,0.4713062613260584,0.22134521764085316,1,right
1.2,-0.49447335376043794,0.5233611526925387,0.3231086993098134,0.5519730366182624,-0.23578936145309423,0.6642335941057751,0.4853984759374977,0.48032218500220364,0.24208990312375564,1,right
1.206,-0.4947992531784526,0.5234625843362957,0.3192099262915712,0.5634669093033988,-0.285142635746644,0.6971119361375024,0.5102469693494818,0.48901755999892477,0.263254460502967,1,right
1.207,-0.4951418154366731,0.5237177073915276,0.3152653299437527,0.5746434622889407,-0.33514383653309326,0.7297486350277073,0.5352446621931964,0.4973760686206212,0.2848351996786376,1,right
1.207,-0.49549721768477933,0.5241264975630961,0.3112775999547284,0.5854667687538039,-0.38575974558059434,0.7621177648585937,0.5603804806570318,0.5053815526658685,0.30682800344021705,1,right
1.21,-0.4958615476576075,0.5246887739242739,0.3072494152574957,0.595900693556765,-0.4369560537850288,0.7941937325703344,0.5856431920813943,0.5130180442451613,0.3292283233192323,1,right
1.2109999999999999,-0.49623081637986,0.5254042001758806,0.3031834402270373,0.6059089804371547,-0.4886974214920853,0.8259513400592471,0.6110214130705377,0.5202697961114741,0.35203117559387154,1,right
1.215,-0.4966009712526123,0.526272286160686,0.2990823209808075,0.6154553385338062,-0.5409475377910361,0.8573658433223786,0.6365036172725244,0.5271213115266015,0.37523113750854603,1,right
1.216,-0.49696790942120767,0.5272923896282415,0.29494868178277794,0.6245035277037678,-0.593669178182221,0.8884130080682314,0.6620781428998626,0.5335573736851832,0.3988223437727681,1,right
1.222,-0.49732749131271975,0.5284637182355986,0.2907851215531441,0.6330174425780535,-0.6468242606426332,0.9190691617727526,0.6877332000637034,0.5395630747172105,0.42279848340483983,1,right
1.222,-0.49767555422963644,0.5297853317597027,0.28659421048933287,0.6409611953817785,-0.7003739002396295,0.9493112422707795,0.7134568779947732,0.5451238442886668,0.44715279698698795,1,right
1.224,-0.49800792589100307,0.5312561444916222,0.2823784868090953,0.648299197544595,-0.7542784624441368,0.9791168429720798,0.7392371522244856,0.5502254778187561,0.47187807439970214,1,right
1.225,-0.4983204378206833,0.5328749277819856,0.2781404536305141,0.6549962401258087,-0.8084976152959712,1.0084642547900053,0.7650618917999076,0.5548541643309447,0.49696665310413846,1,right
1.229,-0.4986089384918268,0.5346403127086814,0.27388257600423177,0.6610175730769206,-0.8629903805750205,1.0373325048695856,0.7909188666064509,0.5589965139537564,0.5224104170425379,1,right
1.23,-0.4988693061446876,0.5365507928398239,0.26960727811025675,0.666328983362597,-0.917715184133053,1.0657013922006402,0.8167957548723233,0.5626395850859489,0.5482007962276709,1,right
1.234,-0.49909746120105875,0.5386047270670047,0.26531694062784045,0.6708968719592341,-0.9726299055418246,1.0935515202001724,0.8426801509289003,0.5657709112393402,0.5743287670933637,1,right
1.235,-0.49928937820307334,0.5408003424868346,0.261013898283955,0.6746883297483369,-1.0276919272139367,1.1208643263469305,0.8685595733012704,0.5683785275711544,0.6007848536791804,1,right
1.24,-0.49944109720798147,0.5431357373135618,0.2567004375839268,0.6776712123199036,-1.0828581831535629,1.1476221089495904,0.8944214732032658,0.5704509971163295,0.6275591297233325,1,right
1.24,-0.49954873457542404,0.5456088838121085,0.25237879472671365,0.6798142136988625,-1.1380852074947112,1.1738080511285276,0.920253243511309,0.5719774367287535,0.6546412217388515,1,right
1.244,-0.4996084930907599,0.5482176312484413,0.24805115370715172,0.6810869390053879,-1.1933291829851045,1.1994062420896014,0.9460422282913955,0.572947542738896,0.6820203131490066,1,right
1.245,-0.4996166713775445,0.5509597088619297,0.2437196446079614,0.6814599760575921,-1.2485459895740627,1.2244016957667834,0.9717757329534773,0.5733516163337672,0.7096851495588575,1,right
1.249,-0.499569672564391,0.5538327288713962,0.23938634208472231,0.6809049659226895,-1.30369125326295,1.248780366908821,0.997441035107429,0.5731805886635644,0.7376240452407234,1,right
1.25,-0.4994640121853089,0.5568341895320099,0.23505326404579016,0.6793946724202207,-1.3587203953767877,1.2725291646834413,1.0230253961946534,0.5724260456777744,0.7658248909121923,1,right
1.254,-0.49929632530660495,0.5599614782639268,0.23072237052519687,0.6769030505783513,-1.4135886824155632,1.2956359638708694,1.0485160739692252,0.5710802526918722,0.7942751628861214,1,right
1.255,-0.4990633728861285,0.5632118748755941,0.2263955627414674,0.67340531404159,-1.4682512766435565,1.3180896137166678,1.0739003359022754,0.5691361786841064,0.8229619336728626,1,right
1.26,-0.49876204738103325,0.5665825549036441,0.22207468233175495,0.6688780014255307,-1.5226632875746702,1.3398799445120917,1.0991654735830845,0.5665875203201866,0.8518718841157014,1,right
1.261,-0.4983893776278007,0.5700705930872246,0.21776151075045463,0.6632990416114101,-1.5767798245112923,1.3609977719683197,1.1242988181900857,0.5634287257019926,0.880991317141208,1,right
1.264,-0.4979425330237129,0.5736729669904065,0.21345776882390535,0.6566478179703797,-1.6305560502936207,1.3814348994490377,1.149287757104674,0.5596550178347067,0.9103061732068859,1,right
1.264,-0.49741882704409657,0.5773865607834725,0.2091651164555895,0.6489052315044408,-1.6839472364156691,1.4011841181239586,1.1741197517403719,0.5552624178050346,0.9398020475291339,1,right
1.265,-0.4968157201344688,0.5812081691904117,0.20488515247762573,0.6400537628879691,-1.7369088196633165,1.4202392051039197,1.1987823566090001,0.5502477676303392,0.969464209124081,1,right
1.2690000000000001,-0.49613082201723385,0.5851345016057173,0.20061941464342217,0.6300775333906836,-1.7893964604287906,1.4385949196162595,1.223263239392437,0.5446087525812787,0.99927762143907,1,right
1.27,-0.49536189344725956,0.5891621863806179,0.1963693797523126,0.6189623646597762,-1.8413661028548671,1.4562469972771912,1.2475502013333493,0.5383439224989323,1.0292269638934834,1,right
1.274,-0.49450684744562506,0.5932877752751623,0.1921364638908766,0.6066958373357425,-1.892774036960835,1.4731921425158991,1.271631197005139,0.5314527114701448,1.0592966533927437,1,right
1.275,-0.4935637500405353,0.5975077480641064,0.1879220227714518,0.5932673484732238,-1.9435769629009134,1.4894280192030849,1.2954943527734797,0.5239354553784958,1.08947086513509,1,right
1.275,-0.49253082054398967,0.6018185172731049,0.18372735214990998,0.5786681676669745,-1.9937320573989734,1.5049532395411647,1.3191279837160128,0.5157934071263364,1.1197335524907321,1,right
1.278,-0.491406431387639,0.6062164330148391,0.17955368831119842,0.5628914914401352,-2.043197041875065,1.5197673513037853,1.3425206090188284,0.5070287494770058,1.1500684659886622,1,right
1.278,-0.490189107534837,0.6106977878958004,0.1754022086182642,0.5459324948373154,-2.0919302508293685,1.533870823568796,1.365660965918257,0.4976446054956356,1.1804591714977695,1,right
1.2830000000000001,-0.4888775254844036,0.6152588219658971,0.17127403212668535,0.5277883788219982,-2.1398906985205914,1.5472650311192593,1.3885380222558423,0.4876450465651552,1.2108890676891626,1,right
1.2830000000000001,-0.48747051188713675,0.6198957276771483,0.16717022027537604,0.5084584124140328,-2.1870381425005934,1.5599522376525603,1.411140987713669,0.47703509795232923,1.2413414028668086,1,right
1.288,-0.48596704180628925,0.624604654809499,0.16309177767113822,0.4879439691109319,-2.2333331435130575,1.5719355778771236,1.4334593237965014,0.4658207418968738,1.2717992912537546,1,right
1.2890000000000001,-0.48436623666471845,0.629381715321509,0.15903965298651623,0.46624855747292265,-2.278737121788551,1.583219038541723,1.4554827526264267,0.45400891819493994,1.3022457288213152,1,right
1.2919999999999998,-0.48266736193068477,0.6342229880934379,0.15501473998551082,0.44337784581622186,-2.323212409871331,1.5938074384338388,1.477201264614912,0.4416075222464953,1.332663608748669,1,right
1.2930000000000001,-0.4808698245974328,0.6391245235440054,0.15101787868574534,0.4193396809556125,-2.366722302110807,1.6037064073814933,1.4986051250763692,0.42862540053440423,1.363035736600327,1,right
1.298,-0.47897317050719374,0.6440823481133588,0.1470498566640189,0.3941441009340088,-2.4092311009480105,1.6129223642909922,1.519684879846474,0.4150723435012905,1.3933448453088981,1,right
1.2990000000000002,-0.47697708155990876,0.6490924686116725,0.1431114105137102,0.36780334167332374,-2.450704160124762,1.6214624942510008,1.540431359967608,0.40095907578857637,1.4235736100505003,1,right
1.3030000000000002,-0.4748813728340253,0.6541508764369676,0.13920322746209066,0.3403318374776071,-2.4911079249404438,1.629334724731402,1.560835685502893,0.3862972438004242,1.453704663100028,1,right
1.304,-0.47268598963405695,0.6592535516689152,0.13532594715013566,0.31174621531609903,-2.530409969678428,1.6365477009034348,1.5808892685393514,0.3710994005536703,1.4837206087533101,1,right
1.307,-0.4703910044693796,0.6643964670485615,0.1314801635661523,0.28206528281056104,-2.568579032321224,1.643110760105655,1.6005838154397745,0.35537898777323157,1.5136040384029599,1,right
1.307,-0.4679966139628263,0.6695755918579649,0.12766642710839227,0.25131000984800117,-2.605585046670351,1.6490339054783592,1.619911328401898,0.3391503151908927,1.54333754585444,1,right
1.3119999999999998,-0.4655031356869264,0.6747868957190895,0.12388524673561828,0.2195035037367156,-2.6413991719837626,1.6543277787872055,1.6388641063824716,0.32242853700384366,1.5729037429685293,1,right
1.3130000000000002,-0.46291100492835546,0.6800263523372498,0.12013709215503288,0.18667097782042597,-2.675993820240413,1.6590036324549144,1.657434745442786,0.3052296254478377,1.6022852757160024,1,right
1.317,-0.4602207713843254,0.6852899432186742,0.1164223959970648,0.1528397134622109,-2.709342681138216,1.663073300818082,1.6756161385711623,0.28757034143838234,1.6314648407299028,1,right
1.318,-0.4574330957969577,0.6905736613921081,0.11274155593556205,0.11803901530691416,-2.7414207449282144,1.6665491706243398,1.693401475036834,0.269468202231959,1.660425202440305,1,right
1.321,-0.4545487465335413,0.6958735151610318,0.10909493672754282,0.08230015972776918,-2.7722043231842877,1.6694441507833224,1.710784239328554,0.25094144605790125,1.6891492108759372,1,right
1.3219999999999998,-0.4515685961226387,0.7011855319080299,0.10548287216336479,0.045656336360114916,-2.8016710676041465,1.6717716413831551,1.727758209730143,0.2320089936702383,1.7176198202164483,1,right
1.327,-0.4484936177586486,0.7065057619677086,0.10190566692969782,0.008142582622297048,-2.8297999869337165,1.6735455019824774,1.7443174565840596,0.21269040676753972,1.745820108178482,1,right
1.328,-0.4453248817902647,0.711830282580194,0.09836359839240755,-0.030204288878842047,-2.8565714621032887,1.674780019186348,1.7604563402929116,0.19300584322758058,1.7737332963180348,1,right
1.3330000000000002,-0.4420635522102649,0.717155201934361,0.0948569183071166,-0.06934577016307705,-2.881967259660051,1.675489873512747,1.7761695091076595,0.17297600910248118,1.8013427713308496,1,right
1.334,-0.4387108831641661,0.722476663308999,0.09138585446425186,-0.10924174502020496,-2.905970543577763,1.6756901055548012,1.7914518967438298,0.15262210740842022,1.8286321073851155,1,right
1.334,-0.4352682154924784,0.7277908493206803,0.08795061227349815,-0.14985058359181933,-2.928565885520434,1.6753960814423134,1.8062987198346554,0.13196578419073532,1.8555850892863686,1,right
1.337,-0.4317369733165345,0.7330939862871773,0.08455137629059746,-0.19112924450381,-2.949739273632935,1.6746234576046615,1.820705475172683,0.11102907315021139,1.8821857358532403,1,right
1.338,-0.42811866067534915,0.7383823487124626,0.08118831168882182,-0.2330333846641095,-2.96947811992746,1.6733881448356813,1.834667936658954,0.0898343405631913,1.9084183226482374,1,right
1.3419999999999999,-0.42441485822378616,0.7436522638938305,0.07786156567783778,-0.2755174768422513,-2.9877712663307197,1.6717062716597197,1.848182151908813,0.06840423177951095,1.934267403440315,1,right
1.3430000000000002,-0.4206272200084088,0.7489001166456207,0.07457126887173807,-0.3185349351492276,-3.0046089894526586,1.669594146996674,1.8612444385182867,0.04676161977547949,1.9597178301953717,1,right
1.344,-0.4167574703420087,0.7541223541282668,0.071317536605045,-0.3620382483042127,-3.019983004123137,1.667068222159228,1.873851380024896,0.024929555790619232,1.9847547716232885,1,right
1.347,-0.41280740079736394,0.7593154907673701,0.06810047019201745,-0.40597911940780923,-3.0338864656876225,1.6641450523978458,1.8859998216017138,0.0029312219866517533,2.0093637303557266,1,right
1.348,-0.40877886733593793,0.7644761132462226,0.06492015812173502,-0.45030860883956814,-3.0463139709565255,1.6608412585383825,1.8976868655221881,-0.019210113933393676,2.0335305588277737,1,right
1.351,-0.4046737875829287,0.7696008855519086,0.061776677178588923,-0.49497727573035716,-3.057261557647378,1.6571734894396148,1.9089098664319384,-0.04147114220861716,2.0572414739353273,1,right
1.3519999999999999,-0.40049413825800195,0.7746865540457559,0.05867009347334105,-0.5399353146299793,-3.0667267022060734,1.6531583858132186,1.9196664264624206,-0.06382855266937598,2.08048307053888,1,right
1.3559999999999999,-0.3962419527665419,0.7797299525189019,0.05560046336381409,-0.5851326860949936,-3.074708315981374,1.6488125456170957,1.9299543902200258,-0.08625907461565903,2.1032423338831046,1,right
1.357,-0.39191931894641724,0.7847280071893024,0.052567834239601756,-0.6305192410912361,-3.081206739773884,1.6441524910482788,1.9397718396828505,-0.10873951498860776,2.1255066510003227,1,right
1.361,-0.3875283769519894,0.789677741596444,0.04957224514580982,-0.6760448393400871,-3.086223736786669,1.6391946371239114,1.949117089036032,-0.13124679489936042,2.147263821164595,1,right
1.361,-0.3830713172420874,0.7945762813513978,0.04661372722911436,-0.7216594617382147,-3.089762484000465,1.6339552618378552,1.9579886794752026,-0.15375798457960643,2.168502065461789,1,right
1.3659999999999999,-0.37855037862323165,0.7994208587018597,0.04369230400487644,-0.7673133169810729,-3.091827561992135,1.6284504778795739,1.966385374006257,-0.17625033681838168,2.189210035539558,1,right
1.367,-0.37396784628653906,0.8042088168741726,0.0408079914622932,-0.8129569425208265,-3.0924249432107995,1.6226962059010859,1.9743061522682825,-0.19870131894971244,2.209376821599708,1,right
1.371,-0.3693260497697846,0.808937614157058,0.03796079803906205,-0.8585412999896372,-3.091561978721822,1.6167081493169702,1.9817502054051337,-0.22108864345572807,2.228991959693936,1,right
1.3719999999999999,-0.3646273607766648,0.8136048276953245,0.0351507245035918,-0.9040178652193537,-3.089247383424581,1.6105017706216433,1.988716931009764,-0.24339029724980815,2.248045438382414,1,right
1.3780000000000001,-0.3598741907928818,0.8182081569660627,0.032377763781177134,-0.9493387129886217,-3.0854912197457725,1.6040922692074122,1.995205928164076,-0.2655845697042116,2.26652770481312,1,right
1.379,-0.35506898845129603,0.8227454269145367,0.029641900752283977,-0.9944565966282637,-3.0803048798057806,1.597494560666134,2.001216992595665,-0.2876500794864539,2.2844296702782456,1,right
1.381,-0.35021423661377543,0.827214590732714,0.02694311203868533,-1.0393250226154647,-3.0737010660514827,1.5907232575566868,2.006750111971481,-0.30956580026845126,2.301742715302407,1,right
1.381,-0.34531244915310594,0.8316137322707521,0.024281365780528075,-1.0838983202868577,-3.0656937703447276,1.5837926516198706,2.011805461347032,-0.33131108537214515,2.3184586943157113,1,right
1.386,-0.3403661674327287,0.8359410680801611,0.021656621397683342,-1.1281317068000223,-3.0562982514916173,1.576716697421816,2.016383398788415,-0.35286569141494906,2.334569939963109,1,right
1.3869999999999998,-0.33537795649473995,0.8401949490958551,0.01906882932244301,-1.1719813474721883,-3.0455310111936464,1.5695089974064798,2.020484461183059,-0.3742098010179318,2.3500692670997396,1,right
1.392,-0.3303504009773133,0.8443738619725513,0.016517930686790333,-1.215404411624102,-3.0334097683977324,1.5621827883373445,2.0241093602537066,-0.3953240446391621,2.364949976520281,1,right
1.392,-0.3252861007910064,0.8484764300983554,0.014003856945577113,-1.258359124056025,-3.019953432018178,1.5547509291080313,2.027258978788786,-0.4161895215940925,2.379205858468558,1,right
1.396,-0.3201876665889673,0.8525014143135905,0.011526529416394971,-1.300804812281745,-3.0051820719996813,1.5472258899011404,2.0299343671009584,-0.4367878203242556,2.3928311959719393,1,right
1.3969999999999998,-0.3150577150683032,0.8564477133651569,0.009085858716935595,-1.3427019496452521,-2.9891168886866004,1.5396197426743063,2.0321367397242542,-0.45710103797488943,2.4058207680432426,1,right
1.4,-0.3098988641385118,0.8603143641260536,0.006681744082432803,-1.3840121944433867,-2.97178018045987,1.531944152952142,2.0338674723553756,-0.4771117993216733,2.4181698527760638,1,right
1.401,-0.30471372798789925,0.864100541606547,0.004314072550943462,-1.424698425176314,-2.9531953095991765,1.5242103729024845,2.035128099026042,-0.49680327498739824,2.429874230282462,1,right
1.402,-0.29950491207106583,0.867805558778089,0.001982718011224197,-1.464724772046097,-2.9333866663242905,1.5164292356751092,2.035920309460656,-0.5161591987111082,2.440930185284824,1,right
1.406,-0.294275008034563,0.8714288662241888,-0.00031245988463119285,-1.5040566448219652,-2.9123796309657983,1.5086111509808957,2.0362459465548777,-0.5351638833327901,2.4513345090967222,1,right
1.406,-0.2890265885994034,0.8749700516252186,-0.002571616932816029,-1.5426607571890811,-2.8902005342119037,1.5007661018892466,2.036107003926676,-0.5538022352543669,2.4610845008008897,1,right
1.41,-0.2837622024257596,0.8784288390772467,-0.004794925694086486,-1.5805051477035923,-2.866876615425573,1.492903642814675,2.0355056235213334,-0.572059767314252,2.4701779675658804,1,right
1.411,-0.27848436898781703,0.8818050882396616,-0.006982576891697857,-1.6175591975141501,-2.8424359792785214,1.4850328986296266,2.0344440932678562,-0.589922610110309,2.4786132241162595,1,right
1.412,-0.2731955734820956,0.8850987933032329,-0.00913478087014684,-1.653793645078896,-2.8169075514053254,1.477162564779747,2.0329248447864137,-0.6073775218247289,2.4863890913843316,1,right
1.415,-0.267898261788353,0.8883100817662549,-0.011251769093825264,-1.68918059814411,-2.7903210340333335,1.4693009082440138,2.030950451145068,-0.6244118966032445,2.4935048943695204,1,right
1.416,-0.2625948355056805,0.8914392129987719,-0.013333795657361494,-1.723693543209076,-2.762706862285169,1.4614557692158745,2.028523624662762,-0.6410137715399676,2.499960459229635,1,right
1.421,-0.2572876470936694,0.8944865765668739,-0.015381138769516372,-1.7573073526284542,-2.7340961613873405,1.4536345634422982,2.0256472147542004,-0.6571718323179665,2.5057561096263585,1,right
1.421,-0.25197899515222244,0.897452690284859,-0.017394102166254366,-1.7899982894616415,-2.704520704759778,1.4458442851914166,2.0223242058109583,-0.6728754175544908,2.5108926623454,1,right
1.4240000000000002,-0.24667111987338766,0.900338197962325,-0.019373016406494924,-1.821744010168214,-2.6740128729070345,1.438091510826236,2.0185577151118532,-0.6881145218985149,2.515371422209854,1,right
1.425,-0.24136619869772824,0.903143866814534,-0.021318240004402723,-1.852523565245961,-2.6426056130290227,1.4303824029619696,2.014350990754324,-0.7028797979269937,2.5191941763034196,1,right
1.429,-0.23606634220679015,0.9058705845076335,-0.023230160354355805,-1.8823173979053753,-2.6103323992664076,1.4227227151846202,2.009707409597276,-0.717162556884921,2.5223631875182373,1,right
1.429,-0.23077359028092456,0.9085193558149118,-0.025109194408412278,-1.9111073408717532,-2.577227193493073,1.4151177973085571,2.0046304752045803,-0.7309547683129466,2.5248811874402186,1,right
1.435,-0.22548990854798745,0.911091298865021,-0.026955789070717124,-1.9388766114032823,-2.5433244065655147,1.407572601150956,1.9991238157771487,-0.7442490586049549,2.526751368582847,1,right
1.436,-0.2202171851448252,0.9135876409678634,-0.028770421279196344,-1.9656098046106678,-2.5086588599365247,1.4000916868011049,1.9931911820602533,-0.7570387085366131,2.5279773759785664,1,right
1.44,-0.2149572278114246,0.9160097140092518,-0.03055359775189229,-1.991292885160966,-2.4732657475381274,1.3926792293627412,1.9868364452115126,-0.769317649804498,2.528563298134994,1,right
1.4409999999999998,-0.20971176133698108,0.9183589494124327,-0.03230585438176781,-2.0159131774453667,-2.4371805978364645,1.3853390261477554,1.980063594613734,-0.7810804606139757,2.528513657361338,1,right
1.444,-0.20448242537675188,0.9206368726732894,-0.03402775526904761,-2.0394593542876955,-2.4004392359591007,1.3780745042997784,1.972876735615578,-0.7923223603525639,2.527833399468553,1,right
1.445,-0.19927077265789336,0.9228450974849757,-0.03571989138592816,-2.06192142426738,-2.3630777457931704,1.37088872882637,1.9652800871817968,-0.8030392033840374,2.526527882844927,1,right
1.449,-0.19407826759132463,0.9249853194754986,-0.037382878876437695,-2.0832907177275897,-2.3251324319507667,1.3637844110187227,1.9572779794335982,-0.8132274719970611,2.5246028669069602,1,right
1.45,-0.18890628530441161,0.9270593095888996,-0.03901735700418206,-2.1035598715361727,-2.2866397814961084,1.3567639172380246,1.9488748510585026,-0.822884268540632,2.522064499923604,1,right
1.456,-0.1837561111059144,0.9290689071471956,-0.04062398577135445,-2.122722812663888,-2.2476364253272316,1.349829278047844,1.9400752465678752,-0.8320073067771138,2.5189193062101176,1,right
1.456,-0.178628940390808,0.9310160126347903,-0.04220344324172944,-2.140774740641316,-2.208159099103276,1.342982197672128,1.9308838133791548,-0.840594902482123,2.5151741726860166,1,right
1.46,-0.17352587898837296,0.9329025802498166,-0.04375642260690988,-2.1577121089526536,-2.16824460360687,1.3362240637586542,1.921305298698651,-0.8486459633190047,2.510836334789852,1,right
1.46,-0.16844794395251114,0.934730610269561,-0.04528362903885271,-2.173532605421445,-2.127929764429643,1.3295559574280194,1.9113445461796397,-0.8561599780141006,2.50591336174179,1,right
1.465,-0.16339606478946747,0.9365021412795358,-0.046785776373013496,-2.188235131640083,-2.0872513908675416,1.3229786635884935,1.901006492329364,-0.8631370048574796,2.500413141143246,1,right
1.466,-0.1583710851152207,0.9382192423158946,-0.04826358366547998,-2.201819781491746,-2.046246233911357,1.3164926814973315,1.8902961626374328,-0.8695776595522551,2.4943438629011365,1,right
1.469,-0.15337376473223596,0.9398840049685748,-0.04971777166514234,-2.214287818810213,-2.0049509432167394,1.310098235549386,1.8792186673970146,-0.8754831024340772,2.4877140024626145,1,right
1.47,-0.14840478211327185,0.941498535489336,-0.05114905923964022,-2.2256416542197877,-1.9634020229369122,1.3037952862741322,1.8677791971891378,-0.8808550250808443,2.4805323033445124,1,right
1.47,-0.14346473727875989,0.9430649469447674,-0.05255815979143645,-2.2358848211943636,-1.9216357863003724,1.297583541522465,1.8559830180162342,-0.8856956363322727,2.4728077589657054,1,right
1.473,-0.13855415505338403,0.9445853514485606,-0.05394577769603038,-2.245021951371456,-1.8796883088150238,1.2914624678249043,1.8438354661544918,-0.8900076477431084,2.4645495939171815,1,right
1.474,-0.13367348868613238,0.9460618525009324,-0.05531260478827056,-2.2530587491538188,-1.8375953799794613,1.2854313019031005,1.8313419429455857,-0.8937942585024514,2.455767245033722,1,right
1.4780000000000002,-0.12882312381553296,0.9474965374593605,-0.05665931691933162,-2.2600019656280836,-1.7953924533815033,1.2794890623167938,1.8185079098318253,-0.8970591398558162,2.4464703427577117,1,right
1.479,-0.12400338275801369,0.9488914701653459,-0.05798657060867235,-2.2658593718266866,-1.7531145950635438,1.2736345612286406,1.8053388838532565,-0.8998064190593565,2.4366686931559043,1,right
1.48,-0.11921452909385762,0.9502486837532844,-0.05929499981837866,-2.27063973135298,-1.7107964301268082,1.2678664162597848,1.791840433672213,-0.9020406628839575,2.4263722607177374,1,right
1.483,-0.1144567725239156,0.9515701736655512,-0.06058521287698562,-2.274352772370288,-1.6684720880109192,1.2621830623603385,1.7780181761053553,-0.9037668606797146,2.4155911519341418,1,right
1.484,-0.10973027397058638,0.9528578908935388,-0.06185778957618589,-2.27700915892375,-1.6261751477213233,1.2565827635310334,1.7638777731253779,-0.9049904070087037,2.404335599628717,1,right
1.489,-0.10503515089526728,0.9541137354619841,-0.06311327846030325,-2.2786204615446937,-1.5839385847416496,1.2510636241835869,1.7494249292936204,-0.9057170838524707,2.3926159480117115,1,right
1.49,-0.10037148279992607,0.955339550174779,-0.06435219432716828,-2.279199127100223,-1.541794720903414,1.2456235999765377,1.7346653895838844,-0.9059530423992106,2.380442638425858,1,right
1.494,-0.0957393168751752,0.9565371146415728,-0.06557501595850201,-2.2787584478764793,-1.499775177649205,1.240260508051696,1.71960493755685,-0.905704784414165,2.367826195751751,1,right
1.495,-0.0911386737532081,0.957708139604275,-0.0667821840959296,-2.2773125298970194,-1.45791083266101,1.2349720366455512,1.7042493938435852,-0.904979143195338,2.3547772154391247,1,right
1.4980000000000002,-0.08656955332020017,0.958854261582391,-0.06797409967511227,-2.2748762604780115,-1.4162317797326853,1.229755754060006,1.6886046148957574,-0.9037832641152223,2.3413063511290813,1,right
1.499,-0.08203194053903978,0.959977037856356,-0.06915112232641717,-2.2714652750190085,-1.3747672917659262,1.2246091169770266,1.6726764919592958,-0.9021245847478359,2.3274243028310484,1,right
1.5030000000000001,-0.07752581123081244,0.9610779418079266,-0.0703135691478294,-2.2670959230251806,-1.333545786769532,1.2195294781020092,1.656470950227407,-0.9000108145790029,2.3131418056170054,1,right
1.504,-0.07305113776224152,0.9621583586360105,-0.07146171375487304,-2.2617852333540402,-1.292594796742303,1.2145140931208744,1.6399939481280108,-0.8974499142964567,2.2984696187943015,1,right
1.508,-0.06860789458554062,0.9632195814653673,-0.07259578561161899,-2.2555508786768947,-1.2519409393205108,1.2095601269560976,1.6232514766998543,-0.8944500746550175,2.2834185155172073,1,right
1.5090000000000001,-0.06419606357711428,0.9642628078644656,-0.07371596964574685,-2.248411139142511,-1.2116098920715792,1.2046646593070758,1.6062495590107613,-0.8910196949107904,2.267999272796194,1,right
1.5119999999999998,-0.05981563912196716,0.9652891367871897,-0.07482240615025959,-2.2403848652277754,-1.1716263693163997,1.19982468946042,1.5889942495706941,-0.8871673608170437,2.252222661862819,1,right
1.5130000000000001,-0.055466632890987126,0.9662995659513157,-0.07591519097540553,-2.2314914397574825,-1.132014101363542,1.1950371403559323,1.5714916336915479,-0.882901822173167,2.236099438846997,1,right
1.517,-0.05114907825946237,0.9672949896655851,-0.07699437601531862,-2.2217507390727724,-1.0927958160395566,1.1902988618942012,1.553747826744845,-0.878231969916875,2.2196403357223864,1,right
1.518,-0.04686303431809269,0.9682761971160337,-0.07805996999318414,-2.2111830933252143,-1.053993222400557,1.1856066334719015,1.5357689732677768,-0.873166812748608,2.2028560514745945,1,right
1.5230000000000001,-0.042608589431593465,0.9692438711196206,-0.07911193954647117,-2.199809245871019,-1.015626996511336,1.180957165731039,1.5175612458673207,-0.8677154532758945,2.1857572434459014,1,right
1.5230000000000001,-0.03838586430417036,0.9701985873505267,-0.08015021061135078,-2.1876503117374453,-0.9777167691793972,1.1763471015085236,1.4991308438714745,-0.8618870636642806,2.168354518809252,1,right
1.527,-0.03419501451585682,0.9711408140434344,-0.08117467010347185,-2.174727735131094,-0.9402811155324781,1.1717730159725828,1.4804839916759767,-0.8556908607802933,2.150658426123314,1,right
1.527,-0.030036232498891684,0.9720709121774194,-0.08218516789009074,-2.1610632459554475,-0.9033375463293917,1.1672314159326496,1.4616269367342118,-0.8491360808108006,2.1326794469195076,1,right
1.5319999999999998,-0.02590974892858102,0.9729891361421621,-0.08318151904492059,-2.1466788153027836,-0.8669025008953198,1.1627187383094784,1.4425659471373784,-0.8422319533420402,2.114427987271035,1,right
1.5330000000000001,-0.021815833508512277,0.9738956348856131,-0.08416350637103837,-2.131596609883384,-0.8309913415740526,1.158231347752336,1.4233073087313586,-0.8349876748805394,2.0959143692930997,1,right
1.538,-0.01775479513612298,0.97479045353993,-0.08513088316951713,-2.115838945352826,-0.7956183495910825,1.153765533390219,1.4038573217412245,-0.8274123818387452,2.07714882254409,1,right
1.5390000000000001,-0.013726981441079323,0.9756735355207433,-0.08608337622575894,-2.0994282384960883,-0.7607967222229152,1.1493175047041209,1.384222296999189,-0.819515123215314,2.058141475403761,1,right
1.5390000000000001,-0.009732777694601987,0.9765447250935386,-0.08702068898387784,-2.082386958225187,-0.7265385711694676,1.144883386507451,1.3644085520970606,-0.8113048335736848,2.038902346696344,1,right
1.544,-0.005772605094295728,0.9774037703983952,-0.08794250487699869,-2.064737575345124,-0.6928549220279622,1.1404592130217721,1.344422407909171,-0.8027903071297515,2.019441337932826,1,right
1.545,-0.001846918439656021,0.9782503269186873,-0.08884849077308969,-2.046502511041058,-0.6597557147683102,1.1360409210350642,1.3242701858057595,-0.7939801735503783,1.9997682264389123,1,right
1.547,0.0020437967730472235,0.9790839613728638,-0.08973830048662453,-2.02770408412479,-0.6272498051482684,1.1316243421688912,1.3039582056504564,-0.7848828756889599,1.9798926594418589,1,right
1.548,0.005899027798953671,0.9799041560056846,-0.09061157830456147,-2.0083644575119637,-0.5953449671916566,1.12720519447646,1.2834927845495514,-0.7755066492752122,1.959824149081704,1,right
1.548,0.009718238596971117,0.9807103132558345,-0.09146796248178735,-1.9885055851827607,-0.5640478971846541,1.122779073945653,1.2628802362951732,-0.7658595045339017,1.939572068290399,1,right
1.5519999999999998,0.013500874243907989,0.9815017607744375,-0.09230708866804499,-1.9681491613122952,-0.5333642198302576,1.118341446676702,1.2421268714440434,-0.7559492097063985,1.919145647481758,1,right
1.5519999999999998,0.01724636575420928,0.982277756760991,-0.09312859322887161,-1.9473165728203128,-0.5032984970193427,1.1138876423085855,1.2212389979730225,-0.745783276448134,1.8985539719946056,1,right
1.556,0.020954135232324145,0.9830374955744956,-0.09393211642128556,-1.9260288558052452,-0.4738542393484668,1.1094128489161272,1.20022292245225,-0.735368947074267,1.8778059802309524,1,right
1.557,0.024623601275493828,0.9837801135728585,-0.09471730538815004,-1.904306655891189,-0.4450339203329498,1.1049121094041616,1.1790849516762743,-0.7247131836251032,1.856910462430546,1,right
1.5619999999999998,0.02825418454382952,0.9845046951338762,-0.09548381694459437,-1.8821701924280134,-0.41683899322886947,1.1003803193859605,1.1578313946931769,-0.7138226587220811,1.8358760600226596,1,right
1.5630000000000002,0.03184531341769554,0.9852102788158492,-0.09623132014304953,-1.8596392264834836,-0.3892699103793904,1.095812226533054,1.1364685651713362,-0.7027037481844219,1.814711265495533,1,right
1.567,0.03539642966688167,0.9858958636237409,-0.09695949861716913,-1.8367330325650406,-0.36232614500263804,1.0912024313835071,1.1150027840431158,-0.691362525375846,1.7934244227234568,1,right
1.568,0.03890699406085193,0.9865604153554436,-0.09766805271580967,-1.8134703740076925,-0.3360062153401205,1.0865453895956194,1.0934403823644376,-0.6798047572500823,1.7720237276910946,1,right
1.571,0.04237649185520896,0.9872028730102625,-0.0983567014448643,-1.7898694819633283,-0.3103077110865,1.0818354156339176,1.0717877043288828,-0.6680359020632464,1.75051722955426,1,right
1.5719999999999998,0.04580443809816939,0.987822155247329,-0.09902518423775,-1.765948037925693,-0.2852273220233078,1.0770666878741795,1.0500511103746704,-0.6560611087205156,1.7289128319760103,1,right
1.5759999999999998,0.049190382711434284,0.9884171668851778,-0.09967326257539497,-1.7417231597242393,-0.2607608687809868,1.0722332551141063,1.0282369803225815,-0.6438852177239124,1.7072182946766021,1,right
1.577,0.05253391530855912,0.9889868054350515,-0.10030072147396174,-1.7172113909190871,-0.2369033356554314,1.0673290444760963,1.0063517164826432,-0.6315127636873966,1.6854412351355386,1,right
1.581,0.05583466971921284,0.98952996766017,-0.10090737085365419,-1.6924286935284176,-0.213648905406964,1.062347870688407,0.9844017466671403,-0.6189479793848794,1.6635891303836647,1,right
1.5819999999999999,0.059092328191033,0.9900455561526571,-0.10149304679537542,-1.6673904440187364,-0.1909909959714538,1.0572834467308092,0.9623935270473026,-0.6061948012961877,1.6416693188230005,1,right
1.5859999999999999,0.0623066252433828,0.9905324859191332,-0.10205761268591267,-1.6421114324876318,-0.16892229901502784,1.05212939583063,0.9403335447908133,-0.5932568766154468,1.6196890020117733,1,right
1.587,0.06547735115056816,0.9909896909634636,-0.1026009602502129,-1.6166058649678627,-0.14743482026555696,1.0468792647948635,0.9182283204170938,-0.5801375716857945,1.5976552463518854,1,right
1.591,0.06860435503766345,0.991416130850457,-0.10312301047226563,-1.5908873687808809,-0.1265199215558104,1.0415265386637853,0.8960844098071562,-0.5668399818237984,1.5755749846158644,1,right
1.5919999999999999,0.07168754757987009,0.9918107972292415,-0.10362371441092774,-1.5649690008672,-0.10616836451486471,1.0360646566712504,0.8739084058046641,-0.5533669424964145,1.553455017250169,1,right
1.595,0.07472690330468162,0.9921727202905841,-0.10410305392023599,-1.538863259020368,-0.08637035584602024,1.0304870294965784,0.8517069393447144,-0.5397210418128084,1.531302013391568,1,right
1.5959999999999999,0.07772246250345025,0.9925009751289386,-0.10456104228599959,-1.512582095950689,-0.0671155941311228,1.0247870577926372,0.8294866800467401,-0.5259046342928427,1.509122511533173,1,right
1.6,0.08067433276367618,0.9927946879788664,-0.10499772479395401,-1.4861369361042671,-0.048393318102804415,1.018958151974416,0.8072543362078424,-0.511919855873532,1.4869229197765998,1,right
1.601,0.08358269013504697,0.9930530422973719,-0.1054131792489199,-1.459538695162399,-0.030192356327746892,1.0129937532520545,0.7850166541327895,-0.49776864011427013,1.4647095156066279,1,right
1.605,0.08644777994259456,0.993275284667704,-0.10580751646724487,-1.4327978021458456,-0.01250117824563097,1.0068873558919376,0.7627804167368619,-0.4834527355611435,1.442488445124659,1,right
1.6059999999999999,0.0892699172608865,0.9934607305051645,-0.10618088076527453,-1.405924224048035,0.004692053490036851,1.000632530689097,0.7405524413825393,-0.46897372420908906,1.4202657217010857,1,right
1.607,0.0920494870634913,0.9936087695508456,-0.1065334504641724,-1.3789274929208053,0.021399429421531252,0.9942229496337727,0.7183395770352582,-0.4543330408948319,1.3980472241259911,1,right
1.61,0.09478694406121423,0.9937188711445054,-0.10686543842625358,-1.351816735335897,0.0376332384977963,0.9876524117545747,0.6961487010471121,-0.439531993263433,1.3758386945524201,1,right
1.611,0.09748281224171416,0.9937905892719865,-0.10717709263176008,-1.324600704145009,0.05340591213603252,0.9809148701202683,0.6739867160016367,-0.4245717818454619,1.3536457366458037,1,right
1.6159999999999999,0.1001376841238059,0.9938235673844077,-0.10746869679890915,-1.2972878124608858,0.06872996718200511,0.9740044599817517,0.6518605469286195,-0.40945351988669326,1.331473814233782,1,right
1.617,0.10275221974187694,0.9938175429858257,-0.10774057104276903,-1.2698861697815707,0.08361794781573546,0.9669155280353413,0.6297771389742977,-0.39417825276139223,1.3093282505358643,1,right
1.617,0.10532714537731215,0.9937723519846966,-0.10799307255917093,-1.2424036201159638,0.09808236651400001,0.9596426627402855,0.6077434554881413,-0.37874697690514425,1.2872142279330503,1,right
1.62,0.10786325205310987,0.9936879328037045,-0.10822659631211101,-1.2148477816500476,0.1121356445102032,0.9521807253843819,0.5857664764626738,-0.36316065822380095,1.2651367882137343,1,right
1.621,0.1103613938052615,0.9935643302421587,-0.10844157570045834,-1.1872260869196025,0.12579005278571606,0.9445248811616787,0.5638531972629046,-0.3474202499346624,1.2431008332322822,1,right
1.624,0.11282248574082947,0.9934016990832385,-0.10863848317784365,-1.1595458221365134,0.1390576549559859,0.9366706292871572,0.542010627582095,-0.33152670979556853,1.221111125916764,1,right
1.625,0.11524750188837274,0.993200307433748,-0.10881783079169481,-1.1318141646340454,0.15195025308311033,0.9286138314113018,0.5202457905607342,-0.3154810166771251,1.1991722915624323,1,right
1.63,0.11763747284183397,0.9929605397782749,-0.10898017059624435,-1.1040382179695651,0.164479336850645,0.920350738026295,0.49856572200579313,-0.29928418643284976,1.1772888193476518,1,right
1.631,0.11999348319481637,0.992682899725129,-0.10912609488877932,-1.0762250445415058,0.17665603620487083,0.9118780127935574,0.4769774696475208,-0.28293728702158144,1.1554650640091195,1,right
1.635,0.1223166687582633,0.9923680124191693,-0.10925623622170255,-1.0483816956409273,0.18849107749958272,0.9031927547694782,0.45548809237127535,-0.26644145283606063,1.1337052476133622,1,right
1.635,0.1246082135505355,0.9920166265969762,-0.10937126715153411,-1.020515238857893,0.19999474318041635,0.8942925185055918,0.43410465936212334,-0.24979789819115406,1.112013461361653,1,right
1.64,0.1268693465455638,0.9916296162632214,-0.10947189969594948,-0.9926327827627788,0.21117683504371648,0.8851753319988546,0.4128342491002047,-0.23300792992476482,1.0903936673656645,1,right
1.641,0.12910133816430316,0.9912079819725742,-0.10955888448014377,-0.9647414987825399,0.22204664110396788,0.8758397124670653,0.3916839481451466,-0.2160729590640437,1.0688497003313542,1,right
1.645,0.1313054964985089,0.9907528517067976,-0.10963300956440222,-0.9368486401919045,0.23261290610285706,0.8662846799238576,0.370660849648111,-0.19899451150909084,1.0473852690887802,1,right
1.646,0.13348316326258378,0.9902654813408114,-0.10969509895538898,-0.9089615581394043,0.24288380569210788,0.8565097685270704,0.3497720515303884,-0.181774237685919,1.0260039579057425,1,right
1.65,0.1356357094760681,0.9897472546953509,-0.1097460108125696,-0.8810877146281366,0.2528669243213357,0.8465150356736748,0.32902465426779254,-0.1644139211200308,1.0047092275233729,1,right
1.651,0.13776453088449475,0.9891996831773641,-0.10978663536702503,-0.8532346923711456,0.2625692368612921,0.8363010688138074,0.3084257582204793,-0.1469154858815524,0.983504415852016,1,right
1.656,0.13987104312992668,0.988624405011125,-0.10981789257335049,-0.8254102014413244,0.2719970939920218,0.8258689899558295,0.2879824604481951,-0.129281002852458,0.9623927382659873,1,right
1.656,0.14195667668496714,0.9880231840634123,-0.10984072951718586,-0.7976220826357822,0.2811562113846262,0.8152204578337019,0.2677018509513698,-0.11151269476601797,0.9413772874360412,1,right
1.659,0.14402287156446358,0.9873979082665792,-0.10985611760112332,-0.7698783074746769,0.29005166270451793,0.8043576677073351,0.24759100827889377,-0.09361293996820612,0.9204610326386411,1,right
1.66,0.14607107182657478,0.9867505876447575,-0.10986504953057151,-0.7421869747545998,0.2986878764632644,0.7932833487659493,0.2276569944438663,-0.07558427485041255,0.8996468184813879,1,right
1.6669999999999998,0.14810271987032236,0.9860833519506795,-0.10986853611999953,-0.7145563035766997,0.30706863674534157,0.7820007591038601,0.20790684908906962,-0.05742939490242283,0.8789373629842439,1,right
1.6680000000000001,0.1501192505322667,0.9853984479226738,-0.10986760294039001,-0.6869946227698653,0.3151970878353623,0.7705136782374884,0.18834758284441108,-0.03915115433424829,0.8583352549564689,1,right
1.6680000000000001,0.1521220849822104,0.9846982361719776,-0.1098632868303584,-0.6595103566294327,0.323075742770597,0.7588263971317883,0.16898616981908315,-0.02075256421502144,0.8378429506094842,1,right
1.669,0.15411262441802798,0.983985187709944,-0.10985663229411256,-0.6321120068920604,0.3307064958428683,0.7469437057036912,0.1498295391717197,-0.0022367890768085707,0.817462769346173,1,right
1.675,0.1560922435632726,0.9832618801245712,-0.10984868780943559,-0.604808130867612,0.33809063907317766,0.734870877769572,0.13088456570237475,0.016392858069162505,0.7971968886674408,1,right
1.676,0.1580622839766732,0.9825309934168408,-0.10984050207083203,-0.5776073156491117,0.34522888268169927,0.7226136534031771,0.11215805944484133,0.035132922312556665,0.7770473381724892,1,right
1.6769999999999998,0.16002404718698254,0.9817953055084324,-0.10983312019534923,-0.5505181483220815,0.35212137957506695,0.7101782186698875,0.09365675440902947,0.05397981480854944,0.7570159928061581,1,right
1.68,0.16197878766874024,0.981057687432004,-0.1098275799174108,-0.523549182094841,0.35876775387216686,0.6975711827026488,0.07538729693083439,0.07292982151826445,0.7371045658248755,1,right
1.681,0.16392770567743334,0.9803210982146814,-0.10982490779709032,-0.49670889827165066,0.3651671334889439,0.6847995520843679,0.05735623425816691,0.09197911189585133,0.717314602129665,1,right
1.683,0.16587193996902896,0.9795885794671731,-0.10982611546890456,-0.4700056639908932,0.37131818680202,0.6718707025010692,0.03957000383185148,0.11112374691408326,0.6976474724384226,1,right
1.6840000000000002,0.16781256043635795,0.9788632496939991,-0.10983219596281996,-0.4434476857757091,0.3772191633322269,0.6587923476971246,0.02203492341365863,0.13035968621800254,0.6781043684521633,1,right
1.685,0.16975056069817657,0.9781482983409686,-0.10984412012913915,-0.4170429595692161,0.38286793799849134,0.6455725061009949,0.004757182043810119,0.14968279441717852,0.6586862989937086,1,right
1.689,0.1716868506751542,0.977446979593523,-0.10986283319276832,-0.390799219050664,0.3882620577898873,0.6322194660971304,-0.012257168223124776,0.16908884657156695,0.6393940870623174,1,right
1.689,0.17362224918644964,0.9767626059372343,-0.10988925145483527,-0.36472388465364064,0.39339878931299693,0.618741751256841,-0.029002219854302187,0.18857353292622128,0.62022836774812,1,right
1.694,0.17555747660589416,0.9760985414916792,-0.10992425915596364,-0.33882401508353716,0.39827516606095015,0.6051480865029517,-0.045472216696267005,0.2081324629503573,0.6011895869505756,1,right
1.695,0.1774931476241749,0.9754581951289889,-0.10996870551496771,-0.31310626200811437,0.4028880349516902,0.5914473655750097,-0.06166156020307166,0.22776116873651006,0.5822780008455314,1,right
1.699,0.17942976416601158,0.9748450133868634,-0.11002340195450033,-0.2875768279711487,0.4072341020722258,0.5776486198238626,-0.07756481508294202,0.24745510781574778,0.5634936760458275,1,right
1.7,0.18136770850915196,0.97426247318354,-0.11008911951979801,-0.262241427454768,0.41130997764287175,0.5637609882965772,-0.09317671441079231,0.2672096654451211,0.544836490400755,1,right
1.702,0.18330723664995552,0.9737140743398719,-0.11016658649097165,-0.23710525101660998,0.4151122202147219,0.5497936890723569,-0.10849216425308489,0.28702015642372547,0.5263061343800387,1,right
1.703,0.18524847196065258,0.9732033319116883,-0.11025648618528916,-0.21217293242847687,0.4186373801128329,0.5357559918098409,-0.12350624785070938,0.3068818264939425,0.5079021129883816,1,right
1.7069999999999999,0.18719139918354386,0.9727337683351758,-0.11035945494253527,-0.1874485187437151,0.42188204213682,0.5216571914659062,-0.1382142294047191,0.3267898533846002,0.48962374815697496,1,right
1.7080000000000002,0.18913585880469924,0.9723089053900854,-0.11047608028274666,-0.16293544322112108,0.4248428675297798,0.5075065831458707,-0.15261155750891153,0.34673934755295027,0.47147018155873793,1,right
1.712,0.19108154184489776,0.9719322559898155,-0.11060689922236255,-0.13863650103375721,0.42751663522566047,0.4933134380447894,-0.16669386827237354,0.3667253526825121,0.45344037779441715,1,right
1.713,0.1930279851003487,0.9716073158132932,-0.11075239673285629,-0.11455382769165938,0.42990028238439265,0.4790869804393614,-0.18045698817423442,0.386742845993961,0.4355331278970345,1,right
1.7180000000000002,0.19497456686035622,0.9713375548007283,-0.11091300432450388,-0.09068888010802195,0.43199094422327966,0.4648363656898177,-0.1938969366919765,0.4067867384263613,0.4177470531025316,1,right
1.72,0.19692050312420498,0.9711264085427134,-0.11108909873661624,-0.06704242023906085,0.4337859931523221,0.4505706592110363,-0.20700992874374904,0.4268518747461468,0.4000806088348121,1,right
1.723,0.19886484433606616,0.9709772695983064,-0.11128100071491295,-0.043614501228374555,0.4352830772203176,0.43629881637203516,-0.21979237698421508,0.4469330336413423,0.38253208885373763,1,right
1.723,0.20080647265359666,0.9708934787825142,-0.11148897385805606,-0.020404455987247105,0.43648015787773664,0.42202966328292457,-0.23224089399253198,0.4670249278585978,0.3650996295149777,1,right
1.729,0.2027440997619147,0.9708783164680125,-0.11171322351998028,0.0025891118570369404,0.43737554706152554,0.407771878428356,-0.2443522943901284,0.48712220444066384,0.34778121409096097,1,right
1.73,0.20467626524040247,0.9709349939501831,-0.11195389576201845,0.02536833471216896,0.43796794360613295,0.39353397510648835,-0.2561235969249907,0.5072194451219852,0.33057467710250926,1,right
1.734,0.20660133548574716,0.9710666449280541,-0.11221107635686503,0.04793608553776358,0.43825646898419557,0.379324284632498,-0.2675520265582134,0.5273111669401204,0.31347770861107344,1,right
1.735,0.20851750319028847,0.9712763171566329,-0.11248478985414335,0.07029598019433582,0.4382407023794525,0.3651509402656919,-0.27863501658760037,0.5473918231207082,0.29648785842181413,1,right
1.7369999999999999,0.21042278737056375,0.9715669643285857,-0.11277499872424337,0.0924523776897528,0.43792071509358743,0.35102186181934186,-0.28937021084212566,0.567455804293706,0.2796025401480922,1,right
1.7380000000000002,0.21231503393800769,0.9719414382438444,-0.1130816026012866,0.11441037838799911,0.43729710428782764,0.336944740912434,-0.2997554659800801,0.5874974400986024,0.26281903508824944,1,right
1.742,0.21419191680247227,0.972402481322432,-0.1134044376460016,0.1361758202444991,0.4363710260592537,0.322927026822636,-0.3097888539113586,0.6075110012122452,0.24613449588878528,1,right
1.743,0.21605093950020124,0.9729527195073935,-0.11374327604560579,0.1577552731316565,0.43514422785090306,0.30897591289991017,-0.31946866430644894,0.6274907017126888,0.2295459500829308,1,right
1.744,0.21788943734153712,0.9735946555926744,-0.11409782566250382,0.17915603131770377,0.43361908019387746,0.29509832350034637,-0.3287934070512735,0.6474307014760734,0.21305030380018483,1,right
1.7469999999999999,0.21970458007845048,0.974330662999943,-0.11446772983884762,0.20038610416140096,0.4317986077787983,0.2813009013999635,-0.3377618144491275,0.6673251081832822,0.19664434605725595,1,right
1.7480000000000002,0.22149337509590614,0.9751629800210225,-0.11485256736079448,0.2214542050845924,0.4296865198530904,0.2675899956484152,-0.3463728430268377,0.6871679786332108,0.18032475392653508,1,right
1.7519999999999998,0.2232526711338644,0.9760937045348176,-0.11525185258458064,0.24236973888411703,0.4272872399397196,0.2539716498227475,-0.3546256749036543,0.7069533192756978,0.16408809867221766,1,right
1.7530000000000001,0.22497916254899755,0.9771247891963685,-0.11566503572632952,0.2631427874440794,0.42460593487216247,0.24045159064158658,-0.3625197187372588,0.7266750859972188,0.14793085282985766,1,right
1.7530000000000001,0.22666939412639872,0.9782580370837999,-0.1160915033185126,0.2837840938836548,0.4216485431005885,0.22703521692567907,-0.3700546102716226,0.7463271832163325,0.13184939818246452,1,right
1.757,0.22831976645063407,0.979495097780991,-0.11653057883686138,0.3043050450483162,0.4184218020286052,0.2137275890174639,-0.37723021251042443,0.7659034623457065,0.11584003458649134,1,right
1.758,0.22992654184329467,0.9808374638708317,-0.11698152350139836,0.32471765202363334,0.41493327378845385,0.20053341900031763,-0.38404661553870223,0.7853977196773633,0.09989898960129133,1,right
1.764,0.2314858508722505,0.9822864678106511,-0.11744353725477688,0.3450345282235705,0.4111913686669462,0.18745706218490332,-0.3905041360143858,0.8048036937475895,0.08402242887583676,1,right
1.765,0.23299369943544063,0.9838432791522078,-0.11791575992157274,0.3652688647317109,0.40720536558846704,0.17450251020387267,-0.3966033163503235,0.8241150622377318,0.06820646724670153,1,right
1.768,0.23444597641783793,0.9855089020564385,-0.1183972725531701,0.3854344028018571,0.40298542941127036,0.16167338582881688,-0.40234492360638496,0.8433254384668665,0.05244718050150503,1,right
1.7690000000000001,0.23583846191448646,0.9872841730447389,-0.11888709896165428,0.4055454035510304,0.398542624987378,0.14897293949720755,-0.4077299481101933,0.8624283675320795,0.03674061776219952,1,right
1.7719999999999998,0.23716683600641145,0.9891697589251879,-0.1193842074404795,0.42561661490302677,0.39388892797465247,0.13640404751211999,-0.41275960182400745,0.8814173221518191,0.021082814442757596,1,right
1.7719999999999998,0.23842668807117945,0.9911661548307478,-0.11988751266123186,0.4456632358404899,0.38903723238894394,0.12396921187789188,-0.4174353164742531,0.9002856982674927,0.005469805735979045,1,right
1.776,0.23961352660679744,0.9932736823056828,-0.1203958777287615,0.4657008780233077,0.3840013548835758,0.11167056173523807,-0.4217587414591732,0.9190268104581722,-0.01010235941571218,1,right
1.777,0.24072278954469425,0.9954924873777112,-0.12090811637412485,0.4857455248310231,0.3787960357428263,0.09950985635972005,-0.4257317415490507,0.937633887222943,-0.025637603910470173,1,right
1.7819999999999998,0.2417498550223573,0.9978225385583644,-0.12142299526573727,0.5058134878868825,0.3734369365754996,0.0874884896878526,-0.4293563943924385,0.9561000661850879,-0.04113980768308896,1,right
1.7830000000000001,0.24269005257910686,1.0002636247221601,-0.12193923642174552,0.5259213611211175,0.36794063469415,0.07560749633552075,-0.4326349878408212,0.9744183892719273,-0.05661279255166719,1,right
1.786,0.24353867473097307,1.0028153528251957,-0.12245551970979174,0.5460859724310791,0.36232461416504064,0.0638675590737756,-0.43557001710312665,0.9925817979237543,-0.07206030675951257,1,right
1.787,0.2442909888740129,1.0054771454353661,-0.12297048542520025,0.5663243329959101,0.3566072535134767,0.05226901772747682,-0.4381641817405038,1.0105831283848998,-0.08748600925682805,1,right
1.79,0.24494224946097906,1.0082482380602416,-0.12348273694641464,0.586653584303556,0.35080781006876155,0.040811879462652766,-0.4404203825107923,1.0284151071295349,-0.10289345376663753,1,right
1.791,0.24548771039350054,1.011127676274615,-0.12399084347587543,0.607090942948079,0.3449464009326816,0.029495830428852884,-0.4423417180711199,1.046070346474374,-0.11828607267933544,1,right
1.796,0.2459226375691832,1.0141143126662013,-0.12449334288179752,0.627653643255451,0.3390439805551374,0.018320248723173126,-0.4439314815460873,1.0635413404299756,-0.13366716082018218,1,right
1.798,0.24624232152134354,1.0172068036335984,-0.12498874465869436,0.6483588777962631,0.3331223149003041,0.007284218643040301,-0.4451931569680282,1.0808204608418521,-0.14903985913401369,1,right
1.801,0.24644209009065704,1.0204036060855188,-0.1254755330226848,0.6692237358441002,0.32720395218652726,-0.0036134538047539358,-0.4461304155948699,1.0978999538720908,-0.16440713833139173,1,right
1.8019999999999998,0.24651732107148674,1.0237029741044088,-0.1259521701545855,0.690265139838689,0.3213121901830465,-0.014374224170875893,-0.44674711211017115,1.1147719368716589,-0.17977178254038692,1,right
1.806,0.2464634547777781,1.027102955650191,-0.12641709960225458,0.711499779913336,0.31547104004658216,-0.024999791637835594,-0.447047280708968,1.1314283956930147,-0.19513637300816294,1,right
1.807,0.24627600647360784,1.0306013893908015,-0.12686874985478516,0.7329440465466324,0.30970518668083485,-0.035492079933244707,-0.44703513107212905,1.1478611824920733,-0.21050327189651374,1,right
1.811,0.2459505786132897,1.0341959017558862,-0.12730553810392836,0.7546139613989064,0.3040399456020237,-0.045853217112863116,-0.4467150442310003,1.164062014067976,-0.2258746062154978,1,right
1.8119999999999998,0.24548287283656361,1.037883904316735,-0.12772587421035356,0.7765251063944617,0.2985012162937358,-0.05608551424396269,-0.44609156832528885,1.1800224707906661,-0.2412522519456155,1,right
1.8119999999999998,0.24486870166789537,1.041662591593379,-0.12812816489289508,0.7986925511112387,0.2931154320345783,-0.06619144301915442,-0.4451694142666305,1.1957339961764664,-0.2566378184304909,1,right
1.815,0.24410399987531717,1.045528939377497,-0.12851081815874796,0.8211307785401845,0.28790950618241384,-0.07617361233044856,-0.44395345133810393,1.2111878971907026,-0.27203263317875065,1,right
1.8159999999999998,0.24318483544659653,1.0494797036493042,-0.12887224799398203,0.8438536092773088,0.2829107748993252,-0.08603474383294799,-0.4424487027694761,1.226375345366565,-0.28743772724532124,1,right
1.821,0.24210742013394648,1.053511420167386,-0.12921087933685257,0.8668741242121388,0.278146936301895,-0.09577764652721173,-0.44066034131671367,1.2412873788178413,-0.30285382133087574,1,right
1.8219999999999998,0.2408681195108309,1.057620404812843,-0.1295251533572938,0.8902045858515397,0.273645986097632,-0.10540519041534614,-0.43859368485474753,1.255914905202911,-0.31828131268147114,1,right
1.8219999999999998,0.2394634624867401,1.0618027547599884,-0.12981353306183605,0.9138563587910896,0.2694361501476117,-0.11492027941740969,-0.4362541919812574,1.2702487056857723,-0.3337202628389339,1,right
1.825,0.2378901502380436,1.0660543505275035,-0.13007450923554062,0.9378398305173663,0.2655458150776248,-0.1243258239717557,-0.43364745762635026,1.2842794399369253,-0.3491703862862809,1,right
1.8259999999999998,0.23614506452617046,1.0703708589461183,-0.1303066067238945,0.9621643340977954,0.2620034584395247,-0.1336247138744825,-0.43077920866220704,1.297997652216112,-0.36463104003249486,1,right
1.83,0.23422527538327528,1.074747737062708,-0.13050839104829426,0.9868380739432283,0.25883757954665826,-0.1428197917809604,-0.42765529950598996,1.3113937785780683,-0.3801012141810065,1,right
1.831,0.2321280481521462,1.0791802369810002,-0.13067847533640792,1.0118680551590504,0.2560766314266355,-0.15191382755471355,-0.42428170770853324,1.3244581552415744,-0.3955795235262647,1,right
1.835,0.2298508498701018,1.0836634116193211,-0.13081552752934117,1.0372600166291932,0.2537489539570501,-0.16090949351675088,-0.4206645295205905,1.337181028161195,-0.41106420022280776,1,right
1.835,0.2273913549780785,1.088192121359117,-0.13091827780034976,1.0630183679039478,0.25188270817511704,-0.16980934062176742,-0.41680997542767795,1.3495525638401669,-0.42655308757127514,1,right
1.84,0.22474745031355706,1.0927610415694575,-0.13098552609025832,1.0891461299634964,0.25050581175335734,-0.17861577558734626,-0.41272436564383397,1.361562861421947,-0.4420436349658189,1,right
1.84,0.2219172393206651,1.0973646710102274,-0.13101614963921868,1.1156448799301153,0.24964587563470397,-0.18733103900200876,-0.40841412555391887,1.3732019660969499,-0.4575328940473952,1,right
1.845,0.21889904539805996,1.1019973411225166,-0.1310091103762573,1.1425146998030515,0.24933014182172714,-0.1959571844376853,-0.40388578109339407,1.3844598838599886,-0.4730175161074256,1,right
1.845,0.2156914143109914,1.1066532262001578,-0.13096346202124495,1.1697541292911375,0.2495854223160835,-0.20449605859191006,-0.3991459540538585,1.3953265976529063,-0.48849375078632146,1,right
1.849,0.21229311561509395,1.1113263544032503,-0.13087835676303625,1.1973601228192654,0.25043803920577745,-0.21294928248478015,-0.3942013573019734,1.405792084925807,-0.503957446111361,1,right
1.85,0.20870314307054552,1.1160106195305222,-0.13075305139996918,1.225328010785909,0.2519137658993849,-0.22131823373546441,-0.38905878989878134,1.4158463366492093,-0.519404049918394,1,right
1.854,0.2049207140605547,1.1206997934245126,-0.1305869128545656,1.2536514651499373,0.2540377695080303,-0.2296040299427951,-0.38372513210581716,1.4254793778083168,-0.5348286127018249,1,right
1.855,0.20094526806115756,1.1253875388566636,-0.1303794229949324,1.282322469426015,0.2568345543776209,-0.23780751319422885,-0.37820734026382263,1.4346812894094494,-0.5502257919372875,1,right
1.86,0.19677646423323117,1.130067422738848,-0.13013018271079788,1.3113312931689192,0.26032790677563256,-0.24592923572722178,-0.3725124415293047,1.443442232027495,-0.5655898579213725,1,right
1.861,0.19241417821915313,1.134732929531359,-0.129838915208931,1.3406664710281249,0.2645408407386006,-0.25396944676682276,-0.36664752845363074,1.4517524709220353,-0.5809147011727105,1,right
1.864,0.18785849823250927,1.1393774747520464,-0.12950546851898936,1.370314786454996,0.26949554508840295,-0.2619280805630532,-0.36061975338882485,1.459602402748558,-0.5961938414386274,1,right
1.865,0.18310972054781804,1.143994418524537,-0.12912981723591602,1.4002612601458975,0.27521333162741846,-0.2698047456514045,-0.35443632270372005,1.4669825838899053,-0.6114204383514975,1,right
1.869,0.17816834454572264,1.1485770791319494,-0.1287120635557683,1.4304891433054683,0.28171458452471293,-0.27759871535955116,-0.3481044907936343,1.473883760431807,-0.6265873037788036,1,right
1.87,0.173035067549402,1.1531187465710409,-0.12825243767698338,1.4609799158151988,0.2890187109075306,-0.2853089195831416,-0.34163155386626937,1.480296899805028,-0.6416869159107821,1,right
1.874,0.16771077978779858,1.1576126961333626,-0.12775129764152754,1.4917132893932987,0.2971440926745622,-0.2929339378532923,-0.3350248434860844,1.486213224115319,-0.656711435129381,1,right
1.875,0.16219655992511864,1.1620522020707058,-0.12720912869010298,1.5226672158326604,0.30610803954970606,-0.30047199371817346,-0.3282917198589707,1.4916242451809651,-0.6716527217020832,1,right
1.879,0.15649367168453782,1.1664305514266236,-0.1266265422071133,1.553817900404456,0.31592674339734583,-0.3079209504608317,-0.3214395648386482,1.4965218012963495,-0.6865023553439565,1,right
1.879,0.1506035621324445,1.1707410581311977,-0.12600427433051176,1.5851398205156202,0.3266152338225241,-0.31527830817515173,-0.31447577464683124,1.5008980956666387,-0.7012516566438173,1,right
1.88,0.14452786213597454,1.174977077458089,-0.12534318428977428,1.6166057497090809,0.338187335081797,-0.3225412022216064,-0.3074077523539003,1.5047457360979724,-0.7158917101138733,1,right
1.883,0.13826838936049632,1.179132020928964,-0.12464425250343354,1.6481867870961762,0.35065562433300956,-0.32970640308418886,-0.3002429002655716,1.5080577748793258,-0.7304133881966397,1,right
1.8840000000000001,0.13182715399322215,1.183199371726116,-0.12390857841560754,1.6798523923111728,0.3640313912547264,-0.3367703176496561,-0.29298861241578816,1.5108277474314256,-0.7448073753263496,1,right
1.889,0.1252063672035862,1.1871727006423813,-0.12313737799783023,1.7115704260782243,0.378324599068588,-0.343728991929942,-0.28565226731070303,1.5130497086558792,-0.7590641913780491,1,right
1.89,0.11840845215898865,1.1910456825570777,-0.12233198082676186,1.743307196481423,0.39354384700043626,-0.35057811524831495,-0.2782412209692525,1.5147182665628645,-0.7731742142625375,1,right
1.89,0.11143605721198643,1.1948121133915017,-0.12149382668982613,1.7750275109287141,0.40969633421855517,-0.3573130259058034,-0.27076280025050564,1.5158286131134635,-0.7871277016612203,1,right
1.8940000000000001,0.10429207074648776,1.1984659274888534,-0.12062446173549883,1.8066947332999486,0.4267878252895142,-0.36392871832530155,-0.2632242964467312,1.5163765522830146,-0.8009148119418174,1,right
1.895,0.09697963716075343,1.2020012153805417,-0.11972553422454132,1.8382708448682479,0.4448226171938699,-0.3704198516365982,-0.25563295912090717,1.516358525350264,-0.8145256242954347,1,right
1.8980000000000001,0.0895021734826541,1.2054122419233648,-0.11879878994409657,1.86971650708316,0.4638035079461641,-0.3767807596464359,-0.24799599016720558,1.5157716334155005,-0.827950158135065,1,right
1.899,0.08186338606894664,1.2086934648051249,-0.1178460673219414,1.9009911248045734,0.48373176686684677,-0.38300546215617237,-0.24032053807281165,1.5146136571492361,-0.841178391795102,1,right
1.9040000000000001,0.07406728679320734,1.211839553415294,-0.11686929220333159,1.9320529094772436,0.5046071065573451,-0.3890876776231093,-0.23261369235928497,1.5128830737713759,-0.8542002805709474,1,right
1.9040000000000001,0.06611820817038251,1.2148454080564448,-0.11587047212280141,1.9628589422360536,0.5264276566327107,-0.39502083717998887,-0.22488247818153978,1.5105790712591884,-0.8670057741372541,1,right
1.909,0.05802081700441304,1.2177061794214799,-0.1148516897634867,1.9933652370317587,0.5491899392690933,-0.4007981000305247,-0.21713385106240926,1.5077015597807435,-0.879584833382785,1,right
1.91,0.049780126339571365,1.2204172881766084,-0.11381509521336831,2.0235268038663596,0.5728888466260043,-0.4064123702384266,-0.20937469174066975,1.504251180348845,-0.8919274466992752,1,right
1.913,0.04140150571086851,1.2229744443766848,-0.11276289664956272,2.0532977122265033,0.5975176202060491,-0.41185631492694863,-0.20161180111032975,1.5002293106888411,-0.9040236457610591,1,right
1.9140000000000001,0.032890689882126616,1.2253736663150971,-0.1116973492254957,2.0826311548024514,0.6230678322175076,-0.41712238390554157,-0.19385189522893928,1.495638068312048,-0.9158635208315833,1,right
1.919,0.024253786379541807,1.2276112983041592,-0.11062074218141688,2.1114795115791654,0.6495293690078264,-0.42220283073972326,-0.186101600372644,1.4904803107848732,-0.9274372356322346,1,right
1.921,0.015497282126981538,1.2296840268289122,-0.1095353844870004,2.139794414384931,0.6768904166387585,-0.42708973527978783,-0.17836744811569769,1.4847596331820947,-0.9387350418082155,1,right
1.923,0.0066280493541238834,1.2315888945370492,-0.10844358957506231,2.167526811981686,0.7051374486765272,-0.43177502766346637,-0.17065587041215552,1.4784803627111098,-0.9497472930254564,1,right
1.9240000000000002,-0.0023466492792013384,1.233323311610531,-0.1073476598768529,2.1946270357798183,0.7342552162730056,-0.43625051380711666,-0.16297319465749763,1.4716475504923432,-0.960464458731792,1,right
1.9269999999999998,-0.011419156642952455,1.234885064184218,-0.10624987190796503,2.221044866258675,0.7642267406164839,-0.44050790239946314,-0.1553256387079783,1.4642669604793936,-0.9708771376148381,1,right
1.9280000000000002,-0.0205814186698602,1.2362723196126806,-0.10515246258559434,2.2467296001723396,0.7950333078331367,-0.44453883341132894,-0.14771930583556148,1.4563450555008894,-0.9809760707881818,1,right
1.933,-0.029824984038301864,1.2374836285283266,-0.1040576172849415,2.271630118618422,0.8266544664228037,-0.44833490813419913,-0.14016017959638552,1.4478889804044346,-0.9907521547366527,1,right
1.9340000000000002,-0.03914100655595033,1.2385179237734487,-0.10296745990367387,2.2956949560456428,0.8590680273151398,-0.4518877207598282,-0.13265411859080128,1.4389065422814606,-1.0001964540505692,1,right
1.9380000000000002,-0.048520250676924975,1.2393745164115761,-0.10188404498446613,2.3188723702738905,0.8922500666345933,-0.4551888915124517,-0.1252068510931449,1.429406187750237,-1.009300213977951,1,right
1.9380000000000002,-0.05795310042537047,1.2400530891138604,-0.10080935180580423,2.341110413598166,0.9261749312650024,-0.4582301013444914,-0.11782396952954288,1.4193969772727697,-1.018054872822762,1,right
1.944,-0.06742957184706462,1.2405536872653962,-0.09974528028423796,2.3623570050454434,0.9608152473068727,-0.46100312820594047,-0.11051092478219922,1.4088885564798013,-1.0264520742162975,1,right
1.945,-0.07693932899145707,1.2408767081467569,-0.09869364850464729,2.3825600038509105,0.9961419315226059,-0.4634998848968948,-0.10327302029878171,1.397891124476636,-1.0344836792878476,1,right
1.9469999999999998,-0.08647170333613553,1.2410228885292651,-0.09765619168223934,2.401667284217368,1.0321242058670752,-0.4657124585119491,-0.09611540598571108,1.3864153991010617,-1.042141778759771,1,right
1.9480000000000002,-0.09601571649155376,1.2409932909939603,-0.09663456234678974,2.419626811418703,1.0687296152029997,-0.467633151484407,-0.08904307186435523,1.3744725791031995,-1.0494187049910828,1,right
1.949,-0.10556010596501421,1.2407892892521766,-0.09563033152968249,2.4363867193053683,1.1059240483025337,-0.4692545242374603,-0.08206084148599153,1.362074303302708,-1.056307043984986,1,right
1.952,-0.11509335373854905,1.2404125527042558,-0.0946449907447019,2.4518953892666437,1.1436717622383692,-0.47056943944867696,-0.07517336518484907,1.349232607212365,-1.0627996473365742,1,right
1.954,-0.12460371743033231,1.2398650304226664,-0.09367995458955254,2.466101530701161,1.1819354102694357,-0.47157110793329965,-0.06838511339858289,1.33595987839866,-1.0688896440271982,1,right
1.9569999999999999,-0.13407926382356158,1.2391489347104905,-0.09273656383381589,2.4789542630509116,1.2206760733185267,-0.47225313606828906,-0.06170037036901021,1.322268812283696,-1.0745704519327484,1,right
1.9580000000000002,-0.14350790453683124,1.2382667243755552,-0.09181608888295012,2.4904031994863014,1.2598532950935453,-0.47260957426462863,-0.05512322845299083,1.3081723696564538,-1.079835788950095,1,right
1.9580000000000002,-0.15287743360065706,1.237221087851894,-0.09091973352895548,2.5003985323907445,1.2994251208205452,-0.47263496525013704,-0.04865758312382349,1.2936837363772813,-1.0846796837134074,1,right
1.962,-0.16217556668562602,1.236014926288471,-0.09004863892198582,2.508891120825338,1.3393481395108906,-0.4723243905105792,-0.04230712866060749,1.2788162853233045,-1.0890964859090368,1,right
1.963,-0.1713899816595566,1.2346513367257133,-0.08920388771016724,2.5158325801141954,1.3795775297333277,-0.47167351364947085,-0.03607535450668349,1.263583540534286,-1.0930808762040725,1,right
1.966,-0.1805083600569103,1.2331335954854457,-0.08838650829519562,2.521175373622166,1.420067108947888,-0.47067862017039264,-0.029965542278587422,1.2479991435173436,-1.0966278758024754,1,right
1.9669999999999999,-0.18951842897282095,1.2314651418928808,-0.08759747914652347,2.5248729067564133,1.4607693865067723,-0.46933665359820465,-0.023980763407281915,1.2320768216678482,-1.0997328556414645,1,right
1.972,-0.19840800285469082,1.2296495624354487,-0.08683773310730397,2.5268796232116992,1.5016356204376844,-0.4676452479372828,-0.01812387739376996,1.215830358762765,-1.1023915452395938,1,right
1.973,-0.2071650246502601,1.2276905754533063,-0.08610816161117227,2.527151103474618,1.5426158781258261,-0.46560275646391247,-0.012397530661545655,1.1992735674817043,-1.104600041206699,1,right
1.976,-0.21577760578876753,1.2255920164511993,-0.08540961871869743,2.5256441655973014,1.5836591010113779,-0.4632082768489805,-0.006804155988695485,1.1824202639099655,-1.1063548154246219,1,right
1.9769999999999999,-0.22423406452535982,1.223357824116557,-0.08474292488544316,2.522316968246268,1.6247131734197537,-0.4604616726061017,-0.001345972502830591,1.1652842439769364,-1.1076527229063449,1,right
1.9809999999999999,-0.23252296226106023,1.2209920271208423,-0.0841088703930753,2.517129116027105,1.6657249956422444,-0.4573635908593109,0.003975013777595045,1.1478792617823141,-1.1084910093398708,1,right
1.982,-0.2406331375485874,1.2184987317688825,-0.08350821840669718,2.5100417670805575,1.7066405613848485,-0.4539154764234415,0.009157008871643953,1.1302190097617575,-1.108867318321882,1,right
1.9880000000000002,-0.2485537375945621,1.2158821105431994,-0.08294170765808845,2.5010177429403853,1.7474050397031082,-0.45011958218930187,0.014198429249607666,1.1123171006427794,-1.1087796982849036,1,right
1.989,-0.25627424715761626,1.2131463915664327,-0.08241005478585724,2.490021640637996,1.7879628615406502,-0.4459789758047521,0.019097899747354267,1.0941870511409058,-1.108226609120371,1,right
1.9909999999999999,-0.2637845148105458,1.2102958489771083,-0.0819139563775897,2.4770199470334213,1.828257810988858,-0.44149754264178126,0.023854250996194034,1.0758422673453965,-1.10720692849868,1,right
1.9909999999999999,-0.27107477658264895,1.2073347941878991,-0.08145409074891283,2.461981155346629,1.8682331213846581,-0.43667998503868677,0.028466516382742942,1.0572960317431321,-1.1057199578859662,1,right
1.9969999999999999,-0.27813567703149134,1.2042675679761992,-0.08103111946590758,2.4448758838575126,1.9078315763628082,-0.43153181780546956,0.032933928552856304,1.038561491828611,-1.1037654282560174,1,right
1.999,-0.28495828781850635,1.2010985333470385,-0.08064568858611691,2.425676996737141,1.9469956159783277,-0.4260593599795807,0.03725591547329423,1.0196516502473865,-1.1013435054943943,1,right
2.002,-0.2915341238854846,1.1978320691089317,-0.08029842957402071,2.4043597269670025,1.9856674480137801,-0.42026972281819247,0.04143209606436712,1.0005793564196936,-1.0984547954904818,1,right
2.002,-0.29785515735185697,1.1944725641117044,-0.07998995984637657,2.3809018012970435,2.023789164585044,-0.41417079401221774,0.04546227541639346,0.981357299590474,-1.0951003489118607,1,right
2.0069999999999997,-0.303913829276091,1.191024412106739,-0.07972088292070835,2.355283567187302,2.0613028641579514,-0.4077712181063727,0.04934643960238525,0.9619980032515039,-1.091281665654042,1,right
2.008,-0.30970305944664595,1.1874920072002149,-0.07949178816819083,2.3274881216718395,2.098150779086767,-0.40108037310866645,0.05308475009895749,0.942513820880864,-1.0870006989572663,1,right
2.011,-0.31521625438590956,1.1838797398751457,-0.07930325019607493,2.2975014420775457,2.134275408783895,-0.3941083432718173,0.05667753782703941,0.9229169329445561,-1.0822598591807362,1,right
2.012,-0.32044731376184465,1.180191993554746,-0.07915582789390688,2.265312518524189,2.169619658628452,-0.3868658880282299,0.060125296823546046,0.9032193451046802,-1.0770620172233174,1,right
2.016,-0.3253906354033949,1.1764331416669827,-0.07905006317270254,2.230913488125827,2.2041269847194487,-0.3793644070593355,0.06342867755474985,0.8834328875782264,-1.0714105075784126,1,right
2.016,-0.33004111910348943,1.172607545150578,-0.07898647941411835,2.194299770807413,2.237741544577217,-0.37161590147928825,0.06658847988167473,0.8635692155902094,-1.0653091310093965,1,right
2.017,-0.33439416936679034,1.1687195503223342,-0.0789655796335686,2.15547020664411,2.2704083538945103,-0.36363293111223777,0.06960564569425885,0.8436398108572639,-1.0587621568265808,1,right
2.021,-0.33844569722138895,1.1647734870150128,-0.07898784435185585,2.1144271946244855,2.302073449436277,-0.35542856784165344,0.07248125126482216,0.8236559840009612,-1.0517743247248394,1,right
2.022,-0.3421921211735552,1.1607736668986939,-0.07905372916714302,2.0711768327324007,2.3326840581845603,-0.3470163450094676,0.07521649943252803,0.8036288777239909,-1.0443508461027675,1,right
2.0269999999999997,-0.3456303673546407,1.1567243819051056,-0.0791636620221136,2.025729058976252,2.362188772525406,-0.33841020295665664,0.07781271176432307,0.7835694705455629,-1.0364974047624342,1,right
2.028,-0.34875786889345683,1.152629902675582,-0.07931804016687406,1.9780977916888518,2.390537729787571,-0.32962443136886105,0.08027132080322882,0.76348858092883,-1.0282201569080622,1,right
2.028,-0.3515725645379714,1.1484944769574872,-0.07951722682300463,1.9283010650766843,2.41768279176821,-0.32067361012075596,0.08259386245289008,0.7433968716988961,-1.0195257303976755,1,right
2.031,-0.3540728965384276,1.1443223278836847,-0.07976154755612672,1.8763611546919479,2.4435777183933336,-0.311572550884948,0.08478196851268179,0.7233048546864873,-1.0104212232210619,1,right
2.031,-0.3562578077868196,1.1401176520771041,-0.0800512863655736,1.8223046887935501,2.468178331141716,-0.3023362411980398,0.08683735937044089,0.703222895539622,-1.0009142011802858,1,right
2.035,-0.3581267381834076,1.1358846175296624,-0.08038668150345718,1.7661627438952312,2.491442664529086,-0.29297979164532034,0.08876183685949855,0.6831612186455838,-0.9910126947477897,1,right
2.036,-0.35967962017024546,1.1316273612183279,-0.08076792104253298,1.7079709240918626,2.5133311054300473,-0.2835183862524927,0.09055727728630228,0.6631299121055007,-0.9807251950759455,1,right
2.04,-0.3609168733397341,1.1273499864384486,-0.08119513822421896,1.6477694240086993,2.533806520308304,-0.27396723605793755,0.0922256246345364,0.6431389327038635,-0.9700606491307622,1,right
2.041,-0.3618393980002539,1.1230565598502584,-0.08166840663669885,1.5856030752123775,2.5528343704219467,-0.26434153583866665,0.09376888395127357,0.6231981108153724,-0.9590284539213254,1,right
2.044,-0.3624485675680768,1.1187511082481814,-0.08218773529471296,1.52152137591658,2.5703828150665964,-0.25465642396281923,0.09518911492031935,0.6033171551915882,-0.9476384497954319,1,right
2.045,-0.36274621966071185,1.1144376150763482,-0.08275306370955479,1.4555785038095188,2.5864228029151444,-0.24492694534129544,0.09648842562754677,0.5835056575699816,-0.9359009127708044,1,right
2.049,-0.3627346457934371,1.110120016728595,-0.08336425704585503,1.3878333118247552,2.6009281515086937,-0.23516801745090807,0.09766896652265857,0.5637730970481166,-0.9238265458702166,1,right
2.05,-0.36241657962511326,1.105802198685668,-0.08402110146327184,1.3183493066713858,2.6138756149490443,-0.22539439940126213,0.09873292458146186,0.5441288441658755,-0.9114264694278265,1,right
2.055,-0.3617951837550361,1.1014879915545441,-0.08472329974001863,1.2471946099342854,2.6252449398387463,-0.21562066401744362,0.09968251767239233,0.5245821646388329,-0.8987122103330261,1,right
2.056,-0.36087403513103383,1.0971811670837417,-0.085470467272334,1.174441901549925,2.6350189095103365,-0.2058611729105153,0.10051998913068394,0.5051422226861131,-0.8856956901771439,1,right
2.061,-0.3596571091817339,1.0928854342324574,-0.08626212853866234,1.100168345458309,2.6431833765819195,-0.19613005450777318,0.10124760254324544,0.4858180838963169,-0.872389212267401,1,right
2.061,-0.3581487628275575,1.0886044353672195,-0.08709771410999284,1.0244554972267765,2.6497272838717087,-0.18644118501471743,0.10186763674697664,0.466618717575387,-0.8588054474716235,1,right
2.064,-0.35635371655397974,1.0843417426467237,-0.08797655828107434,0.947389193436832,2.6546426736995774,-0.17680817228073223,0.10238238104293484,0.44755299852058367,-0.8449574188563452,1,right
2.065,-0.3542770357469764,1.0801008546359119,-0.08889789739167368,0.8690594226208174,2.657924685599047,-0.16724434254054896,0.10279413062844676,0.42862970816507867,-0.8308584850801007,1,right
2.069,-0.35192411149564423,1.0758851931674167,-0.08986086889877223,0.7895601775311022,2.6595715424585027,-0.15776273000368865,0.10310518224895203,0.4098575350380308,-0.8165223225029145,1,right
2.07,-0.34930064106456093,1.0716981004454218,-0.09086451124562013,0.7089892885206004,2.659584525105741,-0.1483760692642394,0.1033178300710619,0.39124507448539175,-0.8019629059722341,1,right
2.074,-0.3464126082334598,1.0675428363671264,-0.0919077645530954,0.6274482378097905,2.6579679353452677,-0.13909679050352264,0.10343436177802105,0.37280082759709926,-0.7871944882448338,1,right
2.075,-0.34326626369639496,1.0634225760235205,-0.09298947213755952,0.5450419544120731,2.654729047453095,-0.1299370174584372,0.10345705488847094,0.354533199286749,-0.7722315780035341,1,right
2.079,-0.33986810570534237,1.059340407335398,-0.09410838283987998,0.46187858948622385,2.649878048129069,-0.12090856812854288,0.10338817329913041,0.3364504954702937,-0.7570889164269435,1,right
2.08,-0.33622486113226446,1.0552993287805834,-0.09526315413147984,0.3780692718819224,2.6434279649021115,-0.1120229581952525,0.10322996405173335,0.3185609192908036,-0.7417814522698278,1,right
2.085,-0.3323434671088481,1.051302247171615,-0.09645235594535802,0.29372784364186016,2.635394582979085,-0.10329140712684452,0.10298465432429345,0.30087256633682724,-0.7263243154111535,1,right
2.086,-0.3282310533835056,1.0473519754489378,-0.09767447516807871,0.20897057522175763,2.625796350523376,-0.09472484694338462,0.1026544486456592,0.2833934188321299,-0.7107327888761444,1,right
2.088,-0.32389492550728816,1.043451230462889,-0.09892792072896137,0.12391586018777671,2.6146542723447026,-0.08633393361605436,0.10224152632784603,0.26613133892366997,-0.6950222795872442,1,right
2.089,-0.3193425489249921,1.0396026307274076,-0.10021102923250605,0.03868388914928688,2.601991791977107,-0.07812906107582726,0.10174803910278798,0.24909406146260454,-0.679208288546704,1,right
2.089,-0.3145815340158101,1.0358086941394824,-0.10152207108554248,-0.04660369731624482,2.587834662117604,-0.07012037780690568,0.10117610894568746,0.2322891868222451,-0.6633063814021591,1,right
2.094,-0.30961962210710686,1.0320718356709673,-0.10285925706391673,-0.13182417635355673,2.572210803672603,-0.06231780592599676,0.10052782607112347,0.21572417414897893,-0.6473321600971864,1,right
2.095,-0.3044646724697812,1.0283943650498921,-0.10422074525609158,-0.21685412755909225,2.5551501550502156,-0.05473106227484391,0.0998052470954422,0.19940633517546413,-0.631301235860282,1,right
2.096,-0.2991246502871789,1.0247784844536791,-0.1056046483232354,-0.3015698254429833,2.5366845158439313,-0.04736968038044019,0.09901039336294755,0.18334282857754436,-0.6152292035364171,1,right
2.099,-0.29360761557035514,1.021226286241872,-0.10700904101697543,-0.38584762713278975,2.516847390444291,-0.040243031763746134,0.09814524943403374,0.1675406548273118,-0.5991316172153157,1,right
2.099,-0.2879217129701082,1.0177397507666548,-0.10843196788474523,-0.4695643460115405,2.495673835715709,-0.03336034545254961,0.09721176173318848,0.15200665149545736,-0.5830239671104357,1,right
2.103,-0.2820751624105336,1.014320744310318,-0.10987145107502136,-0.5525976077125918,2.4732003143599015,-0.02673072522830565,0.0962118373545875,0.1367474889567766,-0.5669216576425157,1,right
2.104,-0.2760762504417974,1.010971017201526,-0.1113254981433624,-0.6348261880763812,2.449464554188082,-0.020363164511663878,0.09514734302279958,0.12176966645345126,-0.5508399866814779,1,right
2.108,-0.2699333221847999,1.007692202155748,-0.11279210975798476,-0.7161303333093101,2.4245054132411825,-0.014266558866931065,0.09402010420592412,0.1070795084714952,-0.5347941259004463,1,right
2.11,-0.2636547737219516,1.0044858128738214,-0.11426928720820032,-0.7963920625830259,2.398362750693613,-0.00844971610644304,0.0928319043782933,0.09268316138654342,-0.5187991021956542,1,right
2.113,-0.257249044779495,1.0013532429206935,-0.11575503962960866,-0.875495453310067,2.3710773034724606,-0.0029213639765728453,0.09158448442968432,0.07858659033597061,-0.5028697801260789,1,right
2.114,-0.2507246115472738,0.998295764896132,-0.1172473908752071,-0.9533269093291814,2.342690568520511,0.0023098445921198034,0.09027954221780726,0.0647955762751512,-0.48702084532673695,1,right
2.119,-0.2440899794893771,0.9953145299015866,-0.11874438597666229,-1.029775412230641,2.313244690628085,0.007235328687289213,0.08891873226065936,0.051315713176517355,-0.47126678884972484,1,right
2.119,-0.23735367601137272,0.9924105673036999,-0.1202440971500983,-1.1047327560485476,2.28278235575539,0.011846579085617374,0.0875036655651654,0.03815240533093136,-0.45562189238727424,1,right
2.123,-0.2305242428658074,0.989584784795622,-0.1217446293063542,-1.178093765543483,2.251346689763928,0.01613516040704999,0.08603590958835942,0.02531086471176665,-0.4401002143313251,1,right
2.124,-0.22361022819825505,0.9868379687600626,-0.12324412503071824,-1.2497564982948852,2.218981162472466,0.020092715766586118,0.08451698832720167,0.012796108362985057,-0.4247155766243888,1,right
2.128,-0.21662017816221565,0.9841707849397039,-0.12474076900392717,-1.3196224308182554,2.1857294969501537,0.023710973936850187,0.08294838253296914,0.0006129557734068203,-0.4094815523567884,1,right
2.129,-0.20956262806114817,0.9815837794191399,-0.12623279184447145,-1.3875966289177264,2.151635583956568,0.026981759033748297,0.08133153004600671,-0.011233973799706162,-0.39441145406571637,1,right
2.133,-0.20244609300739067,0.9790773799176435,-0.12771847336177433,-1.4535879024796456,2.1167434014358073,0.029897002736560003,0.07966782624647828,-0.022740264093695003,-0.37951832269194263,1,right
2.134,-0.19527905811780072,0.9766518973846384,-0.12919614522068873,-1.5175089449076733,2.0810969389692042,0.032448759052842266,0.07795862461661504,-0.03390170472516544,-0.364814917150439,1,right
2.138,-0.1880699682916363,0.9743075278809452,-0.13066419302950374,-1.5792764573944755,2.044740127088811,0.034629221637524306,0.07620523740981906,-0.04471429423028992,-0.35031370447165483,1,right
2.138,-0.18082721763572016,0.9720443547207613,-0.13212105787561398,-1.6388112582193957,2.0077167713515136,0.036430743674550965,0.07440893642184575,-0.05517424329379567,-0.33602685047068775,1,right
2.145,-0.17355913861440259,0.9698623508447629,-0.13356523734325287,-1.6960383772555523,1.9700704910714686,0.03784586032838827,0.07257095385915782,-0.06527797819869385,-0.32196621090213823,1,right
2.146,-0.16627399100685178,0.9677613813944979,-0.1349952860531748,-1.7508871358636398,1.9318446626065118,0.038867313771638566,0.0706924832994166,-0.07502214452780342,-0.30814332305901426,1,right
2.148,-0.1589799507537046,0.9657412064602322,-0.1364098157647004,-1.803291212343291,1.8930823670922756,0.03948808079392457,0.06877468073895306,-0.08440361114711063,-0.29456939777467084,1,right
2.149,-0.151685098773669,0.9638014839767846,-0.13780749507943943,-1.8531886931062538,1.8538263425159618,0.03970140299609189,0.06681866572194095,-0.09341947449998224,-0.28125531178741614,1,right
2.1519999999999997,-0.1443974098319882,0.9619417727446715,-0.13918704878615315,-1.9005221097288005,1.814118940020047,0.03950081957264928,0.06482552254587844,-0.10206706324021819,-0.26821160042809883,1,right
2.1519999999999997,-0.1371247415469704,0.9601615355568925,-0.1405472568887643,-1.9452384620337828,1.7740020843246607,0.038880202684215354,0.06279630153787104,-0.1103439432308878,-0.2554484505917063,1,right
2.154,-0.12987482362439315,0.95846014241386,-0.14188695336354934,-1.987289227345548,1.733517238155956,0.037833795420570714,0.06073202039588391,-0.11824792291641811,-0.24297569396541757,1,right
2.157,-0.12265524740535645,0.9568368738101158,-0.14320502469238514,-2.0266303560535794,1.692705370566493,0.03635625235372608,0.05863366558794696,-0.12577705898221606,-0.23080280053967933,1,right
2.158,-0.1154734557996514,0.9552909240775207,-0.14450040821385723,-2.063222253613216,1.6516069290324809,0.0344426826792112,0.056502193800254,-0.1329296620492083,-0.2189388725257031,1,right
2.162,-0.10833673366580025,0.9538214047703676,-0.14577209032859154,-2.0970297492716967,1.6102618151846262,0.03208869584333192,0.05433853342391858,-0.13970430205748327,-0.20739263885696407,1,right
2.1630000000000003,-0.10125219869654714,0.9524273480775326,-0.14701910459373596,-2.1280220526377285,1.568709363893227,0.029290449056730443,0.05214358607112907,-0.14609981308427203,-0.19617245039979395,1,right
2.1630000000000003,-0.09422679286454362,0.9511077102461705,-0.1482405297412692,-2.1561727007127547,1.5269883251840028,0.0260446952002173,0.04991822811328869,-0.15211529750625744,-0.18528627590302182,1,right
2.167,-0.08726727447687667,0.9498613750015316,-0.14943548765660433,-2.1814594988318565,1.485136848325272,0.022348829131404527,0.04766331223471177,-0.15775012950724474,-0.17474169866418157,1,right
2.168,-0.08038021088903607,0.9486871569485287,-0.1506031413608279,-2.2038644581164006,1.4431924675616639,0.018200930895569636,0.04537966899557228,-0.16300395794956427,-0.16454591388006987,1,right
2.174,-0.0735719719334103,0.9475838049434021,-0.15174269304394006,-2.2233737305245183,1.4011920892123817,0.013599805236010697,0.04306810839771389,-0.16787670862648577,-0.1547057266503985,1,right
2.174,-0.06684872411250778,0.9465500054275031,-0.15285338218661382,-2.239977541739564,1.359171979986836,0.008545017294036101,0.04072942144684536,-0.1723685859118313,-0.1452275506042645,1,right
2.178,-0.06021642559448843,0.9455843857178333,-0.15393448378714786,-2.253670121960884,1.317167756397232,0.0030369244866706928,0.038364381704562814,-0.17648007382187883,-0.13611740712016335,1,right
2.1790000000000003,-0.05368082203585308,0.944685517250027,-0.15498530669210916,-2.2644496346529213,1.275214375147533,-0.002923295451140467,0.0359737468235601,-0.18021193650355563,-0.12738092511129007,1,right
2.1830000000000003,-0.04724744324656579,0.9438519187698833,-0.1560051920227139,-2.2723181033003366,1.2333461243781685,-0.009333620274350979,0.03355826005931049,-0.18356521816182608,-0.11902334134891379,1,right
2.184,-0.04092160070632178,0.9430820594705859,-0.15699351169233478,-2.2772813362084867,1.1915966156458853,-0.01619116290147536,0.031118651751427147,-0.18654124243808703,-0.11104950129766633,1,right
2.188,-0.03470838593426302,0.9423743620755348,-0.15794966701646893,-2.279348849380224,1.1499987765183057,-0.02349215497121244,0.028655640767836443,-0.18914161125029333,-0.10346386043765858,1,right
2.189,-0.028612669702904787,0.941727205870611,-0.15887308741992162,-2.278533787491635,1.108584843662981,-0.0312319343004388,0.026169935904826448,-0.19136820310444946,-0.09627048604942617,1,right
2.191,-0.02263910206693488,0.9411389296923338,-0.1597632292452916,-2.274852842980997,1.06738635631108,-0.03940493626326403,0.02366223723596403,-0.19322317088602067,-0.08947305943880722,1,right
2.193,-0.016792113151400858,0.9406078348783534,-0.1606195746627205,-2.2683261732569218,1.0264341499762808,-0.04800468911211159,0.021133237402806336,-0.19470893913873685,-0.08307487857996937,1,right
2.197,-0.011075914617793779,0.9401321881844235,-0.1614416306758558,-2.2589773160233744,0.9857583503099642,-0.05702381326304756,0.018583622840267513,-0.19582820083719096,-0.07707886115592949,1,right
2.197,-0.005494501705449598,0.9397102246684202,-0.16222892821680643,-2.2468331027110495,0.9453883669744203,-0.06645402456882225,0.016014074929438113,-0.1965839136585658,-0.07148754797704579,1,right
2.201,-5.165573206148338e-05,0.939340150538393,-0.16298102132483472,-2.231923569996391,0.9053528874164904,-0.0762861416043135,0.013425271070593598,-0.19697929575776305,-0.06630310675910857,1,right
2.201,0.005249053067820647,0.9390201459593158,-0.16369748640552498,-2.214281869381466,0.8656798704248576,-0.0865100969902634,0.01081788566906901,-0.1970178210491562,-0.06152733624380998,1,right
2.206,0.010404262484136105,0.9387483678126963,-0.1643779215645158,-2.1939441747998663,0.826396539355073,-0.09711495278237918,0.00819259102661965,-0.196703213997146,-0.05716167064553518,1,right
2.206,0.015410815159396232,0.9385229524041655,-0.16502194600480835,-2.1709495882058802,0.7875293749073686,-0.10808891995402163,0.005550058130832283,-0.19603944391666037,-0.05320718440958515,1,right
2.2119999999999997,0.020265755390955587,0.9383420181154883,-0.16562919947533103,-2.1453400430963327,0.7491041073433444,-0.11941938200182799,0.0028909573350979754,-0.19503071878371891,-0.049664597268114896,1,right
2.213,0.024966325968821524,0.9382036679976984,-0.16619934176226034,-2.1171602059067487,0.7111457080287374,-0.13109292270470932,0.00021595892160625982,-0.19368147855516582,-0.04653427958124786,1,right
2.217,0.02950996508424603,0.93810599230163,-0.16673205221953816,-2.086457375215879,0.6736783801906714,-0.14309535806771995,-0.0024742664602292364,-0.19199638799567387,-0.04381625795200793,1,right
2.218,0.033894303323592855,0.9380470709432077,-0.16722702933694522,-2.0532813786851123,0.6367255487790574,-0.1554117724833197,-0.005179047487551131,-0.18998032900913098,-0.04151022110489293,1,right
2.221,0.03811716074611161,0.9380249759037446,-0.16768399034199918,-2.0176844676519208,0.6003098493231519,-0.16802655914353357,-0.007897711997727723,-0.18763839247054373,-0.039615526019097104,1,right
2.222,0.042176544031168856,0.9380377735678879,-0.1681026708277451,-1.9797212092892493,0.5644531156756881,-0.1809234647374561,-0.01062958696532926,-0.1849758695668867,-0.0381312043053599,1,right
2.222,0.04607064367162637,0.9380835270023121,-0.16848282439518786,-1.9394483762356498,0.5291763665384761,-0.1940856384694491,-0.01337399860432512,-0.18199824272067375,-0.03705596880053179,1,right
2.225,0.049797831186621754,0.9381602981766828,-0.16882422229840188,-1.8969248335940239,0.49449979066490424,-0.2074956854342362,-0.01613027253867393,-0.17871117628842706,-0.03638822032620407,1,right
2.226,0.053356656322870115,0.9382661501244444,-0.16912665308069574,-1.8522114231900322,0.4604427306363816,-0.22113572438590767,-0.018897733962971144,-0.17512050729159587,-0.03612605454285836,1,right
2.231,0.05674584420229101,0.9383991490354471,-0.1693899221885823,-1.8053708449746058,0.4270236651114231,-0.2349874499386092,-0.021675707736400044,-0.1712322363702755,-0.03626726884823543,1,right
2.2319999999999998,0.05996429236113504,0.9385573662681608,-0.169613851546387,-1.756467535565568,0.394260189521902,-0.24903219910687455,-0.02446351839204817,-0.16705251902985285,-0.036809369298717864,1,right
2.233,0.0630110676239052,0.9387388802685408,-0.16979827907129294,-1.7055675445022411,0.3621689955632634,-0.2632510214415947,-0.027260490065228807,-0.16258765718353585,-0.03774957754975465,1,right
2.235,0.06588540276522287,0.9389417783847721,-0.16994305810912402,-1.6527384098341078,0.3307658504942108,-0.2776247508434953,-0.03006594634878647,-0.1578440909796099,-0.03908483781572813,1,right
2.2359999999999998,0.06858669292211508,0.9391641585700408,-0.17004805677415155,-1.5980490352438288,0.3000655776337544,-0.29213407648392214,-0.032879210083393506,-0.1528283909014281,-0.040811823850814555,1,right
2.241,0.07111449172008028,0.9394041309691346,-0.17011315718079095,-1.5415695703140304,0.27008203907494116,-0.3067596109158592,-0.03569960309087137,-0.14754725012732237,-0.042926945953532775,1,right
2.242,0.07346850707598765,0.9396598193906194,-0.17013825456345721,-1.483371294488441,0.24082812096967998,-0.3214819546332783,-0.038526445858594424,-0.14200747713682296,-0.04542635799880952,1,right
2.245,0.07564859664879849,0.9399293626745443,-0.17012325629286534,-1.4235265046874506,0.21231572137059512,-0.3362817569899345,-0.041359057183056554,-0.1362159885487917,-0.04830596450251493,1,right
2.246,0.0776547629249739,0.9402109159743344,-0.17006808080830887,-1.3621084064159967,0.1845557405438013,-0.351139773519581,-0.04419675378070138,-0.13017980217631253,-0.051561427724536056,1,right
2.25,0.07948714794388587,0.9405026519782975,-0.16997265649235913,-1.2991910081967444,0.15755807366858732,-0.3660369196998542,-0.04703884987413533,-0.12390603028243986,-0.05518817481755984,1,right
2.251,0.08114602768516858,0.9408027620986085,-0.16983692051517452,-1.2348490191567996,0.1313316058421232,-0.38095432120230477,-0.049884656761859505,-0.11740187302018235,-0.05918140502982843,1,right
2.255,0.08263180615357421,0.9411094576525224,-0.16966081766968558,-1.1691577495916792,0.10588420930946539,-0.395873360671216,-0.0527334823796708,-0.11067461203939737,-0.06353609697120909,1,right
2.256,0.08394500920909995,0.9414209710519496,-0.16944429920965787,-1.1021930143259515,0.0812227428413216,-0.4107757210739642,-0.055584630861895246,-0.10373160424258852,-0.06824701595298704,1,right
2.26,0.08508627820141193,0.9417355570047772,-0.1691873216965358,-1.034031038685873,0.05735305318425086,-0.42564342566573554,-0.058437402110627513,-0.09658027567093722,-0.07330872141284203,1,right
2.26,0.08605636347658309,0.942051493718073,-0.1688898458627488,-0.9647483668954709,0.034279978510209974,-0.4404588746114171,-0.061291091381158916,-0.0892281155012586,-0.07871557443750692,1,right
2.265,0.08685611783004919,0.9423670840844789,-0.16855183550827332,-0.8944217727038632,0.012007353794613054,-0.45520487830743533,-0.06414498889178294,-0.08168267013395249,-0.08446174539663018,1,right
2.265,0.08748648998198164,0.9426806568321804,-0.168173256458934,-0.8231281720481722,-0.009461981945656584,-0.4698646874462139,-0.06699837946617215,-0.0739515373514214,-0.09054122170237086,1,right
2.27,0.08794851814965671,0.9429905676258372,-0.1677540756236839,-0.7509445375531627,-0.03012617662055678,-0.484422019865775,-0.06985054221652269,-0.06604236052585126,-0.09694781571024587,1,right
2.271,0.08824332378659436,0.9432952001172856,-0.16729426019024618,-0.6779478146657456,-0.049984354305496324,-0.49886108422680997,-0.07270075027566343,-0.057962822854695,-0.10367517277772396,1,right
2.274,0.08837210555109633,0.9435929669560936,-0.1667937769928789,-0.6042148392197001,-0.06903660281191584,-0.5131666005592969,-0.07554827058632523,-0.04972064160166623,-0.11071677949801777,1,right
2.275,0.08833613355758138,0.943882310778716,-0.1662525920742609,-0.5298222562234187,-0.08728395964920066,-0.5273238177204514,-0.07839236375576224,-0.04132356232053831,-0.11806597212746454,1,right
2.279,0.08813674395328938,0.9441617052006828,-0.16567067044976996,-0.4548464396611407,-0.10472839643497298,-0.5413185278054572,-0.08123228398391148,-0.03277935303855531,-0.1257159452258078,1,right
2.28,0.08777533385170277,0.9444296558379612,-0.16504797607154795,-0.37936341309602284,-0.12137280180849777,-0.5551370775520388,-0.08406727907326939,-0.02409579837579375,-0.1336597605295938,1,right
2.285,0.08725335664422054,0.944684701380228,-0.16438447198454176,-0.3034487708615023,-0.13722096289962626,-0.5687663767795197,-0.08689659052865402,-0.015280693576369499,-0.14189035607978057,1,right
2.286,0.08657231770469972,0.9449254147312419,-0.16368012066674315,-0.22717759962573003,-0.15227754540339658,-0.5821939039025353,-0.08971945375500956,-0.006341838426961211,-0.15040055562552096,1,right
2.289,0.08573377049719931,0.9451504042224592,-0.16293488454850794,-0.15062440011239406,-0.1665480723081147,-0.595407708559072,-0.09253509836139572,0.0027129689622784,-0.15918307832692513,1,right
2.29,0.0847393130942367,0.9453583148986185,-0.16214872670851477,-0.07386300876001277,-0.18003890132245284,-0.6083964113919572,-0.09534274857554917,0.011875938527377347,-0.16823054876384977,1,right
2.291,0.08359058511048965,0.9455478298707728,-0.1613216117449229,0.00303348089924839,-0.1927572010448315,-0.6211492010223509,-0.09814162375469057,0.021139294722310832,-0.17753550717565994,1,right
2.294,0.08228926505544934,0.9457176717328974,-0.1604535068186368,0.0799927973609947,-0.20471092591609344,-0.6336558282531705,-0.10093093894457826,0.030495282933583338,-0.18709041970846166,1,right
2.295,0.08083706810817733,0.9458666040399105,-0.1595443828613244,0.15694357099061215,-0.21590878999424146,-0.6459065975397411,-0.10370990542009192,0.039936175616877304,-0.19688768836415876,1,right
2.3,0.07923574431734258,0.9459934328452448,-0.1585942159353993,0.2338154148066169,-0.22636023958779225,-0.6578923557642845,-0.10647773115929914,0.049454277997071486,-0.20691966042933257,1,right
2.3,0.07748707722835647,0.9460970082947854,-0.15760298872857922,0.31053900642627436,-0.23607542478210614,-0.6696044783501525,-0.10923362123658187,0.05904193328437309,-0.21717863731189052,1,right
2.301,0.07559288293515222,0.9461762262717746,-0.15657069216339775,0.38704617125269275,-0.24506516991331065,-0.6810348527940032,-0.11197677813906558,0.06869152742131557,-0.2276568827970311,1,right
2.303,0.07355500954842166,0.9462300300847483,-0.15549732710336361,0.46326996627386213,-0.2533409431544426,-0.6921758599084757,-0.11470640201430027,0.07839549338794846,-0.2383466307513275,1,right
2.3040000000000003,0.07137533706790151,0.9462574121873848,-0.15438290614210687,0.5391447625683679,-0.2609148255781878,-0.703020353454345,-0.1174216908571086,0.08814631509274579,-0.24924009230438493,1,right
2.309,0.06905577764291167,0.9462574159135585,-0.15322745546725006,0.6146063239033764,-0.2677994801706632,-0.7135616390554522,-0.12012184064348001,0.09793653087693732,-0.260329462538156,1,right
2.31,0.06659827619917216,0.9462291372020506,-0.15203101679554828,0.689591879518193,-0.27400812115648865,-0.7237934530737549,-0.12280604541935022,0.10775873666012349,-0.27160692671460585,1,right
2.313,0.06400481139913598,0.9461717262761775,-0.15079364938159534,0.7640401904610066,-0.27955448379151115,-0.7337099417337763,-0.12547349735206512,0.11760558875516915,-0.28306466607300496,1,right
2.314,0.06127739688773903,0.9460843892387014,-0.1495154321087343,0.8378916095537678,-0.2844527946654183,-0.7433056405697508,-0.12812338675228377,0.12746980638048544,-0.2946948632286887,1,right
2.318,0.0584180827566019,0.9459663895437869,-0.14819646567303227,0.9110881352004814,-0.2887177425321058,-0.7525754542248392,-0.1307549020740299,0.13734417389789993,-0.30648970720566493,1,right
2.318,0.055428957140008436,0.9458170493133525,-0.146836874865293,0.9835734592526519,-0.2923644496837631,-0.7615146366308962,-0.1333672299005531,0.14722154280438707,-0.3184413981359664,1,right
2.324,0.052312147838822626,0.9456357504713764,-0.1454368109442671,1.0552930091439172,-0.29540844388278004,-0.7701187715963416,-0.13595955492361025,0.15709483350598066,-0.33054215165914347,1,right
2.325,0.04906982385699026,0.9454219356751435,-0.14399645408231862,1.1261939845040199,-0.2978656308637599,-0.7783837538287535,-0.1385310599237251,0.16695703690221927,-0.3427842030557622,1,right
2.3280000000000003,0.04570419673212515,0.9451751090276636,-0.14251601585588508,1.1962253884602319,-0.29975226741614713,-0.7863057704178581,-0.14108092575892892,0.1768012158094844,-0.3551598111492257,1,right
2.3280000000000003,0.04221752154848105,0.9448948365607037,-0.140995741746895,1.2653380538321473,-0.3010849350562497,-0.7938812828036201,-0.1436083313694273,0.1866205062515797,-0.36766126201066457,1,right
2.335,0.03861209753697945,0.9445807464822878,-0.13943591361752042,1.3334846644234146,-0.3018805142957494,-0.8011070092531717,-0.14611245380557888,0.19640811864586777,-0.3802808725020473,1,right
2.336,0.034890268190506515,0.9442325291860617,-0.13783685211935132,1.4006197716114863,-0.30215615951215546,-0.8079799078693288,-0.14859246828650896,0.20615733891322938,-0.3930109936930461,1,right
2.338,0.031054420850946816,0.9438499370230393,-0.13619891900015374,1.4666998064338215,-0.30192927442506656,-0.814497160152451,-0.15104754829661704,0.21586152954003876,-0.4058440141875547,1,right
2.339,0.027106985756057266,0.9434327838384416,-0.13452251927830333,1.5316830873662128,-0.30121748818056354,-0.8206561551363941,-0.15347686572717015,0.22551413062025782,-0.41877236339609536,1,right
2.345,0.023050434566030842,0.9429809442776543,-0.13280810326592418,1.5955298239860072,-0.30003863204456255,-0.8264544741182965,-0.15587959107010438,0.23510866090564136,-0.43178851479066716,1,right
2.346,0.018887278415059543,0.9424943528684153,-0.13105616843199785,1.6582021167099583,-0.2984107167045138,-0.8318898760009127,-0.15825489367108608,0.24463871889191746,-0.4448849891788874,1,right
2.347,0.0146200655483713,0.9419730028935357,-0.12926726110119321,1.7196639527933042,-0.2963519101774408,-0.8369602832651847,-0.16060194204880926,0.25409798396865807,-0.45805435803454764,1,right
2.3480000000000003,0.01025137861235789,0.9414169450785909,-0.12744197798185922,1.7798811987734051,-0.29388051632097145,-0.841663768589701,-0.16291990428743003,0.26348021766038837,-0.471289246921961,1,right
2.353,0.005783831668902085,0.9408262861292408,-0.1255809675108594,1.838821589537905,-0.29101495394272403,-0.8459985421326549,-0.16520794850895992,0.27277926498629884,-0.48458233905170767,1,right
