time,gFx,gFy,gFz,ax,ay,az,wx,wy,wz,subject_number,foot
10.062999999999999,-0.21616327725211976,0.9493318522842952,0.012467646004430389,-3.539172544327666,-3.3295179788862557,1.316124022328815,1.1377664747418668,-0.7099630261785074,3.4558809331760285,1,right
10.064,-0.20740357784100108,0.9534057067963153,0.013313519703713445,-3.587608652861071,-3.2752137042270504,1.3007480609123911,1.1255250447879825,-0.7110137676153235,3.4338179167855625,1,right
10.068,-0.1985807306973236,0.9573971216457348,0.014182324870342442,-3.634669089576617,-3.2201560366210993,1.2855506747618535,1.1129918600127158,-0.7116755122244441,3.411023833834283,1,right
10.07,-0.18970010475668275,0.9613066965101082,0.015070678119952491,-3.680292708449592,-3.1643784898505056,1.2705542666519762,1.100176079099297,-0.7119433803894205,3.387511462897345,1,right
10.073,-0.18076705661304682,0.9651351047762342,0.015975180274235327,-3.724420000873176,-3.1079149436381197,1.255780627961041,1.0870869930977796,-0.7118127931023956,3.363293751703644,1,right
10.073,-0.17178692033726733,0.9688830908802443,0.016892423257286807,-3.7669931614118637,-3.0507996155110497,1.2412509118930952,1.0737340181848705,-0.7112794819418914,3.338383805896798,1,right
10.078,-0.16276499788019058,0.972551467764741,0.017818997015820452,-3.807956151948367,-2.9930670301662223,1.2269856067091756,1.0601266879223863,-0.710339499334837,3.312794877253137,1,right
10.079,-0.15370655011770093,0.9761411145174999,0.018751496389315704,-3.847254764350647,-2.934751986175872,1.2130045089251043,1.0462746449767528,-0.708989229102455,3.2865403512871443,1,right
10.083,-0.1446167885794186,0.979652974248039,0.019686527856201532,-3.8848366817812496,-2.8758895198689474,1.1993266964341598,1.0321876322612098,-0.707225397288463,3.2596337341728345,1,right
10.084,-0.1355008678863704,0.983088052245864,0.020620716088918033,-3.9206515387665033,-2.816514866222667,1.1859705015136848,1.0178754834843815,-0.7050450832488586,3.2320886389469647,1,right
10.084,-0.12636387890680886,0.9864474144502395,0.02155071026443284,-3.9546509801383674,-2.75666341659677,1.1729534836755107,1.003348113201824,-0.7024457308912408,3.2039187711550174,1,right
10.087,-0.11721084262460925,0.9897321862474969,0.02247319009374578,-3.986788718956775,-2.6963706731414447,1.1602924023209427,0.98861550667106,-0.6994251597882003,3.175137914453501,1,right
10.089,-0.10804670470403244,0.992943551596683,0.023384871547225964,-4.017020593515266,-2.635672199708445,1.1480031891619733,0.9736877099236168,-0.6959815757979806,3.1457599168772297,1,right
10.093,-0.09887633072880908,0.9960827524676866,0.02428251225920752,-4.045304623453572,-2.574603569224462,1.1361009204164332,0.9585748203533135,-0.6921135809145428,3.115798678281509,1,right
10.094,-0.08970450209029365,0.9991510885634233,0.02516291659953977,-4.0716010646259715,-2.5132003081392327,1.1245997890111048,0.9432869779148805,-0.6878201822301943,3.0852681391128978,1,right
10.095,-0.08053591249710688,1.0021499172926442,0.026022940405520043,-4.095872461703666,-2.451497839738093,1.1135130774334534,0.9278343569127775,-0.6831007999828588,3.0541822704635733,1,right
10.097999999999999,-0.07137516507649024,1.0050806539550494,0.026859495372548187,-4.1180836971143195,-2.3895314287622997,1.102853132099045,0.9122271583368197,-0.6779552746768741,3.022555065323257,1,right
10.1,-0.06222677003495201,1.0079447720882435,0.0276695531031928,-4.138202035285702,-2.327336129124799,1.0926313398775593,0.896475602700713,-0.6723838732649834,2.990400530941024,1,right
10.102,-0.05309514284278221,1.0107438039125605,0.028450148813353705,-4.156197161819687,-2.264946735329882,1.0828581070159502,0.8805899233391318,-0.6663872943779607,2.9577326822077334,1,right
10.103,-0.043984602903835116,1.0134793408039486,0.029198384694227742,-4.172041217586438,-2.2023977375497075,1.0735428404732088,0.8645803601185225,-0.6599666725870915,2.9245655359682363,1,right
10.109,-0.034899372668759386,1.0161530337268916,0.02991143293244338,-4.185708827796506,-2.1397232801791066,1.064693931637395,0.8484571535164097,-0.6531235816835022,2.8909131061710376,1,right
10.109,-0.02584357714762343,1.0187665935641765,0.030586538398522836,-4.197177126102482,-2.0769571236895112,1.0563187423968767,0.8322305390235875,-0.6458600369571161,2.856789399761586,1,right
10.112,-0.016821243776862286,1.0213217912860881,0.031221021024393628,-4.206425773775665,-2.014132609602392,1.0484235935390362,0.8159107418232282,-0.6381784964567953,2.8222084132239473,1,right
10.113,-0.007836302593942428,1.0238204579082624,0.031812277902048,-4.213436973996947,-1.9512826284022398,1.0410137554510392,0.7995079717006142,-0.6300818612120109,2.7871841296742086,1,right
10.117,0.001107413329239196,1.0262644841942434,0.03235778514678579,-4.218195481294833,-1.888439590208839,1.0340934410986191,0.7830324181368972,-0.6215734743951862,2.751730516407624,1,right
10.117,0.01000616724349552,1.0286558200637361,0.032855099579779085,-4.22068860615712,-1.8256353980284352,1.0276658012602085,0.7664942455400275,-0.6126571194026451,2.7158615228001857,1,right
10.122,0.01885631791483717,1.0309964736700905,0.03330186029491012,-4.220906214836338,-1.7629014234033151,1.0217329219951405,0.7499035885657527,-0.6033370168309208,2.6795910784640373,1,right
10.123,0.027654318689110925,1.0332885101124998,0.03369579018155705,-4.218840724362608,-1.7002684842793294,1.0162958243260465,0.7332705474813781,-0.5936178203239848,2.6429330915549056,1,right
10.127,0.03639671645694821,1.035534049751889,0.0340346974760038,-4.214487092771045,-1.6377668249110149,1.0113544661169884,0.7166051835248022,-0.5835046112657946,2.6059014471285473,1,right
10.128,0.04508015053818283,1.0377352661053478,0.0343164774085202,-4.2078428045443195,-1.5754260976241583,1.006907746130286,0.6999175142111855,-0.5730028922913932,2.5685100054420382,1,right
10.133,0.05370135149494451,1.0398943833016927,0.03453911400029523,-4.198907851264434,-1.5132753462559407,1.0029535102464187,0.6832175085394957,-0.5621185795886534,2.530772600094627,1,right
10.134,0.062257139873677494,1.042013673089526,0.034700682043717006,-4.187684707461206,-1.451342991093179,0.9994885598328045,0.6665150820510735,-0.550857993961624,2.492703035901803,1,right
10.136000000000001,0.07074442487036481,1.044095451399409,0.03479934927351974,-4.174178301638356,-1.389656815129634,0.9965086622486782,0.6498200916923006,-0.5392278506253236,2.4543150863951952,1,right
10.137,0.07916020291054675,1.0461420744742098,0.034833378710136455,-4.158395982451557,-1.328243951463906,0.9940085634747005,0.6331423304334194,-0.5272352477007266,2.4156224908399166,1,right
10.142000000000001,0.08750155613682241,1.0481559345954363,0.034801131132577164,-4.140347480006207,-1.2671308716600629,0.9919820028573364,0.616491521595541,-0.5148876533776077,2.3766389506600234,1,right
10.142000000000001,0.0957656508011387,1.0501394554469192,0.03470106761664639,-4.120044862236124,-1.2063433748938504,0.9904217299594311,0.5998773128379039,-0.5021928917118503,2.3373781251618397,1,right
10.146,0.10394973556520044,1.0520950871703327,0.034531752058260874,-4.097502486317881,-1.1459065777081183,0.9893195235097879,0.5833092697574936,-0.48915912702278314,2.2978536264440224,1,right
10.147,0.11205113971817665,1.0540253011793737,0.03429185359545934,-4.072736945068919,-1.0858449042019602,0.9886662124459101,0.5667968690532099,-0.47579484685508966,2.258079013382409,1,right
10.152000000000001,0.1200672713258143,1.055932584809244,0.033980148847766845,-4.0457670082711825,-1.026182076478989,0.9884516990454065,0.5503494912068749,-0.46210884346884096,2.218067784576891,1,right
10.152999999999999,0.127995615328216,1.0578194358829707,0.03359552390519794,-4.0166135588555205,-0.9669411051811869,0.9886649841428767,0.5339764126553345,-0.4481101938644168,2.17783337019873,1,right
10.154,0.13583373160463882,1.059688357272842,0.033136976017518485,-3.9852995238757765,-0.9081442799358349,0.9892941944303748,0.5176867975372075,-0.4338082385690874,2.137389122935688,1,right
10.157,0.1435792530227935,1.061541851524448,0.03260361495354845,-3.9518498001951152,-0.849813159544182,0.990326611840813,0.5014896892944782,-0.41921255980881894,2.096748308699063,1,right
10.158,0.15122988348623986,1.0633824156025193,0.03199466401600452,-3.9162911748008997,-0.7919685617417129,0.9917487050148933,0.48539400251848175,-0.4043329599089238,2.0559240980157494,1,right
10.161,0.15878339598602473,1.0652125358190236,0.03130946070841775,-3.8786522396582037,-0.7346305523611569,0.9935461628533444,0.46940851532093075,-0.3891794405453516,2.014929558768169,1,right
10.161,0.16623763065412514,1.0670346830056887,0.030547457059558646,-3.838963301163484,-0.6778184337884346,0.9957039301192961,0.4535418623144421,-0.37376218306985604,1.9737776504769542,1,right
10.162,0.17359049281082525,1.06885130798419,0.029708219617915387,-3.797256285041636,-0.6215507328917598,0.9982062448661901,0.4378025281781724,-0.35809152991050497,1.9324812200610668,1,right
10.167,0.1808399509968843,1.0706648373701046,0.028791429132632027,-3.7535646389416266,-0.5658451891250785,1.0010366771247312,0.42219884176265854,-0.34217796700402375,1.891052998957616,1,right
10.168,0.18798403497900834,1.0724776697289957,0.027796879940872682,-3.7079232357678067,-0.5107187437971615,1.0041781680928714,0.4067389706883012,-0.32603210721570447,1.8495056014831808,1,right
10.171,0.19502083370949397,1.0742921720855396,0.02672447908852442,-3.660368279990427,-0.45618753121060374,1.0076130692643508,0.3914309163922946,-0.309664674701886,1.807851524318038,1,right
10.171,0.20194849321196204,1.0761106767664552,0.0255742452197942,-3.6109372177552173,-0.40226687185708554,1.0113231812752395,0.37628250957919357,-0.29308649016931243,1.7661031469943014,1,right
10.177,0.20876521436015075,1.0779354785357849,0.02434630727954233,-3.559668650818559,-0.3489712675682914,1.0152897924393545,0.3613014060307253,-0.27630845698500955,1.7242727332686518,1,right
10.177999999999999,0.21546925051537433,1.0797688319601548,0.023040903081869197,-3.5066022541717095,-0.2963143984658631,1.019493716982384,0.34649508273088436,-0.25934154808968507,1.6823724332600194,1,right
10.18,0.22205890498817432,1.0816129489229642,0.02165837780996392,-3.4517786972121587,-0.24430912155552073,1.0239153329853345,0.33187083426281117,-0.24219679366704908,1.6404142862323137,1,right
10.181000000000001,0.22853252829019216,1.083469996190295,0.020199182521327994,-3.3952395683149277,-0.1929674708122769,1.0285346200486578,0.3174357694344338,-0.2248852695208813,1.5984102239020639,1,right
10.185,0.23488851514324832,1.0853420929201953,0.018663872733768426,-3.337027302651447,-0.1423006586055024,1.0333311966890864,0.3031968080903534,-0.2074180861111268,1.5563720741506197,1,right
10.185,0.2411253012138692,1.0872313080029887,0.017053107158472865,-3.2771851130986116,-0.09231907831447154,1.0382843574818428,0.2891606780679775,-0.1898063781997916,1.5143115650204082,1,right
10.19,0.24724135954374987,1.0891396571231038,0.015367646628650412,-3.215756924075684,-0.043032307986920745,1.0433731099614445,0.2753339122564478,-0.17206129505693127,1.4722403288746078,1,right
10.191,0.2532351966516771,1.0910690994424808,0.01360835325005818,-3.1527873081419044,0.0055508851049092915,1.048576211294841,0.26172284571747173,-0.1541939911765774,1.430169906599493,1,right
10.196,0.2591053482914164,1.0930215338226124,0.011776189777298426,-3.0883214251830027,0.05342253915431105,1.0538722047410667,0.24833361282775082,-0.13621561745203242,1.388111751728655,1,right
10.196,0.2648503748619439,1.0949987945250477,0.009872219199003246,-3.0224049640102297,0.10057549189779633,1.0592394559119833,0.23517214440329817,-0.11813731275957998,1.346077234368256,1,right
10.2,0.27046885647885777,1.0970026463551608,0.00789760449691559,-2.9550840861911176,0.14700337421998036,1.0646561888490103,0.2222441647665574,-0.09997019589930671,1.3040776448024922,1,right
10.201,0.2759593877273624,1.0990347792390256,0.005853608529401437,-2.886405371926872,0.1927006034231709,1.0701005219310114,0.20955518871787218,-0.08172535784141244,1.2621241966584598,1,right
10.205,0.2813205721273171,1.1010968022476197,0.0037415939802058883,-2.8164157677871318,0.23766237629710668,1.0755505036287125,0.19711051837350935,-0.06341385422609855,1.220228029509701,1,right
10.205,0.2865510163485393,1.1031902371052988,0.0015630233099570917,-2.7451625361088112,0.28188466212220786,1.0809841481211604,0.18491523983310876,-0.04504669806486924,1.1784002107977993,1,right
10.21,0.29164932421954903,1.1053165112384786,-0.0006805413479815259,-2.672693205861818,0.3253641957376041,1.0863794707898164,0.17297421964011941,-0.026634852590856777,1.1366517369515232,1,right
10.211,0.29661409057648325,1.107476950433823,-0.002987438395222497,-2.599055524780697,0.36809847080309493,1.0917145236058945,0.16129210099948227,-0.008189224205590479,1.0949935335831897,1,right
10.215,0.3014438950017525,1.1096727711833243,-0.00535590711318404,-2.524297412557605,0.41008573338207427,1.0969674304265062,0.14987329971753682,0.010279344530530926,1.0534364546421107,1,right
10.216000000000001,0.3061372955037051,1.111905072798666,-0.007784088163998698,-2.4484669148885385,0.4513249759703186,1.1021164222150628,0.13872199982985786,0.028760081916932367,1.011991280405211,1,right
10.219,0.31069282218885497,1.1141748293803715,-0.010270024255533632,-2.371612158161369,0.4918159320933995,1.1071398722012147,0.12784214888347245,0.04724229419368696,0.9706687141851709,1,right
10.22,0.31510897097722534,1.1164828817283174,-0.012811660973435373,-2.2937813045710405,0.531559071593336,1.1120163309953741,0.11723745284066255,0.06571537273750411,0.9294793776367328,1,right
10.221,0.31938419740875673,1.1188299292783217,-0.015406847783193393,-2.2150225074441794,0.5705555967229557,1.1167245616725607,0.10691137059076707,0.08416880140711848,0.8884338045967798,1,right
10.225,0.3235169105837079,1.1212165221424744,-0.018053339207990463,-2.135383866552449,0.6088074391642866,1.1212435748399583,0.09686710814937204,0.1025921639781722,0.8475424336673675,1,right
10.226,0.3275054672734282,1.1236430533207602,-0.020748796191548787,-2.0549133831911552,0.6463172580851514,1.1255526637021462,0.0871076127910225,0.12097515143818777,0.8068156002430799,1,right
10.23,0.331348166233283,1.1261097511479108,-0.02349078765930694,-1.973658914893845,0.6830884392843282,1.129631439112892,0.07763556745458622,0.13930756881802384,0.7662635289577123,1,right
10.231,0.3350432427479944,1.128616672043947,-0.02627679229578183,-1.891668130135511,0.7191250951651513,1.1334598644788803,0.06845338566901116,0.1575793413302686,0.7258963272525057,1,right
10.231,0.3385888634389332,1.131163693639062,-0.02910420055944087,-1.8089884642465832,0.754432064720274,1.137018290158817,0.05956320708208242,0.17578051975437956,0.6857239802768261,1,right
10.234,0.34198312136357173,1.133750508344344,-0.03197031696045721,-1.7256670782420482,0.7890149123998443,1.140287486877716,0.05096689358341247,0.19390128510238175,0.6457563470594608,1,right
10.234,0.345224031441562,1.1363766174502388,-0.03487236263494912,-1.641750821783501,0.8228799250415868,1.1432486777984212,0.04266602599529141,0.21193195261759323,0.6060031578345881,1,right
10.238999999999999,0.34830952624735717,1.1390413258508583,-0.037807478259773986,-1.557286200618014,0.8560341065942126,1.1458835691129916,0.03466190130586203,0.2298629751586436,0.5664740124070363,1,right
10.24,0.35123745221194036,1.1417437375016914,-0.04077272735733304,-1.4723193483514458,0.8884851706718473,1.148174379138702,0.02695553041992825,0.24768494602082086,0.5271783794420383,1,right
10.244000000000002,0.3540055662751493,1.144482751717468,-0.043765100035290674,-1.386896002315221,0.9202415310367791,1.1501038659271288,0.019547636403553448,0.26538860124652364,0.48812559656530236,1,right
10.245,0.3566115330265698,1.1472570604073027,-0.04678151719237348,-1.3010614832840386,0.9513122901057862,1.151655353393852,0.012438653199457294,0.2829648214763092,0.44932487115986053,1,right
10.249,0.3590529223689494,1.150065146325788,-0.04981883520218117,-1.2148606788005158,0.9817072255732838,1.1528127559753163,0.00562872479107412,0.30040463339171525,0.41078528174683127,1,right
10.25,0.36132720773645105,1.1529052823917394,-0.05287385106681154,-1.1283380298614711,1.0114367752425393,1.1535606018183584,-0.0008822952060070234,0.3176992108006939,0.37251577983792644,1,right
10.254000000000001,0.36343176490408974,1.1557755320930236,-0.055943308014969974,-1.0415375207193591,1.0405120201542346,1.153884054506824,-0.007094843545642593,0.33483987541612964,0.3345251921482586,1,right
10.255999999999998,0.36536387143536864,1.1586737509595568,-0.05902390150591785,-0.9545026715513254,1.0689446660997142,1.1537689333285643,-0.013009646965338437,0.3518180973775229,0.2968222230587543,1,right
10.259,0.36712070683012527,1.161597589050919,-0.06211228559001789,-0.8672765337474171,1.096747023604347,1.1532017320849302,-0.018627721431762743,0.3686254955655031,0.25941545721825304,1,right
10.26,0.3686993534507743,1.164544494374364,-0.06520507956983945,-0.7799016875686873,1.1239319864645543,1.1521696364436622,-0.023950371035416584,0.3852538377583932,0.22231336217617553,1,right
10.263,0.37009679832033404,1.1675117171266784,-0.06829887490568422,-0.6924202419252607,1.1505130089202087,1.1506605398348149,-0.028979186551455927,0.4016950406795816,0.18552429093746775,1,right
10.263,0.3713099358979529,1.1704963146411118,-0.07139024231651157,-0.6048738360238729,1.1765040815423013,1.1486630578880606,-0.03371604368280714,0.4179411699839672,0.1490564843323801,1,right
10.269,0.3723355719455837,1.1734951569191086,-0.07447573903974286,-0.5173036426339696,1.201919705914,1.146166541408381,-0.03816310100086997,0.4339844402312283,0.11291807309451497,1,right
10.27,0.37317042860282884,1.1765049326344168,-0.07755191623106249,-0.4297503727211456,1.2267748681814912,1.1431610878857865,-0.0423227975982585,0.4498172148931301,0.07711707954147533,1,right
10.273,0.3738111507858386,1.1795221555096265,-0.08061532650913925,-0.3422542811965144,1.2510850115492982,1.1396375515333026,-0.04619785046719241,0.4654320064415243,0.041661418753369595,1,right
10.274000000000001,0.3742543140175948,1.182543170979043,-0.0836625316737126,-0.2548551735305291,1.274866007793126,1.1355875518460292,-0.04979125161631907,0.480821476563113,0.006558899145374035,1,right
10.277000000000001,0.37449643377296365,1.18556416307325,-0.08669011062982052,-0.16759241297982566,1.2981341278616636,1.131003480672622,-0.05310626493792201,0.4959784365464433,-0.028182777668477023,1,right
10.277999999999999,0.3745339763750897,1.1885811615009876,-0.08969466752100073,-0.08050492817582074,1.320906011637217,1.1258785077890499,-0.05614642283665416,0.510895847885975,-0.06255601782211094,1,right
10.284,0.3743633714150032,1.1915900489613274,-0.09267284001844395,0.006368779175925927,1.3431986369235214,1.1202065849629843,-0.05891552263012576,0.5255668231474145,-0.09655333705567014,1,right
10.284,0.37398102560118246,1.1945865687733488,-0.09562130765352347,0.09299062673618252,1.3650292877276156,1.1139824484956329,-0.0614176227308778,0.5399846271378429,-0.1301673635849863,1,right
10.289000000000001,0.373383337894718,1.1975663329385795,-0.09853680003272665,0.17932294436244633,1.3864155219012304,1.1072016202262829,-0.06365703861848267,0.5541426784234761,-0.1633908420810043,1,right
10.29,0.37256671574990846,1.2005248307424354,-0.10141610474669095,0.26532846757875783,1.4073751382057695,1.0998604069832487,-0.06563833860973566,0.5680345512371892,-0.19621663885680554,1,right
10.290999999999999,0.3715275922566364,1.2034574379610061,-0.10425607479436688,0.3509703319336879,1.4279261428636332,1.0919558984633342,-0.06736633942784585,0.5816539778019784,-0.2286377483124157,1,right
10.292,0.37026244397743124,1.2063594266905409,-0.10705363539600765,0.4362120684944277,1.4480867156573614,1.0834859635203216,-0.06884610153933791,0.5949948510196406,-0.26064730045464435,1,right
10.293,0.36876780929140723,1.2092259757772668,-0.10980579014369923,0.521017600723973,1.4678751756368476,1.074449244841392,-0.07008292417003814,0.6080512273361134,-0.2922385688907929,1,right
10.298,0.36704030707492713,1.2120521817887042,-0.11250962650217516,0.6053512429873508,1.4873099464936965,1.0648451519887645,-0.07108233987934766,0.6208173295179888,-0.323404978462089,1,right
10.3,0.36507665555254165,1.214833070423007,-0.11516232070620679,0.689177700931686,1.5064095216606843,1.0546738527822197,-0.07185010860273647,0.6332875491500634,-0.3541401119133381,1,right
10.3,0.36287369117289764,1.2175636082159136,-0.11776114210264717,0.7724620738754533,1.5251924291818555,1.0439362630314015,-0.07239221112829167,0.6454564488000384,-0.38443771541135413,1,right
10.302999999999999,0.36042838742148,1.2202387144045486,-0.12030345696848671,0.8551698587998858,1.5436771963410147,1.0326340347994325,-0.07271484200391462,0.6573187638718039,-0.414291702955323,1,right
10.304,0.35773787354853226,1.222853272846655,-0.12278673182134182,0.9372669545602258,1.561882313933246,1.0207695436914392,-0.07282440187738579,0.668869404183116,-0.4436961597673807,1,right
10.307,0.35479945324418105,1.2254021439485514,-0.12520853624280884,1.0187196643919334,1.5798262000064238,1.0083458758342345,-0.07272748927086754,0.6801034553026165,-0.4726453447504288,1,right
10.308,0.35161062333511717,1.2278801766075693,-0.1275665452695384,1.099494695326324,1.5975271629555767,0.9953668150375063,-0.07243089179078595,0.6910161796802591,-0.5011336920989381,1,right
10.312000000000001,0.34816909260358914,1.2302822202287977,-0.12985854146646872,1.1795591541021897,1.6150033639543349,0.9818368303115628,-0.07194157677342022,0.7016030176043146,-0.5291558121471981,1,right
10.312999999999999,0.34447280082958787,1.232603136935106,-0.13208241684395675,1.2588805396991154,1.6322727787636924,0.9677610637408065,-0.07126668136593613,0.7118595880172177,-0.5567064915381649,1,right
10.317,0.34051993813352166,1.2348378141421834,-0.1342361747662009,1.3374267327244709,1.6493531589689798,0.953145318675663,-0.07041350204202627,0.7217816892215935,-0.583780692794734,1,right
10.318,0.3363089646616665,1.236981177698997,-0.1363179319114303,1.4151659818840083,1.6662619926952844,0.9379960482041045,-0.06938948355076716,0.731365299506869,-0.6103735533739286,1,right
10.322000000000001,0.331838630622518,1.239028205782149,-0.13832592023121923,1.4920668877638639,1.6830164648509702,0.9223203438623471,-0.06820220729676961,0.740606577725924,-0.6364803842831367,1,right
10.323,0.3271079966558868,1.240973943673017,-0.14025848878222794,1.5680983841495428,1.699633416948402,0.9061259245427464,-0.06685937914918788,0.7495018638502762,-0.6620966683361634,1,right
10.328,0.3221164544925899,1.2428135194546792,-0.14211410530186216,1.6432297171051404,1.7161293065504852,0.8894211255553908,-0.06536881667666193,0.7580476795313251,-0.6872180581254844,1,right
10.328,0.3168637478255208,1.2445421605774176,-0.14389135745501555,1.7174304220336465,1.7325201663911878,0.8722148877983716,-0.06373843580479889,0.7662407286941911,-0.7118403737856867,1,right
10.331,0.31134999325688206,1.246155211192369,-0.14558895375540062,1.79067029893669,1.7488215632178155,0.8545167469902308,-0.06197623689235275,0.7740778981896987,-0.7359596006216772,1,right
10.332,0.3055757011286024,1.2476481501559176,-0.14720572423896058,1.8629193860894877,1.7650485564024676,0.8363368229166129,-0.060090290221837525,0.7815562585290472,-0.7595718866738179,1,right
10.335999999999999,0.29954179601073444,1.2490166096482147,-0.14874062102679866,1.9341479323440878,1.781215656369785,0.8176858086417151,-0.05808872089990725,0.7886730647246963,-0.7826735402907093,1,right
10.337,0.29324963662923437,1.250256394397677,-0.15019271893206979,2.0043263682712493,1.797336782887862,0.7985749596337163,-0.05597969316245809,0.7954257572599762,-0.805261027778906,1,right
10.342,0.2867010350531769,1.2513635015313924,-0.15156121620777255,2.0734252763484404,1.813425223268962,0.7790160827519784,-0.053771394079052154,0.8018119632088974,-0.8273309711973851,1,right
10.343,0.2798982750170661,1.2523341410605136,-0.15284543541657541,2.141415360398514,1.8294935905265148,0.7590215250424683,-0.05147201665093054,0.807829497526603,-0.848880146363127,1,right
10.345999999999998,0.27284412931116275,1.2531647569500648,-0.1540448242945302,2.2082674144805994,1.8455537815347314,0.7386041622865236,-0.04908974229657471,0.8134763645298537,-0.8699054811326866,1,right
10.347999999999999,0.26554187621625824,1.2538520486182874,-0.15515895643550348,2.2739522914316543,1.861616935237087,0.7177773872468021,-0.046632722718489804,0.8187507595858885,-0.8904040540231513,1,right
10.350999999999999,0.25799531497408235,1.2543929925856023,-0.15618753165749938,2.338440871253928,1.877693390949854,0.6965550975530043,-0.044109061144622236,0.8236510710269429,-0.9103730932343832,1,right
10.352,0.25020878025743065,1.2547848638823533,-0.15713037600356947,2.40170402954032,1.893792646806848,0.6749516831687419,-0.04152679293758526,0.828175882306643,-0.9298099761329403,1,right
10.356,0.24218715553525713,1.2550252567607638,-0.15798744143086807,2.4637126061262706,1.9099233183915478,0.6529820133797544,-0.038893865594833404,0.8323239744053431,-0.9487122292429637,1,right
10.357000000000001,0.23393588514879315,1.2551121042644078,-0.15875880530177147,2.5244373741533765,1.926093097602805,0.6306614232425384,-0.03621811831364316,0.8360943284500072,-0.9670775287198448,1,right
10.357000000000001,0.22546098485436214,1.2550436962687082,-0.15944466981110664,2.583849009726404,1.9423087118004,0.6080056994313601,-0.033507261566223745,0.8394861284404308,-0.9849037011586258,1,right
10.360999999999999,0.21676905051663262,1.254818695636043,-0.16004536152560914,2.6419180623417766,1.9585758832768052,0.5850310654205724,-0.030768857281044195,0.8424987639321331,-1.002188724519601,1,right
10.360999999999999,0.2078672645173325,1.2544361520805674,-0.1605613313002145,2.698614926261919,1.9748992891016195,0.5617541659381479,-0.028010300075431642,0.845131832565549,-1.0189307290199956,1,right
10.367,0.19876339932773154,1.253895513279268,-0.16099315487347138,2.7539098130060613,1.9912825213852712,0.5381920506253799,-0.025238799712759344,0.8473851424027917,-1.0351279979613794,1,right
10.368,0.18946581765814716,1.2531966327865094,-0.16134153432135204,2.8077727251242663,2.0077280480087287,0.5143621568367878,-0.022461364806555414,0.8492587140725555,-1.0507789685288749,1,right
10.369000000000002,0.17998346866460174,1.2523397744132092,-0.16160730031087592,2.860173431484976,2.0242371739382716,0.4902822915384038,-0.019684787763623136,0.8507527827307259,-1.0658822326102497,1,right
10.372,0.17032587983098627,1.251325612866692,-0.16179141490381496,2.911081444639804,2.040810003605293,0.4659706123868577,-0.016915630958226173,0.8518677998431665,-1.0804365376814227,1,right
10.373,0.16050314431191653,1.25015523057036,-0.16189497459441873,2.960466001432623,2.05744540548064,0.4414456082960006,-0.014160214129374495,0.8526044347960692,-1.0944407878033413,1,right
10.376,0.15052590368271873,1.248830110686828,-0.1619192132532258,3.008296048353233,2.0741409803339277,0.41672607992214705,-0.011424602993248744,0.8529635763381578,-1.1078940447736134,1,right
10.377,0.14040532618707538,1.2473521264722771,-0.1618655046268892,3.0545402327941558,2.0908930343076864,0.3918311203732959,-0.008714599062821649,0.8529463338579524,-1.120795529474704,1,right
10.380999999999998,0.13015308069982262,1.2457235272015919,-0.1617353640527701,3.099166900757313,2.107696557287039,0.36678009622197993,-0.006035730666773929,0.8525540384982102,-1.1331446234589242,1,right
10.380999999999998,0.11978130672252425,1.2439469210094505,-0.1615304491278382,3.1421441012154117,2.124545206685005,0.34159262877578384,-0.0033932451598585396,0.8517882441085776,-1.144940870808858,1,right
10.386,0.10930258078906796,1.2420252550741342,-0.16125255918770506,3.183439597260809,2.1414312966915436,0.3162885755340567,-0.0007921023169400175,0.8506507280364075,-1.1561839803102893,1,right
10.388,0.09872987967756124,1.2399617936187903,-0.160903633555915,3.2230208841699985,2.158345793034601,0.290888011758895,0.0017630310969754342,0.8491434917546179,-1.1668738279731041,1,right
10.390999999999998,0.08807654081691667,1.2377600942175584,-0.16048574860414674,3.260855214507102,2.1752783133015425,0.26541121208808266,0.004267785588299594,0.8472687613243953,-1.1770104599340523,1,right
10.392000000000001,0.07735622025834019,1.2354239828757874,-0.16000111372479162,3.2969096303849414,2.1922171328694615,0.2398786321173393,0.006718092035473946,0.8450289876894796,-1.1865940957736694,1,right
10.395999999999999,0.06658284856505911,1.2329575283132481,-0.15945206636186396,3.3311510029973066,2.2091491964929273,0.2143108898789518,0.009110183635964284,0.8424268467977063,-1.1956251322780662,1,right
10.397,0.05577058496161738,1.2303650158278416,-0.1588410662748914,3.363546079531052,2.226060135597801,0.18872874714364457,0.011440596706824924,0.8394652395444241,-1.2041041476747074,1,right
10.4,0.04493377007472582,1.227650921064934,-0.1581706892211248,3.3940615375615177,2.2429342913297394,0.16315309047238513,0.013706170345863473,0.836147291531361,-1.212031906369713,1,right
10.401,0.03408687758785276,1.2248198839696303,-0.15744362023078337,3.4226640470295764,2.2597547434060066,0.1376049119447201,0.01590404496027056,0.8324763526334679,-1.2194093642126225,1,right
10.405,0.02324446512077983,1.2218766831568038,-0.15666264661678211,3.4493203398932875,2.2765033448191367,0.11210528949019609,0.01803165966940235,0.82845599636524,-1.2262376743129875,1,right
10.405,0.012421124634926891,1.2188262108954802,-0.15583065080929412,3.4739972875417586,2.2931607624408845,0.08667536674943853,0.020086748588218083,0.8240900190369935,-1.232518193431564,1,right
10.41,0.0016314326569799047,1.2156734488696181,-0.15495060304964392,3.496661986053303,2.309706523574748,0.06133633239154091,0.022067335997680987,0.8193824386905538,-1.2382524889673046,1,right
10.411,-0.009110099392453087,1.212423444846338,-0.1540255539343947,3.5172818493744016,2.326119068505135,0.03610939881455608,0.023971730408229825,0.814337493802821,-1.243442346559765,1,right
10.415999999999999,-0.019789074482152995,1.2090812903556003,-0.15305862677894974,3.5358247104902905,2.342375809090983,0.011015780156082096,0.025798517522220496,0.8089596417446745,-1.2480897783249758,1,right
10.417,-0.030391258584988954,1.2056520994634845,-0.15205300976663585,3.5522589306522097,2.3584531934513144,-0.013923330458804051,0.027546552101023736,0.8032535569817028,-1.2521970317412505,1,right
10.42,-0.04090262834520556,1.2021409887062136,-0.15101194785351166,3.566553516720481,2.37432677678983,-0.03868678450468946,0.02921494874224668,0.7972241290022768,-1.2557665991998488,1,right
10.42,-0.05130941751953842,1.1985530582450863,-0.14993873440518066,3.578678246676616,2.3899712984051917,-0.06325350255008666,0.030803071572323693,0.7908764599575269,-1.2588012282338463,1,right
10.424000000000001,-0.06159816190982967,1.1948933743042747,-0.1488367025512057,3.5886038033516003,2.4053607649331243,-0.08760249973041118,0.03231052285949624,0.784215861996841,-1.2613039324370192,1,right
10.425999999999998,-0.07175574250410141,1.1911669529611506,-0.1477092162570042,3.596301916411347,2.4204685398658876,-0.11171291227076868,0.03373713057447926,0.7772478542882825,-1.2632780030545612,1,right
10.425999999999998,-0.08176942656417412,1.1873787453627556,-0.14655966112769028,3.6017455126340963,2.4352674393940017,-0.1355640251290802,0.03508293503841194,0.7699781597459373,-1.2647270210837154,1,right
10.429,-0.09162690644134738,1.1835336244364538,-0.14539143496879073,3.604908874508209,2.449729834614379,-0.15913530082944863,0.036348175000014096,0.7624127015456609,-1.2656548694649221,1,right
10.43,-0.10131633592494399,1.1796363731578523,-0.1442079381395239,3.6057678071724073,2.463827760148205,-0.18240640955498466,0.0375332735961679,0.75455759954334,-1.2660657448003552,1,right
10.435,-0.11082636390717998,1.1756916744427215,-0.1430125637480929,3.6042998134199746,2.4775330290168314,-0.2053572605288505,0.03863882453738274,0.7464191666753888,-1.2659641681774179,1,right
10.436,-0.12014616512925956,1.171704102728767,-0.14180868774542388,3.600484275011474,2.4908173526520074,-0.22796803451289782,0.03966557865681518,0.7380039053599944,-1.2653549949292342,1,right
10.437000000000001,-0.12926546779876397,1.1676781172955597,-0.14059965896817966,3.594302635887238,2.5036524631680166,-0.2502192168949756,0.04061443084875592,0.7293185038832676,-1.264243423304885,1,right
10.44,-0.1381745779012541,1.1636180573457902,-0.139388789175642,3.5857385813938008,2.516010234051165,-0.2720916306364864,0.04148640739976124,0.7203698327469312,-1.2626350020491048,1,right
10.44,-0.14686440003382473,1.159528138848455,-0.1381793431290881,3.5747782091021083,2.527862796391858,-0.2935664685493696,0.04228265371538052,0.7111649409533877,-1.2605356368897058,1,right
10.444,-0.15532645459558417,1.155412453119374,-0.13697452877168986,3.561410189435228,2.5391826495309076,-0.31462532472809973,0.04300442244520776,0.7017110522032276,-1.2579515959295424,1,right
10.445,-0.16355289121270075,1.1512749670784161,-0.135777487575182,3.5456259157868586,2.5499427659613296,-0.33525022515977726,0.04365306200876453,0.6920155609794904,-1.2548895139384133,1,right
10.449000000000002,-0.171536498338961,1.1471195250757262,-0.13459128512689264,3.5274196440991346,2.56011669051961,-0.35542365757396305,0.04423000552450453,0.6820860284922454,-1.251356395538879,1,right
10.45,-0.17927070903074385,1.14294985212443,-0.13341890203531287,3.506788621861293,2.5696786338989117,-0.3751286005927152,0.044736760144016036,0.6719301784563549,-1.247359617278588,1,right
10.457,-0.1867496029412234,1.1387695583189887,-0.13226322522843942,3.483733206483852,2.578603560515068,-0.39434855224003984,0.045174896793288684,0.6615558926745796,-1.2429069285803327,1,right
10.458,-0.19396790461628052,1.134582144163503,-0.1311270397040841,3.458256972995994,2.586867270754538,-0.4130675578686722,0.04554604032270525,0.65097120639752,-1.2380064515596967,1,right
10.458,-0.2009209782079037,1.1303910064919498,-0.13001302076908688,3.430366811006882,2.5944464776317417,-0.43127023756075944,0.04585186006721756,0.6401843034312353,-1.2326666796988315,1,right
10.459000000000001,-0.20760481875210013,1.1261994446402237,-0.12892372678245517,3.4000730108646926,2.6013188778813507,-0.44894181305762476,0.046094060817968754,0.6292035109627546,-1.2268964753635874,1,right
10.464,-0.2140160401889124,1.1220106665330765,-0.12786159240035563,3.367389338940184,2.6074632175092365,-0.46606813427235433,0.04627437420643156,0.6180372940730903,-1.2207050661499388,1,right
10.465,-0.22015186033326753,1.1178277943805384,-0.12682892230762685,3.3323331019547124,2.6128593518237944,-0.4826357054374668,0.04639455050194491,0.6066942499067849,-1.2141020400443856,1,right
10.468,-0.22601008303920708,1.1136538697365332,-0.12582788540911435,3.2949252002656872,2.6174882999673432,-0.4986317109384007,0.0464563508233483,0.595183101466464,-1.2070973393817714,1,right
10.469000000000001,-0.23158907783997718,1.1094918577493431,-0.12486050944619503,3.2551901700156227,2.621332293965204,-0.5140440408819894,0.046461539765235725,0.5835126910003358,-1.1997012535827545,1,right
10.474,-0.236887757394728,1.105344650517486,-0.12392867600656837,3.2131562140441194,2.624374822307923,-0.5288613164474913,0.046411878439178184,0.5716919729500713,-1.1919244106519846,1,right
10.474,-0.2419055531265603,1.1012150695442118,-0.12303411591734205,3.1688552214553596,2.6266006680798957,-0.5430729150661,0.046309117930096164,0.5597300064260168,-1.1837777674168846,1,right
10.478,-0.24664238948791506,1.0971058673513403,-0.12217840505046619,3.122322775727037,2.6279959416454006,-0.5566689954731872,0.0461549931678006,0.5476359471762281,-1.1752725984858103,1,right
10.48,-0.2510986573261077,1.0930197283641532,-0.12136296060866453,3.0735981512400374,2.6285481079007535,-0.5696405226758203,0.045951217213563635,0.5354190390153931,-1.166420483903278,1,right
10.482999999999999,-0.255275186833949,1.08895926921121,-0.12058903797953156,3.022724298101677,2.6282460080989356,-0.5819792928763601,0.045699475961427656,0.5230886046792951,-1.1572332954788715,1,right
10.484000000000002,-0.25917322055345554,1.0849270385951355,-0.11985772823685875,2.969747815128905,2.627079876250689,-0.5936779583911762,0.04540142325381342,0.5106540360700957,-1.1477231817654294,1,right
10.489,-0.26279438685670703,1.0809255168827712,-0.11916995633668297,2.9147189108516045,2.6250413501036367,-0.6047300526017284,0.04505867641084564,0.4981247838573615,-1.1379025516611034,1,right
10.49,-0.2661406742644627,1.0769571155384057,-0.11852648001430631,2.857691352389926,2.6221234766985355,-0.6151300149734417,0.04467281217267637,0.48551034639943097,-1.1277840566089212,1,right
10.493,-0.2692144068920514,1.0730241764879558,-0.11792788935276702,2.7987224020535937,2.6183207124993007,-0.6248732161759699,0.04424536305395338,0.47282025794942345,-1.1173805713665659,1,right
10.494000000000002,-0.27201822124465447,1.0691289714622687,-0.11737460697517413,2.7378727415051998,2.613628918090923,-0.6339559833365842,0.04377781410945235,0.4600640761099149,-1.106705173318179,1,right
10.494000000000002,-0.2745550445251065,1.065273701331418,-0.11686688881709835,2.675206383323794,2.6080453474368928,-0.6423756254565549,0.04327160010744711,0.4472513685290295,-1.0957711203404763,1,right
10.499,-0.27682807456594266,1.0614604954157907,-0.11640482545363222,2.6107905697994966,2.601568631685189,-0.6501304590185055,0.042728103095669344,0.4343916989753043,-1.0845918274412507,1,right
10.5,-0.278840761453906,1.0576914107467927,-0.11598834397633892,2.5446956587844674,2.5941987575093557,-0.6572198338108288,0.042148650323708264,0.42149461318917925,-1.0731808427594591,1,right
10.504000000000001,-0.28059679088268513,1.0539684312460151,-0.1156172104315724,2.4769949966544207,2.5859370400664834,-0.6636441589184306,0.04153451247398635,0.40856962505363276,-1.0615518237219632,1,right
10.505,-0.2821000692487458,1.0502934667917345,-0.11529103284250528,2.407764779600242,2.5767860911406513,-0.6694049284525851,0.04088690216494333,0.39562620348151717,-1.0497185139446736,1,right
10.505,-0.2833547104885017,1.0466683521458833,-0.11500926484096298,2.33708390657109,2.5667497839185938,-0.6745047459165368,0.04020697271084276,0.3826737601563577,-1.0376947210932819,1,right
10.508,-0.284365024631223,1.0430948457243234,-0.11477120993275226,2.265033828356149,2.5558332163310853,-0.6789473457269968,0.039495817134118795,0.36972163811846936,-1.025494295711526,1,right
10.51,-0.2851355080046501,1.0395746282080518,-0.11457602641465377,2.191698396117423,2.544042674401689,-0.6827376107843559,0.038754467428405374,0.3567791011592302,-1.0131311109830237,1,right
10.512,-0.28567083498291856,1.0361093010124849,-0.11442273295174779,2.117163710575148,2.531385596161213,-0.6858815856567797,0.037983894070296856,0.343855323986321,-1.0006190433921625,1,right
10.513,-0.2859758511182329,1.0327003846533311,-0.11431021481039287,2.041517971873094,2.517870536194398,-0.6883864853160429,0.0371850057777993,0.330959383122744,-0.9879719542490295,1,right
10.517999999999999,-0.2860555674566758,1.0293493170650996,-0.11423723073098331,1.964851329913269,2.5035071307849672,-0.6902606994360047,0.03635864951334491,0.3181002485024602,-0.9752036720428924,1,right
10.517999999999999,-0.2859151558089133,1.0260574519383445,-0.11420242041986227,1.8872557349461028,2.4883060636227117,-0.6915137922627732,0.03550561072915791,0.30528677572553786,-0.9623279755883185,1,right
10.522,-0.2855599447293495,1.02282605714394,-0.11420431263842436,1.80882478819898,2.472279032033796,-0.6921564980637714,0.03462661385267854,0.29252769893578434,-0.9493585779276315,1,right
10.524000000000001,-0.28499541595149314,1.0196563133075667,-0.11424133386328686,1.729653592323096,2.455438713693049,-0.6922007121611105,0.03372232300967322,0.27983162428394065,-0.9363091109530527,1,right
10.527999999999999,-0.28422720103117866,1.0165493125856877,-0.11431181748070939,1.64983860143591,2.437798733774596,-0.6916594775528933,0.032793342982581665,0.26720702393964724,-0.9231931107115706,1,right
10.529000000000002,-0.28326107796138655,1.0135060576777075,-0.11441401346177281,1.5694774705341006,2.4193736324948163,-0.6905469671243194,0.0318402204015774,0.25466223061554566,-0.9100240033553088,1,right
10.534,-0.28210296754224595,1.0105274610918182,-0.11454609844560064,1.4886689040497847,2.4001788329992833,-0.6888784614487483,0.030863445165745077,0.24220543256706284,-0.8968150916999348,1,right
10.535,-0.2807589293168743,1.00761434466763,-0.11470618614001657,1.4075125033209297,2.3802306095430357,-0.6866703221771931,0.029863452091707182,0.2298446690316282,-0.8835795423534596,1,right
10.537,-0.27923515691637696,1.0047674393487542,-0.11489233793565214,1.3261086127453126,2.359546055911289,-0.6839399610130861,0.028840622786963026,0.21758782607130378,-0.8703303733776239,1,right
10.537,-0.2775379726925594,1.0019873851951904,-0.11510257362262385,1.2445581643860975,2.3381430540254757,-0.6807058042675548,0.027795287745134997,0.20544263278305902,-0.8570804424439563,1,right
10.542,-0.27567382155067116,0.9992747316299185,-0.11533488209837901,1.1629625207961096,2.31604024267735,-0.6769872529889049,0.02672772866025017,0.1934166578411989,-0.843842435446508,1,right
10.542,-0.2736492639238804,0.9966299379240395,-0.11558723195872275,1.0814233158271704,2.293256986331772,-0.6728046386585038,0.025638180957119634,0.18151730633675062,-0.8306288555332292,1,right
10.546,-0.2714709678563815,0.994053373935376,-0.11585758186799154,1.0000422931904391,2.269813343936726,-0.6681791744438181,0.024526836534813204,0.1697518168789356,-0.8174520125179527,1,right
10.547,-0.2691457001851201,0.9915453211230335,-0.11614389060617383,0.9189211425335778,2.245730037677116,-0.6631329019979645,0.023393846720163265,0.15812725892419546,-0.8043240126349823,1,right
10.550999999999998,-0.26668031683276544,0.9891059738623442,-0.11644412669016821,0.8381613328007184,2.2210284216069436,-0.6576886337938054,0.0222393254281681,0.14665053029860353,-0.7912567485983518,1,right
10.552,-0.26408175224748476,0.9867354410790986,-0.11675627746664925,0.7578639426416629,2.195730450092545,-0.6518698909793493,0.021063352526102454,0.13532835487987838,-0.7782618899279293,1,right
10.557,-0.26135700804845596,0.9844337482099035,-0.1170783575803373,0.6781294876374998,2.1698586459977722,-0.645700836740007,0.019865977398080863,0.12416728040561963,-0.7653508735046776,1,right
10.558,-0.25851314095857225,0.9822008394803312,-0.11740841673573724,0.599057744110849,2.1434360685401823,-0.639206205152115,0.018647222706757192,0.11317367637481118,-0.7525348943175569,1,right
10.561,-0.2555572501236552,0.9800365804778952,-0.1177445466896883,0.5207475692902808,2.1164862807456264,-0.6324112255110634,0.01740708834878232,0.1023537320100804,-0.7398248963647661,1,right
10.562000000000001,-0.2524964639257902,0.9779407609857558,-0.11808488743232193,0.44329671760006756,2.0890333164269537,-0.6253415421163575,0.01614555559516692,0.09171345425422546,-0.7272315636860645,1,right
10.562000000000001,-0.24933792639278948,0.9759130980382885,-0.11842763253299345,0.36680165284832905,2.06110164661098,-0.6180231294950119,0.014862591380568394,0.08125866580281116,-0.7147653115722533,1,right
10.567,-0.24608878328963166,0.9739532391620073,-0.11877103364543432,0.2913573560888169,2.0327161453363574,-0.6104822030438115,0.013558152656739644,0.07099500322518476,-0.7024362781225004,1,right
10.568,-0.24275616796818666,0.9720607657702505,-0.119113404184774,0.21705712893405157,2.003902054743525,-0.602745125070186,0.01223219069824952,0.06092791525458649,-0.6902543163895833,1,right
10.571,-0.23934718705910116,0.9702351966830147,-0.11945312220783147,0.14399239238463857,1.9746849494123202,-0.5948383063726305,0.01088465527558955,0.051062661300754444,-0.6782289872844345,1,right
10.572000000000001,-0.23586890609800468,0.9684759917464331,-0.11978863254036905,0.07225248266447727,1.9450907000803261,-0.5867881043104736,0.009515498659439754,0.041404310188919366,-0.6663695532874618,1,right
10.573,-0.23232833517262533,0.9667825555315855,-0.12011844819632639,0.0019244481142184325,1.9151454371956496,-0.5786207197693373,0.008124679446870956,0.0319577391018422,-0.6546849729454807,1,right
10.575999999999999,-0.22873241467409558,0.9651542410957316,-0.1204411511319178,-0.06690714737925811,1.884875514935474,-0.5703620962376499,0.0067121662056124015,0.02272763269656489,-0.6431838961197309,1,right
10.575999999999999,-0.22508800125132095,0.9635903537870955,-0.120755392380144,-0.13416041035764242,1.8543074761418437,-0.5620378233996578,0.005277940932451366,0.013718482368139261,-0.6318746599509308,1,right
10.581,-0.2214018540886997,0.9620901550674501,-0.12105989161523831,-0.1997562916658798,1.823468018303277,-0.5536730461929358,0.003822002321769247,0.004934585633206443,-0.6207652855078193,1,right
10.582,-0.21768062163550994,0.9606528663165792,-0.12135343619686684,-0.26361874813992714,1.7923839605310687,-0.5452923794686252,0.0023443688401563077,-0.0036199543930790696,-0.6098634750861637,1,right
10.585999999999999,-0.21393082890915813,0.9592776725709817,-0.12163487974380514,-0.32567489230061086,1.7610822114425253,-0.5369198282305427,0.0008450816029849385,-0.011941229452652352,-0.5991766101257636,1,right
10.587,-0.21015886548216206,0.9579637261383207,-0.12190314029043153,-0.38585513024186185,1.7295897378625986,-0.5285787134291821,-0.000675792951241051,-0.02002552655789294,-0.5887117497135523,1,right
10.591,-0.20637097424968193,0.9567101500225271,-0.12215719808551759,-0.4440932878966306,1.6979335342546786,-0.5202916032865841,-0.002218160593005866,-0.02786932838729814,-0.5784756296414933,1,right
10.592,-0.20257324106454525,0.9555160410952361,-0.12239609309790102,-0.5003267258586038,1.6661405927906814,-0.5120802501280749,-0.003781897044676794,-0.03546931368737165,-0.5684746619885879,1,right
10.595999999999998,-0.19877158532162537,0.954380472957161,-0.12261892229502039,-0.5544964429324605,1.6342378739700205,-0.5039655326969583,-0.00536684593854377,-0.04282235770394382,-0.5587149351969444,1,right
10.595999999999998,-0.19497175157013166,0.9533024984449626,-0.12282483675708175,-0.6065471685798366,1.6022522776965846,-0.49596740392840194,-0.006972816994433981,-0.04992553266544966,-0.5492022146125177,1,right
10.6,-0.1911793022267986,0.9522811517528776,-0.12301303868353704,-0.6564274444224143,1.5702106147224402,-0.4881048441589738,-0.00859958442139337,-0.05677610833999056,-0.5399419434618018,1,right
10.600999999999999,-0.18739961145471182,0.9513154501532602,-0.12318277834266465,-0.7040896949576321,1.5381395783666707,-0.4803958197485609,-0.01024688554798777,-0.06337155268729669,-0.5309392442364508,1,right
10.606,-0.18363786026371678,0.9504043953151021,-0.1233333510101634,-0.7494902876364321,1.506065716417531,-0.472857247091733,-0.011914419685836699,-0.06970953262598982,-0.5221989204585136,1,right
10.607000000000001,-0.17989903287934522,0.9495469742318223,-0.12346409393730197,-0.7925895824462375,1.4740154031259174,-0.4655049619960051,-0.013601847231052516,-0.07578791493582093,-0.5137254587996891,1,right
10.610999999999999,-0.1761879144148375,0.9487421597769268,-0.12357438338216882,-0.8333519711359826,1.4420148111980848,-0.4583536944048881,-0.015308789008316575,-0.08160476731382464,-0.5055230315287517,1,right
10.612,-0.17250908986074964,0.9479889109090444,-0.12366363172943291,-0.8717459062135382,1.410089883695527,-0.45141704844410524,-0.01703482586238198,-0.08715835960259297,-0.49759549926204605,1,right
10.615,-0.16886694437710553,0.9472861725496432,-0.12373128471770714,-0.9077439198392651,1.3782663057500038,-0.44470748776988467,-0.018779498501849685,-0.09244716520812607,-0.48994641399272054,1,right
10.616,-0.1652656648384638,0.9466328751614744,-0.12377681879294634,-0.9413226327327304,1.346569476001842,-0.43823632619881503,-0.020542307600120643,-0.09746986272396628,-0.48257902237514255,1,right
10.620999999999999,-0.1617092425518115,0.9460279340658988,-0.1237997386117049,-0.9724627532028209,1.3150244776698525,-0.4320137235993625,-0.022322714158481406,-0.10222533777756637,-0.4754962692417306,1,right
10.622,-0.1582014770473851,0.9454702485520732,-0.12379957472521674,-1.0011490664046145,1.2836560491615017,-0.4260486870257995,-0.024120140136334116,-0.10671268511408244,-0.46870080133023617,1,right
10.625,-0.15474598083239888,0.9449587008469951,-0.12377588147879261,-1.0273704139194346,1.2524885541323305,-0.42034907707597674,-0.02593396935363379,-0.11093121093201772,-0.4621949712003167,1,right
10.626,-0.15134618499271035,0.9444921550274811,-0.12372823515843734,-1.0511196637475093,1.221545950904054,-0.4149216194550829,-0.027763548670646336,-0.11488043548437696,-0.4559808413190587,1,right
10.63,-0.14800534552389574,0.9440694559588613,-0.12365623240793268,-1.07239367079562,1.1908517611512837,-0.4097719217282713,-0.0296081894501894,-0.11856009595822041,-0.45006018829593475,1,right
10.632,-0.14472655026850414,0.9436894283392875,-0.12355948892563019,-1.0911932279350511,1.1604290377673865,-0.40490449524579647,-0.031467169307565386,-0.12197014964473527,-0.44443450724851014,1,right
10.633,-0.1415127263323393,0.9433508759150012,-0.12343763843354066,-1.10752300769806,1.130300331820642,-0.40032278222507944,-0.03333973414647912,-0.12511077739724547,-0.43910501628299725,1,right
10.635,-0.13836664785781402,0.9430525809138169,-0.12329033189817436,-1.1213914946739814,1.100487658512569,-0.3960291879749192,-0.03522510044446644,-0.1279823873041874,-0.434072661084343,1,right
10.636,-0.13529094404833292,0.9427933037252612,-0.12311723697742508,-1.1328109086589848,1.0710124620510768,-0.3920251182478743,-0.03712245768874405,-0.13058561837799182,-0.42933811962891066,1,right
10.639000000000001,-0.13228810734952462,0.9425717828405412,-0.122918037667508,-1.1417971187280778,1.0418955794243603,-0.38831102160597114,-0.03903097082862063,-0.13292134399041894,-0.4249018070434103,1,right
10.64,-0.12936050169342486,0.9423867350556793,-0.1226924341242298,-1.1483695489992098,1.0131572034244845,-0.38488643617729457,-0.04094978264545505,-0.1349906748537411,-0.42076388062484305,1,right
10.640999999999998,-0.12651037071241122,0.9422368559342036,-0.12244014263474247,-1.152551077947288,0.984816845922397,-0.38175003926667106,-0.04287801600383943,-0.13679496147171052,-0.4169242450195483,1,right
10.645,-0.12373984583233258,0.9421208205178969,-0.12216089571965617,-1.1543679337272585,0.9568933027592516,-0.3788996977760584,-0.044814775982525715,-0.13833579605310045,-0.4133825575505568,1,right
10.645999999999999,-0.12105095414707244,0.9420372842651159,-0.12185444234823142,-1.1538495873501493,0.9294046212578909,-0.37633251789951444,-0.04675915189060624,-0.13961501389376751,-0.41013823368136326,1,right
10.65,-0.11844562596439466,0.9419848841893721,-0.12152054825111318,-1.1510286444541387,0.9023680707076627,-0.3740448934736148,-0.04871021917448558,-0.14063469423242198,-0.40719045260508635,1,right
10.651,-0.1159257019101182,0.9419622401677252,-0.12115899631630181,-1.1459407357975915,0.875800115814813,-0.3720325528734408,-0.05066704122120567,-0.14139716058453614,-0.40453816294884204,1,right
10.654000000000002,-0.1134929394870727,0.9419679563874681,-0.12076958705398741,-1.1386244064726487,0.8497163930395285,-0.3702906044467532,-0.05262867106370768,-0.14190498055806988,-0.40218008858400695,1,right
10.655,-0.11114901900048266,0.9420006228997998,-0.12035213911522952,-1.1291210038313397,0.8241316897419922,-0.36881358047977253,-0.05459415299363368,-0.14216096515394847,-0.40011473453390234,1,right
10.66,-0.10889554877739614,0.9420588172514202,-0.119906489850125,-1.1174745641096853,0.799059926061165,-0.3675954796887731,-0.05656252408728734,-0.14216816755348768,-0.3983403929712765,1,right
10.66,-0.10673406962382564,0.9421411061681214,-0.11943249589364006,-1.1037316977288618,0.7745141394513931,-0.366629808232476,-0.05853281565038704,-0.14192988139423166,-0.3968551492988071,1,right
10.665,-0.10466605848052515,0.9422460472666319,-0.11893003377115538,-1.0879414732462236,0.7505064718033733,-0.36590961924098375,-0.06050405458725544,-0.141449638534945,-0.3956568883066881,1,right
10.665,-0.10269293125656527,0.942372190772648,-0.1183990005201776,-1.0701552999228232,0.7270481590774802,-0.36542755085774514,-0.06247526470009807,-0.14073120630978733,-0.3947433004021991,1,right
10.668,-0.10081604483865689,0.9425180812255743,-0.11783931432815195,-1.0504268088680566,0.7041495233789666,-0.36517586279175945,-0.06444546792402911,-0.1397785842709933,-0.39411188790698637,1,right
10.669,-0.09903669829376095,0.9426822591539078,-0.11725091518733864,-1.028811732716184,0.6818199674060942,-0.3651464713779364,-0.06641368550350488,-0.13859600041868617,-0.3937599714186073,1,right
10.674000000000001,-0.09735613330177269,0.9428632627095612,-0.11663376556666356,-1.005367783783747,0.6600679712038289,-0.36533098314420975,-0.06837893911582586,-0.13718790691577026,-0.39368469623370955,1,right
10.674000000000001,-0.09577553387169709,0.943059629255262,-0.11598785109926299,-0.9801545306513244,0.6389010911573364,-0.3657207268846647,-0.07034025194736493,-0.13555897528517447,-0.39388303883102455,1,right
10.677999999999999,-0.0942960254079757,0.9432698969058616,-0.11531318128408567,-0.9532332731076615,0.6183259611611522,-0.3663067842385757,-0.07229664972817389,-0.133714091086059,-0.39435181341315867,1,right
10.679,-0.09291867320435344,0.9434926060303188,-0.11460979019982004,-0.9246669153889473,0.5983482959015536,-0.3670800187758667,-0.07424716173061185,-0.1316583480649507,-0.3950876785069589,1,right
10.684000000000001,-0.09164448045082542,0.9437263007249633,-0.11387773722867585,-0.8945198376409453,0.5789728961913401,-0.36803110359009433,-0.0761908217376277,-0.12939704177713782,-0.39608714362301595,1,right
10.685,-0.09047438584371777,0.9439695302695904,-0.11311710778650665,-0.8628577655267734,0.5602036562979297,-0.3691505474006178,-0.07812666898631468,-0.12693566267303527,-0.3973465759756445,1,right
10.69,-0.0894092608902419,0.9442208505758803,-0.1123280140559241,-0.8297476378984081,0.5420435732073889,-0.3704287191661566,-0.08005374909233842,-0.1242798886436264,-0.3988622072654477,1,right
10.690999999999999,-0.08844990699844393,0.9444788256331687,-0.11151059572026067,-0.7952574724454511,0.5244947577687461,-0.3718558712124477,-0.08197111496081998,-0.12143557701849655,-0.4006301405273275,1,right
10.693,-0.08759705244127002,0.9447420289508823,-0.11066502069621866,-0.7594562292303456,0.5075584476646747,-0.37342216087719765,-0.0838778276892329,-0.1184087560094003,-0.4026463570475523,1,right
10.694,-0.0868513492777682,0.9450090449915567,-0.10979148586120135,-0.7224136720150709,0.49123502215638265,-0.3751176706759805,-0.08577295746784826,-0.11520561559174523,-0.4049067233542271,1,right
10.699000000000002,-0.08621337030532954,0.9452784705841515,-0.10889021776951402,-0.6842002272803843,0.4755240185522957,-0.3769324269931595,-0.0876555844832339,-0.11183249781583456,-0.40740699828623583,1,right
10.7,-0.08568360610668226,0.9455489163048592,-0.1079614733506556,-0.6448868408349122,0.4604241503518846,-0.3788564173023117,-0.08952479982851008,-0.10829588655429064,-0.4101428401402005,1,right
10.700999999999999,-0.08526246224416119,0.9458190078126588,-0.10700554058201754,-0.6045448319078283,0.44593332701774,-0.3808796059210038,-0.09137970641516587,-0.10460239676709737,-0.41310981386450574,1,right
10.703,-0.08495025664071133,0.9460873871293611,-0.10602273912764637,-0.5632457446154953,0.4320486753307607,-0.38299194830511196,-0.0932194198652473,-0.1007587635011497,-0.41630339821397355,1,right
10.704,-0.08474721717656492,0.9463527138561543,-0.10501342093591413,-0.5210611966892877,0.4187665622850709,-0.3851834038881904,-0.09504306935382484,-0.09677183091625052,-0.41971899274825425,1,right
10.71,-0.08465347952730992,0.9466136663186415,-0.10397797079393004,-0.4780627253488555,0.4060826194810343,-0.3874439474716795,-0.0968497983804716,-0.09264854155352344,-0.42335192458885823,1,right
10.710999999999999,-0.08466908526990641,0.9468689426316652,-0.10291680684552153,-0.43432163040253763,0.393991768950833,-0.3897635791926028,-0.09863876546439747,-0.08839592592584058,-0.4271974549065583,1,right
10.710999999999999,-0.08479398028193114,0.9471172616764879,-0.10183038108815494,-0.38990881565505475,0.3824882502246397,-0.39213233319864327,-0.10040914476670293,-0.08402109243393083,-0.43125078514272536,1,right
10.712,-0.08502801345529538,0.9473573639865666,-0.10071917986633942,-0.3448946315020168,0.371565648216415,-0.39454028534611657,-0.10216012664494142,-0.07953121759633851,-0.4355070629750229,1,right
10.713,-0.0853709357426148,0.9475880125430198,-0.09958372437467997,-0.29934872258961304,0.3612169213818893,-0.39697756033953907,-0.10389091814512719,-0.0749335365810317,-0.43996138803849805,1,right
10.717,-0.08582239955406411,0.9478079934859144,-0.098424571176495,-0.2533398834149548,0.3514344297311495,-0.39943433862861866,-0.10560074343627308,-0.07023533402610745,-0.44460881741370273,1,right
10.717,-0.08638195852271909,0.9480161167520109,-0.09724231273467744,-0.20693592293906954,0.34220996251062974,-0.40190086319318125,-0.10728884419248659,-0.0654439351367113,-0.4494443708940607,1,right
10.722000000000001,-0.08704906765512083,0.9482112166535218,-0.09603757794073413,-0.1602035382820452,0.33353476549912603,-0.40436744624361654,-0.10895447992759436,-0.060566697044979224,-0.4544630360452669,1,right
10.722999999999999,-0.0878230838819768,0.9483921524164665,-0.0948110326193562,-0.1132081973683009,0.32539956788971436,-0.40682447584388,-0.1105969282872057,-0.05561100041952059,-0.4596597730700589,1,right
10.727,-0.08870326702269735,0.9485578087012987,-0.09356337998138929,-0.06601403038882077,0.3177946087310546,-0.40926242246411493,-0.11221548530306294,-0.05058424131069401,-0.4650295194922405,1,right
10.728,-0.08968878117511363,0.9487070961305369,-0.09229536099567406,-0.018683729946242858,0.3107096629031377,-0.4116718454699605,-0.11380946561446172,-0.04549382321768061,-0.4705671946743645,1,right
10.732000000000001,-0.09077869653412914,0.9488389518460776,-0.09100775464933462,0.02872154025206441,0.304134066604086,-0.4140433995555833,-0.11537820266145828,-0.040347149363134674,-0.47626770418399217,1,right
10.732999999999999,-0.09197199162833447,0.9489523401133018,-0.089701378069102,0.07614222828837927,0.2980567423261367,-0.41636784112741687,-0.11692104885451197,-0.03515161516098663,-0.48212594402394443,1,right
10.737,-0.09326755594580985,0.9490462529827862,-0.08837708648403861,0.12352046865229271,0.2924662233004328,-0.41863603464550836,-0.11843737572514043,-0.029914600862791255,-0.4881368047424425,1,right
10.737,-0.09466419290719157,0.949119711015448,-0.08703577302015374,0.17080014871771818,0.28735067739170767,-0.4208389589292668,-0.11992657406209262,-0.02464346436785173,-0.49429517543950213,1,right
10.741,-0.09616062314103602,0.9491717640736909,-0.08567836832610813,0.21792696721534707,0.28269793042538044,-0.4229677134342712,-0.12138805403747081,-0.019345534182210286,-0.5005959476864006,1,right
10.742,-0.0977554880236895,0.9492014921791764,-0.08430584003246237,0.26484848483653467,0.27849548893097553,-0.42501352450663316,-0.12282124532715591,-0.014028102511476612,-0.507034019375472,1,right
10.745999999999999,-0.09944735345812898,0.9492080064357479,-0.08291919204130008,0.3115141671043207,0.27473056228714576,-0.4269677516212254,-0.12422559722981312,-0.008698418472367275,-0.5136042985179123,1,right
10.747,-0.10123471387487436,0.9491904500111087,-0.08151946362864265,0.35787541964685515,0.2713900842549053,-0.4288218936098712,-0.1256005787886751,-0.0033636814077523075,-0.5203017070076825,1,right
10.751,-0.103115996436856,0.9491479991616575,-0.08010772832540314,0.403885616007913,0.2684607338869725,-0.4305675948853536,-0.12694567892021846,0.0019689657100509608,-0.5271211843699948,1,right
10.752,-0.10508956542095153,0.9490798642730446,-0.0786850925349418,0.44950011812845164,0.2659289558023792,-0.4321966516668397,-0.12826040655376708,0.007292442803032106,-0.5340576915132446,1,right
10.757,-0.1071537267391255,0.9489852908773071,-0.07725269385455372,0.4946762896322932,0.263780979816721,-0.43370101821202944,-0.1295442907859708,0.01259973915359973,-0.5411062145036184,1,right
10.758,-0.10930673255730233,0.9488635605981379,-0.07581169909192023,0.5393735020480123,0.26200283991960455,-0.43507281306102524,-0.1307968810540227,0.017883919828355525,-0.5482617683819561,1,right
10.761,-0.11154678597126702,0.9487139919711575,-0.07436330199444763,0.5835531340979734,0.2605803925919884,-0.4363043252965856,-0.1320177473313909,0.023138132074808113,-0.5555194010427837,1,right
10.762,-0.11387204570465898,0.9485359410874007,-0.07290872072787265,0.6271785641842118,0.25949933445721773,-0.4373880208250662,-0.1332064803497519,0.028355611706258176,-0.5628741971957562,1,right
10.765999999999998,-0.11628063080233378,0.9483288020148712,-0.07144919514581805,0.6702151561994762,0.2587452192606136,-0.438316548681975,-0.1343626918507232,0.03352968949002013,-0.5703212824300523,1,right
10.767000000000001,-0.11877062530025773,0.9480920069631116,-0.06998598388761504,0.7126302387902712,0.25830347417349986,-0.43908274736566,-0.13548601486959053,0.038653797546918334,-0.5778558273925413,1,right
10.767000000000001,-0.1213400828595519,0.9478250261681211,-0.06852036133369294,0.7543930781971495,0.2581594154185309,-0.43967965120222946,-0.13657610404658002,0.04372147573418325,-0.5854730520406957,1,right
10.77,-0.12398703135857957,0.9475273674891822,-0.06705361444014662,0.7954748447958161,0.25829826321412286,-0.4401004967443546,-0.13763263594933545,0.048726377919475594,-0.5931682298412901,1,right
10.770999999999999,-0.12670947744386957,0.9471985757260795,-0.06558703946997484,0.8358485734608243,0.2587051560366873,-0.4403387292061424,-0.1386553093836132,0.05366227801791608,-0.6009366917360554,1,right
10.777000000000001,-0.1295054110478456,0.9468382316866006,-0.06412193863896902,0.8754891178717754,0.2593651642002214,-0.44038800893577845,-0.13964384567566573,0.058523075699543625,-0.6087738297458132,1,right
10.777999999999999,-0.13237280988864103,0.9464459510578362,-0.06265961669524836,0.9143730989885457,0.26026330276776566,-0.44024221792716056,-0.14059798892148356,0.06330280173871775,-0.6166751001750493,1,right
10.777999999999999,-0.13530964397335776,0.9460213831510285,-0.06120137744887389,0.9524788484628395,0.2613845438807287,-0.4398954663713567,-0.14151750620452264,0.06799562301249,-0.624636026429208,1,right
10.782,-0.1383138801284001,0.9455642095938371,-0.05974852026315373,0.989786348728334,0.2627138287200975,-0.43934209924841827,-0.14240218778475608,0.07259584716189547,-0.632652201467212,1,right
10.782,-0.1413834865779933,0.9450741430489443,-0.058302336515928734,1.0262771720523205,0.26423607938495663,-0.4385767029596577,-0.143251847261791,0.07709792692988277,-0.6407192899118979,1,right
10.786,-0.14451643758353047,0.9445509260554915,-0.0568641060388255,1.0619344202866987,0.26593621090365954,-0.43759411199978454,-0.1440663217146917,0.08149646418935114,-0.6488330298412257,1,right
10.787,-0.14771071813902414,0.9439943301093311,-0.05543509354537413,1.0967426660768385,0.26779914346630185,-0.43638941566746076,-0.14484547182104965,0.08578621367449832,-0.6569892342832817,1,right
10.79,-0.15096432869209755,0.9434041551054295,-0.05401654506557315,1.1306878957416588,0.2698098148969799,-0.4349579648120921,-0.14558918195774137,0.0899620864284005,-0.6651837924382401,1,right
10.79,-0.1542752898308486,0.9427802292620797,-0.052609684413156166,1.1637574539273288,0.27195319337068663,-0.4332953786140227,-0.14629736028571336,0.09401915297944911,-0.6734126706505837,1,right
10.795,-0.15764164684928825,0.9421224096374493,-0.05121570971816155,1.1959399901345509,0.27421429038016376,-0.43139755139466157,-0.14696993882103215,0.0979526462589567,-0.6816719131550055,1,right
10.796,-0.16106147408049945,0.9414305833343042,-0.04983579005955945,1.2272254072169184,0.2765781739584543,-0.4292606594524203,-0.14760687349433593,0.10175796427191751,-0.6899576426195216,1,right
10.8,-0.1645328788693251,0.9407046694656972,-0.04847106223217177,1.2576048119453205,0.2790299821632802,-0.42688116791967556,-0.14820814420072162,0.10543067253256733,-0.6982660605094284,1,right
10.800999999999998,-0.1680540050464095,0.9399446219219413,-0.047122627679132466,1.2870704677308251,0.2815549368297084,-0.424255837635297,-0.14877375484199998,0.10896650627603245,-0.70659344729582,1,right
10.806,-0.1716230357622397,0.9391504329392082,-0.04579154961271937,1.3156157495958967,0.28413835759786454,-0.42138173202659446,-0.1493037333631481,0.11236137245699006,-0.7149361625324631,1,right
10.806,-0.17523819554350217,0.9383221374262174,-0.04447885033182585,1.343235101481202,0.2867656762227055,-0.4182562239938416,-0.14979813178468634,0.11561135154588137,-0.7232906448248873,1,right
10.81,-0.17889775144730888,0.9374598179619011,-0.04318550873047293,1.3699239959726381,0.28942245117307264,-0.4148770027898275,-0.1502570262326054,0.11871269913282649,-0.7316534117156054,1,right
10.81,-0.18260001321514618,0.9365636103380804,-0.04191245798796971,1.3956788965305735,0.29209438252741643,-0.41124208088617437,-0.15068051696736534,0.12166184734898478,-0.7400210595094237,1,right
10.815,-0.18634333236801848,0.9356337094910516,-0.04066058343918866,1.4204972223006342,0.2947673271737081,-0.4073498008174379,-0.15106872841338753,0.12445540611468918,-0.7483902630628326,1,right
10.815,-0.1901261002323515,0.9346703756469166,-0.0394307206352154,1.4443773155826984,0.2974273143211403,-0.4031988419932773,-0.15142180919035753,0.12709016422325617,-0.7567577755614974,1,right
10.82,-0.19394674493499608,0.933673940497187,-0.03822365361163038,1.467318412032082,0.3000605613312616,-0.3987882274682505,-0.15173993214755613,0.12956309026893598,-0.7651204283098778,1,right
10.82,-0.1978037274491061,0.9326448132213511,-0.03704011338124237,1.489320613664204,0.30265348987619406,-0.3941173306580493,-0.152023294402334,0.13187133342702145,-0.7734751305570126,1,right
10.825,-0.2016955368085033,0.93158348617948,-0.03588077666264451,1.5103848647313407,0.305192742431545,-0.3891858819902489,-0.15227211738374455,0.13401222409367808,-0.7818188693824988,1,right
10.825999999999999,-0.2056206846358824,0.9304905401086894,-0.034746264848259635,1.5305129305373566,0.3076651991115486,-0.3839939754768983,-0.15248664688224947,0.13598327439259272,-0.7901487096666854,1,right
10.829,-0.20957769914961086,0.9293666486707421,-0.03363714320807215,1.549707379253636,0.3100579948538575,-0.37854207519553423,-0.1526671531063113,0.13778217855506678,-0.7984617941690721,1,right
10.83,-0.21356511882519078,0.9282125822148467,-0.03255392032118389,1.5679715667967236,0.31235853696125004,-0.3728310216644514,-0.15281393074658828,0.13940681317969825,-0.8067553437388801,1,right
10.834000000000001,-0.21758148588889295,0.9270292106424232,-0.03149704772790518,1.585309624825504,0.3145545230073294,-0.36686203809731505,-0.15292729904777858,0.14085523737663688,-0.8150266576743848,1,right
10.835,-0.22162533980679142,0.925817505289713,-0.030466919798217484,1.6017264519130663,0.31663395911306014,-0.3606367365214561,-0.15300760188521254,0.14212569279753573,-0.8232731142109079,1,right
10.835999999999999,-0.22569521090532238,0.9245785397745528,-0.029463873816522178,1.6172277079457313,0.3185851786007251,-0.3541571237434452,-0.1530552078380644,0.14321660354576274,-0.8314921710513383,1,right
10.84,-0.22978961424228406,0.923313489778186,-0.02848819028848277,1.631819811799062,0.3203968610315852,-0.34742560714480114,-0.15307051024810872,0.1441265759575636,-0.8396813658163383,1,right
10.841,-0.23390704385637653,0.9220236317506298,-0.02754009348190432,1.645509942338027,0.3220580516331906,-0.3404450002899549,-0.1530539272557025,0.14485439824772245,-0.8478383163279699,1,right
10.845,-0.23804596754365762,0.9207103405448318,-0.02661975221408448,1.6583060427858634,0.3235581811219244,-0.333218528327861,-0.1530059018097096,0.14539904001881193,-0.8559607207063675,1,right
10.845999999999998,-0.24220482231627505,0.9193750860026306,-0.025727280890720256,1.6702168284056151,0.324887085909648,-0.32574983315610906,-0.15292690165084274,0.14575965163597038,-0.8640463572956478,1,right
10.845999999999998,-0.24638201068454121,0.9180194285271353,-0.024862740792228836,1.6812517969459284,0.32603502860132655,-0.31804297825660477,-0.15281741926837628,0.14593556346929507,-0.8720930844424832,1,right
10.849,-0.25057589787506523,0.9166450136770964,-0.024026141598658016,1.691421240418481,0.3269927185432469,-0.3101024530048567,-0.15267797183009285,0.14592628500541416,-0.880098840150669,1,right
10.85,-0.2547848100724041,0.9152535658176439,-0.023217443144212657,1.7007362562820756,0.3277513320993887,-0.30193317619513993,-0.1525091010852378,0.14573150382927202,-0.8880616416349078,1,right
10.855,-0.2590070337603534,0.9138468808682219,-0.022436557393486888,1.709208756595722,0.3283025324145514,-0.2935404985821949,-0.15231137324016825,0.1453510844766318,-0.8959795847969203,1,right
10.857000000000001,-0.26324081623319806,0.9124268182016085,-0.02168335063142374,1.7168514745821775,0.3286384885690982,-0.28493020434577526,-0.15208537880629716,0.14478506715726833,-0.9038508436468795,1,right
10.86,-0.2674843673367477,0.9109952917640243,-0.02095764585572845,1.7236779685307781,0.32875189411116723,-0.2761085114427756,-0.1518317324198488,0.14403366634829134,-0.9116736696930373,1,right
10.86,-0.27173586248534576,0.909554260506947,-0.020259225353166696,1.72970262306392,0.328635984967915,-0.2670820708228404,-0.15155107263285833,0.14309726925650632,-0.9194463913222873,1,right
10.864,-0.27599344698829725,0.9081057182476159,-0.0195878334332731,1.7349406477891822,0.32828455673674395,-0.2578579644827329,-0.15124406167476823,0.14197643414818734,-0.9271674131942702,1,right
10.866,-0.2802552417073314,0.9066516831063248,-0.018943179288908825,1.7394080733567288,0.3276919813568226,-0.24844370233413546,-0.15091138518389388,0.14067188854410434,-0.9348352156714925,1,right
10.868,-0.2845193500527891,0.9051941867035432,-0.018324939953418738,1.7431217449393297,0.32685322316055454,-0.23884721785896681,-0.15055375190795356,0.13918452727711564,-0.9424483543077846,1,right
10.869000000000002,-0.2887838663052216,0.9037352633351095,-0.017732763325383302,1.7460993131500862,0.3257638543039726,-0.22907686252573384,-0.1501718933727823,0.13751541040910775,-0.9500054594172724,1,right
10.874,-0.2930468852173552,0.9022769393716119,-0.017166271229478537,1.7483592224107263,0.32442006957434566,-0.21914139893988968,-0.1497665635182758,0.1356657610035366,-0.9575052357458909,1,right
10.875,-0.2973065128089204,0.9008212231419704,-0.01662506247490972,1.7499206967811813,0.32281870057257994,-0.20904999270064867,-0.1493385383005381,0.13363696274929995,-0.9649464622673046,1,right
10.878,-0.30156087821710315,0.8993700955605007,-0.01610871586676948,1.7508037232590323,0.32095722926727566,-0.1988122029362091,-0.14888861525913785,0.1314305574311482,-0.9723279921249425,1,right
10.879000000000001,-0.30580814641430754,0.8979255017451174,-0.015616793126777094,1.751029032555364,0.3188338009165731,-0.1884379714888615,-0.1484176130483107,0.12904824224132366,-0.9796487527416884,1,right
10.884,-0.3100465315576844,0.8964893438550309,-0.015148841689902048,1.7506180773515507,0.3164472363531812,-0.17793761072101322,-0.14792637093087932,0.12649186692660278,-0.9869077461186047,1,right
10.885,-0.31427431069246714,0.8950634753499427,-0.014704397361261941,1.7495930080395605,0.3137970436272387,-0.16732178991274058,-0.14741574823360107,0.123763430764407,-0.9941040493438866,1,right
10.888,-0.3184898374914134,0.8936496968382961,-0.01428298684106425,1.7479766459464665,0.31088342900090365,-0.15660152022108767,-0.1468866237625914,0.12086507936114232,-1.0012368153330802,1,right
10.889000000000001,-0.3226915556742865,0.8922497536366577,-0.013884130149664697,1.745792454042036,0.30770730728781537,-0.14578813817097078,-0.1463398951774141,0.117799101265428,-1.0083052738214136,1,right
10.892999999999999,-0.32687801171763003,0.8908653351024121,-0.01350734300462794,1.7430645051264995,0.3042703115298157,-0.13489328764721534,-0.14577647832237306,0.11456792438838112,-1.0153087326289127,1,right
10.894,-0.33104786644419487,0.8894980757276105,-0.013152139212806991,1.7398174474939077,0.3005748020025612,-0.12392890035695342,-0.14519730651348764,0.11117411222263561,-1.0222465792187903,1,right
10.9,-0.3351999050821693,0.888149557897058,-0.012818033140069183,1.7360764680648546,0.2966238745409061,-0.11290717473134293,-0.14460332977958307,0.1076203598512934,-1.0291182825694112,1,right
10.901,-0.33933304541381704,0.8868213161246329,-0.01250454230829799,1.7318672529807821,0.292421368174187,-0.10184055323533613,-0.143995514055879,0.10390948973753056,-1.0359233953799554,1,right
10.902999999999999,-0.34344634369543114,0.8855148425031832,-0.012211190146658356,1.7272159456505896,0.2879718720608004,-0.09074169805402599,-0.14337484033078038,0.10004444729203674,-1.0426615566147932,1,right
10.904000000000002,-0.34753899812226224,0.8842315930651931,-0.011937508899930714,1.7221491022388637,0.2832807317107311,-0.07962346512393483,-0.14274230375835928,0.09602829624961343,-1.049332494316846,1,right
10.904000000000002,-0.3516103497170568,0.882972994762331,-0.01168304267736913,1.7166936445836871,0.27835405448396855,-0.06849887647748087,-0.14209891277026634,0.09186421394809977,-1.0559360284858121,1,right
10.908,-0.3556598806207905,0.8817404527816415,-0.011447350608163036,1.710876810530723,0.27319871435204063,-0.05738109086876648,-0.14144568823260165,0.08755548663695896,-1.0624720737423872,1,right
10.909,-0.3596872098588916,0.8805353578824222,-0.011230010050377721,1.7047261016690791,0.2678223559092012,-0.04628337264877613,-0.14078366268141243,0.08310550490781721,-1.0689406415739762,1,right
10.913,-0.36369208675821474,0.8793590933987105,-0.011030619785096491,1.6982692284533347,0.262233397619134,-0.03521905885805498,-0.14011387964916502,0.078517759276529,-1.0753418420913954,1,right
10.914000000000001,-0.3676743822979979,0.8782130415612985,-0.010848803124067113,1.6915340526950824,0.2564410342823785,-0.02420152450495761,-0.1394373930826818,0.07379583591131966,-1.081675885300433,1,right
10.915,-0.37163407876541243,0.8770985888490977,-0.010684210866986822,1.6845485274757013,0.2504552386902449,-0.013244146062732035,-0.13875526685064385,0.068943412494229,-1.0879430819068476,1,right
10.917,-0.37557125811411946,0.8760171301566494,-0.010536524058522045,1.6773406348778355,0.24428676233633606,-0.0023602635443835114,-0.13806857433873743,0.06396425420268449,-1.0941438436731976,1,right
10.918,-0.37948608939091116,0.8749700716427449,-0.010405456509900888,1.6699383225561955,0.23794713488694855,0.00843685789955155,-0.13737839813050323,0.05886220979764702,-1.1002786833456952,1,right
10.922,-0.38337881556861547,0.8739588321860771,-0.010290757060218071,1.6623694405142213,0.23144866201703002,0.01913406558943469,-0.1366858297719311,0.053641207804397704,-1.1063482141690906,1,right
10.923,-0.38724974015337854,0.8729848434117579,-0.010192211557492841,1.6546616791058655,0.22480442131188721,0.029718355185643593,-0.13599196961782992,0.0483052527716702,-1.1123531490074032,1,right
10.927,-0.39109921397678804,0.8720495482813244,-0.010109644543809974,1.6468425086572545,0.21802825610361387,0.040176904458667534,-0.135297926757992,0.04285842159448005,-1.118294299088122,1,right
10.927999999999999,-0.39492762257889036,0.8711543982691032,-0.01004292063538923,1.6389391207558712,0.21113476720479124,0.05049710492576558,-0.13460481902116553,0.03730485988566136,-1.1241725723873115,1,right
10.932,-0.39873537454015456,0.8703008491738192,-0.009991945595042006,1.6309783711851773,0.20413930252040352,0.06066659138456569,-0.13391377305484342,0.03164877838079063,-1.1299889716728813,1,right
10.933,-0.40252289105683425,0.8694903556293845,-0.009956667100148673,1.6229867244822704,0.19705794451853384,0.07067326937362221,-0.1332259244788775,0.025894449360859453,-1.1357445922230809,1,right
10.937000000000001,-0.4062905969901524,0.8687243643860949,-0.009937075215749954,1.6149902000959306,0.1899074955400705,0.0805053405895524,-0.13254241811092943,0.02004620307675126,-1.1414406192371176,1,right
10.937999999999999,-0.41003891356186783,0.8680043064398923,-0.009933202590609754,1.607014320122242,0.1827054609273622,0.09015132628994005,-0.13186440826177548,0.014108424159282856,-1.147078324954599,1,right
10.942,-0.4137682528208775,0.8673315880955698,-0.009945124402047586,1.599084058594889,0.17547002995151545,0.09960008871072744,-0.1311930590984916,0.008085547998289453,-1.1526590655003455,1,right
10.943,-0.41747901397037496,0.8667075810592778,-0.009972958077188277,1.59122379230721,0.16822005451783045,0.10884085052631574,-0.1305295450735578,0.001982057073962168,-1.1581842774709323,1,right
10.947000000000001,-0.4211715816235056,0.8661336116678271,-0.010016862809573566,1.5834572531431517,0.16097502562872562,0.11786321238006034,-0.12987505141793665,-0.004197522776610091,-1.1636554742791647,1,right
10.948,-0.4248463260435139,0.8656109493812615,-0.010077038873014907,1.5758074818943901,0.15375504758340516,0.12665716851228137,-0.12923077469619978,-0.01044862617498684,-1.1690742422725182,1,right
10.950999999999999,-0.42850360541333743,0.8651407946959659,-0.010153726714584291,1.568296783541094,0.14658080989348476,0.13521312051231363,-0.12859792342179882,-0.016766652116534275,-1.1744422366414213,1,right
10.952,-0.4321437701576349,0.8647242666809967,-0.010247205790776438,1.560946683974066,0.13947355689380586,0.14352188922049308,-0.12797771873060307,-0.023146968002938025,-1.1797611771330982,1,right
10.957,-0.4357671692967046,0.8643623903980946,-0.010357793101595123,1.5537778881363375,0.13245505502774155,0.1515747248053217,-0.12737139511085588,-0.029584913810018244,-1.1850328435865465,1,right
10.958,-0.43937415874408603,0.8640560845281299,-0.010485841381704459,1.546810239562682,0.1255475577864307,0.15936331504037024,-0.1267802011877343,-0.03607580640898707,-1.1902590713040715,1,right
10.962,-0.4429651113756146,0.8638061495819858,-0.010631736924083163,1.5400626812959792,0.11877376828156945,0.1668797918047689,-0.1262054005607329,-0.04261494405946735,-1.1954417462746607,1,right
10.962,-0.44654042860878024,0.8636132571084763,-0.010795897034386123,1.5335532181598817,0.11215679943164591,0.17411673583040121,-0.12564827269213255,-0.04919761109275707,-1.200582800264348,1,right
10.967,-0.45010055314478375,0.8634779403131433,-0.010978767140328827,1.5272988803678027,0.10572013174182382,0.1810671797181595,-0.12511011384485893,-0.05581908280397595,-1.2056842057885837,1,right
10.968,-0.4536459824452374,0.8634005864617692,-0.011180817606253415,1.5213156884488848,0.09948756865806517,0.1877246092448379,-0.12459223806808174,-0.06247463057186923,-1.210747970981505,1,right
10.970999999999998,-0.4571772824461598,0.8633814313597442,-0.011402540319569839,1.515618619472283,0.09348318947653393,0.19408296298143846,-0.12409597822895735,-0.06915952722516878,-1.215776134376876,1,right
10.972000000000001,-0.4606951009701832,0.8634205560832198,-0.011644445114450497,1.5102215745518313,0.08773129978984111,0.20013663024284245,-0.1236226870862694,-0.07586905266225111,-1.2207707596135045,1,right
10.972999999999999,-0.46420018031595417,0.8635178860185098,-0.011907056080872122,1.5051373476139385,0.08225637945227864,0.20588044738795933,-0.12317373838826963,-0.08259849966956975,-1.22573393006853,1,right
10.975999999999999,-0.4676933685820413,0.8636731921678057,-0.012190907784061213,1.5003775954123724,0.07708302804684533,0.2113096924886072,-0.12275052795276349,-0.08934317977397677,-1.2306677434051645,1,right
10.977,-0.47117562934805557,0.8638860945907547,-0.012496541398526744,1.4959528087744611,0.07223590783759413,0.21642007838450364,-0.12235447467404077,-0.09609842890275841,-1.235574306012067,1,right
10.981,-0.4746480493370356,0.8641560677498129,-0.012824500744225647,1.4918722850641264,0.06773968419162543,0.2212077441408575,-0.12198702141483206,-0.1028596126866276,-1.2404557273207417,1,right
10.982000000000001,-0.4781118436810058,0.864482447433545,-0.01317532820115165,1.4881441018830486,0.06361896353065398,0.22566924494375581,-0.12164963576586531,-0.10962213135140689,-1.2453141140039892,1,right
10.982999999999999,-0.4815683584785195,0.8648644388984894,-0.01354956047526243,1.484775092206965,0.059898229246693774,0.22980154056565624,-0.1213438106691857,-0.11638142420552619,-1.2501515640676502,1,right
10.987,-0.48501907045253,0.8653011259034211,-0.013947724193266604,1.481770821469622,0.05660177669003689,0.2336019827088281,-0.1210710649041862,-0.12313297374274829,-1.254970160849672,1,right
10.988,-0.4884655836363615,0.8657914803429836,-0.014370331313010128,1.4791355672826632,0.05375364871246027,0.23706830163167947,-0.12083294343538319,-0.12987230937953925,-1.2597719669404563,1,right
10.99,-0.4919096231201141,0.8663343721706628,-0.014817874348365852,1.4768723023060093,0.051377572876063746,0.2401985923639322,-0.12063101762106146,-0.13659501084649192,-1.2645590180383917,1,right
10.991,-0.49535302599646513,0.8669285792704295,-0.01529082142278815,1.4749826804698056,0.04949690076673671,0.24299130063919613,-0.1204668852820087,-0.14329671125318774,-1.269333316754416,1,right
10.995999999999999,-0.4987977297566619,0.8675727969411735,-0.01578961117871461,1.4734670265753214,0.04813454947885885,0.24544520857450228,-0.12034217062965856,-0.1499730998458482,-1.2740968263794086,1,right
10.997,-0.5022457584842319,0.868265646691908,-0.01631464757164825,1.472324329268298,0.04731294526445915,0.24755942010578416,-0.1202585240530659,-0.15661992447707868,-1.2788514646281666,1,right
11.0,-0.5056992072602928,0.8690056840849739,-0.016866294565689357,1.4715522373793235,0.047053969341480054,0.24933334618732783,-0.120217621764246,-0.16323299380694786,-1.2835990973736895,1,right
11.001,-0.5091602252324632,0.8697914054029271,-0.017444870729279995,1.4711470596268765,0.047378905857281155,0.25076668976223726,-0.12022116530152305,-0.1698081792545729,-1.288341532385454,1,right
11.005999999999998,-0.5126309978173429,0.8706212529552382,-0.018050643718750956,1.4711037676797478,0.048308392005069596,0.2518594305099884,-0.12027088089065151,-0.1763414167192958,-1.293080513085347,1,right
11.007,-0.5161137285100668,0.8714936188873493,-0.018683824642692227,1.4714160025766196,0.04986237029255873,0.2526118093761661,-0.12036851866359598,-0.18282870809043994,-1.2978177123348984,1,right
11.011,-0.5196106207662524,0.8724068474097436,-0.019344562322522452,1.4720760845016219,0.05206004296383316,0.25302431288850274,-0.12051585173498398,-0.18926612256452666,-1.302554726267438,1,right
11.012,-0.5231238604010829,0.8733592354270512,-0.02003293749596532,1.473075025915731,0.054919828577133165,0.25309765726235683,-0.12071467513637803,-0.1956497977887113,-1.307293068178798,1,right
11.015,-0.5266555989141215,0.8743490316119839,-0.02074895704053577,1.474402548044892,0.058459320743064,0.25283277229779527,-0.12096680460865114,-0.2019759408490667,-1.312034162490172,1,right
11.015,-0.5302079380954853,0.8753744340303189,-0.021492548316548832,1.4760471007267366,0.06269524902958314,0.25223078506946517,-0.12127407525289333,-0.20824082912219877,-1.316779338796739,1,right
11.020999999999999,-0.5337829162022688,0.8764335864757404,-0.02226355374060853,1.4779958856187523,0.06764344204201869,0.2512930034094681,-0.12163834004042363,-0.21444081100852472,-1.3215298260156734,1,right
11.022,-0.5373824959195797,0.877524573713284,-0.023061725700263335,1.4802348827716836,0.0733187926883231,0.250020899182478,-0.12206146818263645,-0.22057230656537907,-1.3262867466471568,1,right
11.026,-0.5410085542454698,0.878645415856995,-0.023886721908927676,1.4827488805728655,0.0797352256417648,0.24841609135137652,-0.1225453433615684,-0.226631808057937,-1.331051111162033,1,right
11.026,-0.5446628743698716,0.8797940621244643,-0.024738101279519083,1.4855215090650575,0.08690566701530482,0.24648032883071475,-0.12309186182223651,-0.232615880445758,-1.3358238125297477,1,right
11.03,-0.5483471395569448,0.8809683842224829,-0.025615320369820314,1.4885352766471787,0.09484201626399205,0.24421547312435077,-0.12370293032796717,-0.2385211618225567,-1.340605620900249,1,right
11.03,-0.5520629289855993,0.8821661696261008,-0.02651773042882705,1.4917716101641265,0.10355512033383783,0.24162348074265583,-0.12438046398011003,-0.24434436382660069,-1.3453971784535295,1,right
11.034,-0.5558117154495457,0.883385115016238,-0.027444575058048048,1.4952108983936123,0.113054750077794,0.23870638539373318,-0.125126383903711,-0.2500822720389188,-1.3501989944305275,1,right
11.036,-0.5595948647629255,0.88462282013498,-0.02839498849688373,1.4988325389386263,0.12334957896165705,0.2354662799421466,-0.12594261480090382,-0.255731746386277,-1.355011440359124,1,right
11.039000000000001,-0.5634136366610288,0.885876782298535,-0.029367994544611798,1.5026149885347881,0.1344471640849496,0.2319052981277175,-0.1268310823739707,-0.26128972156564356,-1.3598347454890005,1,right
11.04,-0.5672691869376111,0.8871443917718967,-0.030362506139922824,1.50653581678242,0.14635392954408805,0.22802559603601455,-0.12779371061871087,-0.26675320750389564,-1.3646689924479825,1,right
11.040999999999999,-0.5711625705447725,0.8884229281574314,-0.03137732562305607,1.5105717633137017,0.1590751521674267,0.22382933331123298,-0.12883241898141695,-0.272119289852642,-1.3695141131266646,1,right
11.045,-0.5750947454042855,0.8897095578920546,-0.03241114569243582,1.514698798405721,0.17261494965407298,0.2193186541012382,-0.12994911935939282,-0.2773851304932536,-1.3743698847876,1,right
11.046,-0.5790665766948192,0.8910013328985787,-0.0334625510376737,1.5188921870506351,0.18697627115068932,0.21449566772363274,-0.1311457129176186,-0.2825479680132984,-1.3792359263895113,1,right
11.05,-0.5830788413485027,0.8922951903987041,-0.03453002059761318,1.5231265564944865,0.2021608903028364,0.20936242904079694,-0.13242408670192812,-0.2876051181289204,-1.3841116951228674,1,right
11.050999999999998,-0.587132232445309,0.8935879538588006,-0.03561193036319951,1.5273759672564733,0.2181694008197592,0.2039209185309494,-0.13378611004286223,-0.2925539740519365,-1.3889964831637467,1,right
11.050999999999998,-0.5912273631876549,0.8948763350047259,-0.03670655662284812,1.5316139875460202,0.23500121456545914,0.19817302208954918,-0.13523363075213055,-0.2973920068137528,-1.3938894146587923,1,right
11.055,-0.5953647701823417,0.8961569368231207,-0.03781207954515788,1.5358137705218726,0.2526545620491689,0.19212051083532966,-0.1367684711153589,-0.3021167655606221,-1.3987894429552636,1,right
11.057,-0.5995449158310172,0.8974262574716194,-0.038926587014993755,1.5399481329856501,0.2711264949349521,0.18576502162791936,-0.1383924236850386,-0.3067258778344543,-1.4036953480902146,1,right
11.06,-0.6037681896973518,0.8986806950359741,-0.04004807866335512,1.543989633629025,0.29041289005042603,0.17910803924398352,-0.14010724687784004,-0.31121704985307214,-1.4086057345528564,1,right
11.061,-0.6080349087612041,0.8999165530839085,-0.04117447004367287,1.5479106494268187,0.3105084545190489,0.17215088091708575,-0.14191466038070366,-0.31558806680348084,-1.4135190293341755,1,right
11.064,-0.6123453165094043,0.9011300469762327,-0.04230359691586703,1.551683449619944,0.33140673189852343,0.16489468351204742,-0.14381634037037722,-0.31983679316138725,-1.4184334802778962,1,right
11.065,-0.6166995808708517,0.902317310909261,-0.04343321960769492,1.5552802672051036,0.35310010935229075,0.15734039336285677,-0.14581391455132928,-0.3239611730498653,-1.4233471547468926,1,right
11.069,-0.6210977910702817,0.903474405671649,-0.04456102741938317,1.5586733679424423,0.3755798259118312,0.14948875875414347,-0.1479089570172348,-0.32795923064972043,-1.4282579386191592,1,right
11.07,-0.6255399535315116,0.9045973270978375,-0.045684643020429405,1.561835116891938,0.3988359818897904,0.1413403250253761,-0.15010298294149946,-0.33182907067375345,-1.4331635356274555,1,right
11.074000000000002,-0.6300259869994015,0.9056820151942381,-0.04680162676830317,1.5647380424887978,0.42285754950623083,0.13289543227608236,-0.15239744310256423,-0.3355688789167689,-1.4380614670567369,1,right
11.075,-0.6345557170699765,0.9067243639113989,-0.04790948087109485,1.5673548981675496,0.4476323847925657,0.12415421564953764,-0.15479371825001242,-0.3391769228928077,-1.4429490718134703,1,right
11.078,-0.639128870322984,0.9077202315380184,-0.049005653330216274,1.569658721543856,0.4731472408399611,0.11511660817151446,-0.15729311331778478,-0.3426515525707184,-1.4478235068809233,1,right
11.079,-0.6437450682445458,0.9086654516967035,-0.05008754163597731,1.5716228911623278,0.4993877824611868,0.10578234611983289,-0.1598968514910972,-0.34599120121880605,-1.4526817481744945,1,right
11.083,-0.648403821113333,0.9095558449217808,-0.0511524962373094,1.5732211808177963,0.5263386023370584,0.09615097689960095,-0.1626060681339477,-0.34919438636892086,-1.4575205918111145,1,right
11.084000000000001,-0.6531045220056418,0.9103872307932209,-0.05219782385105021,1.5744278114566073,0.553983238720739,0.08622186939818174,-0.1654218045843954,-0.3522597109099637,-1.4623366558067188,1,right
11.089,-0.6578464410555113,0.9111554405861072,-0.05322079070205784,1.5752175006635223,0.5823041947752473,0.07599422679307122,-0.16834500182509365,-0.3551858643204006,-1.4671263822157399,1,right
11.09,-0.6626287200840736,0.911856330372209,-0.05421862578665773,1.5755655097387624,0.6112829596215608,0.06546710178501701,-0.17137649403686256,-0.357971624048984,-1.4718860397265103,1,right
11.094000000000001,-0.6674503676841068,0.9124857944828906,-0.055188524233501624,1.5754476883686073,0.6409000311766906,0.054639414227853136,-0.17451700204339168,-0.36061585705248483,-1.4766117267264092,1,right
11.095,-0.6723102548114456,0.9130397792171173,-0.05612765080971158,1.574840516891764,0.6711349408630484,0.043509971125667096,-0.1777671266554725,-0.3631175214988378,-1.4812993748504975,1,right
11.099,-0.6772071108993152,0.9135142966596095,-0.057033143596584915,1.5737211461624527,0.7019662802723091,0.03207748896705531,-0.1811273419234705,-0.3654756686437008,-1.4859447530273115,1,right
11.1,-0.6821395204816818,0.9139054384634611,-0.0579021178441352,1.5720674350098218,0.7333717298688108,0.020340618365359473,-0.1845979883070602,-0.36768944488802185,-1.490543472035382,1,right
11.103,-0.6871059202926108,0.9142093894478558,-0.05873167001110665,1.5698579852918988,0.7653280898192999,0.008297970972909033,-0.18817926577156122,-0.36975809402379956,-1.4950909895839306,1,right
11.104000000000001,-0.6921045967999667,0.9144224408623979,-0.05951888200698956,1.5670721745408123,0.7978113130375434,-0.004051851363575562,-0.19187122682052843,-0.3716809596748072,-1.499582615931085,1,right
11.109000000000002,-0.6971336841299031,0.9145410031711471,-0.06026082566768972,1.5636901861944883,0.8307965405339798,-0.01671022524013867,-0.19567376947456727,-0.37345748793864103,-1.5040135200528106,1,right
11.11,-0.7021911623425034,0.9145616182113198,-0.06095456750661644,1.5596930374084317,0.8642581391621575,-0.029678472159902696,-0.19958663021245288,-0.3750872302284955,-1.5083787363651382,1,right
11.110999999999999,-0.7072748560293205,0.9144809705911564,-0.06159717378291292,1.5550626044395446,0.8981697418552239,-0.04295782286001942,-0.20360937691990044,-0.376569846274971,-1.51267317194972,1,right
11.113,-0.7123824332176453,0.9142958982092666,-0.06218571591902808,1.5497816455922266,0.9325042904471664,-0.05654937953762644,-0.2077414019437658,-0.3779051071799684,-1.5168916141382827,1,right
11.114,-0.7175114045794859,0.9140034017838689,-0.06271727628337415,1.5438338217152359,0.9672340811748756,-0.07045407601206555,-0.2119819153787227,-0.3790928983766247,-1.521028738258981,1,right
11.118,-0.7226591229554921,0.9136006532600552,-0.06318895433102212,1.5372037142359678,1.0023308129583919,-0.08467263586151356,-0.21632993868482708,-0.3801332223865011,-1.5250791153998262,1,right
11.119000000000002,-0.7278227832200572,0.9130850029329209,-0.06359787306768987,1.529876840716952,1.0377656385579088,-0.09920552857307254,-0.22078429868257893,-0.381026201332639,-1.52903722013844,1,right
11.12,-0.7329994225339234,0.9124539851101403,-0.06394118577927542,1.5218396679481214,1.073509218606015,-0.11405292380869322,-0.22534362194345178,-0.3817720792043622,-1.5328974382395286,1,right
11.123,-0.7381859210475541,0.9117053221519368,-0.06421608296219346,1.5130796227398589,1.1095317780085654,-0.12921464420234785,-0.23000632958837816,-0.382371223876813,-1.5366540743317039,1,right
11.124,-0.7433790031298101,0.9108369267671841,-0.0644197993955897,1.5035851008559409,1.1458031632974985,-0.14469011766662274,-0.23477063250698424,-0.3828241288877876,-1.5403013595750028,1,right
11.127,-0.7485752392144693,0.9098469024979392,-0.06454962130213203,1.4933454746768609,1.1822928990136543,-0.1604783304999449,-0.23963452701066792,-0.3831314149740141,-1.5438334593301934,1,right
11.128,-0.7537710483898258,0.908733542386167,-0.0646028935513322,1.4823511000285425,1.2189702417045951,-0.17657778227441834,-0.24459579093291114,-0.3832938313685969,-1.5472444808406352,1,right
11.132,-0.758962701887032,0.9074953258979481,-0.06457702688300443,1.47059332233322,1.2558042310341921,-0.19298644292329342,-0.24965198019050883,-0.3833122568609288,-1.5505284809371667,1,right
11.134,-0.7641463276291487,0.9061309142808872,-0.06446950516586585,1.4580644820837312,1.2927637380075097,-0.2097017121358492,-0.25480042581968204,-0.3831877006199547,-1.5536794737761528,1,right
11.137,-0.7693179159820589,0.9046391446224189,-0.06427789273696785,1.4447579196096225,1.3298175104162828,-0.2267203811059341,-0.26003823150132305,-0.38292130278125674,-1.556691438620475,1,right
11.138,-0.7744733268081355,0.9030190229347862,-0.06399984187914937,1.4306679791012678,1.3669342156107405,-0.2440385966812965,-0.26536227158989123,-0.38251433479801483,-1.5595583276728902,1,right
11.142999999999999,-0.7796082978699906,0.9012697166131096,-0.06363310048483228,1.4157900118559996,1.4040824807038748,-0.26165182796171754,-0.27076918966074365,-0.38196819955548783,-1.562274073970793,1,right
11.144,-0.7847184545719794,0.8993905466077117,-0.06317551992877858,1.4001203787080119,1.4412309303145385,-0.2795548353948274,-0.27625539759094053,-0.38128443124825206,-1.5648325993510233,1,right
11.147,-0.7897993209707106,0.8973809796342758,-0.06262506314144659,1.383656451601548,1.4783482219559314,-0.29774164241934586,-0.2818170751888128,-0.38046469501903224,-1.5672278224929412,1,right
11.148,-0.7948463319374601,0.8952406207239962,-0.0619798128529274,1.3663966142646236,1.5154030791761202,-0.31620550970633426,-0.2874501703878168,-0.3795107863575584,-1.56945366704756,1,right
11.152000000000001,-0.7998548463126658,0.8929692063914335,-0.06123797997061951,1.3483402619382698,1.5523643225572454,-0.3349389120498766,-0.29315040002042797,-0.37842463025748807,-1.5715040698600693,1,right
11.152000000000001,-0.8048201608526846,0.8905665986656943,-0.06039791205658528,1.3294878001139896,1.5892008986799764,-0.35393351795942046,-0.29891325118804307,-0.37720828012904334,-1.57337298929262,1,right
11.157,-0.8097375247350276,0.888032780187118,-0.05945810187374407,1.3098406422298483,1.6258819071595925,-0.37318017200680415,-0.3047339832430624,-0.37586391646462586,-1.5750544136537508,1,right
11.158,-0.8146021543686269,0.8853678505184878,-0.05841719596604971,1.2894012062733258,1.6623766258598076,-0.3926688799817675,-0.3106076303995189,-0.3743938452542948,-1.576542369740334,1,right
11.161,-0.8194092482562559,0.882572023761806,-0.057274003224554844,1.2681729102367758,1.698654534390091,-0.4123887969104937,-0.3165290049887985,-0.3728004961476175,-1.577830931497398,1,right
11.162,-0.8241540016751355,0.8796456275128541,-0.05602750337362524,1.246160166369058,1.7346853359917913,-0.4323282179924501,-0.32249270137716257,-0.37108642035803574,-1.5789142288006386,1,right
11.167,-0.8288316209715609,0.8765891031274567,-0.054676855295019415,1.223368374164629,1.7704389779178402,-0.4524745725114918,-0.32849310056193487,-0.36925428830553025,-1.5797864563658888,1,right
11.168,-0.8334373373002056,0.8734030072153278,-0.0532214050925954,1.1998039120291233,1.8058856704101873,-0.47281442077785174,-0.33452437546335134,-0.36730688699301184,-1.5804418827892284,1,right
11.171,-0.837966419677517,0.8700880142209456,-0.051660693786769865,1.175474127558195,1.840995904378407,-0.49333345415827146,-0.3405804969291931,-0.36524711711151975,-1.5808748597208377,1,right
11.172,-0.8424141872628986,0.8666449199008499,-0.04999446451848452,1.1503873263641644,1.8757404678821248,-0.5140164982521185,-0.346655240469428,-0.3630779898689713,-1.581079831175088,1,right
11.177,-0.846776020832583,0.8630746454688232,-0.048222669139315125,1.124552759382784,1.9100904615190286,-0.5348475192718906,-0.3527421937381733,-0.3608026235368735,-1.5810513429787383,1,right
11.177999999999999,-0.8510473734653335,0.859378242161522,-0.04634547406758901,1.0979806085902544,1.9440173128192624,-0.5558096336870195,-0.3588347647684559,-0.35842423971252557,-1.580784052346679,1,right
11.179,-0.8552237805029327,0.8555568959886588,-0.04436326530277296,1.0706819710584403,1.9774927897459533,-0.5768851211903573,-0.36492619090575656,-0.3559461593111164,-1.5802727375150505,1,right
11.181,-0.8593008688730062,0.8516119324719266,-0.04227665251098477,1.0426688412740943,2.0104890134004894,-0.5980554410471502,-0.37100954827918486,-0.35337179833276267,-1.5795123072547665,1,right
11.181,-0.863274365880262,0.8475448212135303,-0.04008647210990363,1.0139540916457737,2.0429784700299507,-0.6193012518866807,-0.3770777615896054,-0.35070466346642787,-1.5784978100288312,1,right
11.187000000000001,-0.8671401075970482,0.8433571801447336,-0.03779378928182492,0.9845514511200584,2.0749340224327977,-0.6406024349970821,-0.383123614053573,-0.3479483475751853,-1.5772244426150934,1,right
11.187999999999999,-0.870894046999561,0.8390507793068629,-0.03539989883947712,0.9544754818266213,2.1063289208575484,-0.6619381211841011,-0.3891397574490877,-0.3451065250760672,-1.5756875581214933,1,right
11.189,-0.8745322619821982,0.8346275440361505,-0.03290632487530408,0.9237415537350564,2.1371368134730093,-0.6832867211996269,-0.3951187222686774,-0.3421829472102845,-1.5738826733790872,1,right
11.190999999999999,-0.8780509633445285,0.8300895574549817,-0.03031481914275178,0.8923658176312087,2.167331756413547,-0.704625959470117,-0.4010529279971616,-0.33918143719590627,-1.571805475709181,1,right
11.192,-0.881446502800823,0.8254390622010217,-0.02762735814181357,0.8603651773070979,2.196888223268891,-0.7259329103586152,-0.40693469353136186,-0.3361058852548428,-1.569451829060146,1,right
11.195,-0.8847153810202679,0.8206784613439628,-0.024846138906782417,0.8277572621834514,2.2257811138127384,-0.7471840359182421,-0.41275624775891917,-0.3329602435057432,-1.5668177795087237,1,right
11.196,-0.8878542556652366,0.8158103184467994,-0.021973573520006215,0.7945604012552021,2.2539857618361943,-0.7683552243708633,-0.4185097403132486,-0.32974852071419203,-1.5638995601198453,1,right
11.2,-0.890859949353677,0.8108373567326791,-0.019012282399194665,0.7607935986602468,2.281477942082655,-0.7894218290410727,-0.4241872525215117,-0.3264747768913792,-1.5606935951581953,1,right
11.200999999999999,-0.8937294574354132,0.8057624573263625,-0.015965086425029258,0.7264765108431886,2.3082338763523698,-0.8103587077513188,-0.4297808085623132,-0.32314311773221466,-1.5571965036439415,1,right
11.206,-0.8964599554478374,0.800588656550763,-0.012834997988138497,0.6916294252187428,2.334230238857653,-0.8311402627389394,-0.43528238684963405,-0.3197576888836699,-1.5534051022442446,1,right
11.207,-0.8990488061036199,0.7953191422725785,-0.009625211037455497,0.6562732402378435,2.35944416090768,-0.8517404811555702,-0.440683931659292,-0.3163226700339516,-1.549316407491325,1,right
11.21,-0.9014935656564993,0.7899572493075793,-0.006339090207706842,0.6204294467579107,2.383853234999667,-0.8721329762090179,-0.44597736501398283,-0.3128422688129443,-1.5449276373170395,1,right
11.210999999999999,-0.9037919894888647,0.7845064539156296,-0.002980159102206314,0.5841201106172182,2.4074355183910785,-0.8922910290072401,-0.4511545988426884,-0.30932071449420634,-1.5402362118930655,1,right
11.215,-0.9059420367693639,0.7789703674350642,0.0004479121822121125,0.5473678563118384,2.430169536225235,-0.9121876311635564,-0.4562075474299513,-0.30576225148865965,-1.5352397537649445,1,right
11.216,-0.9079418740431885,0.7733527291210555,0.00394132017904982,0.5101958516722409,2.452034284280407,-0.9317955282216142,-0.4611281401702068,-0.30217113261998474,-1.529936087267367,1,right
11.220999999999998,-0.9097898776428333,0.7676573982611515,0.007496141692031232,0.47262779343529004,2.473009231410085,-0.9510872639579596,-0.465908334642026,-0.29855161217161325,-1.5243232372072226,1,right
11.220999999999998,-0.9114846348415969,0.7618883456452903,0.01110834780396276,0.43468789360610716,2.4930743217396953,-0.9700352256193144,-0.47054013001676787,-0.2949079386951051,-1.518399426800048,1,right
11.225,-0.9130249437117363,0.7560496444707466,0.014773818106410295,0.39640086650306705,2.5122099766825214,-0.9886116901508243,-0.47501558081576106,-0.2912443475696025,-1.5121630748446444,1,right
11.225999999999999,-0.9144098116872822,0.7501454607672113,0.018488355010675358,0.3577919163780565,2.530397096835052,-1.0067888714706423,-0.4793268110297283,-0.2875650533019722,-1.5056127921197262,1,right
11.23,-0.9156384528623238,0.744180043434176,0.022247698012542227,0.31888672550305636,2.54761706380935,-1.0245389688452191,-0.4834660286137423,-0.2838742415571785,-1.4987473769855848,1,right
11.231,-0.916710284077996,0.7381577139906459,0.02604753779327382,0.2797114426131136,2.563851742057372,-1.0418342164186045,-0.48742554037055463,-0.28017606090837055,-1.4915658101728493,1,right
11.234000000000002,-0.9176249198682271,0.7320828561436733,0.029883530046113594,0.24029267159484594,2.579083480739451,-1.0586469339479208,-0.49119776723466363,-0.27647461429612386,-1.4840672487395214,1,right
11.235,-0.9183821663476301,0.7259599052851161,0.03375130892414303,0.20065746030877005,2.5932951156863644,-1.0749495787959373,-0.4947752599689974,-0.27277395018624223,-1.476251019176564,1,right
11.24,-0.918982014134071,0.7197933380239949,0.03764650001485075,0.16083328943297112,2.6064699715015913,-1.090714799230373,-0.4981507152855691,-0.26907805341550495,-1.4681166096414067,1,right
11.241,-0.9194246304012637,0.7135876618541741,0.04156473276017306,0.12084806121493266,2.618591863847478,-1.1059154890781637,-0.5013169924009252,-0.2653908357147346,-1.4596636612978275,1,right
11.245,-0.9197103501513982,0.7073474050409815,0.04550165225872162,0.08073008801772368,2.629645101956102,-1.1205248437814712,-0.5042671300126844,-0.26171612591689075,-1.4508919587666065,1,right
11.245999999999999,-0.9198396667854244,0.7010771067825746,0.04945293040910401,0.040508080546199615,2.639614491402644,-1.134516417900663,-0.5069943635630578,-0.25805765994954255,-1.4418014198246893,1,right
11.245999999999999,-0.9198132220418944,0.6947813076675828,0.05341427637739966,0.00021113563841101144,2.648485337176067,-1.1478641841078736,-0.5094921424389587,-0.25441907087604393,-1.4323920847313454,1,right
11.249,-0.9196317953992464,0.6884645404245632,0.05738144639833185,-0.04013127649296667,2.6562434470788134,-1.1605425937130582,-0.5117541466378649,-0.2508038793414056,-1.4226641056931375,1,right
11.25,-0.91929629309778,0.6821313209549478,0.06135025294858013,-0.08048932568466627,2.6628751354841267,-1.1725266387626787,-0.5137743025477809,-0.2472154846872689,-1.4126177368443606,1,right
11.255,-0.91880773700098,0.6757861396625552,0.06531657334620555,-0.12083283602802426,2.668367227476459,-1.1837919157493089,-0.5155467977046713,-0.24365715683549963,-1.4022533248770226,1,right
11.255999999999998,-0.9181672535367789,0.6694334531272351,0.06927635780996573,-0.16113130096711809,2.6727070634003516,-1.1943146908838287,-0.5170660945098873,-0.24013202894835026,-1.3915713003192738,1,right
11.255999999999998,-0.9173760629288965,0.6630776761943197,0.07322563696576771,-0.2013538993814258,2.6758825038556044,-1.2040719664563748,-0.5183269429133766,-0.2366430908548898,-1.380572169433426,1,right
11.26,-0.91643546887527,0.6567231745508348,0.07716052874979511,-0.24146951270810738,2.6778819352014884,-1.2130415470478484,-0.5193243920677555,-0.2331931832334852,-1.3692565067037867,1,right
11.261,-0.9153468487943367,0.6503742578439805,0.08107724464204966,-0.28144674313863227,2.6786942756450993,-1.2212021039281462,-0.5200538009575986,-0.2297849925402142,-1.3576249478836229,1,right
11.265,-0.9141116447534836,0.6440351733822614,0.08497209516381994,-0.3212539329445044,2.6783089819699453,-1.2285332363985835,-0.520510848007555,-0.22642104667319346,-1.3456781835696598,1,right
11.265999999999998,-0.9127313551940952,0.637710100444103,0.08884149459387439,-0.3608591850229648,2.67671605692929,-1.235015529596026,-0.5206915396721491,-0.22310371136291623,-1.3334169532716087,1,right
11.269,-0.9112075275549042,0.6314031452012938,0.09268196490395729,-0.4002303847734005,2.673906057309692,-1.240630608697431,-0.5205922180093497,-0.21983518727881501,-1.3208420399433074,1,right
11.27,-0.9095417518779768,0.6251183362541304,0.09649013896410756,-0.43933522341874454,2.6698701026636154,-1.2453611895458152,-0.5202095672392134,-0.21661750784238998,-1.3079542649411597,1,right
11.275,-0.9077356554719014,0.6188596207775237,0.10026276309757562,-0.47814122288557453,2.66459988470651,-1.2491911257162298,-0.5195406192881123,-0.2134525377373783,-1.29475448337465,1,right
11.275,-0.9057908987029409,0.6126308612876977,0.1039966990646677,-0.5166157623559425,2.658087677370278,-1.2521054520378392,-0.5185827583182544,-0.21034197210757938,-1.281243579812811,1,right
11.279000000000002,-0.9037091719788161,0.6064358330486033,0.1076889255322435,-0.5547261066032048,2.6503263475015046,-1.2540904245856561,-0.5173337242413908,-0.20728733643309588,-1.2674224643096228,1,right
11.279000000000002,-0.9014921939756416,0.6002782221393946,0.11133653905762143,-0.5924394362232589,2.6413093661893026,-1.2551335571529056,-0.515791615214783,-0.20428998707590293,-1.253292068710426,1,right
11.284,-0.8991417111348167,0.5941616241979144,0.11493675459805576,-0.6297228798716473,2.6310308207040487,-1.2552236542123574,-0.5139548891166718,-0.20135111248581203,-1.2388533432005382,1,right
11.285,-0.8966594984251233,0.5880895438426901,0.11848690555609458,-0.6665435486159346,2.6194854270246997,-1.2543508403723045,-0.5118223639976575,-0.1984717350580582,-1.2241072530563704,1,right
11.289000000000001,-0.8940473613301808,0.58206539476064,0.12198444338236479,-0.7028685725116302,2.606668542928768,-1.25250658633016,-0.5093932175035576,-0.19565271363390208,-1.209054775558454,1,right
11.29,-0.8913071389868868,0.576092500430552,0.12542693676926384,-0.7386651395086904,2.5925761816154247,-1.249683731323908,-0.5066669852644627,-0.19289474663580625,-1.193696897024899,1,right
11.293,-0.8884407083679676,0.5701740954337892,0.12881207047287227,-0.7739005367943043,2.577205025828546,-1.2458765020788847,-0.5036435582438628,-0.19019837582891658,-1.1780346099229282,1,right
11.294,-0.8854499893720256,0.5643133272860303,0.13213764379776732,-0.8085421946762456,2.560552442442886,-1.2410805282445765,-0.5003231790408635,-0.18756399070075097,-1.162068910015244,1,right
11.300999999999998,-0.882336950661121,0.5585132587104272,0.1354015687776351,-0.8425577331095546,2.542616497472869,-1.235292854313312,-0.49670643713766316,-0.18499183345117476,-1.1458007934971115,1,right
11.302,-0.8791036160733295,0.5527768702647172,0.13860186808583297,-0.8759150109677011,2.523395971459856,-1.2285119480099023,-0.49279426308360236,-0.1824820045849169,-1.1292312540791687,1,right
11.302999999999999,-0.8757520714363294,0.5471070632329542,0.14173667271057452,-0.9085821781576744,2.5028903751900273,-1.2207377051384447,-0.488587921606252,-0.18003446909906,-1.1123612799700984,1,right
11.304,-0.8722844716150127,0.5415066626974273,0.14480421942677138,-0.9405277306766499,2.481099965691365,-1.2119714508696615,-0.48408900363914825,-0.17764906325811494,-1.0951918507124316,1,right
11.309000000000001,-0.8687030476383457,0.5359784207165618,0.1478028480925436,-0.9717205687059891,2.4580257624545143,-1.202215937449292,-0.47929941725494235,-0.1753255019494701,-1.0777239338238827,1,right
11.309000000000001,-0.8650101137649993,0.5305250195450574,0.15073099879553598,-1.002130057836351,2.4336695638186128,-1.1914753383052084,-0.4742213774918814,-0.17306338661218398,-1.0599584811957572,1,right
11.312999999999999,-0.8612080743611894,0.5251490748395995,0.1535872088731019,-1.0317260935156167,2.408033963459501,-1.1797552385280796,-0.4688573950856958,-0.1708622137181285,-1.0418964252248037,1,right
11.314,-0.8572994304804012,0.5198531387990232,0.15637010983047814,-1.060479168809171,2.381122366914023,-1.167062621697565,-0.4632102642430935,-0.1687213837139713,-1.02353867478249,1,right
11.315,-0.8532867860546482,0.5146397031944788,0.15907842418241191,-1.0883604455598366,2.3529390080704604,-1.1534058530231963,-0.45728304981717177,-0.1666402102054101,-1.0048861113560623,1,right
11.318,-0.8491728536203179,0.5095112022502649,0.1617109622480189,-1.1153418290324133,2.32348896555146,-1.138794658766292,-0.4510790743691977,-0.16461792909454845,-0.9859395858233669,1,right
11.319,-0.84496045950001,0.5044700153358752,0.1642666189363097,-1.1413960461253678,2.2927781789121555,-1.1232401019064633,-0.4446019054754341,-0.16265370745217378,-0.9666999161940903,1,right
11.323,-0.8406525483552489,0.4995184694270069,0.1667443705690343,-1.1664967272297018,2.2608134645725295,-1.106754554013497,-0.43785534341194615,-0.16074665203412156,-0.9471678864179965,1,right
11.324000000000002,-0.8362521870279019,0.49465884129318854,0.1691432717961996,-1.1906184916495162,2.2276025313935697,-1.089351663346667,-0.430843409224568,-0.15889581742177525,-0.9273442462314259,1,right
11.325,-0.8317625676024211,0.48989335937414585,0.17146245266321003,-1.213737035681434,2.193153995773905,-1.0710463195208086,-0.42357033316543025,-0.15710021378105737,-0.907229711986788,1,right
11.328,-0.8271870096409585,0.48522420531429444,0.1737011158838286,-1.2358292209808661,2.1574773960872937,-1.0518546156518158,-0.4160405434766747,-0.15535881423443118,-0.8868249684089408,1,right
11.329,-0.8225289615624458,0.48065351513213894,0.17585853436573398,-1.2568731600256051,2.120583206248533,-1.031793809211581,-0.40825865550122337,-0.15367056184059397,-0.8661306712215063,1,right
11.332,-0.8177920011507497,0.4761833800076567,0.17793404902942994,-1.2768482962990455,2.0824828482210314,-1.0108822824998125,-0.4002294610997177,-0.1520343761767014,-0.8451474505853451,1,right
11.333,-0.8129798351868365,0.4718158466771074,0.17992706694958657,-1.2957354782788184,2.043188703328474,-0.9891395030616279,-0.3919579183520052,-0.15044915951811805,-0.8238759152905695,1,right
11.339,-0.8080962982078996,0.46755291743253063,0.18183705982601517,-1.3135170271283132,2.002714122258755,-0.9665859840573343,-0.3834491415208309,-0.1489138026108417,-0.8023166576426494,1,right
11.339,-0.8031453504031434,0.4633965497322327,0.18366356276649667,-1.3301767981484298,1.9610734336507565,-0.9432432445243626,-0.3747083912546765,-0.14742719003189933,-0.7804702589823344,1,right
11.342,-0.7981310746613693,0.45934865543743375,0.18540617334506748,-1.3457002360437766,1.9182819511511209,-0.9191337694689411,-0.3657410650059974,-0.14598820513315772,-0.7583372957782822,1,right
11.344000000000001,-0.7930576727899412,0.455411099697611,0.18706455089119023,-1.3600744240543672,1.874355978824772,-0.8942809697227618,-0.3565526876404256,-0.1445957345641362,-0.7359183462304645,1,right
11.347000000000001,-0.7879294609281499,0.4515856995126004,0.1886384159663236,-1.3732881270006394,1.8293128147995972,-0.8687091414976315,-0.34714890221183914,-0.14324867236954847,-0.7132139973215893,1,right
11.347999999999999,-0.7827508641807439,0.44787422200328264,0.1901275499904776,-1.3853318282863645,1.7831707530223988,-0.8424434255688982,-0.3375354608775506,-0.1419459236574365,-0.690224852252963,1,right
11.352,-0.7775264105007067,0.444278382424934,0.19153179498682357,-1.3961977609007157,1.7359490829999584,-0.8155097660163098,-0.32771821592723027,-0.14068640783389513,-0.6669515382003849,1,right
11.352,-0.7722607238554646,0.4407998419597078,0.19285105341200132,-1.4058799324574354,1.687668087395866,-0.7879348684488976,-0.3177031108985619,-0.1394690614005144,-0.643394714324856,1,right
11.357000000000001,-0.7669585167168692,0.4374402053284918,0.1940852880318464,-1.414374144305683,1.6383490373505938,-0.7597461576384866,-0.30749617175202676,-0.138292840310795,-0.6195550799720589,1,right
11.357999999999999,-0.7616245819197349,0.43420101826608476,0.1952345217916258,-1.4216780047437634,1.5880141853892056,-0.730971734484517,-0.29710349807662684,-0.13715672188191647,-0.5954333829937546,1,right
11.362,-0.7562637839346373,0.43108376490552597,0.1962988376234766,-1.427790936363542,1.5366867557780501,-0.7016403322310194,-0.28653125429778903,-0.13605970625835873,-0.5710304281234226,1,right
11.363,-0.7508810495993548,0.42808986511737623,0.19727837813388968,-1.4327141775499475,1.4843909321888034,-0.6717812718548261,-0.2757856608581416,-0.1350008174239956,-0.5463470853376639,1,right
11.367,-0.7454813583521592,0.425220671847216,0.19817334511896945,-1.436450778156535,1.4311518425253147,-0.641424416542421,-0.2648729853413212,-0.13397910375939479,-0.5213842981340711,1,right
11.368,-0.7400697320099735,0.42247746848927764,0.19898399886438511,-1.4390055893746783,1.376995540765855,-0.6106001251712279,-0.2537995335084521,-0.13299363814117024,-0.4961430916554654,1,right
11.370999999999999,-0.7346512241348461,0.41986146632763216,0.1997106572018603,-1.4403852478105403,1.3219489856705928,-0.579339204709624,-0.24257164021644267,-0.13204351758034344,-0.47062458058959333,1,right
11.372,-0.72923090903371,0.41737380207118385,0.20035369431387867,-1.440598153780568,1.266040016201411,-0.547672861448539,-0.23119566018676263,-0.13112786239677623,-0.4448299767725746,1,right
11.377,-0.7238138704405038,0.4150155355061847,0.2009135392980022,-1.4396544438328578,1.2092973234985436,-0.5156326509761536,-0.2196779585929041,-0.13024581492684226,-0.41876059642359126,1,right
11.378,-0.7184051899366313,0.4127876472893821,0.20139067451600653,-1.437565957498384,1.1517504192559627,-0.48325042680596264,-0.20802490143428526,-0.12939653776160587,-0.39241786693751435,1,right
11.380999999999998,-0.7130099351728053,0.4106910369042898,0.2017856337579517,-1.4343461982727164,1.093429600334961,-0.4505582875673006,-0.19624284566393027,-0.12857921151287596,-0.36580333316136865,1,right
11.382,-0.7076331479579314,0.408726520800971,0.20209900024749392,-1.4300102888255422,1.034365909452992,-0.41758852266635527,-0.18433812905548402,-0.1277930321190258,-0.33891866310447205,1,right
11.383,-0.7022798322740457,0.4068948307355933,0.20233140450547074,-1.4245749204320233,0.9745910917825112,-0.38437355632471326,-0.17231705988789386,-0.12703720777469615,-0.31176565315491805,1,right
11.388,-0.6969549422622423,0.40519661232049964,0.202483522079539,-1.4180582966167725,0.9141375472923494,-0.35094588990159076,-0.16018590669341046,-0.12631095569842998,-0.28434623309680024,1,right
11.388,-0.6916633702147948,0.40363242379091774,0.2025560711422844,-1.4104800709980259,0.8530382786620092,-0.31733804240510693,-0.14795088840736992,-0.12561349902450814,-0.25666247134542014,1,right
11.390999999999998,-0.6864099346103067,0.4022027349922858,0.20254980995906383,-1.4018612793164396,0.7913268345972376,-0.2835824890972516,-0.1356181651647227,-0.12494406403321141,-0.22871658069333003,1,right
11.392000000000001,-0.6811993682338799,0.4009079265913378,0.20246553422965535,-1.3922242656298287,0.7290372483732805,-0.249711598096588,-0.12319382982026753,-0.12430187780397949,-0.2005109246367884,1,right
11.392999999999999,-0.6760363064239864,0.3997482895128925,0.20230407431524586,-1.38159260281512,0.6662039715954163,-0.21575756498459642,-0.11068390017608817,-0.1236861663038881,-0.17204802422782733,1,right
11.397,-0.6709252754819947,0.3987240246026169,0.2020662923723172,-1.369991008330754,0.6028618039898451,-0.1817523459330468,-0.09809431188077715,-0.12309615290951995,-0.14333056537165642,1,right
11.398,-0.6658706812743427,0.39783524251494423,0.20175307942401421,-1.3574452576567781,0.539045821521781,-0.14772759079089015,-0.08543091196476774,-0.12253105736038243,-0.11436140648838103,1,right
11.401,-0.6608767980595245,0.3970819638259262,0.20136535240906897,-1.3439820986419793,0.4747913059612689,-0.11371457808082784,-0.07269945297584948,-0.12199009514210193,-0.08514358645727421,1,right
11.402000000000001,-0.655947757585982,0.39646411937197407,0.2009040512588836,-1.3296291691696556,0.4101336781905484,-0.07974415334366154,-0.05990558767871308,-0.1214724772976982,-0.0556803327611112,1,right
11.405999999999999,-0.6510875385243257,0.3959815508140532,0.20037013605601575,-1.3144149190839993,0.345108436060001,-0.04584667134703666,-0.04705486428215859,-0.12097741066531349,-0.02597506974735223,1,right
11.407,-0.6462999563085712,0.39563401142242516,0.19976458431607239,-1.2983685365014614,0.2797510967732163,-0.012051942163316743,-0.03415272215740497,-0.1205040985408409,0.003968573077754517,1,right
11.41,-0.6415886534653349,0.3954211670726026,0.19908838841664156,-1.2815198784659272,0.2140971436155114,0.021610818980933887,-0.021204488010759547,-0.12005174176396316,0.034146752806782386,1,right
11.411,-0.6369570905095671,0.39534259744115674,0.19834255317841412,-1.2638994059040636,0.14818197683917925,0.05511303818117328,-0.008215372473742497,-0.1196195402261779,0.06455540502577568,1,right
11.415999999999999,-0.6324085374815676,0.3953977973904314,0.19752809358606582,-1.2455381228348008,0.08204086851778726,0.08842682575383119,0.004809532926386702,-0.11920669479944808,0.0951902359319509,1,right
11.417,-0.6279460661939802,0.3955861785335569,0.19664603262343,-1.2264675197846149,0.01570892118099745,0.12152501565462728,0.017865258452886407,-0.11881240968417633,0.1260467147611348,1,right
11.422,-0.6235725432509471,0.3959070709744333,0.1956973991953742,-1.2067195213580575,-0.05077896995937371,0.15438120151244097,0.030946958539876827,-0.11843589517525996,0.157120066612286,1,right
11.423,-0.6192906238958351,0.3963597252200626,0.1946832261171524,-1.186326437910855,-0.11738815138198534,0.18696976937437612,0.044049913904177306,-0.11807637084503857,0.18840526575709632,1,right
11.425999999999998,-0.615102746738908,0.3969433142644122,0.19360454816298744,-1.1653209212708608,-0.18408424241777108,0.21926592725704597,0.05716953342613205,-0.11773306914200041,0.21989702952330362,1,right
11.427,-0.6110111294113093,0.39765693584449,0.19246240017338212,-1.1437359244501986,-0.2508331633918342,0.25124573159840996,0.07030135583699434,-0.11740523940416382,0.25158981284097093,1,right
11.43,-0.6070177651864062,0.3984996148695329,0.19125781522540314,-1.1216046652900824,-0.3176011609367154,0.28288611070372793,0.08344105125050079,-0.11709215228609941,0.28347780354159463,1,right
11.43,-0.6031244206031345,0.3994703060214462,0.18999182287365396,-1.098960593978045,-0.38435483066855997,0.3141648852783576,0.09658442257631494,-0.11679310459860515,0.3155549185004971,1,right
11.435,-0.5993326341164635,0.4005678965187487,0.1886654474720165,-1.0758373643756323,-0.451061137417863,0.345060786139216,0.10972740685305539,-0.11650742456009093,0.34781480071353615,1,right
11.436,-0.5956437157865893,0.4017912090275352,0.18727970658713816,-1.0522688090930659,-0.5176874332065284,0.3755534691957502,0.12286607653864592,-0.1162344774587718,0.3802508173997241,1,right
11.44,-0.5920587480021599,0.4031390046916616,0.1858356095142686,-1.028288918245888,-0.5842014731629352,0.40562352779022864,0.13599664079573667,-0.11597367172480937,0.4128560592218914,1,right
11.440999999999999,-0.5885785872151543,0.40460998624311395,0.18433415590536342,-1.0039318218272413,-0.65057142956657,0.4352525024860634,0.1491154468099439,-0.11572446541157912,0.4456233407180547,1,right
11.446,-0.5852038666473184,0.406202801146034,0.18277633451875813,-0.9792317756281458,-0.716765904213557,0.46442288839172047,0.16221898117864417,-0.11548637308527851,0.4785452020366552,1,right
11.447000000000001,-0.5819349999120907,0.40791604472555565,0.18116312209794183,-0.9542231506369636,-0.7827539392940924,0.4931181401065598,0.1753038714080357,-0.11525897312212532,0.5116139120693165,1,right
11.45,-0.578772185484385,0.4097482632354201,0.17949548238291954,-0.9289404258481487,-0.84850502697238,0.5213226743736854,0.18836688753983868,-0.1150419153969839,0.5448214730359273,1,right
