time,gFx,gFy,gFz,ax,ay,az,wx,wy,wz,subject_number,foot
7.781000000000001,-0.14591240274313982,0.9683741571123058,-0.1359661703818748,0.5660885041945007,0.34013931685089066,-0.34200771690420256,-0.20519895631764637,-0.5958243025426323,-0.27941616176075934,1,right
7.785,-0.14595324848645383,0.9682595022083876,-0.13535317849616194,0.5558153389442388,0.33860559699434895,-0.3436652490434184,-0.20528091509895227,-0.5903312962247346,-0.2788524669587295,1,right
7.787000000000001,-0.1459949570809344,0.9681470021526317,-0.13473753331106675,0.545888436035803,0.3370816072458635,-0.34548300333958865,-0.20537963110618765,-0.5847920563264271,-0.2782748077568098,1,right
7.79,-0.14603733002217953,0.968036880027143,-0.1341205064654434,0.5363180481124421,0.33556645591826445,-0.3474549061278462,-0.2054968318286908,-0.5792092098536955,-0.2776848484018315,1,right
7.791,-0.14608007578383791,0.9679293774422116,-0.13350342130093523,0.5271135932188056,0.3340592590419447,-0.34957467770526773,-0.2056342413028027,-0.5735854914636744,-0.2770842310522284,1,right
7.796,-0.14612281092175294,0.9678247560680092,-0.132887648779193,0.5182836487340348,0.33255913978968055,-0.3518358544390823,-0.20579357915144778,-0.5679237395430414,-0.27647457568104267,1,right
7.797000000000001,-0.14616506168758184,0.9677232992184202,-0.13227460299114766,0.5098359477779709,0.3310652281274566,-0.3542318107150571,-0.20597655958496744,-0.5622268919039893,-0.27585748017421025,1,right
7.8,-0.14620626613986537,0.9676253134709928,-0.13166573626572864,0.5017773780640524,0.32957666068696434,-0.3567557807321371,-0.2061848903636045,-0.5564979810816263,-0.27523452062240333,1,right
7.801,-0.14624577673654268,0.9675311303085913,-0.13106253389339118,0.494113983173554,0.32809258085546245,-0.359400880149819,-0.20642027172210003,-0.5507401292165456,-0.27460725180468293,1,right
7.803999999999999,-0.1462828633895861,0.9674411077712665,-0.1304665084883243,0.48685096622691415,0.3266121390787059,-0.3621601275951287,-0.20668439525693208,-0.5449565425062071,-0.2739772078621911,1,right
7.805,-0.14631671695898998,0.9673556321094772,-0.12987919401783368,0.47999269592901406,0.32513449337266503,-0.3650264660364375,-0.20697894277679785,-0.5391505052086776,-0.27334590316009727,1,right
7.81,-0.14634645315782133,0.9672751194302063,-0.12930213952701486,0.47354271496640343,0.32365881003976993,-0.3679927840317014,-0.20730558511702013,-0.5333253731821985,-0.27271483333599994,1,right
7.811,-0.14637111683104223,0.9672000173262512,-0.12873690258614381,0.4675037507356193,0.32218426458542493,-0.3710519368590344,-0.2076659809186396,-0.5274845669439711,-0.2720854765329768,1,right
7.814,-0.14638968655993737,0.9671308064767496,-0.12818504249191298,0.46187772838290214,0.3207100428305475,-0.37419676753783476,-0.20806177537304307,-0.5216315642314886,-0.2714592948154732,1,right
7.815,-0.14640107953410195,0.9670680022028779,-0.12764811326130068,0.456665786136787,0.3192353422158896,-0.37742012774896966,-0.20849459893306932,-0.5157698920496888,-0.2708377357662186,1,right
7.819,-0.14640415662552456,0.967012155956298,-0.12712765646460833,0.45186829291622527,0.31775937329390375,-0.38071489866279296,-0.2089660659916317,-0.5099031181871535,-0.2702222342623678,1,right
7.82,-0.1463977275955114,0.9669638567113806,-0.12662519394998709,0.4474848681980767,0.3162813614039175,-0.38407401168401245,-0.2094777735289977,-0.5040348421845506,-0.26961421442906897,1,right
7.825,-0.14638055636678426,0.9669237322281159,-0.12614222051644253,0.4435144041290013,0.31480054852637834,-0.38749046912265284,-0.21003129972997275,-0.49816868573848677,-0.26901509176867794,1,right
7.8260000000000005,-0.14635136629948386,0.966892450151844,-0.1256801965964152,0.43995508986796733,0.31331619531192645,-0.39095736480056387,-0.21062820257234594,-0.49230828252392406,-0.2684262754638525,1,right
7.829,-0.14630884541691122,0.9668707189175948,-0.1252405410127804,0.4368044381467813,0.3118275832810486,-0.39446790460310743,-0.21127001838807077,-0.48645726741831097,-0.26784917085278365,1,right
7.829,-0.14625165153127903,0.9668592884302706,-0.12482462387878047,0.43405931403722925,0.310334017190057,-0.398015426985825,-0.2119582603981241,-0.4806192651347593,-0.2672851820726054,1,right
7.83,-0.14617841722374117,0.9668589504978401,-0.12443375970980775,0.4317159659145997,0.3088348275591283,-0.40159342344602844,-0.21269441721885576,-0.47479787839249493,-0.26673571485585595,1,right
7.835,-0.1460877546408079,0.9668705390032502,-0.1240692008107336,0.42977005860853057,0.3073293733581235,-0.4051955589693867,-0.2134799513319133,-0.468996675970419,-0.26620217944473834,1,right
7.836,-0.14597826007940576,0.9668949298104885,-0.12373213099872699,0.4282167087332849,0.30581704484589783,-0.4088156924616828,-0.21431629750670494,-0.4632191811105339,-0.2656859935767656,1,right
7.841,-0.14584851834063212,0.9669330404099075,-0.12342365972387111,0.4270505221467898,0.30429726656147627,-0.41244789715718866,-0.21520486116775597,-0.45746886061715525,-0.265188585506618,1,right
7.8420000000000005,-0.14569710683790524,0.9669858293162036,-0.1231448166475659,0.426265633269282,0.3027695004788736,-0.4160864809010637,-0.21614701670531355,-0.45174911478030805,-0.26471139704924473,1,right
7.8420000000000005,-0.14552259945218057,0.9670542952377812,-0.12289654672313502,0.42585574559819767,0.30123324936147733,-0.41972600603385307,-0.21714410573095388,-0.44606326813089286,-0.2642558866404886,1,right
7.843999999999999,-0.14532357013698655,0.9671394760398654,-0.12267970580289869,0.42581417253742554,0.2996880603653096,-0.4233613085120889,-0.21819743528074786,-0.4404145610111102,-0.263823532413809,1,right
7.845,-0.1450985962890319,0.967242447527046,-0.12249505678151561,0.4261338778797678,0.29813352892704154,-0.42698751599312207,-0.21930827596869476,-0.4348061419437185,-0.26341583529173573,1,right
7.849,-0.14484626191414743,0.9673643220708114,-0.12234326627532711,0.4268075156778601,0.2965693029484515,-0.43060006478170343,-0.22047786009329073,-0.4292410607837997,-0.2630343220907471,1,right
7.851,-0.14456516063015343,0.9675062471014466,-0.12222490182707231,0.4278274694594908,0.2949950872755712,-0.43419471562992684,-0.22170737970026108,-0.42372226263681123,-0.2626805486383352,1,right
7.853,-0.14425389855522633,0.9676694034739555,-0.12214042961499064,0.42918589078822267,0.29341064846805337,-0.4377675684009408,-0.22299798460465015,-0.4182525825268199,-0.26235610290108835,1,right
7.854,-0.1439110971315514,0.9678550037086169,-0.12209021263758058,0.43087473717123526,0.29181581985426713,-0.44131507560679734,-0.22435078037563108,-0.41283474079893623,-0.2620626081227004,1,right
7.86,-0.14353539593011092,0.9680642901018216,-0.12207450934133919,0.4328858093173008,0.29021050686759753,-0.44483405483075705,-0.22576682628757008,-0.40747133924010237,-0.2618017259708918,1,right
7.86,-0.14312545547481537,0.9682985327029864,-0.12209347265909752,0.43521078774877964,0.2885946926593975,-0.4483217000443053,-0.22724713324105522,-0.40216485790252643,-0.2615751596923156,1,right
7.864,-0.14267996011423814,0.9685590271564196,-0.122147149431333,0.437841268772468,0.28696844398401095,-0.4517755918290648,-0.2287926616577782,-0.3969176526142037,-0.26138465727460786,1,right
7.865,-0.14219762095770055,0.9688470924107827,-0.12223548019083917,0.4407687998150581,0.28533191735125457,-0.45519370651370694,-0.2304043193533393,-0.39173195316112325,-0.2612320146148371,1,right
7.869,-0.14167717887996673,0.9691640683029248,-0.12235829929926709,0.44398491412987223,0.28368536544171735,-0.4585744242358765,-0.23208295939222975,-0.38660986212592185,-0.26111907869370543,1,right
7.87,-0.14111740758627722,0.9695113130270256,-0.12251533542890995,0.44748116488240747,0.2820291437802059,-0.4619165359390468,-0.23382937792943373,-0.38155335436791427,-0.26104775075495856,1,right
7.872999999999999,-0.14051711671815834,0.9698902005031695,-0.12270621238265449,0.45124915862308485,0.280363717662635,-0.46521924931412145,-0.23564431204328154,-0.37656427712960794,-0.26101998948956906,1,right
7.874,-0.13987515497209357,0.970302117661471,-0.12293045023949267,0.45528058815642247,0.2786896693316344,-0.46848219369549193,-0.2375284375643782,-0.37164435075499325,-0.26103781422437367,1,right
7.877999999999999,-0.1391904131988074,0.9707484616593194,-0.12318746680559817,0.45956726481665894,0.27700770539611447,-0.47170542392115,-0.23948236690562566,-0.3667951700050855,-0.2611033081149634,1,right
7.879,-0.13846182744995988,0.9712306370505469,-0.12347657934711914,0.46410115016063314,0.27531866449000764,-0.4748894231663422,-0.2415066468985543,-0.36201820595639145,-0.26121862134275126,1,right
7.885,-0.13768838194070407,0.9717500529257198,-0.12379700658319222,0.46887438708948465,0.2736235251653785,-0.47803510476014055,-0.24360175664137712,-0.3573148084681689,-0.2613859743162729,1,right
7.886,-0.136869111901243,0.972308120041054,-0.1241478709226154,0.4738793304114716,0.27192341401507203,-0.48114381299418935,-0.24576810536438143,-0.35268620920455357,-0.26160766087691345,1,right
7.8870000000000005,-0.1360031062980591,0.9729062479489067,-0.12452820092947342,0.47910857685891345,0.2702196140200503,-0.4842173229327774,-0.24800603031847393,-0.34813352519783175,-0.2618860515093962,1,right
7.888,-0.13508951041421133,0.9735458421361931,-0.1249369340000872,0.4845549945729546,0.2685135731165503,-0.4872578392332745,-0.2503157946928991,-0.3436577629393509,-0.2622235965575195,1,right
7.894,-0.13412752828679422,0.9742283011703565,-0.12537291922766847,0.4902117520705115,0.2668069129781816,-0.49026799398586723,-0.2526975855683545,-0.33925982298477314,-0.2626228294457825,1,right
7.895,-0.13311642500853482,0.9749550138473375,-0.12583492042330793,0.49607234670840894,0.26510143800807257,-0.4932508435814279,-0.25515151191193297,-0.33494050506059586,-0.26308636990770656,1,right
7.898,-0.1320555289100461,0.975727356333001,-0.12632161925264349,0.5021306326603381,0.26339914453616703,-0.49620986461625666,-0.25767760262052725,-0.33070051365908315,-0.2636169272218256,1,right
7.899,-0.1309442336478278,0.9765466892886054,-0.1268316184393023,0.5083808484228715,0.26170223021677347,-0.4991489488423509,-0.2602758046173355,-0.3265404641027006,-0.26421730345073186,1,right
7.9,-0.12978200022676747,0.9774143549720032,-0.12736344498553076,0.5148176438673586,0.2600131036214712,-0.5020723971717787,-0.2629459809952938,-0.3224608890279961,-0.2648903966499054,1,right
7.902,-0.12856835898471372,0.9783316743086199,-0.12791555336989643,0.5214361068550935,0.2583343940224877,-0.5049849127436647,-0.26568790918163365,-0.31846224518262056,-0.26563920396134,1,right
7.903,-0.12730291156852971,0.9792999439277404,-0.12848632869365206,0.5282317894336969,0.2566689613616782,-0.507891593062242,-0.26850127908694893,-0.3145449203980371,-0.2664668244783376,1,right
7.907,-0.12598533294153028,0.9803204331587206,-0.1290740897544029,0.5352007336331954,0.2550199064002601,-0.5107979212143752,-0.27138569121338474,-0.3107092406320722,-0.2673764617968929,1,right
7.9079999999999995,-0.12461537347602337,0.9813943809805695,-0.12967709203164812,0.5423394968807993,0.2533905810444864,-0.5137097561749379,-0.2743406547165995,-0.3069554770321726,-0.2683714262212189,1,right
7.9079999999999995,-0.12319286119207287,0.9825229929198237,-0.13029353057596615,0.5496451770178454,0.25178459882936455,-0.5166333222037103,-0.277365585427379,-0.3032838530018394,-0.26945513662002907,1,right
7.912999999999999,-0.12171770419938828,0.9837074378951967,-0.13092154279673746,0.557115436722628,0.25020584547699537,-0.5195751973140187,-0.28045980384118563,-0.29969455125922223,-0.27063112193619704,1,right
7.914,-0.12018989338621407,0.9849488450109002,-0.13155921113853453,0.5647485268188928,0.24865848932812254,-0.5225423007511344,-0.28362253308413216,-0.2961877208770891,-0.2719030223526591,1,right
7.917999999999999,-0.11860950538594575,0.9862483003022176,-0.1322045656250491,0.5725433077700125,0.24714699137997015,-0.5255418793950316,-0.2868528968640674,-0.2927634842936257,-0.2732745901176809,1,right
7.917999999999999,-0.1169767058427394,0.9876068434354675,-0.1328555862367708,0.5804992688395734,0.24567611472910525,-0.5285814930256115,-0.2901499174156613,-0.2894219442837531,-0.27474969003287353,1,right
7.922000000000001,-0.11529175298619727,0.9890254643600801,-0.13351020508424669,0.5886165447240086,0.24425093333619458,-0.5316689984307884,-0.29351251344857315,-0.2861631908808893,-0.2763322996076217,1,right
7.9239999999999995,-0.1135550015081974,0.990505099906177,-0.13416630835103982,0.5968959296436226,0.24287684009520805,-0.5348125323613789,-0.29693949810798054,-0.2829873082393188,-0.27802650888387226,1,right
7.9270000000000005,-0.11176690671457677,0.9920466303194238,-0.13482173800704128,0.6053388889148598,0.2415595542028541,-0.5380204933415457,-0.300429576956939,-0.2798943814275708,-0.2798365199355295,1,right
7.928,-0.10992802890533547,0.9936508757257352,-0.1354742933204674,0.6139475680271411,0.24030512782416494,-0.5413015223436796,-0.3039813459902288,-0.2768845031434444,-0.28176664604701124,1,right
7.932,-0.108039037922979,0.9953185925212511,-0.13612173221235546,0.6227247992480534,0.2391199520502961,-0.5446644823367724,-0.3075932896895309,-0.2739577803415579,-0.28382131057584353,1,right
7.933,-0.10610071780020537,0.9970504696884623,-0.13676177249705448,0.6316741057811512,0.23801076214476904,-0.548118436717512,-0.3112637791299557,-0.2711143407645363,-0.2860050455045016,1,right
7.937,-0.10411397143337463,0.9988471250465532,-0.13739209304289499,0.6407997035011097,0.23698464207456768,-0.5516726266335447,-0.314991070148124,-0.2683543393691927,-0.28832248968705193,1,right
7.938,-0.10207982520608833,1.0007091014501492,-0.138010334878965,0.6501065002914468,0.2360490283226979,-0.555336447208586,-0.3187733015821737,-0.26567796463929383,-0.2907783867965076,1,right
7.942,-0.09999943348849306,1.002636862954595,-0.1386141022728081,0.659600093010537,0.23521171297903928,-0.5591194226793225,-0.32260849359423144,-0.2630854447767431,-0.29337758297918004,1,right
7.942,-0.09787408294298053,1.004630790969194,-0.13920096380928013,0.6692867621121408,0.23448084610655737,-0.5630311804543328,-0.326494546086054,-0.2605770537632523,-0.2961250242226953,1,right
7.947,-0.09570519657526422,1.0066911804233003,-0.13976845350729314,0.6791734639471961,0.23386493738020497,-0.5670814241055759,-0.3304292372186999,-0.2581531172848142,-0.29902575344473953,1,right
7.9479999999999995,-0.0934943374802196,1.008818235972213,-0.1403140720128611,0.6892678207741612,0.2333728569961254,-0.5712799053033346,-0.3344102220472441,-0.2558140185115284,-0.3020849073100118,1,right
7.9510000000000005,-0.09124321224233423,1.0110120682697736,-0.14083528790138314,0.6995781085057484,0.2330138358490758,-0.5756363947058705,-0.3384350312816948,-0.2535602037255762,-0.30530771278328805,1,right
7.952000000000001,-0.08895367395912157,1.013272690333047,-0.14132953911195234,0.7101132422204691,0.2327974649763209,-0.5801606518154492,-0.34250107018541076,-0.2513921877903812,-0.30869948342693954,1,right
7.956,-0.08662772486221311,1.0156000140214767,-0.14179423452712522,0.7208827594680042,0.23273369426660262,-0.5848623938128167,-0.3466056176224499,-0.24931055945423708,-0.3122656154517051,1,right
7.957000000000001,-0.08426751851586808,1.0179938466479472,-0.14222675570710785,0.7318968013980394,0.23283283043317604,-0.5897512633826629,-0.35074582526540543,-0.24731598648192935,-0.31601158352998804,1,right
7.961,-0.08187536157623718,1.0204538877335056,-0.14262445878784352,0.7431660917428505,0.2331055342503101,-0.5948367955430911,-0.3549187169754051,-0.24540922060812392,-0.3199429363814318,1,right
7.962000000000001,-0.07945371509632725,1.022979725913532,-0.1429846765553288,0.7547019136845974,0.23356281705309365,-0.6001283834926193,-0.3591211883660586,-0.24359110230654457,-0.3240652921410311,1,right
7.966,-0.07700519536134101,1.025570836001657,-0.14330472070980074,0.766516084638991,0.23421603650085315,-0.6056352434887807,-0.3633500065632395,-0.24186256536921025,-0.3283843335205521,1,right
7.9670000000000005,-0.0745325742382963,1.028226576217215,-0.1435818843304353,0.7786209289877313,0.23507689160499018,-0.6113663787729507,-0.36760181016962673,-0.24022464128880683,-0.33290580276865916,1,right
7.968,-0.07203877902477734,1.0309461855814792,-0.14381344454515835,0.7910292487928798,0.2361574170225762,-0.6173305425566231,-0.37187310942773005,-0.2386784634302737,-0.3376354964061625,1,right
7.97,-0.06952689178495611,1.0337287814877378,-0.14399666540492972,0.8037542925271354,0.23746997661760688,-0.6235362000849732,-0.37616028654768996,-0.2372252709648939,-0.3425792596601986,1,right
7.971,-0.06700014816522547,1.0365733574500902,-0.14412880095870392,0.816809721854811,0.23902725629241442,-0.6299914897941927,-0.38045959615092245,-0.23586641253318838,-0.3477429804922047,1,right
7.975,-0.06446193568607096,1.0394787810350208,-0.14420709852302896,0.8302095764991878,0.24084225609236884,-0.636704183579746,-0.38476716579601994,-0.2346033496104283,-0.3531325831446817,1,right
7.976,-0.06191579151106506,1.0424437919788445,-0.1442288021390165,0.8439682372525629,0.24292828158232024,-0.6436816462384015,-0.38907899658087597,-0.23343765956189355,-0.358754021185517,1,right
7.977,-0.05936539969691379,1.0454670004939355,-0.1441911562104359,0.8581003872849198,0.2452989344672075,-0.6509307943726447,-0.39339096383031874,-0.23237103838252826,-0.36461327005880695,1,right
7.981,-0.056814587929552685,1.0485468857673528,-0.14409140932021566,0.8726209720857269,0.24796810238188693,-0.6584580554518863,-0.39769881788161954,-0.2314053031173676,-0.3707163191576756,1,right
7.982,-0.05426732375209254,1.0516817946562262,-0.14392681822747808,0.8875451584730619,0.2509499477492829,-0.6662693279506806,-0.40199818498025464,-0.2305423939593911,-0.37706916343525076,1,right
7.986000000000001,-0.05172771029231092,1.0548699405840891,-0.14369465205111537,0.9028882930066736,0.25425889563351084,-0.6743699432599046,-0.4062845682982973,-0.22978437602174231,-0.38367779457064205,1,right
7.987,-0.04919998149848464,1.0581094026417983,-0.1433921966470392,0.9186658599651223,0.2579096205635953,-0.6827646296625819,-0.410553349087807,-0.22913344078154446,-0.3905481917074676,1,right
7.99,-0.046688496890550615,1.0613981248969178,-0.1430167591848819,0.9348934389496352,0.261917032331034,-0.6914574784418102,-0.4147997879815562,-0.22859190719283778,-0.3976863117831906,1,right
7.9910000000000005,-0.04419773583008148,1.0647339159158806,-0.14256567292784872,0.9515866621587855,0.2662962607707459,-0.7004519121440725,-0.4190190264533994,-0.2281622224664657,-0.4050980794682646,1,right
7.995,-0.041732291310365585,1.068114448502838,-0.1420363022179209,0.9687611713793569,0.27106263953592163,-0.709750655022058,-0.4232060884505361,-0.22784696251504488,-0.41278937673483684,1,right
7.996,-0.03929686326826487,1.0715372596585035,-0.14142604766733208,0.9864325747400418,0.27623168887832233,-0.7193557056819709,-0.4273558822098571,-0.2276488320614686,-0.4207660320755282,1,right
8.0,-0.036896251422038936,1.0749997507624514,-0.14073235155506988,1.0046164032759632,0.2818190974466394,-0.7292683119611719,-0.4314632022704835,-0.22757066440971466,-0.4290338093935951,1,right
8.001,-0.03453534764395732,1.0784991879831711,-0.13995270342406255,1.0233280673533924,0.2878407031166422,-0.73948894806287,-0.4355227316945164,-0.22761542087705838,-0.43759839658657956,1,right
8.006,-0.03221912788256455,1.0820327029210424,-0.13908464587190963,1.0425828130054604,0.2943124728679959,-0.7500172939754605,-0.4395290445079064,-0.22778618988712704,-0.4464653938463766,1,right
8.006,-0.029952643654505003,1.0855972934900315,-0.1381257805269241,1.062395678231133,0.3012504817238344,-0.7608522172049851,-0.4434766083732319,-0.2280861857235779,-0.45564030169948067,1,right
8.01,-0.027741013128482806,1.0891898250448941,-0.13707377420187664,1.0827814493112367,0.30867089077042265,-0.7719917568500744,-0.447359787506035,-0.22851874694453495,-0.46512850881202716,1,right
8.011000000000001,-0.02558941182471589,1.092807031762089,-0.1359263652180646,1.10375461719688,0.31658992427553306,-0.7834331100496179,-0.4511728458462137,-0.22908733445828214,-0.4749352795851147,1,right
8.014,-0.023503062953004732,1.0964455182834916,-0.13468136989031562,1.1253293340272226,0.325023845925503,-0.7951726208342806,-0.4549099504957975,-0.2297955292610816,-0.4850657415667754,1,right
8.015,-0.02148722741298593,1.100101761631401,-0.13333668915967442,1.147519369835184,0.3339889342023244,-0.8072057714138617,-0.4585651754342498,-0.2306470298383672,-0.49552487270786155,1,right
8.02,-0.019547193483693093,1.103772113400503,-0.13189031535593715,1.1703380695013723,0.3435014569235504,-0.8195271759333566,-0.4621325055222381,-0.2316456492309549,-0.5063174884900337,1,right
8.021,-0.017688266236665667,1.1074528022263819,-0.13034033906708403,1.1937983100182414,0.3535776449692822,-0.8321305767314353,-0.46560584080459533,-0.23279531176831159,-0.5174482289549605,1,right
8.024,-0.015915756715334902,1.111139936520608,-0.12868495608622954,1.217912458128252,0.3642336652220252,-0.8450088431358956,-0.4689790011229594,-0.2341000494713373,-0.5289215456647894,1,right
8.025,-0.014234970931049216,1.1148295074504033,-0.12692247439785292,1.2426923284016145,0.3754855927467769,-0.8581539728314711,-0.47224573104832684,-0.23556399812753806,-0.540741688624901,1,right
8.029,-0.01265119873234008,1.1185173921286196,-0.12505132115362075,1.2681491418210384,0.3873493822403271,-0.8715570958361871,-0.4753997051434832,-0.2371913930419001,-0.5529126932009316,1,right
8.03,-0.011169702609951348,1.12219935696962,-0.12307004957573119,1.2942934849427854,0.39984083878041743,-0.8852084811232431,-0.47843453356498905,-0.23898656446722355,-0.5654383670630361,1,right
8.033999999999999,-0.009795706506428843,1.1258710611616098,-0.12097734571618271,1.3211352697052352,0.4129755879071177,-0.8990975459261624,-0.48134376800942374,-0.2409539327107094,-0.5783222771844575,1,right
8.035,-0.008534384701778338,1.1295280602094888,-0.11877203499947463,1.3486836939581202,0.42676904507053476,-0.9132128677656954,-0.4841209079849228,-0.24309800287696656,-0.5915677368880099,1,right
8.036,-0.007390850843317756,1.1331658095135095,-0.11645308848589556,1.3769472027875522,0.4412363844807729,-0.9275421992376671,-0.48675940734669265,-0.24542335914130917,-0.6051777928730477,1,right
8.04,-0.0063701471886293045,1.1367796679599793,-0.11401962880393782,1.4059334507139765,0.4563925073979108,-0.9420724856016464,-0.48925268101148156,-0.24793465841061121,-0.6191552121220482,1,right
8.041,-0.005477234145316779,1.140364901505911,-0.11147093570342395,1.4356492648422015,0.4722520099016531,-0.9567898852109584,-0.491594111788947,-0.2506366232665916,-0.6335024686214461,1,right
8.044,-0.0047169802085112005,1.1439166867439248,-0.1088064511786928,1.4661006090317223,0.4888291501804848,-0.9716797927702954,-0.4937770573094767,-0.2535340341537013,-0.6482217298944574,1,right
8.045,-0.0040941523964376485,1.1474301144406125,-0.10602578411370994,1.4972925490925892,0.5061378153733158,-0.9867268651333384,-0.49579485705094306,-0.2566317208114174,-0.6633148433791558,1,right
8.046,-0.0036134072651300866,1.150900193049415,-0.10312871441026966,1.5292292188971528,0.5241914879827464,-1.0019150488594024,-0.49764083947110355,-0.2599345529587162,-0.6787833226930234,1,right
8.049,-0.003279282565156449,1.1543218522067225,-0.10011519656945443,1.5619137872350994,0.5430032118723227,-1.0172276084741896,-0.4993083292519024,-0.26344743023906003,-0.6946283338262631,1,right
8.049,-0.003096189597039416,1.1576899462282573,-0.09698536269899048,1.5953484253063421,0.5625855578710759,-1.0326471546546028,-0.5007906546614572,-0.2671752714348059,-0.7108506813072344,1,right
8.052999999999999,-0.0030684063159486857,1.160999257631358,-0.09373952491549116,1.6295342748654922,0.5829505890266506,-1.0481556720519178,-0.5020811550390188,-0.27112300296053565,-0.727450794384454,1,right
8.055,-0.003200071217827157,1.1642445007152717,-0.09037817710519622,1.664471417098811,0.6041098255593276,-1.063734546742386,-0.5031731884076798,-0.275295546645409,-0.7444287132706783,1,right
8.06,-0.0034951780119193638,1.1674203252346067,-0.08690199600477516,1.7001588423296912,0.6260742095732217,-1.079364593349522,-0.5040601392190753,-0.27969780681526024,-0.7617840754956721,1,right
8.061,-0.00395757105560356,1.170521320201328,-0.08331184156914913,1.7365944206508732,0.6488540695831828,-1.0950260818825894,-0.5047354262337711,-0.2843346566857887,-0.7795161024153547,1,right
8.064,-0.004590941498001141,1.1735420178488305,-0.0796087566071154,1.7737748735837646,0.6724590849182078,-1.1106987643359976,-0.5051925105404586,-0.289210924078841,-0.7976235859260901,1,right
8.065,-0.005398824049955079,1.1764768977880684,-0.07579396568572487,1.811695746867372,0.6968982500644845,-1.1263619010944665,-0.5054249037164938,-0.29433137647444213,-0.8161048754339804,1,right
8.068,-0.006384594272383686,1.179320391382192,-0.07186887332749732,1.8503513844815132,0.7221798390135281,-1.141994287188909,-0.5054261761317045,-0.2997007054119052,-0.8349578651300995,1,right
8.068999999999999,-0.00755146625568052,1.1820668863648403,-0.06783506154665234,1.8897349040111062,0.7483113696832414,-1.1575742784480085,-0.5051899653967635,-0.3053235102540398,-0.8541799816236797,1,right
8.075,-0.008902490551361013,1.1847107317280101,-0.06369428678656011,1.9298381734604608,0.7752995684821216,-1.1730798175904413,-0.5047099849567848,-0.31120428132917766,-0.8737681719863383,1,right
8.076,-0.010440552213851727,1.187246242905926,-0.0594484763267058,1.970651789628605,0.8031503350892597,-1.1884884603026071,-0.5039800328301296,-0.31734738246645056,-0.893718892261501,1,right
8.078,-0.01216836881582941,1.1896677072799777,-0.055099724224635147,2.012165058158769,0.8318687075252152,-1.2037774013465754,-0.5029940004917329,-0.32375703294048286,-0.9140280964942333,1,right
8.079,-0.014088488314929088,1.1919693900270676,-0.05065028685238198,2.0543659753772077,0.8614588275913075,-1.2189235007427428,-0.5017458818995553,-0.3304372888424022,-0.934691226337743,1,right
8.084,-0.01620328667016532,1.1941455403309298,-0.046102578083673025,2.0972412120385933,0.8919239067573441,-1.2339033100714187,-0.500229782662052,-0.3373920238948246,-0.9557032012938609,1,right
8.084,-0.018514965129403198,1.1961903979742912,-0.0414591641892159,2.1407760990971982,0.9232661925802937,-1.2486930989372085,-0.49843992934381376,-0.3446249097292362,-0.9770584096458317,1,right
8.088,-0.02102554713265982,1.1980982003301945,-0.03672275849857757,2.184954615625081,0.9554869357389166,-1.2632688816396558,-0.4963706789057801,-0.3521393956449703,-0.9987507001427628,1,right
8.089,-0.02373687479858373,1.1998631897728496,-0.03189621588348983,2.2297593790004053,0.9885863577718744,-1.2776064440931245,-0.4940165282756579,-0.35993868786976685,-1.0207733744960814,1,right
8.093,-0.02665060498190072,1.2014796215288344,-0.026982527108888932,2.2751716374909283,1.02256361960936,-1.2916813710383575,-0.4913721240433911,-0.3680257283427001,-1.0431191807493352,1,right
8.095,-0.02976820490682029,1.2029417719845679,-0.021984813089156435,2.3211712653595296,1.0574167909908103,-1.3054690735875307,-0.48843227227572567,-0.37640317304106796,-1.065780307583637,1,right
8.097999999999999,-0.0330909473939446,1.2042439474552664,-0.01690631908160772,2.367736760620453,1.093142820863786,-1.3189448171439404,-0.48519194844309493,-0.3850733698736555,-1.088748379622004,1,right
8.097999999999999,-0.036619905705526805,1.2053804934081047,-0.011750408848894375,2.41484524557668,1.1297375088616188,-1.3320837497367015,-0.4816463074512179,-0.3940383361636089,-1.1120144537967693,1,right
8.103,-0.04035594803764388,1.2063458041229622,-0.006520558826840194,2.4624724702705225,1.1671954779599503,-1.3448609308100121,-0.4777906937689538,-0.40329973574499267,-1.1355690168451433,1,right
8.104,-0.04429973169004952,1.207134332769715,-0.0012203523400538424,2.510592818981169,1.2055101484147752,-1.3572513605056469,-0.4736206516361959,-0.41285885572140285,-1.1594019839774636,1,right
8.104,-0.04845169694509146,1.2077406018806625,0.004146526094315878,2.5591793199044504,1.2446737130871133,-1.3692300094763634,-0.46913193530021274,-0.4227165830531665,-1.183502698656372,1,right
8.107000000000001,-0.05281206068639275,1.2081592141979973,0.009576296348739556,2.608203658151599,1.2846771142618965,-1.3807718492668801,-0.4643205191658672,-0.43287338135166836,-1.2078599332331335,1,right
8.107999999999999,-0.057380809791043735,1.2083848638739512,0.015065088149971732,2.6576361922051746,1.3255100220711242,-1.391851883297962,-0.4591826077097423,-0.4433292683775107,-1.232461890080965,1,right
8.113,-0.062157694342513364,1.2084123479911943,0.020608946447348515,2.7074459739716756,1.3671608146337755,-1.4024451784879728,-0.4537146450417857,-0.45408379462275794,-1.2572962029731505,1,right
8.113999999999999,-0.06714222073394657,1.2082365783577413,0.02620383672767996,2.7576007725053526,1.4096165599953985,-1.4125268975273244,-0.44791332405924816,-0.4651360231472169,-1.2823499386473165,1,right
8.113999999999999,-0.07233364475007587,1.2078525935239235,0.031845650330816065,2.8080671011476457,1.452862999792822,-1.4220723317315707,-0.4417755951712482,-0.47648451072225106,-1.3076095986050906,1,right
8.118,-0.07773096472174826,1.2072555709710664,0.03753020981563922,2.8588102472314842,1.4968845342840222,-1.4310569342384425,-0.4352986745782497,-0.48812729031302116,-1.333061121218452,1,right
8.12,-0.08333291485098178,1.2064408394228867,0.04325327441407882,2.9097943031694107,1.5416642082256249,-1.4394563532243043,-0.4284800520897793,-0.500061854930899,-1.3586898842147217,1,right
8.122,-0.08913795881831882,1.2054038912251266,0.049010545600649026,2.9609821980766364,1.5871836972426543,-1.4472464649023165,-0.42131749846274513,-0.5122851428886528,-1.384480707612727,1,right
8.124,-0.09514428379771724,1.2041403947328586,0.054797672797264406,3.0123357296772233,1.633423294625123,-1.454403406222031,-0.4138090722417463,-0.5247935244918432,-1.41041785718322,1,right
8.127,-0.10134979500405301,1.2026462066437633,0.06061025922367854,3.063815596573508,1.6803618986480862,-1.4609036072768335,-0.4059531260817785,-0.5375827902007104,-1.4364850485071454,1,right
8.127,-0.10775211088867523,1.200917384216448,0.06644386789243498,3.115381431025741,1.7279770005458863,-1.4667238234415523,-0.3977483125327574,-0.5506481402976564,-1.4626654517058129,1,right
8.132,-0.11434855908794453,1.198950197312716,0.07229402773612872,3.166991832389383,1.7762446732733723,-1.4718411672607439,-0.3891935892642845,-0.563984176096249,-1.4889416969174496,1,right
8.133,-0.12113617321982631,1.1967411402029207,0.07815623984642453,3.218604401357858,1.825139561188894,-1.4762331401062818,-0.38028822370808635,-0.5775848927284749,-1.5152958805949812,1,right
8.137,-0.1281116906140437,1.1942869430758405,0.08402598380011903,3.270175775158809,1.8746348707957994,-1.4798776636209168,-0.3710317970945533,-0.5914436735477666,-1.541709572700212,1,right
8.137,-0.1352715510529023,1.191584583198798,0.0898987240474603,3.3216616638520295,1.9247023626810402,-1.4827531109624608,-0.36142420785880175,-0.6055532861860973,-1.5681638248698506,1,right
8.142000000000001,-0.14261189659252005,1.188631295678396,0.09576991634071082,3.3730168878772404,1.9753123447912984,-1.4848383378611658,-0.3514656743906756,-0.6199058803042035,-1.5946391796290524,1,right
8.142999999999999,-0.15012857252659656,1.1854245837770467,0.10163501418550402,3.4241954169997766,2.026433667188748,-1.486112713500718,-0.3411567371020958,-0.6344929870747318,-1.621115680728312,1,right
8.147,-0.15781712954655233,1.1819622287473248,0.10748947530264345,3.4751504108019824,2.0780337184302287,-1.486556151231065,-0.33049825978415853,-0.649305520438826,-1.6475728846796673,1,right
8.148,-0.16567282714312515,1.1782422991549923,0.11332876809221273,3.5258342608677538,2.130078423715143,-1.48614913911902,-0.3194914302253739,-0.6643337801773662,-1.6739898735682222,1,right
8.152999999999999,-0.17369063828450035,1.1742631596695423,0.1191483780943206,3.5761986348071453,2.182532244948878,-1.4848727703402615,-0.30813776006143384,-0.679567456838748,-1.700345269215006,1,right
8.154,-0.18186525539235185,1.1700234793063913,0.12494381443881257,3.6261945222673186,2.2353581828698976,-1.4827087734139592,-0.29643908382589157,-0.6949956385657293,-1.7266172487671316,1,right
8.156,-0.1901910976183133,1.1655222391073607,0.13071061626580185,3.6757722830753345,2.2885177813899484,-1.479639542278818,-0.28439755717013665,-0.7106068198644997,-1.7527835617910912,1,right
8.157,-0.19866231939970067,1.1607587392459953,0.13644435908138133,3.724881697657356,2.3419711342979816,-1.4756481662068337,-0.2720156542200537,-0.7263889123597066,-1.7788215489448571,1,right
8.161,-0.2072728202446275,1.1557326055419388,0.14214066099757028,3.7734720198777945,2.3956768944794664,-1.4707184595485052,-0.25929616403576156,-0.7423292575797371,-1.8047081623042114,1,right
8.162,-0.21601625566355617,1.1504437953653195,0.14779518880202427,3.821492032440702,2.4495922858037154,-1.464834991300649,-0.24624218613984705,-0.7584146418170755,-1.8304199874184248,1,right
8.166,-0.22488604913123908,1.1448926029091437,0.153403663813513,3.868890104994386,2.503673117832697,-1.457983114485316,-0.23285712507852863,-0.7746313131090471,-1.8559332671700355,1,right
8.167,-0.23387540493619313,1.1390796638051803,0.15896186749636657,3.9156142550787196,2.5578738035055237,-1.450148995325615,-0.21914468397921724,-0.7909650003847123,-1.88122392751304,1,right
8.171,-0.24297732176113632,1.1330059590571417,0.16446564681992104,3.9616122120529873,2.612147379953404,-1.4413196422015133,-0.2051088570910134,-0.8074009347890334,-1.906267605115618,1,right
8.171,-0.25218460684630856,1.1266728182657144,0.1699109193528655,4.006831484140314,2.6664455326003176,-1.4314829343658928,-0.19075392141388972,-0.8239238730205328,-1.9310396766944473,1,right
8.172,-0.2614898906165967,1.1200819221234581,0.17529367807954668,4.051219428722793,2.7207186227050206,-1.4206276503983362,-0.1760844277376589,-0.8405181222034858,-1.955515289397769,1,right
8.176,-0.27088564167889667,1.1132353041627234,0.18060999591687144,4.0947233260193405,2.7749157185001905,-1.4087434963712508,-0.161105191531059,-0.8571675656407083,-1.9796693913551626,1,right
8.177,-0.28036418210195563,1.1061353517469399,0.18585602989967343,4.137290456276061,2.828984630084583,-1.395821133700047,-0.14582128400021185,-0.8738556889685244,-2.003476761749701,1,right
8.181000000000001,-0.28991770289426244,1.0987848063047014,0.1910280249985634,4.178868180503846,2.882871948172149,-1.381852206628323,-0.13023802341851523,-0.890565606551211,-2.02691204019656,1,right
8.181000000000001,-0.29953827961567453,1.0911867628126297,0.19612231754153334,4.219404024331986,2.936523086542511,-1.3668293692068758,-0.11436096670898224,-0.9072800881276603,-2.049949755449722,1,right
8.182,-0.3092178880875757,1.083344668533957,0.20113533822018764,4.258845763709724,2.9898823275700983,-1.3507463114618252,-0.09819590123513167,-0.9239815857581614,-2.072564353505116,1,right
8.185,-0.31894842018605846,1.0752623210205394,0.20606361466096443,4.297141510721468,3.0428928699493736,-1.3335977843549491,-0.08174883675567507,-0.9406522611192686,-2.0947302251674524,1,right
8.186,-0.32872169970726,1.066943865393235,0.21090377352995635,4.334239798241766,3.095496877992244,-1.315379623225492,-0.06502599749740251,-0.957274013194733,-2.116421733146887,1,right
8.192,-0.3385294982914678,1.0583937909265153,0.21565254213004723,4.370089662987145,3.147635532339639,-1.2960887695602044,-0.04803381429984199,-0.9738285064104414,-2.1376132387504216,1,right
8.193,-0.3483635513908121,1.049616926971331,0.22030674945338508,4.404640726982044,3.199249082187557,-1.2757232910245069,-0.030778916784457863,-0.9902971992612094,-2.158279128231664,1,right
8.198,-0.35821557426529754,1.0406184382543708,0.2248633266709453,4.437843277545293,3.2502768991785764,-1.2542823997024326,-0.013268125500361818,-1.0066613734771432,-2.178393838861203,1,right
8.199,-0.3680772779923608,1.0314038195946862,0.22931930706921494,4.469648345900035,3.30065753310848,-1.2317664684899272,0.004491556002263154,-1.0229021637770848,-2.197931884778428,1,right
8.2,-0.37794038547487185,1.021978890082622,0.23367182547985973,4.500007784506211,3.35032876959613,-1.2081770455830008,0.022492949220580066,-1.03900058825641,-2.216867882684094,1,right
8.201,-0.3877966474284509,1.012349786771094,0.23791811728837967,4.528874343210912,3.3992276898630545,-1.1835168669991392,0.04072870891964511,-1.0549375794561506,-2.2351765774313743,1,right
8.205,-0.3976378583169588,1.0025229579333887,0.24205551714289458,4.556201744307853,3.44729073276734,-1.1577898670672946,0.05919133157608812,-1.0706940161600522,-2.2528328675714646,1,right
8.205,-0.40745587218282175,0.9925051559436975,0.24608145750476343,4.581944756593079,3.4944537592343887,-1.1310011868186958,0.07787316409662368,-1.0862507559657766,-2.2698118309080835,1,right
8.21,-0.41724261828826537,0.9823034298367014,0.24999346718350354,4.606059268499725,3.5406521192248768,-1.1031571802076439,0.09676641286376327,-1.1015886686759873,-2.2860887501134184,1,right
8.211,-0.42699011645032936,0.9719251175991178,0.2537891699728621,4.6285023603902475,3.5858207213778464,-1.0742654180883977,0.11586315316175015,-1.1166886705545422,-2.3016391384561747,1,right
8.216000000000001,-0.4366904919247496,0.9613778382357334,0.2574662834490014,4.649232376079978,3.6298941054642806,-1.0443346898712076,0.13515533903636798,-1.1315317594924434,-2.3164387656904575,1,right
8.216000000000001,-0.44633598967861027,0.9506694836335666,0.26102261792216436,4.668208993661184,3.6728065177837323,-1.0133750027775223,0.15463481364288148,-1.1460990511275642,-2.330463684152191,1,right
8.22,-0.4559189878918864,0.9398082102223254,0.2644560754845504,4.68539329569202,3.71449198963363,-0.9813975786113937,0.17429332013695187,-1.1603718159614886,-2.3436902551076964,1,right
8.221,-0.46543201054171723,0.9288024304011405,0.2677646490919213,4.700747838809834,3.7548844189777237,-0.9484148479611129,0.19412251316393023,-1.1743315175160676,-2.356095175396888,1,right
8.226,-0.47486773894716705,0.9176608036751169,0.27094642164639415,4.714236722823262,3.793917655436812,-0.9144404417421687,0.21411397100247107,-1.1879598515714942,-2.3676555044113305,1,right
8.226,-0.4842190221847577,0.9063922274244883,0.27399956508845347,4.725825659332386,3.831525588721353,-0.879489179989687,0.2342592084189213,-1.201238786526864,-2.378348691445107,1,right
8.23,-0.4934788863261191,0.8950058272170369,0.2769223395394994,4.735482039921001,3.867642240621855,-0.8435770578056337,0.2545496902894307,-1.2141506049232818,-2.3881526034540723,1,right
8.231,-0.502640542496795,0.8835109465735251,0.2797130925577114,4.743175003959659,3.9022018606690363,-0.8067212283632114,0.2749768460471953,-1.226677946168625,-2.3970455532566683,1,right
8.235,-0.5116973938030949,0.8719171361069424,0.2823702585815694,4.7488755060527135,3.9351390255716536,-0.7689399828680799,0.295532085012688,-1.2388038505020769,-2.405006328206959,1,right
8.236,-0.520643041213464,0.8602341419762572,0.2848923586370694,4.752556383157042,3.9663887425356017,-0.7302527273732726,0.3162068126651464,-1.2505118042354793,-2.4120142193680096,1,right
8.241,-0.5294712885053001,0.8484718936178683,0.2872780003742901,4.75419242139448,3.9958865565634367,-0.6906799563419685,0.33699244786855165,-1.2617857862476887,-2.418049051183921,1,right
8.242,-0.5381761463923472,0.8366404907355586,0.28952587847862254,4.7537604225742776,4.023568661828792,-0.6502432228496275,0.35788044083855236,-1.272610315408108,-2.423091211510221,1,right
8.243,-0.546751835934982,0.824750189539969,0.2916347754793968,4.751239270436116,4.0493720172153225,-0.6089651053143956,0.37886229122826387,-1.2829704980664323,-2.4271216816148806,1,right
8.245,-0.5551927913226739,0.8128113882397878,0.29360356295890316,4.746609996618316,4.073234466104788,-0.5668691706421433,0.39992956548404457,-1.292852074445544,-2.430122065623495,1,right
8.246,-0.563493662116819,0.8008346118076043,0.29543120314650745,4.739855846349964,4.095094860493647,-0.5239799336700223,0.4210739128497926,-1.3022414630720642,-2.432074619015264,1,right
8.249,-0.571649315044627,0.7888304960694043,0.2971167508651836,4.730962343859662,4.114893189512167,-0.48032281279001066,0.4422870798074425,-1.3111258029156596,-2.432962276018173,1,right
8.249,-0.5796548354284051,0.7768097711863745,0.2986593557863287,4.719917357384013,4.132570712261272,-0.4359240817452964,0.4635609229687347,-1.3194929932056976,-2.432768675884779,1,right
8.251,-0.5875055283191077,0.7647832446017186,0.30005826494802484,4.7067111631349485,4.148070094110593,-0.39081081815871904,0.4848874204789831,-1.3273317309521924,-2.4314781880541654,1,right
8.254,-0.5951969193848681,0.7527617835153647,0.3013128254989814,4.691336506646806,4.1613355442165405,-0.34501085037384316,0.5062586819937616,-1.3346315461965397,-2.4290759362025858,1,right
8.255,-0.6027247555898589,0.7407562969450237,0.30242248763448837,4.673788659399937,4.17231295124708,-0.2985527047557516,0.5276669572896074,-1.3413828350160513,-2.4255478211822052,1,right
8.259,-0.6100850056865517,0.7287777174473623,0.30338680768551796,4.654065469129363,4.180950015059668,-0.25146555502795387,0.5491046435699893,-1.3475768903047867,-2.4208805428441997,1,right
8.26,-0.6172738605318221,0.7168369825951549,0.3042054513143539,4.63216740315285,4.187196373451152,-0.20377917419627192,0.5705642915279172,-1.3532059303516306,-2.4150616207392814,1,right
8.264,-0.624287733223996,0.7049450163172545,0.30487819676857547,4.60809758456444,4.1910037238578495,-0.1555238890400334,0.5920386102266785,-1.3582631252349922,-2.408079413685486,1,right
8.265,-0.631123259046161,0.6931127102079898,0.3054049381487938,4.581861821236765,4.1923259400305355,-0.10673053703536811,0.6135204708602685,-1.3627426210519042,-2.399923138189792,1,right
8.269,-0.6377772951911793,0.6813509049075878,0.30578568864823713,4.553468627569239,4.19111918370215,-0.05743042557368265,0.6350029094551479,-1.3666395619976783,-2.3905828857068214,1,right
8.269,-0.6442469202355053,0.669670371647236,0.3060205837213882,4.522929238913012,4.187342011259081,-0.0076552933367544105,0.6564791285750012,-1.3699501103106293,-2.3800496387145516,1,right
8.274,-0.6505294333228416,0.6580817940420268,0.3061098841350966,4.490257618597314,4.180955475419716,0.042562726311657355,0.6779424980901941,-1.3726714640947295,-2.368315285583575,1,right
8.275,-0.6566223530142802,0.646595750203688,0.3060539788508494,4.455470457475676,4.17192322191672,0.09319114005924124,0.6993865550736275,-1.374801873031378,-2.3553726342130648,1,right
8.279,-0.6625234157581129,0.6352226952334715,0.30585338768335146,4.418587165904287,4.16021158117209,0.1441971276465257,0.7208050028846682,-1.3763406519897883,-2.3412154244031633,1,right
8.28,-0.6682305739317835,0.6239729441439843,0.30550876368041807,4.379629858058711,4.145789654946571,0.19554757328042632,0.7421917095028039,-1.3772881925438103,-2.325838338930072,1,right
8.285,-0.673741993412537,0.612856655248343,0.3050208951746081,4.3386233284890325,4.128629397937412,0.24720909560531965,0.7635407051726092,-1.3776459724013044,-2.3092370132866464,1,right
8.286,-0.6790560506419829,0.6018838140476659,0.30439070746765556,4.295595020807553,4.108705694290746,0.299148076378099,0.7848461794215397,-1.3774165627504893,-2.291408044047816,1,right
8.288,-0.6841713291616974,0.5910642176443185,0.3036192641199349,4.250574988397146,4.085996428987113,0.35133068799465594,0.8061024775119806,-1.376603633525988,-2.2723489958166447,1,right
8.289,-0.6890866156107447,0.580407459708494,0.30270776782483055,4.203595847022564,4.060482554050763,0.40372292001612564,0.8273040963888663,-1.375211956595607,-2.252058406703332,1,right
8.293,-0.6938008951904203,0.5699229160292727,0.30165756085243106,4.154692719221128,4.032148149525463,0.4562906048440294,0.8484456801840636,-1.3732474068671947,-2.2305357922859366,1,right
8.293,-0.6983133466156008,0.5596197306867832,0.3004701250505079,4.1039031703435445,4.000980479151535,0.5089994426941478,0.8695220153385717,-1.3707169613132575,-2.207781647998063,1,right
8.298,-0.7026233365839623,0.5495068028869637,0.2991470813935936,4.051267136109973,3.9669700406707786,0.5618150260195607,0.8905280254034319,-1.3676286959093442,-2.18379744988522,1,right
8.3,-0.7067304138013338,0.5395927745021406,0.29769018907245326,3.996826841540938,3.9301106106778776,0.6147028635337921,0.9114587655800722,-1.363991780480575,-2.1585856536680263,1,right
8.304,-0.7106343026017147,0.5298860183574482,0.29610134411675426,3.9406267111172633,3.8903992839287076,0.6676284039854049,0.9323094170606204,-1.3598164714490593,-2.1321496920469025,1,right
8.304,-0.7143348961943048,0.5203946272952207,0.29438257754482056,3.8827132700179106,3.847836507007851,0.7205570598356953,0.9530752812285208,-1.3551141024733515,-2.104493970179346,1,right
8.308,-0.7178322495601474,0.5111264040388461,0.29253605303716596,3.8231350362794276,3.8024261062494107,0.773454230991347,0.9737517737795737,-1.3498970729695188,-2.0756238592573752,1,right
8.309,-0.7211265720117339,0.5020888518659397,0.29056406413501845,3.761942403715651,3.754175309797052,0.8262853287440093,0.9943344188142882,-1.3441788345049632,-2.0455456881562943,1,right
8.31,-0.724218219422846,0.49328916608837087,0.28846903096975235,3.699187515431414,3.7030947636810034,0.8790158000687766,1.014818842907224,-1.3379738750701764,-2.0142667333578212,1,right
8.312999999999999,-0.7271076861335848,0.4847342263243785,0.2862534965327989,3.634924127759202,3.649198541781585,0.9316111524334539,1.0352007690777802,-1.3312977012601324,-1.9817952077708858,1,right
8.314,-0.7297955965364734,0.4764305895370002,0.28392012250060644,3.569207464443079,3.5925041495406735,0.9840369792703014,1.055476010541646,-1.3241668184111315,-1.9481402493053301,1,right
8.318,-0.732282696352505,0.46838448380328784,0.28147168463717986,3.502094061180598,3.533032521344717,1.036258986223092,1.0756404641668222,-1.3165987087219653,-1.9133119098148974,1,right
8.318999999999999,-0.7345698436091609,0.4606018027709659,0.27891106780251124,3.4336416020834446,3.4708080118464517,1.0882430180890454,1.0956901036387838,-1.308611807358924,-1.8773211445987343,1,right
8.32,-0.7366579993342178,0.45308810075479794,0.2762412605962434,3.363908752231251,3.405858382117344,1.1399550860275405,1.1156209723840256,-1.3002254765273051,-1.8401798024118277,1,right
8.323,-0.7385482179813675,0.4458485884204978,0.2734653496709559,3.2929549919433545,3.3382147818664474,1.1913613944140424,1.1354291763099078,-1.2914599774877282,-1.8019006158843447,1,right
8.324,-0.7402416376117201,0.4388881289949931,0.27058651376516546,3.2208404569351012,3.2679117286018298,1.242428366909877,1.1551108764183944,-1.2823364404943467,-1.7624971922465151,1,right
8.327,-0.7417394698729894,0.43221123493273966,0.26760801752539287,3.14762578590372,3.1949870839699916,1.2931226716648814,1.1746622813509264,-1.2728768326309128,-1.7219840042523837,1,right
8.329,-0.7430429898440144,0.42582206496744945,0.26453320519995616,3.0733719756309528,3.1194820271493606,1.3434112457619611,1.1940796399213294,-1.2631039235195602,-1.6803763811924917,1,right
8.332,-0.7441535258420068,0.4197244214885959,0.261365494293418,2.9981402433953974,3.0414410250959736,1.393261319050182,1.2133592336932861,-1.2530412488761409,-1.6376904998823312,1,right
8.333,-0.7450724493200108,0.4139217481972494,0.25810836927285,2.9219918964843736,2.9609117994319494,1.4426404375119568,1.2324973696585322,-1.2427130718849886,-1.593943375510215,1,right
8.338,-0.7458011650092278,0.40841712801152624,0.2547653754155732,2.844988208592122,2.8779452897599342,1.491516486308725,1.2514903730715476,-1.2321443423650893,-1.5491528522250715,1,right
8.34,-0.7463411014809845,0.4032132812066734,0.2513401128794722,2.7671903028883627,2.7925956131794356,1.5398577126482562,1.270334580496122,-1.221360653698799,-1.503337593341578,1,right
8.343,-0.7466937023134538,0.39831256378893937,0.24783623105865818,2.6886590415385796,2.704920019773819,1.5876327486153674,1.289026333118762,-1.2103881974934954,-1.456517071036994,1,right
8.344,-0.7468604180482649,0.3937169661162957,0.24425742326107677,2.609454921454957,2.614978843829737,1.6348106341063873,1.3075619703834993,-1.199253715945855,-1.408711555411064,1,right
8.346,-0.7468426991123177,0.3894281117920223,0.24060742171512936,2.529637976054604,2.522835450543932,1.6813608400061761,1.3259378240022206,-1.1879844518778364,-1.3599421027774217,1,right
8.347000000000001,-0.7466419898622382,0.38544725686886916,0.23688999288337664,2.4492676827995963,2.4285561779656697,1.7272532917448769,1.3441502123942117,-1.1766080964129046,-1.3102305430520271,1,right
8.354,-0.7462597238860639,0.38177528941335126,0.23310893303717922,2.368402876291438,2.3322102739165627,1.772458393369864,1.362195435608155,-1.165152734260568,-1.2595994661013574,1,right
8.355,-0.7456973206704941,0.3784127294922,0.22926806403076583,2.2871016666907757,2.233869827623232,1.8169470522665472,1.38006977077936,-1.153646786576914,-1.208072206910292,1,right
8.356,-0.7449561837116694,0.3753597296538286,0.22537122920602012,2.205421363231606,2.133609695792106,1.8606907046598062,1.3977694681745416,-1.1421189513685248,-1.1556728294269372,1,right
8.357000000000001,-0.7440377001116119,0.3726160759839026,0.22142228935458771,2.1234184025978022,2.031507422849738,1.9036613420258597,1.4152907478759702,-1.1305981414069262,-1.1024261089389846,1,right
8.363,-0.7429432416605972,0.3701811898137927,0.21742511865766415,2.0411482819285265,1.9276431550663056,1.9458315385423015,1.4326297971563426,-1.1191134196205716,-1.0483575128336389,1,right
8.363999999999999,-0.7416741673599881,0.36805413015346544,0.21338360051904093,1.9586654962180015,1.8220995482744295,1.9871744797019155,1.4497827685952063,-1.1076939319313177,-0.9934931795906323,1,right
8.366,-0.7402318272958904,0.36623359690746154,0.2093016232122235,1.8760234798741922,1.714961668890175,2.02766399221365,1.466745778987264,-1.0963688375023477,-0.9378598958554197,1,right
8.367,-0.7386175677373845,0.36471793491513127,0.2051830752833883,1.7932745522001705,1.60631688793804,2.0672745753118376,1.4835149090923618,-1.0851672363646199,-0.8814850714372859,1,right
8.37,-0.7368327373074498,0.36350513883507546,0.20103184068445587,1.7104698665613287,1.4962547677769147,2.105981433592375,1.5000862042764282,-1.0741180943890951,-0.8243967120748129,1,right
8.371,-0.7348786940609409,0.362592858871355,0.19685179364407843,1.627659363001149,1.384866941219419,2.1437605114921188,1.5164556760920835,-1.0632501655722728,-0.7666233898089438,1,right
8.376,-0.7327568133028469,0.36197840732010733,0.19264679330946657,1.544891724067917,1.272246982732709,2.180588529525233,1.532619304821242,-1.052591911708107,-0.7081942108875313,1,right
8.377,-0.7304684959942208,0.3616587659043982,0.18842067820268907,1.4622143336146165,1.1584902714047651,2.2164430223876437,1.5485730428722273,-1.0421714200457424,-0.6491387815520698,1,right
8.378,-0.7280151776180045,0.3616305938620948,0.184177260532551,1.3796732383342156,1.0436938453563793,2.251302379038058,1.5643128186907356,-1.032016320479716,-0.5894871728273138,1,right
8.381,-0.72539833739192,0.36189023674802895,0.1799203203992825,1.29731311179268,0.9279562472755178,2.2851458848613198,1.5798345407141547,-1.0221537043458064,-0.5292698858614621,1,right
8.381,-0.722619507707163,0.3624337359018561,0.1756535999336881,1.2151772207222953,0.8113773607474768,2.3179537660170375,1.5951341010273798,-1.0126100463704582,-0.4685178189339269,1,right
8.387,-0.7196802836546009,0.36325683852224777,0.17138079741945483,1.1333073933382845,0.6940582370512633,2.3497072360735904,1.6102073786102615,-1.0034111303757856,-0.40726223647403137,1,right
8.388,-0.7165823324943058,0.3643550082840037,0.1671055614470748,1.05174398952799,0.576100912397352,2.3803885449133966,1.6250502421954176,-0.9945819788170727,-0.3455347400034874,1,right
8.388,-0.7133274029343987,0.36572343643919186,0.16283148513899562,0.9705258731914587,0.4576082171166436,2.4099810293358734,1.63965855278035,-0.9861467861254043,-0.2833672408281971,1,right
8.391,-0.7099173341050227,0.36735705335333835,0.15856210047372984,0.8896903877850576,0.33868358107509805,2.438469163779834,1.6540281658371667,-0.978128855829057,-0.2207919343034735,1,right
8.391,-0.7063540641252668,0.36925054043336825,0.15430087273033696,0.8092733365495485,0.2194308411237677,2.4658386090275,1.668154933262532,-0.970550541428339,-0.157841275495424,1,right
8.395,-0.7026396381526682,0.37139834239780206,0.1500511950781462,0.7293089684761195,0.0999540548553353,2.4920762573056723,1.682034705109806,-0.9634331909996962,-0.09454795605997492,1,right
8.396,-0.6987762157895242,0.37379467982755205,0.14581638334398592,0.6498299702929292,-0.0196426778297508,2.517170273198088,1.695663331144641,-0.9567970955060998,-0.030944882159844492,1,right
8.4,-0.6947660777166063,0.3764335619274535,0.14159967099319848,0.5708674643270008,-0.13925538538248172,2.5411101303362686,1.7090366622646145,-0.9506614407919909,0.03293484676130519,1,right
8.402000000000001,-0.6906116314343091,0.37930879942524826,0.13740420436098652,0.49245101201182045,-0.25878038783283475,2.563886643944205,1.7221505518227544,-0.9450442632423781,0.0970579585292918,1,right
8.406,-0.6863154160061972,0.38241401753256077,0.1332330381708897,0.4146086228123869,-0.378114452929007,2.5854919993089447,1.735000856894107,-0.9399624090870689,0.16139102829705498,1,right
8.407,-0.6818801057165662,0.38574266889117764,0.12908913137969358,0.33736676834093576,-0.49715494553172834,2.6059197762458353,1.7475834395237497,-0.9354314973324441,0.22590049829295492,1,right
8.41,-0.6773085125720739,0.38928804642936155,0.12497534339096117,0.2607504014381302,-0.6157999706067941,2.6251649696238424,1.7598941679939175,-0.9314658863046774,0.2905526974438641,1,right
8.411,-0.6726035875983851,0.39304329605779137,0.1208944306786572,0.1847829799961546,-0.7339485101584133,2.643224006012988,1.7719289181471496,-0.9280786437898333,0.3553138610577914,1,right
8.415,-0.6677684209063833,0.39700142914278125,0.11684904385651954,0.10948649530186907,-0.8515005544451215,2.660094756512582,1.7836835748015887,-0.9252815207578591,0.42015015075128515,1,right
8.416,-0.6628062405276165,0.4011553347042744,0.11284172521980222,0.03488150467997814,-0.9683572278188797,2.675776545815531,1.795154033293794,-0.9230849286591065,0.4850276748072701,1,right
8.42,-0.6577204100423758,0.40549779129594665,0.10887490677594645,-0.03901283178197457,-1.0844209095265507,2.6902701575605965,1.8063362011836321,-0.9214979202836782,0.5499125091492877,1,right
8.421,-0.6525144250440438,0.4100214785345129,0.10495090877037005,-0.11217871064304703,-1.1995953498112368,2.7035778360210636,1.8172260001550005,-0.9205281741755853,0.6147707191183232,1,right
8.425,-0.6471919085000141,0.41471898825586956,0.10107193870323015,-0.1845996408670543,-1.313785781648966,2.715703284174873,1.827819368145333,-0.9201819825954258,0.6795683822385236,1,right
8.426,-0.6417566050828865,0.41958283528677365,0.09724009082335364,-0.25626039614167895,-1.4268990284539387,2.7266516581978584,1.8381122617359944,-0.920464243027042,0.7442716121581291,1,right
8.431000000000001,-0.6362123745560543,0.4246054678310728,0.09345734607751914,-0.3271469639686873,-1.5388436080829997,2.736429558418327,1.848100658834844,-0.9213784532253826,0.8088465839518659,1,right
8.432,-0.6305631843055802,0.4297792774780554,0.08972557248886089,-0.3972464917332642,-1.6495298334671695,2.745045016767826,1.8577805616813918,-0.9229267098045876,0.8732595609708733,1,right
8.436,-0.6248131011149328,0.43509660884739537,0.08604652593888362,-0.46654722995829867,-1.758869910194984,2.7525074807595615,1.8671480002041034,-0.9251097103671141,0.9374769234259683,1,right
8.436,-0.6189662822807327,0.4405497688912281,0.08242185133128703,-0.5350384729472312,-1.8667780313690363,2.758827794022576,1.8761990357585412,-0.9279267591765326,1.0014651988896803,1,right
8.44,-0.6130269661671407,0.446131035879523,0.07885308411757347,-0.6027104970168137,-1.9731704700535027,2.764018173416456,1.884929765274142,-0.9313757763784436,1.065191094902026,1,right
8.442,-0.6069994622937762,0.45183266809966505,0.07534165216198778,-0.6695544965188427,-2.077965669626574,2.7680921827480276,1.8933363258365303,-0.9354533107757852,1.1286215338644312,1,right
8.445,-0.6008881410452204,0.45764691230393223,0.07188887791968745,-0.7355625178476007,-2.1810843323476026,2.771064703108228,1.901414899715677,-0.9401545561235225,1.1917236903025266,1,right
8.446,-0.5946974230764132,0.4635660119386575,0.06849598090135793,-0.8007273916273921,-2.282449506444426,2.7729518998440907,1.909161719770842,-0.9454733706940489,1.254465030062672,1,right
8.447000000000001,-0.5884317684697182,0.469582215186793,0.06516408039952402,-0.8650426632721796,-2.381986672021748,2.773771186177576,1.9165730750211318,-0.9514022994785671,1.3168133500790067,1,right
8.449,-0.5820956656877917,0.47568778285332397,0.06189419845195439,-0.9285025221069299,-2.479623826086638,2.7735411834798245,1.9236453160911122,-0.9579325981760349,1.3787368168317617,1,right
8.449,-0.5756936203694353,0.481874996122091,0.058687263013068425,-0.9911017292378562,-2.5752915669821888,2.772281678206296,1.9303748603184034,-0.9650542583385068,1.4402040021316573,1,right
8.455,-0.5692301440253278,0.4881361642121587,0.055544111297549166,-1.052835544356306,-2.6689231785151213,2.7700135754951782,1.9367581964504201,-0.9727560334313085,1.5011839157912805,1,right
8.456,-0.5627097426951208,0.4944636319600473,0.05246549325534998,-1.1136996517230506,-2.7604547139091684,2.766758849486808,1.9427918889348692,-0.9810254657836922,1.5616460352582462,1,right
8.457,-0.5561369056221146,0.5008497873505041,0.04945207513656152,-1.1736900858995951,-2.8498250789679416,2.7625404907106437,1.9484725818233366,-0.9898489144504036,1.6215603323866516,1,right
8.46,-0.5495160939895399,0.5072870690142119,0.04650444310826697,-1.2328031583708297,-2.9369761124886513,2.757382451408606,1.953797002306291,-0.9992115840062583,1.6808972975219387,1,right
8.461,-0.5428517297553169,0.5137679737077835,0.04362310688956393,-1.2910353865231818,-3.0218526612195356,2.751309589952532,1.958761963896826,-1.0090975542974574,1.739627961072788,1,right
8.464,-0.5361481846289803,0.5202850637904284,0.04080850337222203,-1.3483834261175867,-3.104402647390143,2.7443476152189685,1.963364369279464,-1.0194898111749553,1.7977239127421036,1,right
8.466000000000001,-0.5294097692480911,0.5268309747113462,0.03806100019495333,-1.4048440078138782,-3.184577128173722,2.736523031256648,1.9676012128392966,-1.0303702782367434,1.8551573185874806,1,right
8.469,-0.5226407226208227,0.533398422520487,0.03538089924031121,-1.4604138779783462,-3.2623303471769365,2.727863082287612,1.971469582885731,-1.041719849607411,1.911900936079816,1,right
8.47,-0.5158452019055264,0.5399802114134171,0.032768440022885946,-1.5150897439391986,-3.3376197781939516,2.718395698022041,1.9749666635840466,-1.0535184237847999,1.9679281273268938,1,right
8.474,-0.509027272600244,0.5465692413197131,0.03022380293512227,-1.568868223852118,-3.410406161455096,2.7081494392643695,1.9780897366069348,-1.0657449385849682,2.0232128706268795,1,right
8.475,-0.5021908992158289,0.5531585155426373,0.027747112313987098,-1.6217458013355412,-3.4806535325933936,2.6971534437858677,1.9808361825171232,-1.0783774072180243,2.0777297705146727,1,right
8.48,-0.4953399365049637,0.5597411484548626,0.02533843928968364,-1.6737187850327262,-3.5483292445451524,2.685437372436558,1.9832034818911284,-1.0913929555286797,2.1314540664620174,1,right
8.481,-0.48847812131553353,0.5663103732513977,0.02299780437953088,-1.7247832732550874,-3.613403982593633,2.673031355467088,1.9851892161931006,-1.1047678604365956,2.1843616403901276,1,right
8.484,-0.4816090651300669,0.5728595497574238,0.020725179798631015,-1.774935123858697,-3.675851772757527,2.6599659390290435,1.9867910684066463,-1.1184775896127674,2.2364290231513912,1,right
8.484,-0.4747362473439961,0.5793821722855509,0.018520491473910317,-1.8241699295032467,-3.735649983718598,2.646272031820101,1.9880068234314243,-1.1324968424292814,2.287633400134439,1,right
8.488,-0.4678630093261022,0.585871877534288,0.0163836207659412,-1.8724829984401552,-3.7927793224753725,2.6319808518384504,1.988834368250212,-1.1467995922208165,2.3379526161445088,1,right
8.488999999999999,-0.46099254929615385,0.5923224525179501,0.014314405919038355,-1.9198693409738878,-3.8472238239022243,2.6171238732090223,1.989271691871044,-1.1613591298972217,2.387365179708637,1,right
8.493,-0.4541279180482654,0.5987278425178619,0.012312643271632702,-1.9663236617379138,-3.8989708343855995,2.6017327730422464,1.9893168850479064,-1.1761481089473829,2.435850266952727,1,right
8.493,-0.44727201554383017,0.6050821590442157,0.010378088264050263,-2.01184035792408,-3.9480109897014626,2.585839378284351,1.9889681397823633,-1.1911385918754125,2.483387725195002,1,right
8.498,-0.44042758839403534,0.6113796877953277,0.008510456278472172,-2.056413523601524,-3.994338187290341,2.5694756125165994,1.988223748607362,-1.206302098110929,2.529958076397744,1,right
8.499,-0.43359722824794855,0.6176148965954945,0.006709423337548765,-2.100036960258558,-4.037949553078603,2.552673442659311,1.98708210365335,-1.2216096534358485,2.5755425206165583,1,right
8.504,-0.4267833710972739,0.6237824432846382,0.00497462667744423,-2.1427041936982705,-4.0788454029868335,2.535464825535076,1.9855416954956917,-1.2370318409706944,2.6201229395836907,1,right
8.505,-0.4199882975023548,0.6298771835235878,0.003305665200983467,-2.1844084974158844,-4.117029199258399,2.517881654244234,1.9836011117812498,-1.252538853763919,2.6636819005591374,1,right
8.507,-0.41321413373523025,0.6358941784695505,0.0017020998084645775,-2.2251429225831685,-4.152507501733463,2.4999557043044054,1.981259035630842,-1.268100549028152,2.706202660580457,1,right
8.509,-0.40646285382495123,0.6418287022683228,0.0001634535980149502,-2.264900334762465,-4.185289914185967,2.481718579504719,1.9785142438131484,-1.2836865040676133,2.747669171239324,1,right
8.513,-0.3997362824794286,0.6476762493038237,-0.00131078807549434,-2.303673457470118,-4.215389025833265,2.463201657424286,1.9753656046844932,-1.2992660739411737,2.788066084109908,1,right
8.514,-0.3930360988485075,0.6534325411426917,-0.0027211776932346615,-2.3414549227063133,-4.242820348120364,2.444436034563491,1.9718120759014544,-1.314808450829458,2.8273787569053552,1,right
8.515,-0.3863638410868554,0.6590935331153427,-0.004068305823226413,-2.37823732856552,-4.267602246872958,2.425452471035782,1.9678527019805632,-1.3302827246932347,2.8655932602063485,1,right
8.519,-0.379720911673111,0.664655420485116,-0.005352801530529627,-2.4140133040389116,-4.28975586990578,2.4062813347668293,1.9634866119013954,-1.345657944124119,2.90269638418999,1,right
8.519,-0.37310858343922365,0.6701146441633842,-0.006575332942989479,-2.448775581117274,-4.309305070165085,2.386952545147211,1.9587130170166571,-1.360903175907288,2.938675644554878,1,right
8.522,-0.366528006256962,0.6754678959223306,-0.0077366079615999355,-2.4825170743000626,-4.326276324476525,2.3674955160841584,1.953531209463239,-1.3759875621969353,2.9735192870643576,1,right
8.523,-0.359980214320354,0.6807121230476897,-0.008837375095907882,-2.5152309673631517,-4.340698648037366,2.347939098477204,1.9479405611438423,-1.3908803748910985,3.007216290539409,1,right
8.524,-0.3534661339600022,0.685844532375817,-0.00987842439904192,-2.546910805983858,-4.352603505160887,2.32831152254142,1.9419405232791478,-1.4055510671733489,3.039756368358638,1,right
8.527000000000001,-0.3469865919284054,0.6908625936729178,-0.01086058847626693,-2.577550592567001,-4.36202471745083,2.308640341120276,1.9355306265156431,-1.4199693222646077,3.07112996856545,1,right
8.527999999999999,-0.3405423240960925,0.6957640423258569,-0.011784743540693048,-2.6071448783617477,-4.368998370952807,2.2889523755291417,1.9287104815730434,-1.434105099427806,3.101328272679186,1,right
8.532,-0.33413398448940396,0.7005468813166779,-0.012651810484770905,-2.6356888492070785,-4.373562723445977,2.2692736650709784,1.9214797804140735,-1.4479286772674693,3.1303431933036787,1,right
8.533,-0.32776215458659735,0.7052093824545527,-0.013462755929195215,-2.6631784034926165,-4.375758112353769,2.249629420646905,1.9138382979181905,-1.4614106943655825,3.158167370623344,1,right
8.538,-0.3214273527782919,0.7097500868471657,-0.014218593206529278,-2.6896102221696228,-4.375626863369028,2.230043982485,1.9057858940396595,-1.4745221872942778,3.184794167873529,1,right
8.539,-0.31513004389367305,0.7141678046058827,-0.014920383234405282,-2.7149818308941422,-4.373213199806781,2.210540781930859,1.8973225164292045,-1.487234626044995,3.210217665868466,1,right
8.542,-0.3088706486929142,0.7184616137904224,-0.015569235230372909,-2.739291654381265,-4.368563152691024,2.1911423072435303,1.888448203497287,-1.4995199469127816,3.234432656666745,1,right
8.544,-0.3026495532255504,0.7226308586073548,-0.016166307218519464,-2.762539063046426,-4.361724471575264,2.1718700733406098,1.8791630878958754,-1.5113505828733365,3.2574346364507765,1,right
8.548,-0.2964671179523529,0.726675146882024,-0.01671280627913583,-2.7847244120066343,-4.352746536089945,2.1527445954365207,1.8694674003943987,-1.5226994914892567,3.2792197976932806,1,right
8.549,-0.2903236865255927,0.730594346825688,-0.01720998849822423,-2.805849072511454,-4.341680268203542,2.133785366518298,1.8593614741243838,-1.53354018038072,3.2997850206803476,1,right
8.552,-0.2842195941209213,0.7343885831204349,-0.017659158583769673,-2.8259154558705317,-4.32857804517776,2.115010838603553,1.848845749166107,-1.5438467302945336,3.3191278644571427,1,right
8.552999999999999,-0.27815517521512195,0.7380582323454374,-0.018061669129762713,-2.8449270299414025,-4.313493613191153,2.0964384077257257,1.837920777449408,-1.55359381580409,3.3372465572588306,1,right
8.558,-0.2721307707117373,0.7416039177704741,-0.018418919525688165,-2.862888328238261,-4.296482001599515,2.078084402592189,1.8265872279396331,-1.5627567236713213,3.354139986485796,1,right
8.559,-0.26614673433426916,0.745026503546655,-0.018732354525080718,-2.879804951719358,-4.277599437795479,2.059964076861321,1.8148458920785042,-1.5713113689002014,3.3698076882787205,1,right
8.561,-0.26020343823137176,0.7483270883289158,-0.019003462495578598,-2.8956835633076405,-4.256903262624141,2.042091604985215,1.802697689448525,-1.5792343085097469,3.3842498367455596,1,right
8.562000000000001,-0.254301277762486,0.7515069983684185,-0.019233773371263637,-2.910531875196252,-4.2344518463059435,2.0244800815653394,1.790143673628371,-1.5865027530527835,3.397467232888958,1,right
8.566,-0.24844067544901421,0.7545677801151969,-0.019424856319534195,-2.9243586289874983,-4.2103045048127035,2.007141524169126,1.7771850382055352,-1.5930945759050072,3.409461293279107,1,right
8.567,-0.24262208408341496,0.7575111923729276,-0.019578317125833602,-2.937173568710914,-4.184521416637456,1.990086879556166,1.7638231229113357,-1.5989883203470472,3.420234038513533,1,right
8.571,-0.2368459889886958,0.7603391980486827,-0.01969579529419701,-2.9489874067631043,-4.157163539893744,1.9733260332634481,1.750059419842218,-1.6041632044603684,3.4297880815017967,1,right
8.572000000000001,-0.23111290941815998,0.7630539555406293,-0.0197789608608833,-2.959811782809098,-4.1282925296751065,1.9568678224998586,1.7358955797301312,-1.6085991238558974,3.4381266156095536,1,right
8.576,-0.22542339908544462,0.7656578098063105,-0.01982951092413536,-2.969659215682057,-4.0979706556008475,1.940720052300961,1.7213334182235969,-1.612276652252264,3.445253402692937,1,right
8.577,-0.2197780458220695,0.7681532831542588,-0.01984916590936989,-2.9785430483152964,-4.066260719469606,1.9248895148959375,1.706374922139934,-1.615177039918477,3.4511727610507132,1,right
8.581,-0.21417747037236787,0.7705430658017531,-0.019839665614732722,-2.9864773857377465,-4.033225972937937,1.9093820122394178,1.6910222556561645,-1.6172822100506328,3.455889553322227,1,right
8.582,-0.20862232434615927,0.77283000623933,-0.019802765103497297,-2.9934770261611696,-3.9989300351369232,1.8942023816618272,1.6752777664460272,-1.6185747534345398,3.4594091743759314,1,right
8.582,-0.20311328735432935,0.7750171014389389,-0.019740230515494606,-2.9995573851846826,-3.963436810135867,1.8793545245927887,1.6591439918432835,-1.6190379222559563,3.4617375392663274,1,right
8.588,-0.1976510633591001,0.7771074869438639,-0.019653834867327042,-3.004734413139411,-3.926810404158292,1.8648414383130423,1.6426236651514046,-1.6186556242023256,3.462881071353932,1,right
8.589,-0.19223637628472592,0.7791044268884298,-0.019545353911457425,-3.009024505593418,-3.8891150424518743,1.8506652506912784,1.6257197221775677,-1.617412417713084,3.4628466906592026,1,right
8.591000000000001,-0.1868699649474413,0.781011304007069,-0.019416562121466224,-3.0124444072405905,-3.850414985765938,1.8368272578016134,1.6084353079938738,-1.6152935087212061,3.4616418024814335,1,right
8.592,-0.1815525773645727,0.7828316096949395,-0.01926922885674175,-3.015011110425516,-3.810774446664208,1.823327964010241,1.5907737838865448,-1.6122847489417444,3.45927428628998,1,right
8.592,-0.17628496449313677,0.7845689341752323,-0.01910511473899978,-3.016741751409487,-3.770257506396592,1.810167123566107,1.5727387344445483,-1.6083726357037627,3.4557524848877317,1,right
8.597999999999999,-0.17106787344140073,0.7862269568223453,-0.018925968253494508,-3.017653508511221,-3.7289280333281924,1.7973437824232665,1.5543339747380027,-1.603544313319542,3.451085193843384,1,right
8.599,-0.1659020402011881,0.7878094366923087,-0.018733522573280384,-3.0177635052224954,-3.686849603643734,1.784856319331711,1.5355635575356317,-1.5977875759823919,3.4452816511857325,1,right
8.601,-0.16078818195767092,0.7893202033163,-0.0185294925961104,-3.017088719540823,-3.644085424543919,1.7727024857890783,1.516431780509469,-1.591090872181797,3.4383515273498837,1,right
8.602,-0.1557269890393747,0.7907631478132338,-0.01831557218040236,-3.0156458997280002,-3.600698259870583,1.7608794447547773,1.4969431933739508,-1.5834433106220045,3.430304915361996,1,right
8.606,-0.15071911657549794,0.7921422143749791,-0.01809343156741169,-3.013451486494896,-3.556750358039904,1.7493838080906499,1.4771026049054783,-1.5748346676274871,3.4211523212459047,1,right
8.607999999999999,-0.14576517593387006,0.793461392175716,-0.017864714978686434,-3.010521541610567,-3.5123033821609604,1.738211672693245,1.4569150897875047,-1.565255396016024,3.4109046546317416,1,right
8.61,-0.1408657260219379,0.7947247077553584,-0.0176310383809174,-3.006871682931594,-3.4674183422151117,1.7273586552837377,1.436385995225169,-1.5546966354174039,3.3995732195434534,1,right
8.611,-0.1360212645445537,0.7959362179247889,-0.017393987415915017,-3.002517025845374,-3.422155529170103,1.7168199258224581,1.4155209472724906,-1.5431502240130037,3.3871697053389513,1,right
8.615,-0.13123221932481027,0.7971000032359145,-0.017155115500324475,-2.9974721311189767,-3.376574450901332,1.7065902395159263,1.3943258568141421,-1.5306087116687026,3.3737061777734803,1,right
8.616,-0.12649893980676674,0.7982201620502796,-0.01691594210339758,-2.991750959143116,-3.3307337697914665,1.696663967385207,1.3728069251428432,-1.5170653744307818,3.3591950701536746,1,right
8.62,-0.12182168887010514,0.7993008052259273,-0.016677951209006805,-2.985366830558759,-3.2846912418785164,1.6870351253652986,1.35097064907244,-1.5025142303516252,3.343649174546701,1,right
8.621,-0.11720063509312788,0.8003460514250731,-0.016442589961968224,-2.978332393251913,-3.238503657421536,1.6776974019061515,1.3288238255258027,-1.4869500566091736,3.327081633005834,1,right
8.626,-0.11263584559921729,0.8013600230273994,-0.016211267491449435,-2.970659595700179,-3.192226782752402,1.6686441840467938,1.3063735555357334,-1.4703684078812211,3.309505928770806,1,right
8.626,-0.10812727961355094,0.8023468426176702,-0.015985353897122995,-2.96235966665276,-3.145915303281516,1.6598685819348866,1.2836272475961716,-1.4527656359327348,3.2909358773983,1,right
8.63,-0.10367478284332836,0.8033106300032017,-0.015766179379069635,-2.9534431011237374,-3.099622767524868,1.6513634517648688,1.2605926203000875,-1.4341389103714768,3.2713856177750213,1,right
8.631,-0.09927808277667502,0.80425549970665,-0.015555033493120271,-2.9439196526766125,-3.053401532019641,1.6431214171086728,1.2372777041995877,-1.4144862405242886,3.250869602962889,1,right
8.634,-0.09493678497379911,0.8051855588724409,-0.015353164519208026,-2.933798331976277,-3.007302706995423,1.6351348886137804,1.213690842822907,-1.3938064983834637,3.2294025908230277,1,right
8.635,-0.09065037040039677,0.806104905521244,-0.01516177893791998,-2.9230874115828227,-2.9613761026681664,1.6273960820441766,1.1898406927821272,-1.3720994425696915,3.206999634362428,1,right
8.64,-0.08641819382827147,0.8070176270859452,-0.014982041016287629,-2.9117944369598554,-2.9156701760242103,1.6198970346405015,1.1657362229046675,-1.3493657432551156,3.1836760717443786,1,right
8.641,-0.08223948330216779,0.8079277991631069,-0.01481507250736924,-2.899926243668252,-2.8702319779620504,1.6126296197764458,1.1413867123208044,-1.3256070079870987,3.1594475159010167,1,right
8.645,-0.07811334064653147,0.8088394844147018,-0.014661952470469627,-2.8874889807146054,-2.8251071006600266,1.6055855598891364,1.1168017474387244,-1.3008258083503346,3.1343298436836893,1,right
8.646,-0.07403874296355685,0.8097567315562374,-0.014523717218759506,-2.874488140021936,-2.780339625038721,1.598756437661956,1.0919912177378879,-1.2750257074020064,3.1083391844841484,1,right
8.649,-0.07001454505638234,0.8106835743700285,-0.0144013603960749,-2.8609285919885843,-2.735972068187644,1.5921337054388986,1.0669653103107677,-1.2482112878117417,3.081491908257011,1,right
8.65,-0.06603948270055161,0.8116240306871167,-0.014295833175761885,-2.846814627099566,-2.6920453306266636,1.585708692850207,1.0417345031138763,-1.2203881805906907,3.0538046129032717,1,right
8.652000000000001,-0.062112176686175025,0.8125821012901503,-0.014208044566700315,-2.832150003553062,-2.648598643273668,1.579472612629659,1.0163095570458853,-1.1915630940686734,3.0252941111316654,1,right
8.655,-0.058231137561607735,0.8135617687017471,-0.014138861808772555,-2.816938000863085,-2.6056695139910917,1.573416564604453,0.990701507253625,-1.161743842375005,2.9959774171993803,1,right
8.655,-0.0543947710158674,0.8145669958319065,-0.01408911083999723,-2.8011814793977967,-2.5632936735852008,1.5675315378392236,0.9649216542237097,-1.1309393724532553,2.96587173409071,1,right
8.658999999999999,-0.05060138383471425,0.8156017244603588,-0.014059576817832285,-2.7848829456582322,-2.5215050212451366,1.561808410963597,0.9389815550594275,-1.0991597888597802,2.9349944415303737,1,right
8.66,-0.04684919036445702,0.8166698735313611,-0.014051004680284225,-2.768044622335039,-2.480335569968862,1.5562379509499782,0.912893015058419,-1.0664163759934346,2.903363084938742,1,right
8.66,-0.04313631942634842,0.8177753372442401,-0.014064099740277045,-2.750668520801228,-2.4398153935303184,1.5508108110349044,0.8866680795486171,-1.032721617623503,2.8709953652744336,1,right
8.664,-0.03946082163381254,0.8189219829297483,-0.014099528316151065,-2.732756512931775,-2.3999725771024414,1.5455175287145166,0.8603190259079574,-0.9980892136245771,2.8379091296756087,1,right
8.665,-0.03582067706604987,0.8201136487068414,-0.01415791840903241,-2.7143103999049587,-2.360833173093806,1.54034852450839,0.8338583556929379,-0.9625340938243473,2.804122362809143,1,right
8.67,-0.0322138032501523,0.82135414091845,-0.014239860443150091,-2.695331977016825,-2.3224211627529394,1.535294101760215,0.8072987868007189,-0.9260724288675359,2.7696531788347243,1,right
8.671,-0.02863806340665623,0.8226472313495435,-0.014345908086808294,-2.6758230943042083,-2.2847584235376366,1.5303444475074541,0.7806532455890941,-0.8887216379965209,2.7345198138888653,1,right
8.674,-0.02509127492000016,0.8239966542347876,-0.014476579168187443,-2.6557857129233153,-2.247864702136891,1.5254896344051028,0.7539348588783482,-0.8505003936465403,2.6987406189918213,1,right
8.675,-0.021571218003415996,0.8254061030649198,-0.01463235669158358,-2.635221957229368,-2.2117575930351396,1.5207196236890128,0.727156945758729,-0.8114286227507713,2.6623340532784154,1,right
8.677999999999999,-0.018075644536441348,0.8268792272010754,-0.014813689948507182,-2.614134162501255,-2.176452522510674,1.5160242691645418,0.7003330091270161,-0.7715275046480262,2.625318677451891,1,right
8.679,-0.014602287061200805,0.8284196283057597,-0.015020995707329048,-2.5925249182536407,-2.141962737962264,1.511393322206556,0.6734767268754612,-0.7308194654833082,2.5877131473580506,1,right
8.684,-0.011148867929884287,0.8300308565989349,-0.015254659456542941,-2.570397107077457,-2.1082993024603023,1.5068164377570625,0.6466019426562025,-0.6893281689890297,2.5495362075751227,1,right
8.685,-0.007713108600992893,0.8317164069478407,-0.015515036670387183,-2.5477539389482096,-2.0754710944210775,1.5022831813069644,0.6197226561441259,-0.6470785035323159,2.510806684913077,1,right
8.687999999999999,-0.004292739086964525,0.833479714798531,-0.015802454061741335,-2.5245989809400258,-2.0434848123051217,1.4977830368486065,0.5928530127210505,-0.6040965653115021,2.471543481714383,1,right
8.689,-0.0008855075608356131,0.8353241519556275,-0.016117210786710665,-2.500936182281881,-2.012344984242943,1.493305415785947,0.5660072925040648,-0.5604096375826848,2.4317655688465893,1,right
8.693999999999999,0.0025108098658562883,0.8372530222159782,-0.016459579568592744,-2.476769894690965,-1.9820539824938501,1.4888396667893051,0.5391998986408274,-0.5160461657950092,2.3914919782755018,1,right
8.696,0.005898399178336011,0.839269556862393,-0.016829807715452758,-2.4521048879166805,-1.9526120426459923,1.4843750865817353,0.5124453447946736,-0.4710357285112786,2.3507417951062095,1,right
8.699,0.009279398290702788,0.8413769100248683,-0.017228118014100638,-2.4269463604273067,-1.9240172874681618,1.4799009316441454,0.48575824174243803,-0.42540900398844456,2.3095341489777286,1,right
8.701,0.01265588666216856,0.8435781539187741,-0.017654709492521684,-2.401299945169909,-1.8962657553263451,1.4754064308263022,0.4591532830080142,-0.3791977322905969,2.267888204695607,1,right
8.704,0.016029874692727823,0.8458762739726214,-0.018109758051676618,-2.3751717103326553,-1.8693514330804335,1.4708807988508783,0.43264522945482403,-0.33243467280521793,2.22582315198547,1,right
8.705,0.019403292904641135,0.8482741638618594,-0.018593416975011014,-2.3485681550372792,-1.843266293378947,1.4663132506976624,0.40624889276056303,-0.2851535570316947,2.183358194249174,1,right
8.708,0.022777980928498923,0.8507746204684927,-0.01910581732904175,-2.3214961998880193,-1.818000336272029,1.461693016855,0.3799791176978259,-0.23738903650940762,2.140512536203956,1,right
8.709,0.026155676324946243,0.8533803387877396,-0.019647068270803945,-2.2939631723019995,-1.7935416350653814,1.4570093594254407,0.3538507631444919,-0.18917662575113026,2.0973053702837956,1,right
8.713,0.029538003284005337,0.8560939068014812,-0.02021725727801051,-2.265976786544633,-1.769876386340181,1.4522515890724461,0.3278786817480732,-0.14055264004598855,2.053755861681032,1,right
8.714,0.032926461251634224,0.85891780033428,-0.020816450315717844,-2.2375451183922994,-1.7469889640663696,1.4474090827948607,0.30207769816859237,-0.09155412799484194,2.009883131905195,1,right
8.719,0.03632241353666924,0.8618543779033632,-0.021444691949706874,-2.2086765743432117,-1.7248619777390268,1.4424713025156721,0.2764625858752422,-0.042218798787100886,1.9657062408033175,1,right
8.72,0.03972707594984003,0.8649058755708982,-0.022102005412706214,-2.179379855296099,-1.703476334469802,1.4374278144713672,0.25104804272394116,0.00741505503599124,1.9212441673267544,1,right
8.72,0.04314150552080402,0.8680744018051024,-0.02278839262581625,-2.1496639146150414,-1.6828113049676245,1.4322683093879505,0.22584866599592265,0.057308637260712086,1.8765157899437468,1,right
8.722999999999999,0.046566589334810136,0.8713619323556008,-0.02350383417421885,-2.1195379104975496,-1.6628445933450833,1.4269826234294192,0.20087892782944164,0.10742272731572364,1.8315398679378334,1,right
8.724,0.05000303353237203,0.8747703051475986,-0.024248289232969903,-2.089011152561739,-1.6435524106889983,1.4215607599041804,0.1761531517258474,0.15771775715336772,1.7863350244896525,1,right
8.728,0.05345135251902656,0.8783012151990259,-0.02502169543502531,-2.0580930425672603,-1.6249095523357686,1.4159929117145709,0.15168549035935422,0.2081538849560089,1.740919731823773,1,right
8.73,0.056911858432107706,0.8819562095649539,-0.02582396867100082,-2.0267930093735567,-1.6068894787129755,1.4102694845036847,0.1274899046690908,0.25869106566386535,1.6953122983597424,1,right
8.731,0.06038465090737839,0.8857366823142926,-0.02665500281092726,-1.9951204391883641,-1.5894643992051094,1.4043811203004004,0.10358014416242799,0.309289118468726,1.6495308577375252,1,right
8.732999999999999,0.0638696071824754,0.8896438695449479,-0.027514669342066946,-1.9630846038691367,-1.57260535777316,1.3983187211878063,0.07996972835932634,0.3599077914183575,1.6035933595869092,1,right
8.734,0.06736637257000092,0.8936788444446023,-0.028402816920050488,-1.9306945909894746,-1.556282318654042,1.3920734723668495,0.05667192930822538,0.4105068232766946,1.5575175619098995,1,right
8.738999999999999,0.07087435133448886,0.897842512404572,-0.02931927083175305,-1.8979592384310662,-1.5404642508730935,1.3856368641394883,0.0336997551048175,0.46104600278508073,1.5113210249446212,1,right
8.738999999999999,0.07439269801299407,0.9021356061940005,-0.030263832369722105,-1.8648870745497268,-1.5251192110344889,1.3790007126104,0.011065934345908439,0.5114852254698878,1.4650211063787986,1,right
8.743,0.07792030922397354,0.9065586812010779,-0.031236278120380035,-1.8314862640126015,-1.510214424261501,1.3721571790587017,-0.011217098548535871,0.561784548141785,1.4186349577804949,1,right
8.744,0.08145581601179565,0.9111121107468166,-0.03223635917007922,-1.797764559212512,-1.4957163632410972,1.3650987879611698,-0.033137217211121624,0.611904241231756,1.3721795221134303,1,right
8.747,0.08499757677661271,0.9157960814755569,-0.03326380023446965,-1.763729257164457,-1.4815908253287224,1.3578184436478828,-0.05468261646553284,0.6618048391086768,1.3256715322039114,1,right
8.748,0.08854367084300262,0.9206105888255937,-0.03431829871910712,-1.7293871617883332,-1.4678030076703756,1.3503094455706113,-0.07584182479179749,0.7114471885228657,1.2791275100261543,1,right
8.752,0.09209189272445248,0.9255554325833496,-0.035399523722859934,-1.6947445514810175,-1.4543175803002595,1.3425655021636584,-0.09660371618125928,0.7607924953195007,1.2325637666725826,1,right
8.753,0.09563974714251623,0.9306302125249103,-0.036507114999556875,-1.659807151880049,-1.4410987571733496,1.3345807432762276,-0.11695752144312466,0.8098023695651713,1.1859964028755308,1,right
8.757,0.09918444485915735,0.9358343241490626,-0.037640681897230265,-1.6245801137202698,-1.4281103650931928,1.3263497311547283,-0.1368928390233457,0.8584388692300897,1.139441309946678,1,right
8.758,0.10272289937853166,0.9411669545062314,-0.03879980229808777,-1.58906799568392,-1.4153159104961266,1.3178674699527648,-0.15639964539545914,0.9066645425676358,1.092914171000486,1,right
8.762,0.10625172457014963,0.9466270781281165,-0.03998402158544306,-1.5532747521438304,-1.4026786440538614,1.3091294137458538,-0.17546830508183028,0.9544424693319453,1.046430462327893,1,right
8.763,0.10976723326049992,0.952213453063588,-0.041192851666203775,-1.517203725698524,-1.3901616230570335,1.3001314730272167,-0.19408958036254897,1.0017363009731803,1.0000054547865656,1,right
8.766,0.11326543683703336,0.9579246170276097,-0.04242577007904297,-1.4808576443972215,-1.377727771542901,1.2908700196602727,-0.21225464072799471,1.048510299948943,0.9536542150740731,1,right
8.767000000000001,0.1167420459072645,0.9637588836707367,-0.04368221921791782,-1.4442386235519267,-1.365339938130794,1.2813418902627158,-0.22995507212983016,1.0947293782890077,0.9073916067504886,1,right
8.772,0.12019247205560603,0.9697143389757874,-0.04496160569732179,-1.407348172032984,-1.3529609515292842,1.271544387996322,-0.24718288608389807,1.1403591355491551,0.8612322908770794,1,right
8.774,0.12361183074049674,0.9757888377865301,-0.04626329987960295,-1.3701872029436917,-1.3405536736792731,1.2614752827358766,-0.2639305286771869,1.1853658962884042,0.8151907261379648,1,right
8.777000000000001,0.12699494537369208,0.9819800004731289,-0.04758663557581148,-1.3327560485687846,-1.3280810504973333,1.2511328095898397,-0.28019088952969645,1.229716747202342,0.7692811683118729,1,right
8.777999999999999,0.130336352621042,0.9882852097416177,-0.04893090992085559,-1.2950544794908063,-1.3155061601836575,1.2405156657446021,-0.2959573107606783,1.2733795740435605,0.7235176689614224,1,right
8.781,0.13363030895789113,0.9947016075995612,-0.05029538341481307,-1.2570817277676203,-1.3027922590588996,1.2296230056034025,-0.31122359600734717,1.316323098458423,0.677914073207699,1,right
8.782,0.136870798501008,1.0012260924978271,-0.051679280119170695,-1.2188365140635298,-1.289902824893991,1.2184544341901882,-0.32598401954276013,1.358516914867499,0.6324840164582654,1,right
8.787,0.14005154212377563,1.0078553166784674,-0.0530817879997817,-1.1803170786256993,-1.2768015976967322,1.2070099987879224,-0.3402333355147451,1.3999315274532165,0.58724092001206,1,right
8.789,0.1431660078474579,1.0145856837667004,-0.054502059413483885,-1.141521215996787,-1.263452617918557,1.1952901787800423,-0.35396678720932445,1.4405383870071564,0.5421979857395278,1,right
8.789,0.14620742249320812,1.0214133466474826,-0.05593921173960536,-1.1024463133539169,-1.2498202620443621,1.1832958736629844,-0.36718011603003703,1.4803099268309374,0.49736819053081166,1,right
8.792,0.1491687845739457,1.0283342056680673,-0.05739232816100442,-1.063089392363332,-1.2358692755276897,1.1710283891969009,-0.3798695697660955,1.5192195965733408,0.4527642814798035,1,right
8.792,0.15204287839695133,1.0353439072122035,-0.058860458601980484,-1.0234471544392685,-1.2215648030328379,1.1584894216609023,-0.3920319098378338,1.5572418931930694,0.4083987724979964,1,right
8.799,0.15482228933834155,1.042437842697062,-0.060342620832367085,-0.9835160292947969,-1.2068724159446604,1.1456810401783721,-0.40366441741699843,1.5943523887904616,0.36428394255870217,1,right
8.8,0.1574994202441805,1.0496111480468684,-0.06183780174902195,-0.943292226656266,-1.1917581371764105,1.1326056671302827,-0.41476489843493075,1.6305277553580675,0.3204318354984147,1,right
8.801,0.16006650891313534,1.0568587036968486,-0.06334495884717081,-0.9027717909357035,-1.1761884636575088,1.1192660569395065,-0.4253316875135737,1.6657457865592598,0.2768542612478946,1,right
8.801,0.16251564662078996,1.0641751351774686,-0.06486302189393113,-0.8619506585170625,-1.1601303875165687,1.1056652739868498,-0.4353636508527152,1.6999854166414419,0.2335627983662708,1,right
8.802,0.16483879764629056,1.0715548143251075,-0.06639089481591258,-0.8208247172348966,-1.1435514173263412,1.091806670684615,-0.44486018810535355,1.7332267365877263,0.19056879775220997,1,right
8.806000000000001,0.16702781975093828,1.0789918611657168,-0.067927457810976,-0.7793898676996571,-1.1264196004233964,1.0776938664668987,-0.4538212332715376,1.7654510076082075,0.14788338740699056,1,right
8.808,0.16907448554300483,1.086480146520143,-0.06947156968699247,-0.7376420862605796,-1.108703546679384,1.0633307279765647,-0.4622472546395002,1.7966406720691503,0.10551747812514238,1,right
8.811,0.17097050465374714,1.0940132953768773,-0.07102207041794849,-0.6955774894727121,-1.090372453746689,1.0487213504622617,-0.4701392538013653,1.8267793619555475,0.06348176998916484,1,right
8.811,0.17270754664783378,1.1015846910689973,-0.0725777838959501,-0.6531923999490493,-1.071396133729196,1.0338700403449457,-0.47749876376917216,1.8558519049595787,0.02178675954572349,1,right
8.816,0.17427726459517978,1.1091874802809178,-0.0741375208516046,-0.6104834134778301,-1.0517450412272036,1.0187812989126588,-0.48432784621542596,1.8838443282845367,-0.019557252458357915,1,right
8.817,0.17567131923992743,1.116814578899332,-0.07570008191592745,-0.5674474672841526,-1.0313903027037643,1.0034598071016039,-0.4906290878608475,1.910743860250764,-0.06054015290104462,1,right
8.82,0.1768814037150962,1.1244586787113657,-0.07726426080317206,-0.5240819093141366,-1.0103037471178709,0.9879104113208581,-0.4964055960304703,1.9365389297870956,-0.10115200779073381,1,right
8.821,0.17789926876607082,1.132112254942907,-0.07882884760381713,-0.48038456841893573,-0.9884579377679763,0.9721381102773942,-0.5016609933977073,1.9612191638881873,-0.14138305357134184,1,right
8.826,0.17871674845991928,1.139767574623558,-0.08039263218757892,-0.43635382531496447,-0.9658262052873122,0.9561480427574007,-0.5063994119344968,1.9847753831149841,-0.18122368834454722,1,right
8.826,0.17932578636921429,1.1474167057624653,-0.08195440772312974,-0.39198868419575567,-0.9423826817303693,0.939945476319247,-0.5106254860841295,2.0071995952124086,-0.22066446312583554,1,right
8.83,0.17971846222917928,1.1550515273205408,-0.08351297432004266,-0.3472888448699151,-0.9181023356877281,0.9235357968527911,-0.514344345171863,2.0284849869151476,-0.2596960732498985,1,right
8.831,0.17988701907576474,1.1626637399675976,-0.0850671427921779,-0.30225477529868255,-0.8929610083641663,0.906924498959108,-0.5175616050669446,2.0486259140091914,-0.2983093500398184,1,right
8.834,0.1798238908785331,1.1702448776146557,-0.08661573854067954,-0.25688778440564897,-0.8669354505526427,0.8901171771041035,-0.5202833591081962,2.067617889713531,-0.33649525285332066,1,right
8.835,0.179521730683967,1.1777863197099232,-0.08815760556520019,-0.21119009503022115,-0.8400033604343569,0.8731195174988869,-0.5225161683038552,2.085457571443145,-0.3742448616182024,1,right
8.84,0.17897343927416626,1.1852793042898446,-0.08969161062247588,-0.1651649168954645,-0.8121434221326065,0.8559372906591913,-0.5242670508149259,2.102142746011128,-0.4115493699678429,1,right
8.841000000000001,0.1781721943068871,1.1927149418056584,-0.09121664754154943,-0.11881651946000242,-0.7833353449456335,0.8385763445955752,-0.5255434707298777,2.117672313324514,-0.44840007908647433,1,right
8.844,0.17711147982598863,1.2000842298147782,-0.09273164167480728,-0.0721503045227016,-0.7535599031810412,0.8210425985855835,-0.5263533261371157,2.132046268625037,-0.4847883923726392,1,right
8.846,0.17578511592821205,1.207378068715229,-0.09423555443644767,-0.025172878447934508,-0.7227989765117068,0.8033420374785237,-0.5267049365002713,2.1452656833227586,-0.5207058110279816,1,right
8.85,0.17418728826535582,1.2145872787637717,-0.09572738786856656,0.022107876121715934,-0.6910355907703891,0.7854807064829957,-0.5266070293399978,2.157332684467171,-0.5561439306772152,1,right
8.85,0.1723125769631953,1.2217026186146012,-0.09720618917608781,0.06968272919935477,-0.6582539590974549,0.7674647063868172,-0.5260687262246135,2.1682504328970795,-0.591094439123784,1,right
8.854,0.170155984450255,1.2287148055381714,-0.09867105518214977,0.11754103316921316,-0.6244395233533212,0.7493001891585115,-0.5250995280706213,2.178023100107234,-0.625549115344379,1,right
8.855,0.16771296162303473,1.235614537357573,-0.10012113666606122,0.16567065341943132,-0.5895789957043299,0.7309933538790577,-0.5237092997635462,2.1866558438853447,-0.6594998297888208,1,right
8.856,0.16497943177453767,1.2423925160255311,-0.10155564253813215,0.21405790002883313,-0.5536604002878504,0.712550442952161,-0.5219082541617673,2.1941547828645467,-0.6929385458740371,1,right
8.86,0.16195181180505103,1.2490394726883987,-0.10297384377392821,0.2626874606451505,-0.5166731148594441,0.6939777385408765,-0.5197069356410979,2.200526970303679,-0.725857322241951,1,right
8.861,0.15862703036982903,1.2555461940123294,-0.10437507698459954,0.3115423346929313,-0.4786079123219183,0.6752815591780087,-0.5171162033901591,2.205780367499202,-0.7582483151732697,1,right
8.863999999999999,0.15500254275509467,1.261903549454453,-0.10575874746370231,0.360603769136239,-0.43945700203790855,0.6564682565078165,-0.5141472146119099,2.20992381713458,-0.7901037807240734,1,right
8.865,0.15107634242915582,1.2681025191045152,-0.10712433156063873,0.40985119645262946,-0.39921407084880445,0.6375442121686775,-0.5108114076892406,2.2129670166991633,-0.8214160764680956,1,right
8.866,0.14684696940219025,1.2741342217465998,-0.10847137829624558,0.4592621762507687,-0.35787432376336453,0.6185158349205008,-0.5071204853179081,2.214920492010623,-0.8521776629024528,1,right
8.87,0.14231351575612292,1.279989942833361,-0.1097995102230018,0.5088123423953295,-0.3154345243004927,0.5993895581728338,-0.5030863975983134,2.2157955708528654,-0.8823811046083215,1,right
8.87,0.13747562897814733,1.2856611620644596,-0.11110842359730023,0.5584753570726506,-0.2718930344432737,0.5801718380167988,-0.49872132507656036,2.2156043567381944,-0.9120190712564943,1,right
8.875,0.13233351396003357,1.2911395802614303,-0.11239788794394584,0.6082228724558738,-0.22724985411458962,0.5608691517692025,-0.49403766172421953,2.214359702799355,-0.9410843385461726,1,right
8.876,0.12688793458112604,1.2964171452878306,-0.11366774503831698,0.6580245001979815,-0.18150666005724353,0.5414879969843859,-0.4890479978452341,2.2120751858139958,-0.9695697891637446,1,right
8.88,0.12114021563363835,1.3014860768504954,-0.11491790721779772,0.7078477888953453,-0.13466684399350676,0.5220348908786238,-0.4837651028974554,2.2087650803610335,-0.9974684138466745,1,right
8.88,0.11509224553195245,1.3063388900829906,-0.1161483548138091,0.7576582096646293,-0.08673554993584591,0.5025163701116333,-0.4782019082153795,2.2044443331053736,-1.0247733126359857,1,right
8.885,0.1087464798835777,1.3109684178436416,-0.11735913246489225,0.8074191499760458,-0.03771971051742851,0.4829389908695306,-0.47237148961977926,2.199128537204445,-1.0514776963991534,1,right
8.885,0.10210594570282878,1.3153678316889834,-0.11855034419624422,0.8570919158860182,0.012371917792139624,0.4633093291933656,-0.4662870498990829,2.1928339068270866,-1.077574888703538,1,right
8.888,0.09517424588384486,1.3195306615504803,-0.11972214738702795,0.9066357428122636,0.06352872072352433,0.44363398149717664,-0.45996190114654545,2.185577251772397,-1.1030583281187816,1,right
8.889,0.08795556352098284,1.323450814256752,-0.12087474595113884,0.9560078149941619,0.11573819363761083,0.4239195652193403,-0.45340944693649304,2.1773759521733127,-1.1279215710248736,1,right
8.894,0.08045466574486365,1.3271225911727509,-0.12200838308906269,1.0051632937810209,0.16898591049256625,0.4041727195508382,-0.44664316432218837,2.1682479332668723,-1.1521582950008333,1,right
8.895,0.07267690689096068,1.33054070532931,-0.1231233337993442,1.0540553548904705,0.22325549449495014,0.384400106183934,-0.4396765856371773,2.158211640210353,-1.1757623028672097,1,right
8.899,0.06462823098611219,1.3337002984657316,-0.12421989707466848,1.1026352347787223,0.27852859058482504,0.3646084100246402,-0.4325232800813213,2.1472860129197624,-1.1987275274538065,1,right
8.9,0.05631517369252772,1.336596958394079,-0.12529838747902727,1.150852286263805,0.33478483990779934,0.3448043398122615,-0.42519683507210687,2.135490460904498,-1.221048037162247,1,right
8.904,0.04774486397573487,1.3392267370178288,-0.126359125668878,1.1986540435421245,0.392001856429864,0.3249946285892288,-0.417710837341249,2.122844838069385,-1.2427180423911721,1,right
8.904,0.03892502584263539,1.3415861692124895,-0.12740242742716493,1.2459862967377944,0.4501552058537648,0.30518603396438004,-0.4100788537560675,2.1093694174527533,-1.2637319028900325,1,right
8.908,0.029863980505476673,1.343672292604141,-0.1284285909695144,1.2927931761231437,0.5092183869984709,0.2853853381128126,-0.40231441184461925,2.0950848658667,-1.2840841361055833,1,right
8.91,0.02057064927460002,1.34548266804221,-0.12943788260247066,1.3390172461476004,0.5691628158060558,0.2655993474554121,-0.3944309800031099,2.080012218403267,-1.3037694265833202,1,right
8.913,0.0110545573727362,1.3470154002606411,-0.1304305211329019,1.384599609410807,0.6299578121429932,0.24583489196116903,-0.3864419473636892,2.0641728527678542,-1.3227826364842143,1,right
8.916,0.0013258386513642277,1.348269157930995,-0.1314066616826122,1.4294800207143095,0.6915705895654796,0.22609882401541442,-0.3783606033003543,2.0475884633988892,-1.3411188172751998,1,right
8.916,-0.008604759159493078,1.3492431921161792,-0.13236637977336846,1.4735970113244785,0.7539662482209202,0.2063980167971498,-0.3702001165503432,2.0302810353304888,-1.358773222649954,1,right
8.92,-0.018725869457039388,1.3499373520568494,-0.13330965669438127,1.5168880235774822,0.8171077710601565,0.18673936210870848,-0.36197351392809557,2.0122728177526654,-1.3757413227345783,1,right
8.921,-0.02902550314892978,1.3503520972511815,-0.134236367128012,1.5592895559551057,0.8809560235373578,0.16712976760106618,-0.3536936586377348,1.993586297248807,-1.392018819593887,1,right
8.922,-0.039491047616701545,1.3504885049283444,-0.13514626970492996,1.6007373187580203,0.9454697569767415,0.14757615333822102,-0.3453732283354978,1.974244170824718,-1.4076016638672528,1,right
8.925,-0.05010926927553609,1.3503482722477496,-0.13603900066834027,1.6411664005007274,1.0106056157874277,0.12808544764418314,-0.33702469335561225,1.9542693190874467,-1.4224860720283505,1,right
8.926,-0.06086632049401746,1.3499337127935378,-0.13691407030852895,1.6805114451498506,1.0763181487097588,0.10866458217625626,-0.32866029565866833,1.9336847800667936,-1.4366685435763613,1,right
8.93,-0.07174775150268664,1.3492477471350643,-0.13777086142572992,1.7187068403247001,1.142559824278321,0.08932048616845334,-0.32029202891571334,1.912513724033896,-1.4501458776490048,1,right
8.931000000000001,-0.08273852785859064,1.3482938874429469,-0.13860862893300255,1.7556869163017503,1.2092810507047826,0.07006007981764915,-0.3119316198789552,1.8907794294235207,-1.4629151888783904,1,right
8.932,-0.09382305393565979,1.3470762163759273,-0.13942649986758152,1.7913861542897307,1.2764302004658004,0.05089026692816898,-0.3035905110442113,1.8685052598282952,-1.4749739224934657,1,right
8.936,-0.10498520278485114,1.3455993606048042,-0.1402234734008585,1.8257393999694538,1.3439536400276266,0.03181792718794591,-0.29527984458108897,1.8457146420041206,-1.486319868707768,1,right
8.937000000000001,-0.11620835260863789,1.3438684594446781,-0.14099842074995012,1.8586820769171957,1.4117957652209032,0.012849908592515972,-0.28701044750690424,1.8224310448243735,-1.4969511764291652,1,right
8.94,-0.12747543001233547,1.3418891292056845,-0.14175008514075924,1.8901503958985792,1.4798990426998715,-0.006006979609515869,-0.27879281808040124,1.7986779591189617,-1.5068663663262134,1,right
8.941,-0.13876896005912356,1.339667424007536,-0.1424770821644547,1.9200815584853275,1.5482040577764367,-0.024745973332838404,-0.27063711339142194,1.7744788783328134,-1.5160643432837284,1,right
8.943999999999999,-0.15007112292723104,1.3372097938634682,-0.14317790098767258,1.9484139548150199,1.6166495688399458,-0.04336035945952186,-0.2625531381227922,1.7498572799369623,-1.524544408278103,1,right
8.946,-0.16136381668879907,1.3345230408381739,-0.14385090688260468,1.9750873555841166,1.6851725685581995,-0.061843481084986815,-0.25455033446083963,1.7248366075240413,-1.5323062697008556,1,right
8.95,-0.17262872547230645,1.3316142740622752,-0.14449434543686332,2.0000430983601025,1.7537083520557835,-0.08018874225967194,-0.2466377731311346,1.6994402535187205,-1.539350054156829,1,right
8.95,-0.18384739208171796,1.3284908643511377,-0.1451063486309436,2.0232242682940123,1.8221905922662125,-0.09838961227986051,-0.238824145536252,1.673691542432407,-1.5456763167614034,1,right
8.954,-0.19500129404224462,1.3251603991220011,-0.14568494279315344,2.044575873309836,1.8905514226545963,-0.11643962958074844,-0.23111775697258338,1.6476137145903784,-1.551286050959019,1,right
8.955,-0.2060719220195215,1.3216306382276461,-0.14622805831034633,2.064045013842376,1.958721527507564,-0.134332405284441,-0.22352652090348743,1.6212299102584458,-1.556180697883242,1,right
8.959,-0.2170408595985369,1.317909471231828,-0.14673354091866644,2.081581047190026,2.026630239987041,-0.15206162645515017,-0.21605795426634997,1.594563154095225,-1.5603621552765568,1,right
8.96,-0.2278898634879407,1.314004876552938,-0.14719916441634334,2.097135746543702,2.094205648144103,-0.16962105911343242,-0.20871917379143276,1.5676363398551536,-1.5638327859859973,1,right
8.966000000000001,-0.23860094330967022,1.3099248828085825,-0.14762264469111167,2.1106634547477365,2.1613747090885957,-0.18700455106085373,-0.20151689331071884,1.5404722152665071,-1.5665954260486803,1,right
8.967,-0.24915644021915645,1.3056775326084256,-0.14800165499081258,2.122121232843017,2.2280633715094442,-0.20420603456600028,-0.19445742203531516,1.5130933670078588,-1.5686533923792665,1,right
8.97,-0.2595391036592021,1.301270848964334,-0.14833384235746655,2.1314690034369512,2.294196706739625,-0.22121952896226516,-0.18754666378034468,1.4855222057056776,-1.570010490069318,1,right
8.971,-0.26973216557452895,1.2967128044154665,-0.14861684509014,2.1386696889390286,2.3596990485585976,-0.23803914320733546,-0.18079011711665074,1.4577809508750779,-1.5706710193064972,1,right
8.975,-0.279719411413237,1.292011292903996,-0.14884831102249524,2.1436893446948067,2.424494141923613,-0.2546590784537831,-0.17419287642904668,1.4298916157251171,-1.5706397819195315,1,right
8.976,-0.28948524723427704,1.2871741043879923,-0.14902591633159393,2.1464972870450985,2.4885053008197224,-0.2710736306796213,-0.1677596338612704,1.401875991749486,-1.569922087552846,1,right
8.979,-0.2990147622418375,1.2822089021451575,-0.1491473845628158,2.1470662163309697,2.551655575416488,-0.2872771934271327,-0.16149468212824405,1.3737556330229426,-1.5685237594727772,1,right
8.98,-0.3082937860870331,1.2771232027078265,-0.14921050556926005,2.145372334858902,2.6138679287173723,-0.3032642606977012,-0.15540191817669727,1.3455518401234192,-1.566451140005287,1,right
8.984,-0.31730894031992457,1.2719243583768123,-0.1492131541104119,2.141395459834131,2.675065422885528,-0.31902943004979073,-0.14948484767568268,1.3172856435993723,-1.5637110956031222,1,right
8.986,-0.32604768344365137,1.2666195422861977,-0.14915330790870338,2.1351191312637376,2.735171415427239,-0.33456740594660744,-0.14374659031899398,1.2889777869016301,-1.5603110215384284,1,right
8.988999999999999,-0.3344983491168639,1.261215736024975,-0.14902906499762092,2.1265307148245913,2.7941097654115588,-0.3498730033993591,-0.1381898859219914,1.260648708698768,-1.5562588462148692,1,right
8.99,-0.3426501771661265,1.25571971985062,-0.1488386602026083,2.115621499684677,2.851805049901788,-0.3649411519513911,-0.13281710128745394,1.2323185245362887,-1.551563035080595,1,right
8.99,-0.3504933371962432,1.2501380655395096,-0.1485804805944254,2.1023867912597547,2.908182790771306,-0.37976690004782326,-0.12763023777364374,1.2040070080069338,-1.5462325940674835,1,right
8.995,-0.35801894471027446,1.2444771319046433,-0.148253079762854,2.086825998880653,2.963169692072889,-0.3943454198346461,-0.12263093942278623,1.1757335719723176,-1.5402770723829708,1,right
8.996,-0.36521906976936136,1.2387430629789096,-0.1478551907659488,2.0689427183398603,3.016693888127112,-0.40867201243055196,-0.11782050146674967,1.1475172505832252,-1.5337065644249146,1,right
8.999,-0.37208673834748235,1.2329417888167071,-0.14738573760588264,2.048744809279377,3.0686852024916353,-0.42274211371408155,-0.1131998790691881,1.1193766826388114,-1.5265317106421363,1,right
9.0,-0.3786159266648087,1.2270790288110032,-0.1468438450909313,2.0262444672515207,3.119075417466209,-0.43655130063820075,-0.10876969623945305,1.0913300964521253,-1.5187636972587326,1,right
9.0,-0.38480154887053236,1.2211602973758648,-0.14622884698386804,2.001458289659562,3.167798551269216,-0.45009529793492253,-0.1045302548960681,1.0633952961823774,-1.5104142548324975,1,right
9.003,-0.39063943846855387,1.215190911822711,-0.14554029239325125,1.9744073336658026,3.2147911354904575,-0.46336998480405617,-0.10048154406649322,1.0355896495531487,-1.501495655626867,1,right
9.004,-0.3961263239070243,1.2091760022398403,-0.14477795041470565,1.9451171635299682,3.2599924829054885,-0.4763714010306392,-0.09662324921045333,1.0079300768760113,-1.4920207097740985,1,right
9.008,-0.40125979885405877,1.2031205231424749,-0.1439418130700781,1.9136178854523649,3.3033449382468247,-0.4890957521236235,-0.09295476165465201,0.9804330412993456,-1.4820027602057215,1,right
9.01,-0.4060382878121826,1.1970292666120177,-0.14303209662074035,1.879944169102381,3.3447941090491,-0.5015394133354103,-0.08947518812723887,0.9531145402025135,-1.4714556763246718,1,right
9.014,-0.41046100780866107,1.1909068766142745,-0.1420492413398832,1.8441352556246349,3.384289076194931,-0.5136989325698197,-0.08618336038094535,0.9259900976559668,-1.460393846391915,1,right
9.014,-0.41452792693145524,1.1847578641703012,-0.1409939098164782,1.8062349520323504,3.4217825842859133,-0.5255710322150413,-0.08307784489434862,0.8990747578683299,-1.4488321685988144,1,right
9.017999999999999,-0.41823972048301217,1.178586623034263,-0.13986698384193297,1.7662916118913132,3.457231211957712,-0.5371526099373058,-0.08015695264126507,0.8723830795420139,-1.436786040794967,1,right
9.02,-0.4215977255039509,1.1723974455089454,-0.13866955991320137,1.7243581021916323,3.4905955222526037,-0.5484407384702004,-0.07741874891881373,0.8459291310594721,-1.4242713488397742,1,right
9.023,-0.42460389438167245,1.1661945380082608,-0.13740294337926634,1.6804917562985278,3.521840193157084,-0.5594326644337273,-0.07486106322522469,0.8197264864228087,-1.411304453544555,1,right
9.024,-0.4272607482169229,1.1599820359639839,-0.13606864125972448,1.6347543128675204,3.550934128406291,-0.5701258062163721,-0.07248149917899754,0.7937882218700918,-1.397902176170638,1,right
9.027999999999999,-0.4295713305850286,1.1537640176771176,-0.1346683537704849,1.5872118406036757,3.577850548651018,-0.5805177509525995,-0.07027744447153882,0.7681269130924058,-1.3840817824475138,1,right
9.029,-0.431539162299863,1.1475445167382397,-0.13320396460200318,1.5379346487390244,3.602567063076997,-0.5906062506273513,-0.06824608084592587,0.7427546329763974,-1.3698609650738325,1,right
9.033,-0.43316819775907645,1.1413275326877537,-0.13167753001435006,1.4869971830969053,3.6250657215599875,-0.600389217338258,-0.06638439409495575,0.7176829497978287,-1.3552578246627853,1,right
9.033999999999999,-0.4344627834042025,1.1351170396525965,-0.13009126684250405,1.4344779076068082,3.6453330474339376,-0.609864717745414,-0.06468918407214115,0.6929229257924447,-1.3402908490922012,1,right
9.038,-0.4354276187575728,1.1289169927749287,-0.12844753954145877,1.3804591711283176,3.6633600509431847,-0.619030966737692,-0.06315707470981158,0.6684851160312957,-1.3249788912185512,1,right
9.039,-0.4360677203988503,1.1227313323363175,-0.12674884643972553,1.3250270594379954,3.679142223443299,-0.6278863203436974,-0.061784524038964624,0.6443795675285083,-1.3093411449129435,1,right
9.043,-0.4363883891264419,1.1165639855753116,-0.1249978054041586,1.2682712322285037,3.692679512408771,-0.6364292679145783,-0.06056783420599019,0.6206158185104039,-1.2933971193761578,1,right
9.044,-0.4363951804252469,1.1104188662929886,-0.12319713913974582,1.2102847449649752,3.703976277299327,-0.6446584236050212,-0.05950316148185875,0.5972028977757805,-1.2771666116887705,1,right
9.049,-0.436093878241891,1.1042998724297493,-0.12134966035403578,1.151163855439581,3.713041226330201,-0.6525725171778671,-0.05858652625982262,0.5741493240781308,-1.2606696775514923,1,right
9.049,-0.4354904719586064,1.098210881862474,-0.11945825701407523,1.0910078148614524,3.7198873341852705,-0.6601703841568871,-0.05781382303812688,0.5514631054615478,-1.2439266001699545,1,right
9.052999999999999,-0.434591136366936,1.0921557467044916,-0.11752587791742443,1.0299186433155803,3.724531740705523,-0.6674509553513541,-0.0571808303846627,0.5291517384830782,-1.2269578572373632,1,right
9.055,-0.4334022143871079,1.0861382863941136,-0.1155555187834684,0.9680008894210765,3.726995630578919,-0.6744132457751446,-0.056683220880921106,0.507222207255314,-1.209784085967675,1,right
9.058,-0.43193020226844064,1.0801622798413446,-0.11355020904309682,0.9053613740161959,3.7273040940513655,-0.6810563429821941,-0.05631657104301813,0.4856809822440662,-1.1924260461312384,1,right
9.059,-0.43018173703743123,1.0742314568741158,-0.11151299946741677,0.8421089176948534,3.7254859686721753,-0.6873793948392191,-0.056076371214364026,0.4645340187875067,-1.174904581112363,1,right
9.059,-0.4281635860185629,1.0683494891832448,-0.10944695073545317,0.7783540520169958,3.721573662081151,-0.6933815967557043,-0.05595803540693794,0.4437867554565798,-1.1572405773485133,1,right
9.062999999999999,-0.4258826383163038,1.0625199809140136,-0.10735512300083708,0.7142087142131118,3.715602955838244,-0.6990621783902384,-0.055956911036106595,0.4234441126517821,-1.1394549231237752,1,right
9.064,-0.4233458981917096,1.056746459016974,-0.10524056648140025,0.6497859252014146,3.707612790290628,-0.7044203898513588,-0.05606828847628934,0.40351049198486083,-1.1215684680296,1,right
9.067,-0.4205604802823535,1.051032363466635,-0.10310631306265018,0.5851994507347847,3.6976450304660324,-0.709455487410148,-0.056287410383121114,0.3839897768428066,-1.1036019840645932,1,right
9.068,-0.4175336066054164,1.0453810374642314,-0.10095536887257643,0.5205634454934444,3.6857442129752624,-0.7141667187408993,-0.05660948076050055,0.3648853342584977,-1.0855761287312844,1,right
9.068999999999999,-0.4142726052614,1.0397957177359116,-0.09879070775515335,0.4559920805730554,3.6719572744391935,-0.7185533077435743,-0.0570296737692331,0.346200018061205,-1.0675114101467122,1,right
9.071,-0.41078491073348955,1.0342795250183994,-0.09661526555544875,0.39159915799003536,3.6563332646405895,-0.7226144391925142,-0.05754314227788832,0.327936173250887,-1.0494281541152473,1,right
9.072000000000001,-0.4070780656624339,1.0288354548012721,-0.09443193513274521,0.3274977215363808,3.6389230524388783,-0.726349243799933,-0.05814502615678618,0.3100956415413987,-1.0313464731119202,1,right
9.077,-0.4031597239511812,1.0234663683849385,-0.09224356202302893,0.2637996764890486,3.6197790351713555,-0.7297567844734532,-0.058830460316308876,0.2926797680189417,-1.0132862371244016,1,right
9.078,-0.3990376549992408,1.0181749843246581,-0.09005294066549029,0.20061542750687922,3.59895485956827,-0.7328360443543434,-0.05959458249100303,0.27568940886329224,-0.9952670463017255,1,right
9.083,-0.3947197488025469,1.0129638703510528,-0.08786281109934926,0.13805353833824663,3.576505157360767,-0.7355859168771842,-0.06043254077119058,0.2591249400805594,-0.9773082053578602,1,right
9.083,-0.3902140216111516,1.0078354358711694,-0.0856758560420129,0.07622041379120104,3.552485296064963,-0.7380051978990819,-0.06133950088404714,0.24298626719744393,-0.9594286996782839,1,right
9.086,-0.3855286218204628,1.0027919251598036,-0.08349469827496588,0.015220003784825657,3.5269511448824473,-0.7400925799072721,-0.06231065322633243,0.22727283586818897,-0.9416471730778423,1,right
9.087,-0.38067183577235597,0.9978354113511801,-0.08132189827961911,-0.04484647069768636,3.499958855652845,-0.7418466483130131,-0.06334121965116955,0.21198364334663855,-0.9239819071583395,1,right
9.091000000000001,-0.3756520931520467,0.9929677913363568,-0.07915995207797655,-0.10388076993164154,3.4715646587895446,-0.7432658798387133,-0.0644264600114683,0.19711725077703934,-0.9064508022145377,1,right
9.092,-0.3704779716804885,0.98819078166261,-0.0770112892444525,-0.16178786622416197,3.4418246741253675,-0.744348643004288,-0.06556167846277204,0.1826717962584438,-0.8890713596375237,1,right
9.097999999999999,-0.36515820081900735,0.9835059155183372,-0.07487827106682962,-0.21847615331055104,3.4107947365907565,-0.7450932007177808,-0.06674222952847847,0.16864500863878945,-0.8718606657647353,1,right
9.099,-0.35970166422435185,0.9789145408709946,-0.07276318884580715,-0.2738576345430942,3.378530236643036,-0.7454977149743223,-0.06796352393054167,0.15503422199594324,-0.8548353771263191,1,right
9.101,-0.354117400720156,0.974417819806834,-0.07066826233306307,-0.327848090038449,3.345085975361429,-0.7455602536665339,-0.0692210341889069,0.14183639076420823,-0.8380117070379347,1,right
9.102,-0.34841460358525256,0.9700167290994012,-0.06859563831535744,-0.38036722294628517,3.310516034118812,-0.7452787995085116,-0.0705102999930594,0.12904810546599135,-0.8214054134905955,1,right
9.106,-0.34260261799905906,0.9657120620073968,-0.06654738935403319,-0.4313387849980902,3.2748736587376275,-0.744651261074547,-0.07182693334918584,0.11666560900952584,-0.8050317882886737,1,right
9.107000000000001,-0.33669093652734344,0.9615044312703104,-0.06452551268505513,-0.4806906814910669,3.238211158034009,-0.7436754859527608,-0.07316662350655162,0.10468481351472693,-0.7889056473877739,1,right
9.111,-0.3306891925761318,0.9573942732326002,-0.06253192927878581,-0.5283550558578329,3.2005798166509143,-0.7423492760128376,-0.07452514166678806,0.09310131763043561,-0.7730413223848017,1,right
9.112,-0.3246071517871222,0.9533818529877163,-0.0605684830556207,-0.5742683539681939,3.1620298220779874,-0.7406704047860521,-0.0758983454798625,0.08191042430746973,-0.7574526531132226,1,right
9.116,-0.318454701395846,0.9494672703989024,-0.058636940254093134,-0.6183713683046193,3.122610205752946,-0.7386366369547795,-0.077282183330571,0.07110715899305561,-0.7421529812972169,1,right
9.117,-0.31224183762309027,0.945650466832209,-0.05673898894968962,-0.6606092621482115,3.0823687981364913,-0.7362457499476777,-0.07867269841944709,0.06068628821335377,-0.7271551452191839,1,right
9.121,-0.30597865121662066,0.9419312324337582,-0.05487623872166991,-0.7009315739069366,3.0413521976500983,-0.7334955576357094,-0.08006603264202286,0.05064233851191927,-0.7124714753558457,1,right
9.122,-0.299675311299894,0.9383092137981026,-0.0530502204586389,-0.739292201712695,2.999605753363558,-0.7303839361231609,-0.08145843027040935,0.04096961571305093,-0.6981137909390217,1,right
9.125,-0.2933420477157942,0.9347839219020286,-0.05126238628198975,-0.7756493684084629,2.9571735613167625,-0.7269088516267818,-0.08284624144118219,0.031662224480080915,-0.6840933973980213,1,right
9.126,-0.2869891320727228,0.9313547402106452,-0.049514109554588244,-0.8099655670412363,2.9140984743580005,-0.7230683904351429,-0.08422592545242738,0.02271408812553248,-0.6704210846405323,1,right
9.127,-0.28062685769602486,0.9280209328933031,-0.04780668493654512,-0.8422074869708936,2.870422125378937,-0.7188607909392662,-0.08559405386709826,0.014118968560106575,-0.6571071261250231,1,right
9.13,-0.27426551865982346,0.9247816531102626,-0.046141328452276885,-0.8723459206993351,2.8261849638244634,-0.7142844777245418,-0.08694731340956133,0.00587048614064804,-0.6441612786699951,1,right
9.131,-0.2679153880552306,0.9216359513434843,-0.044519177538708175,-0.9003556515184109,2.781426305353777,-0.7093380977128951,-0.08828250863648472,-0.0020378608927588806,-0.6315927829416199,1,right
9.135,-0.2615866956657088,0.918582783747712,-0.04294129105091485,-0.9262153220691972,2.7361843945272972,-0.704020558343113,-0.08959656436889048,-0.009612677628369459,-0.6194103645671272,1,right
9.136000000000001,-0.2552896052431383,0.9156210204965649,-0.04140864921133218,-0.9499072843230403,2.6904964801153883,-0.6983310677001652,-0.09088652788241078,-0.016860654451980886,-0.6076222358310058,1,right
9.137,-0.24903419156898157,0.9127494540976153,-0.03992215349998894,-0.9714174336081507,2.644398901238188,-0.6922691761232168,-0.09214957085843713,-0.023788549810697546,-0.5962360979169763,1,right
9.142000000000001,-0.24283041744666217,0.909966807651379,-0.03848262648975173,-0.9907350331144142,2.5979271800511268,-0.6858348181368263,-0.0933829910999307,-0.030403173793033988,-0.5852591436607508,1,right
9.142999999999999,-0.23668811074315926,0.9072717430281901,-0.037090811632708956,-1.0078525374223335,2.5511161153042767,-0.6790283531686795,-0.09458421401559401,-0.03671137254619163,-0.5746980607797352,1,right
9.145,-0.23061694160273033,0.9046628689309216,-0.0357473730075696,-1.0227654214762862,2.503999872487654,-0.6718506038962162,-0.09575079387602597,-0.04272001355042594,-0.5645590355469792,1,right
9.146,-0.2246263999754226,0.902138748803373,-0.03445289504453246,-1.0354720176009413,2.456612068766844,-0.6643028917475751,-0.09688041484539843,-0.04843597176952076,-0.5548477568778549,1,right
9.149,-0.21872577361438603,0.8996979085388234,-0.03320788224846916,-1.0459733610338926,2.408985852297514,-0.6563870694612903,-0.09797089179209942,-0.053866116695506415,-0.5455694207991376,1,right
9.15,-0.21292412669916558,0.8973388439410042,-0.03201275893843151,-1.054273044017348,2.3611539757835267,-0.6481055506841235,-0.09902017088168975,-0.05901730030489769,-0.5367287352713745,1,right
9.155,-0.20723027924394166,0.8950600278873752,-0.0308678690115752,-1.0603770784853783,2.3131488641426032,-0.6394613365853503,-0.10002632995541302,-0.06389634594288679,-0.5283299253366556,1,right
9.156,-0.20165278744825113,0.8928599171405031,-0.02977347572807687,-1.0642937673768995,2.265002676142777,-0.6304580394647704,-0.10098757869738743,-0.06851003815110543,-0.5203767385651403,1,right
9.16,-0.1961999251379027,0.8907369587491764,-0.02872976150804153,-1.0660335845982474,2.2167473598723135,-0.6210999033306535,-0.10190225859348948,-0.0728651134537688,-0.5128724507749558,1,right
9.161,-0.19087966642483886,0.8886895959791989,-0.027736827736918962,-1.0656090636528928,2.1684147019052507,-0.6113918214227978,-0.10276884268481623,-0.0769682521162321,-0.5058198720013428,1,right
9.164,-0.18569966969146526,0.8867162737160129,-0.02679469459125969,-1.0630346949495775,2.1200363700243168,-0.6013393506548471,-0.10358593511848385,-0.08082607088922804,-0.4992213526922129,1,right
9.165,-0.18066726298358685,0.8848154432882969,-0.02590330091400053,-1.0583268317938912,2.071643949362673,-0.5909487229489914,-0.1043522704983869,-0.0844451167513109,-0.49307879010856337,1,right
9.17,-0.1757894308796524,0.8829855666734835,-0.025062504178764253,-1.0515036050621018,2.023268971825703,-0.5802268534351757,-0.10506671303840467,-0.08783186166130846,-0.48739363490949467,1,right
9.171,-0.17107280289233556,0.881225120059484,-0.024272080580447053,-1.0425848465498815,1.974942938653937,-0.5691813454859533,-0.10572825552039934,-0.0909926983318783,-0.4821668979028789,1,right
9.177,-0.16652364344961762,0.8795325967473173,-0.02353172527556698,-1.0315920209824394,1.9266973359881607,-0.5578204925571467,-0.10633601805920465,-0.09393393703457918,-0.4773991569440371,1,right
9.177999999999999,-0.16214784349377834,0.8779065093858572,-0.02284105277799211,-1.0185481666665062,1.8785636432978075,-0.5461532768035323,-0.10688924667665571,-0.09666180344620023,-0.4730905639660944,1,right
9.179,-0.15795091372674558,0.8763453915362026,-0.02219959750304612,-1.0034778447585917,1.8305733345338764,-0.5341893644378373,-0.10738731168655834,-0.09918243754544208,-0.46924085212700034,1,right
9.18,-0.15393797952057267,0.874847798574393,-0.021606814449177985,-0.9864070971179889,1.7827578718678447,-0.5219390978004295,-0.10782970589234199,-0.10150189356841244,-0.46584934305951764,1,right
9.185,-0.15011377750417548,0.87341230795953,-0.021062080008967116,-0.967363412707103,1.7351486918783678,-0.509413484106205,-0.10821604259898464,-0.10362614103078607,-0.46291495421180184,1,right
9.186,-0.146482653831224,0.8720375189173498,-0.02056469290843231,-0.9463757024958712,1.6877771840479738,-0.49662418083432713,-0.10854605344063897,-0.1055610668238832,-0.46043620626751086,1,right
9.189,-0.1430485641262439,0.8707220516131453,-0.020113875285459232,-0.9234742828212908,1.6406746614324543,-0.48358347772564825,-0.10881958602523016,-0.10731247839134227,-0.45841123063569933,1,right
9.191,-0.13981507509271324,0.8694645459114778,-0.019708773931432565,-0.8986908671474114,1.5938723233662537,-0.4703042753518561,-0.10903660139713435,-0.10888610799250224,-0.4568377770020648,1,right
9.193999999999999,-0.13678536774614958,0.8682636598436899,-0.019348461728589974,-0.8720585661655638,1.5474012100678396,-0.4568000602196323,-0.10919717131888552,-0.11028761805806564,-0.4557132209344209,1,right
9.195,-0.1339622422083186,0.8671180679258321,-0.019031939314864316,-0.8436118961691047,1.5012921490098048,-0.4430848763723875,-0.10930147537269676,-0.11152260764308564,-0.4550345715365754,1,right
9.195,-0.1313481239717946,0.8660264594818808,-0.018758136997783358,-0.8133867956315527,1.4555756929193227,-0.42917329345145444,-0.10934979788523778,-0.11259661995533642,-0.4547984791485293,1,right
