time,gFx,gFy,gFz,ax,ay,az,wx,wy,wz,subject_number,foot
2.086,0.2700153170985299,1.1209422475566475,-0.06489514714839671,-1.610873550806077,0.050700443214841545,1.3268958930225143,0.11005956159738309,0.6399527556200247,1.4667153669898156,3,right
2.0869999999999997,0.273809235392488,1.1227519132191608,-0.06700814868069574,-1.579143857206918,0.09495098244486573,1.318986008105043,0.09563377057226663,0.6637207166341988,1.4240234740748432,3,right
2.0909999999999997,0.27747053532092397,1.1245798037275598,-0.06911608013688925,-1.5465136010315317,0.1386151168279109,1.310533275560628,0.08150602207480453,0.6871443337582214,1.3812140171618201,3,right
2.092,0.28099846453358124,1.1264276550206624,-0.07121750393902784,-1.5130055778989495,0.18168050775177458,1.3015398200490116,0.06768173972950084,0.710208250551797,1.3382980370883732,3,right
2.096,0.2843922574251904,1.1282970700170027,-0.07331093790891567,-1.4786429683922933,0.22413564936107974,1.292008087007523,0.05416604243855334,0.7328975848169528,1.295286803281732,3,right
2.097,0.2876511235937282,1.1301895108453641,-0.07539485468198852,-1.4434493227101624,0.2659698780666651,1.2819408477571803,0.04096373898822479,0.7551979467831258,1.2521918174456896,3,right
2.1,0.29077423608845376,1.1321062914955207,-0.07746768127098419,-1.4074485454655798,0.30717338020040497,1.2713412044620966,0.02807932342658086,0.7770954556054612,1.209024817077576,3,right
2.101,0.29376071955372884,1.1340485709358714,-0.07952779879298362,-1.3706648805338304,0.3477371979373972,1.26021259491482,0.015516971173778026,0.7985767542414689,1.1657977786917053,3,right
2.105,0.29660963839562915,1.1360173467371817,-0.08157354237881835,-1.3331228958481416,0.3876532336056779,1.2485587971186876,0.0032805358269845466,0.8196290227700728,1.1225229206255238,3,right
2.106,0.2993199851182084,1.138013449232954,-0.08360320128730034,-1.2948474680398403,0.4269142525018085,1.236383933636756,-0.00862645337707013,0.840239990215928,1.0792127053044769,3,right
2.11,0.3018906689921277,1.1400375362370758,-0.0856150192481703,-1.2558637668173658,0.46551388432884855,1.2236924756753451,-0.0202007934779974,0.8603979449406901,1.035879840841443,3,right
2.11,0.30432050522906395,1.1420900883305545,-0.08760719505973778,-1.2161972389763467,0.5034466233713659,1.2104892468687267,-0.031439609121247464,0.8800917436616876,0.9925372818464414,3,right
2.115,0.3066082048400343,1.1441714047228035,-0.08957788347039894,-1.1758735919308394,0.5407078275202569,1.1967794267299898,-0.04234035333540188,0.8993108191571805,0.9491982293222253,3,right
2.116,0.30875236535492323,1.1462815996882028,-0.09152519637382614,-1.134918776653793,0.5772937162582514,1.182568553731638,-0.052900807790504545,0.9180451867160908,0.9058761295213014,3,right
2.12,0.3107514625764575,1.148420599575071,-0.09344720434310999,-1.0933589699128463,0.6132013677150643,1.1678625279779948,-0.06311908256971176,0.9362854493887576,0.8625846716398955,3,right
2.121,0.31260384353648496,1.1505881403823435,-0.09534193852159885,-1.0512205556856735,0.6484287148992245,1.1526676134300515,-0.07299361548557139,0.9540228020939049,0.8193377842243901,3,right
2.125,0.3143077208146555,1.152783765898743,-0.09720739288047871,-1.0085301056372815,0.6829745412116789,1.1369904396419392,-0.08252317097126462,0.9712490346356221,0.776149630165812,3,right
2.126,0.3158611683672824,1.1550068263990094,-0.09904152684639755,-0.9653143585399254,0.7168384753443185,1.120838002966798,-0.09170683857616123,0.9879565336827366,0.7330346001580326,3,right
2.13,0.31726211899642287,1.1572564778919465,-0.10084226829761544,-0.9216001985146481,0.7500209856646237,1.1042176671884019,-0.10054403109405252,1.004138283761518,0.6900073044954773,3,right
2.13,0.3185083635670159,1.1595316819155554,-0.10260751692503095,-0.8774146319718632,0.7825233741856689,1.0871371635335214,-0.10903448235143608,1.0197878673111789,0.6470825630863053,3,right
2.137,0.319597552055401,1.1618312058737423,-0.10433514795413752,-0.8327847631268898,0.8143477702187691,1.0696045900186353,-0.11717824468223298,1.0348994638501587,0.6042753935572336,3,right
2.137,0.32052719648768474,1.164153623906369,-0.10602301622358948,-0.787737767964921,0.8454971238040958,1.0516284100832658,-0.1249756861143241,1.0494678482996602,0.5616009973264313,3,right
2.14,0.32129467580129856,1.1664973182809875,-0.1076689606147878,-0.7423008665285495,0.8759751990126372,1.033217450460884,-0.13242748729229628,1.063488388509383,0.5190747435212052,3,right
2.14,0.321897242636028,1.1688604812916552,-0.10927080882559899,-0.6965012933996999,0.9057865672109333,1.014380898237039,-0.139534638159794,1.0769570420288541,0.4767121506175362,3,right
2.144,0.3223320320315876,1.1712411176486868,-0.11082638248064872,-0.6503662662466169,0.9349366003780766,0.9951282970430883,-0.1462984344238779,1.0898703521661974,0.434528865678907,3,right
2.145,0.32259607198106904,1.173637047343445,-0.11233350256954233,-0.6039229523054418,0.9634314645625442,0.9754695423326581,-0.15272047382279966,1.102225443374611,0.3925406410722877,3,right
2.15,0.3226862957692214,1.1760459089738287,-0.11378999520210555,-0.5571984326648654,0.9912781135645126,0.9554148756867459,-0.1588026522122395,1.1140200160005227,0.35076330862151717,3,right
2.151,0.32259955601751966,1.17846516351844,-0.11519369766913404,-0.5102196642213803,1.0184842829274086,0.9349748780921733,-0.16454715945720363,1.125252340402236,0.3092127515683308,3,right
2.151,0.3223326403625568,1.1808920985485292,-0.11654246480254099,-0.46301343917177534,1.0450584843205708,0.914160462136942,-0.16995647506744022,1.1359212504038598,0.2679048754489464,3,right
2.156,0.32188228869337615,1.183323832864365,-0.11783417563684212,-0.41560634190869944,1.0710100003930327,0.892982863064901,-0.17503336348639315,1.146026136024135,0.2268555794042236,3,right
2.157,0.3212452118537812,1.1857573215424022,-0.11906674037108184,-0.3680247033419083,1.0963488801111176,0.8714536286718632,-0.17978086896960777,1.155566935441731,0.18608072903256412,3,right
2.157,0.32041811169216894,1.1881893613932293,-0.12023810761013644,-0.32029455345470664,1.1210859342632977,0.8495846082284013,-0.18420231003589657,1.16454412619938,0.14559613115832132,3,right
2.1590000000000003,0.3193977023307662,1.1906165968628508,-0.12134627183662358,-0.2724415743221199,1.1452327302246146,0.8273879409810111,-0.18830127350048276,1.1729587156711647,0.10541751047972808,3,right
2.16,0.31818073251319,1.193035526458639,-0.12238928103702086,-0.22449105660438473,1.168801584743784,0.8048760449864779,-0.19208160810376795,1.1808122308203652,0.06556048797924205,3,right
2.1630000000000003,0.3167640088585033,1.1954425098321575,-0.12336524438119495,-0.17646786174136392,1.1918055538417964,0.782061606829153,-0.19554741774843232,1.1881067072736626,0.026040560980041007,3,right
2.164,0.31514441981841745,1.1978337756748632,-0.1242723398473234,-0.12839639065553732,1.2142584194984987,0.758957572402397,-0.19870305435665128,1.1948446777358719,-0.013126915266720881,3,right
2.168,0.31331896011622457,1.2002054305603922,-0.1251088217036331,-0.08030055898338471,1.2361746731294083,0.7355771387303816,-0.2015531103582977,1.2010291597677671,-0.051926744578360946,3,right
2.169,0.31128475542708256,1.2025534688101123,-0.12587302779188278,-0.032203778697255075,1.2575694959188726,0.7119337467647371,-0.2041024108200945,1.206663642947965,-0.09034390553431723,3,right
2.175,0.30903908702630756,1.2048737833908265,-0.12656338658711083,0.015871054020322458,1.2784587360741066,0.688041075089704,-0.20635600522479372,1.2117520754382252,-0.12836356597948403,3,right
2.175,0.3065794160955194,1.2071621777916355,-0.12717842402708404,0.06390156478800224,1.298858883063101,0.6639130344686506,-0.20831915890857958,1.216298849969944,-0.1659710964486629,3,right
2.18,0.3039034073597176,1.2094143787809901,-0.12771677011584295,0.11186590106078015,1.3187870388978946,0.6395637631640636,-0.20999734416402965,1.220308789268034,-0.2031520826224596,3,right
2.181,0.30100895175274583,1.2116260499217606,-0.12817716531639076,0.15974272632700415,1.3382608865232595,0.6150076229624074,-0.21139623101511967,1.223787130926819,-0.23989233692381579,3,right
2.184,0.2978941878797461,1.2137928057241714,-0.1285584667639051,0.207511208605169,1.3572986553694366,0.5902591958345668,-0.2125216776699233,1.2267395117510147,-0.2761779093631806,3,right
2.185,0.2945575221516793,1.2159102263403783,-0.12885965435063912,0.25515100337823793,1.375919084126211,0.5653332811619552,-0.2133797206558402,1.2291719515733275,-0.311995097739103,3,right
2.188,0.29099764759100955,1.2179738727403069,-0.12907983675116155,0.30264223110298377,1.394141380794306,0.5402448934577787,-0.2139765646413835,1.2310908365586744,-0.3473304572997595,3,right
2.188,0.2872135614326165,1.2199793023408196,-0.12921825747036716,0.3499654494315319,1.4119851800688286,0.5150092605123887,-0.21431857194777285,1.2325029020035179,-0.3821708099696265,3,right
2.193,0.28320458175237634,1.221922085075702,-0.1292743010043559,0.3971016202819185,1.429470498108302,0.4896418218911538,-0.21441225175281117,1.2334152146373198,-0.41650325324416204,3,right
2.194,0.27897036342872034,1.2237978198878223,-0.12924749919457923,0.4440320718940518,1.4466176847416687,0.4641582277128079,-0.21426424898877378,1.2338351544316388,-0.4503151688539769,3,right
2.198,0.2745109137657664,1.225602151601792,-0.12913753781635245,0.4907384560069826,1.4634473731645745,0.43857433763581566,-0.2138813329353057,1.2337703959209438,-0.48359423129855456,3,right
2.198,0.26982660807526676,1.2273307881035735,-0.12894426337341341,0.5372027002928529,1.4799804271752015,0.41290621997991306,-0.2132703855076116,1.233228889037782,-0.5163284163481219,3,right
2.2030000000000003,0.26491820543204575,1.228979517719842,-0.1286676899821034,0.583406956182302,1.4962378859989611,0.38717015090964985,-0.2124383892395267,1.23221883946352,-0.5485060096107744,3,right
2.204,0.25978686469437656,1.2305442266595914,-0.12830800613738044,0.6293335422154669,1.5122409067504325,0.3613826136064739,-0.21139241496038433,1.2307486884944934,-0.5801156152604342,3,right
2.208,0.2544341607324175,1.2320209163554179,-0.12786558107239174,0.6749648830520162,1.528010704580091,0.3355602973556541,-0.21013960916393934,1.2288270924220248,-0.6111461650196497,3,right
2.209,0.24886210065176792,1.2334057205224418,-0.12734097036733547,0.7202834442729135,1.5435684905525726,0.30972009647414456,-0.20868718106697326,1.226462901423429,-0.6415869274896537,3,right
2.2119999999999997,0.24307313965187466,1.234694921743558,-0.12673492044808035,0.765271663105807,1.5589354073024964,0.28387910900534497,-0.20704238935459102,1.2236651379597965,-0.6714275179184588,3,right
2.213,0.23707019603558846,1.2358849674012828,-0.1260483716577303,0.8099118752050927,1.5741324625131876,0.2580546351066139,-0.20521252860862643,1.2204429746750582,-0.7006579084961101,3,right
2.218,0.23085666480366487,1.2369724848166972,-0.12528245969254057,0.8541862376168039,1.5891804602630477,0.23226417505533872,-0.20320491541499916,1.2168057117895557,-0.7292684392645218,3,right
2.219,0.2244364292500673,1.2379542955170595,-0.12443851534563094,0.8980766480575257,1.6040999302837522,0.20652542679936584,-0.20102687416303075,1.2127627540117796,-0.7572498296917497,3,right
2.219,0.21781387004321917,1.238827428611669,-0.12351806263853851,0.9415646606355371,1.6189110551739863,0.18085628297764192,-0.1986857226377788,1.2083235871490963,-0.7845931907795443,3,right
2.222,0.2109938714215243,1.2395891332902527,-0.12252281548927998,0.9846313981413296,1.6336335956119865,0.15527482733701514,-0.19618875766538818,1.2034977548821766,-0.8112900372485918,3,right
2.224,0.20398182428964398,1.2402368904708152,-0.12145467307713104,1.0272574610335474,1.6482868136097952,0.12979933047129433,-0.19354324115955152,1.1982948363250676,-0.8373322991647922,3,right
2.225,0.19678362613207337,1.2407684236266727,-0.12031571405846339,1.0694228334366118,1.6628893939457325,0.10444824480517927,-0.19075638682812,1.1927244248333126,-0.8627123325473437,3,right
2.228,0.18940567776322295,1.2411817088181538,-0.11910818976853216,1.111106787421948,1.677459364380917,0.07924019872750189,-0.18783534763900656,1.1867961082363423,-0.8874229288202039,3,right
2.228,0.18185487701499128,1.2414749839374768,-0.11783451650394818,1.1522877885658263,1.6920140161107078,0.05419398974535578,-0.1847872040555143,1.1805194505108831,-0.9114573231458724,3,right
2.233,0.17413860953769528,1.2416467571386267,-0.11649726693595616,1.1929434067323699,1.706569826371378,0.029328576512623935,-0.18161895303309905,1.1739039748794018,-0.9348092017143899,3,right
2.234,0.1662647369738618,1.2416958143636998,-0.11509916066379375,1.2330502350720343,1.7211423846526521,0.004663069605251468,-0.1783374977691907,1.1669591483165778,-0.957472708058527,3,right
2.237,0.15824158282863365,1.2416212258008132,-0.11364305387270743,1.2725838185020484,1.7357463231214454,-0.019783279050758027,-0.1749496381973312,1.1596943674457907,-0.9794424484641922,3,right
2.238,0.15007791636136955,1.2414223510350553,-0.11213192803185178,1.3115185919769363,1.7503952513925738,-0.043991088173698206,-0.171462062216543,1.1521189458066408,-1.0007134965431295,3,right
2.242,0.14178293475526416,1.2410988426006624,-0.11056887759880922,1.3498278286642822,1.765101695688327,-0.0679408606136837,-0.16788133764651575,1.1442421024735698,-1.0212813970330044,3,right
2.242,0.13336624370624753,1.240650647622414,-0.10895709679771241,1.3874835981392517,1.7798770424288897,-0.09161299840352806,-0.164213904898893,1.1360729520047363,-1.0411421688879745,3,right
2.247,0.12483783643790414,1.2400780072575752,-0.10729986564678186,1.4244567347096655,1.7947314862957173,-0.11498781944247627,-0.16046607035465446,1.1276204956993983,-1.0602923077208466,3,right
2.248,0.11620807104063989,1.239381453720279,-0.10560053546179929,1.4607168159816095,1.8096739828101405,-0.1380455758815512,-0.15664400043732093,1.1188936141411971,-1.0787287876558953,3,right
2.252,0.10748764599498889,1.2385618047794318,-0.10386251405714847,1.4962321517737014,1.8247122054696643,-0.1607664742784752,-0.15275371637146046,1.109901061003896,-1.096449062649391,3,right
2.253,0.09868757377687506,1.2376201557495168,-0.10208925085811406,1.5309697834861604,1.8398525074846566,-0.1831306975892739,-0.14880108961574173,1.1006514580953064,-1.113451067332843,3,right
2.258,0.08981915252125444,1.2365578691182448,-0.10028422214721493,1.5648954940287718,1.8550998881583656,-0.2051184290627584,-0.1447918379595686,1.091153291614355,-1.1297332174319163,3,right
2.259,0.08089393579807048,1.235376562058737,-0.09845091666655505,1.597973828409708,1.870457963953482,-0.22670987810311438,-0.14073152227213204,1.0814149095954755,-1.1452944098119235,3,right
2.261,0.07192370060824226,1.2340780921489802,-0.09659282177412193,1.6301681250849218,1.8859289442887508,-0.24788530816480162,-0.1366255438925375,1.0714445205137706,-1.1601340221987304,3,right
2.262,0.06292041373139942,1.232664541666688,-0.09471341032457657,1.6614405581654939,1.901513612109441,-0.26862506674288666,-0.13247914264950178,1.0612501930236775,-1.1742519126218465,3,right
2.2680000000000002,0.053896196556811854,1.2311382008454426,-0.09281612842688568,1.6917521905778852,1.9172113092757994,-0.28890961752079214,-0.12829739549896707,1.0508398568031798,-1.187648418624402,3,right
2.2680000000000002,0.04486328852117046,1.2295015504706293,-0.09090438421046344,1.721063038269491,1.9330199268139339,-0.3087195747362521,-0.124085215767848,1.0402213044749387,-1.2003243562826442,3,right
2.271,0.03583400928056555,1.2277572441634992,-0.08898153769644968,1.7493321455492574,1.9489359000738948,-0.3280357398250105,-0.11984735299201092,1.0294021945750758,-1.2122810190755053,3,right
2.272,0.02682071976902233,1.2259080906521047,-0.08705089182249527,1.7765176716503475,1.9649542088400438,-0.3468391404004943,-0.11558839333648326,1.0183900555397196,-1.2235201766427342,3,right
2.2769999999999997,0.017835782341187677,1.2239570362658356,-0.08511568461601035,1.8025769885989709,1.9810683824391182,-0.36511107162632744,-0.11131276058580279,1.0071922906788264,-1.2340440734680052,3,right
2.278,0.008891520254137525,1.2219071478271823,-0.08317908246437218,1.8274667904705004,1.9972705098917032,-0.3828331400371356,-0.10702471769234201,0.995816184106212,-1.2438554275213596,3,right
2.281,1.768010082968156e-07,1.2197615960627388,-0.08124417440327646,1.8511432141108775,2.0135512551531107,-0.39998730986161923,-0.10272836887038249,0.9842689075941744,-1.2529574288932668,3,right
2.281,-0.008826125545234395,1.2175236396228342,-0.07931396733952305,1.8735619713980698,2.0298998774899464,-0.41655595190034383,-0.09842766222366597,0.9725575283205568,-1.2613537384505475,3,right
2.286,-0.017575425600948828,1.2151966097831148,-0.07739138213652583,1.8946784931150007,2.04630425703888,-0.4325218950091213,-0.0941263928875766,0.9606890174595856,-1.26904848652982,3,right
2.286,-0.026235963204489725,1.2127838958917934,-0.07547925051209046,1.9144480845018597,2.062750925594373,-0.44786848023722275,-0.0898282066344082,0.9486702594873438,-1.2760462716194252,3,right
2.287,-0.03479621793193215,1.210288931617414,-0.07358031272072028,1.9328260925521075,2.0792251026722988,-0.4625796176679831,-0.08553660383133788,0.9365080619282872,-1.2823521588659792,3,right
2.291,-0.04324494657358204,1.2077151820499028,-0.07169721600980737,1.9497680851127386,2.095710736896557,-0.47663984600762827,-0.0812549436080476,0.9242091651887713,-1.287971678177026,3,right
2.292,-0.05157121915750709,1.2050661317163351,-0.06983251384562222,1.9652300418454987,2.1121905527558917,-0.49003439496637613,-0.07698644812362228,0.9117802522031162,-1.2929108217519116,3,right
2.292,-0.059764453297196,1.2023452735810036,-0.06798866589865665,1.9791685567672241,2.1286461026951207,-0.5027492503444887,-0.07273420688118987,0.8992279577612973,-1.2971760409838171,3,right
2.2969999999999997,-0.06781444666161268,1.1995560990935163,-0.06616803876226349,1.991541050410669,2.145057824089591,-0.5147712210863259,-0.06850118107147482,0.8865588774669495,-1.300774242736576,3,right
2.2969999999999997,-0.07571140741112962,1.1967020893290405,-0.06437290735946319,2.0023059866321335,2.161405099903889,-0.5260880063975814,-0.06429020793300962,0.873779576289993,-1.303712785010476,3,right
2.303,-0.08344598246671328,1.1937867072412423,-0.06260545696585264,2.0114230874151535,2.177666321420341,-0.5366882603711717,-0.06010400511679485,0.8608965966778366,-1.3059994720093127,3,right
2.303,-0.09100928345924629,1.1908133910255263,-0.06086778573696034,2.0188535406876946,2.193818951838126,-0.5465616522130183,-0.055945175043253796,0.8479164661887759,-1.3076425486190504,3,right
2.305,-0.09839291016601757,1.1877855485632598,-0.0591619075899935,2.02456019917648,2.209839590291416,-0.5556989213229016,-0.05181620923939034,0.8348457046108917,-1.3086506943065455,3,right
2.306,-0.10558897121410836,1.1847065528845613,-0.05748975527092473,2.0285077699900222,2.2257040362501197,-0.564091927131263,-0.04771949264412992,0.8216908305294496,-1.309033016444921,3,right
2.31,-0.11259010182083531,1.1815797385543854,-0.055853183440492275,2.0306629949516326,2.2413873543495817,-0.571733693720301,-0.04365730786990175,0.808458367305531,-1.3087990430703333,3,right
2.31,-0.11938947834529991,1.1784083988616476,-0.054253971631963244,2.03099482169872,2.2568639396952084,-0.5786184492555908,-0.03963183940860604,0.7951548484283563,-1.3079587150730398,3,right
2.315,-0.12598082944436417,1.1751957836773608,-0.05269382696761646,2.029474565559648,2.272107583687542,-0.5847416602523244,-0.03564517777020224,0.7817868222035257,-1.3065223778238932,3,right
2.316,-0.1323584436646365,1.171945097845457,-0.05117438656648252,2.0260760622142784,2.2870915404127805,-0.5901000606981119,-0.03169932354225361,0.768360855739181,-1.3045007722356088,3,right
2.3209999999999997,-0.13851717336083905,1.1686594999782995,-0.04969721962519055,2.0207758111390897,2.3017885936431495,-0.5946916760521113,-0.027796191358868336,0.75488353819188,-1.3019050252564137,3,right
2.3209999999999997,-0.14445243490862827,1.1653421015463954,-0.04826382919736908,2.0135531098324475,2.3161711244908556,-0.5985158421380704,-0.023937613767589058,0.7413614832337985,-1.2987466397919745,3,right
2.325,-0.15016020527053575,1.161995966176089,-0.04687565372578027,2.0043901788102136,2.33021117975861,-0.6015732189466699,-0.02012534498289949,0.7278013307027027,-1.2950374840498202,3,right
2.326,-0.1556370150674745,1.158624109095478,-0.04553406838881383,1.9932722773564246,2.343880541028884,-0.6038657993603569,-0.016361064515139377,0.7142097473959927,-1.2907897802988275,3,right
2.33,-0.16087993839457831,1.1552294966911802,-0.0442403863090921,1.980187810008248,2.357150794533151,-0.605396912811656,-0.012646380663746945,0.7005934269699824,-1.286016093034722,3,right
2.331,-0.16588657969048165,1.1518150461518313,-0.04299585964387013,1.9651284237488682,2.369993401841391,-0.6061712238837454,-0.00898283386388085,0.6869590889054773,-1.2807293165409648,3,right
2.335,-0.1706550580194041,1.1483836251768227,-0.04180168054552,1.9480890958763328,2.382379771411059,-0.6061947258598911,-0.005371899875611282,0.6733134765006198,-1.2749426618328514,3,right
2.336,-0.17518398915626174,1.1449380517229073,-0.040658981955959496,1.929068212510756,2.3942813310335884,-0.6054747292261466,-0.0018149928050122618,0.6596633538519,-1.2686696429711337,3,right
2.34,-0.1794724658797547,1.1414810937515432,-0.039568838188231585,1.9080676376966073,2.405669601215249,-0.6040198451295583,0.0016865320533660706,0.6460155017841785,-1.2619240627300092,3,right
2.3409999999999997,-0.18352003688082064,1.138015468931359,-0.03853226525331624,1.8850927730511309,2.416516269527887,-0.601839963791956,0.0051313755630154,0.6323767126905363,-1.2547199976028818,3,right
2.344,-0.18732668468791933,1.1345438442466635,-0.037550220907048126,1.8601526079042594,2.426793265963676,-0.5989462278772827,0.008518292291192523,0.6187537842427517,-1.247071782127902,3,right
2.345,-0.19089280299934863,1.131068835466287,-0.03662360441376822,1.8332597598697002,2.4364728393265347,-0.5953510008083012,0.011846088263904134,0.6051535119332148,-1.2389939925139413,3,right
2.349,-0.19421917379682493,1.1275930064370314,-0.03575325604340289,1.8044305057812207,2.4455276346913037,-0.5910678300264434,0.015113618940046534,0.5915826804091102,-1.2305014295463328,3,right
2.35,-0.19730694459264866,1.1241188681809218,-0.03493995633214722,1.773684802922506,2.453930771960154,-0.5861114051865136,0.018319787414427417,0.5780480535597513,-1.2216091007504426,3,right
2.355,-0.2001576061340358,1.1206488777934616,-0.034184425140877016,1.7410463004733745,2.461655925543967,-0.5804975112759476,0.021463542859227094,0.5645563633180071,-1.212332201789893,3,right
2.356,-0.20277297085060655,1.1171854371582328,-0.0334873205408083,1.7065423410895693,2.4686774051946454,-0.5742429766463535,0.024543879208197963,0.5511142971785941,-1.202686097100785,3,right
2.3569999999999998,-0.20515515227926157,1.1137308915059023,-0.03284923754731624,1.6702039525278556,2.474970238012437,-0.5673656159431321,0.027559834062296562,0.5377284846448028,-1.1926862998906425,3,right
2.36,-0.20730654563889697,1.110287527851209,-0.032270706714862124,1.6320658292227228,2.4805102516504047,-0.5598841679170837,0.030510487749492686,0.5244054831910168,-1.1823484518610612,3,right
2.3609999999999998,-0.209229809677775,1.1068575733488557,-0.031752192602024464,1.592166303715633,2.4852741587361655,-0.5518182281000741,0.03339496244588975,0.511151764537219,-1.1716883031405105,3,right
2.3609999999999998,-0.2109278498901228,1.1034431936246456,-0.03129409211643215,1.5505473079086471,2.4892396424148386,-0.5431881764613109,0.03621242129053391,0.49797370182314693,-1.1607216927841968,3,right
2.363,-0.2124038031775269,1.100046491149695,-0.03089673275181333,1.5072543244897871,2.4923854423445655,-0.534015100840409,0.03896206747187268,0.48487755789427384,-1.1494645299655597,3,right
2.364,-0.21366102399994713,1.096669503722504,-0.030560370730905603,1.4623363295577287,2.4946914394469895,-0.5243207181781773,0.041643143289061935,0.4718694747032983,-1.137932775854522,3,right
2.37,-0.2147030720264021,1.0933142031185723,-0.030285189070709838,1.4158457278491698,2.49613873714237,-0.5141272962457963,0.04425492919621335,0.458955463789296,-1.1261424261510187,3,right
2.371,-0.21553370126114224,1.0899824939723013,-0.03007129559201376,1.367838281586731,2.496709737367077,-0.5034575778901463,0.04679674283747974,0.44614139779692663,-1.1141094942415042,3,right
2.375,-0.2161568505848228,1.0866762129593506,-0.029918720899986137,1.3183730332753072,2.496388210695544,-0.49233470858510603,0.049267938080678635,0.4334330029983402,-1.1018499949453429,3,right
2.376,-0.21657663561250395,1.0833971283342652,-0.0298274163640301,1.2675122223895778,2.4951593604567255,-0.48078216739586144,0.051667904056955684,0.42083585278069546,-1.0893799288172483,3,right
2.38,-0.2167973417338257,1.0801469398500383,-0.029797252124047824,1.2153211958148853,2.4930098808466488,-0.46882370132562196,0.053996064213788435,0.408355362062493,-1.0767152669712354,3,right
2.38,-0.21682341816692058,1.0769272790521622,-0.029828015149147805,1.1618683118995206,2.4899280090361224,-0.45648326301284115,0.056251875388428185,0.3959967826022266,-1.0638719363909053,3,right
2.385,-0.21665947282949524,1.073739709905309,-0.02991940737568398,1.1072248379724465,2.4859035712700295,-0.44378495174580707,0.05843482690867327,0.38376519916317564,-1.0508658056902718,3,right
2.385,-0.2163102678111795,1.0705857296805716,-0.03007104395567723,1.0514648411766714,2.480928022952009,-0.430752957760299,0.06054443972766065,0.3716655264984976,-1.037712671288782,3,right
2.388,-0.21578071522171297,1.0674667700099782,-0.03028245165356435,0.9946650724648743,2.4749944827056543,-0.4174115097849126,0.06258026559915507,0.3597025071211284,-1.02442824396367,3,right
2.388,-0.21507587318970872,1.0643841980061304,-0.030553067437037493,0.9369048436004626,2.46809776040064,-0.40378482579762615,0.06454188629960592,0.3478807098233631,-1.0110281357423145,3,right
2.3930000000000002,-0.21420094179579768,1.0613393173487096,-0.03088223731443215,0.8782658970040457,2.4602343791294823,-0.38989706695622317,0.06642891290303105,0.33620452891136815,-0.9975278470968497,3,right
2.394,-0.21316125874067565,1.0583333692536863,-0.031269215474664235,0.8188322682823242,2.4514025911178647,-0.3757722946642963,0.06824098511457508,0.32467818412026794,-0.9839427544028979,3,right
2.398,-0.21196229457192534,1.055367533261327,-0.031713163784881024,0.7586901412736416,2.4416023875487114,-0.361434430733739,0.06997777066837649,0.3133057211758551,-0.9702880976239648,3,right
2.399,-0.21060964732225793,1.0524429278021294,-0.03221315169574569,0.6979276954419233,2.430835502277419,-0.3469072206038818,0.07163896479516388,0.30209101296938984,-0.956578968182747,3,right
2.403,-0.20910903644493045,1.0495606105231785,-0.0327681565958093,0.636634945448454,2.419105409412871,-0.3322141995767471,0.07322428976478595,0.29103776131238684,-0.9428302969803581,3,right
2.404,-0.20746629596875407,1.046721578378764,-0.0333770646467887,0.5749035727289095,2.406417314736092,-0.3173786620272846,0.0747334945086642,0.2801494992387259,-0.9290568425242796,3,right
2.408,-0.20568736683342254,1.0439267675071167,-0.03403867212170222,0.5128267489012833,2.3927781409256075,-0.3024236335469061,0.07616635432693954,0.269429593821879,-0.9152731791256858,3,right
2.408,-0.20377828840309323,1.0411770529296216,-0.03475168725712804,0.45049895082882774,2.3781965065558337,-0.2873718459781599,0.0775226706848669,0.2588812494755073,-0.9014936851266802,3,right
2.4130000000000003,-0.2017451891904426,1.0384732481190215,-0.03551473261968459,0.38801576716087094,2.362682698832062,-0.2722457152979765,0.07880227110279273,0.248507511706157,-0.8877325311179038,3,right
2.4130000000000003,-0.1995942768537425,1.0358161044879906,-0.03632634797649355,0.3254736961733853,2.3462486400228633,-0.2570673223065722,0.0800050091438309,0.23831127128726526,-0.8740036681069533,3,right
2.418,-0.1973318275544104,1.033206310849498,-0.03718499364992776,0.2629699347304602,2.32890784754806,-0.24185839607881976,0.08113076450313346,0.22829526882417978,-0.8603208155980511,3,right
2.419,-0.19496417478103142,1.0306444928968421,-0.038089054327372,0.20060215818739022,2.3106753876777155,-0.22664030013467912,0.08217944320243163,0.21846209968039806,-0.8466974495434693,3,right
2.423,-0.19249769775666323,1.028131212744633,-0.039036843287514125,0.13846829105592123,2.291567822794964,-0.21143402128513328,0.08315097789090942,0.20881421923049343,-0.8331467901480176,3,right
2.423,-0.18993880954410333,1.0256669685620192,-0.040026606999544724,0.0766662682523079,2.27160315217289,-0.1962601611099827,0.084045328241289,0.19935394837947662,-0.8196817896116649,3,right
2.424,-0.18729394494935883,1.0232521943176822,-0.041056530052061294,0.015293786749227494,2.2508007462131308,-0.18113893002382644,0.0848624814082537,0.19008347924164223,-0.8063151200820455,3,right
2.427,-0.18456954831508673,1.020887259647031,-0.04212474036699111,-0.04555195254673309,2.2291812740913297,-0.1660901438865908,0.0856024525041503,0.1810048808462441,-0.793059162192434,3,right
2.428,-0.18177206130729956,1.0185724698479377,-0.0432293146441063,-0.1057745128693475,2.2067666247521496,-0.15113322311505886,0.08626528505865332,0.17212010476411982,-0.7799259944573946,3,right
2.4290000000000003,-0.178907910814933,1.0163080660094583,-0.04436828397102868,-0.16527849936867345,2.183579821361178,-0.13628719420398863,0.08685105145038383,0.16343099059715316,-0.7669273836120779,3,right
2.432,-0.1759834970793421,1.0140942252753975,-0.04553963953355269,-0.2239698442060068,2.1596449301540486,-0.12157069332554075,0.08735985331021655,0.15493927129925145,-0.754074775877833,3,right
2.432,-0.17300518214996966,1.0119310612420362,-0.046741338371277905,-0.28175609274764246,2.1349869661243828,-0.10700197124386364,0.08779182189817912,0.1466465783033183,-0.741379289116435,3,right
2.437,-0.16997927874535373,1.0098186244890806,-0.04797130913144717,-0.33854668250414977,2.109631798825247,-0.09259889854192627,0.08814711845562681,0.13855444642926357,-0.7288517058356079,3,right
2.438,-0.16691203959793735,1.0077569032452007,-0.04922745777094952,-0.39425320859054597,2.0836060607213693,-0.07837897039813611,0.0884259345341545,0.13066431854865992,-0.7165024670089457,3,right
2.443,-0.16380964736422524,1.0057458241928936,-0.05050767314909201,-0.44878967331596886,2.05693705902371,-0.06435931058283799,0.08862849230248719,0.12297754998222622,-0.7043416666737863,3,right
2.443,-0.160678205173221,1.0037852534209875,-0.05180983245178788,-0.5020727196396012,2.02965269110067,-0.0505566745853404,0.08875504483237026,0.115495412606895,-0.6923790472710687,3,right
2.447,-0.15752372786757407,1.0018749975365862,-0.05313180639282567,-0.5540218486526913,2.0017813633912285,-0.0369874518306562,0.08880587636426067,0.10821909864980002,-0.6806239956917224,3,right
2.447,-0.1543521339729473,1.0000148049500044,-0.0544714641483711,-0.604559621243159,1.9733519137434596,-0.023667666945719007,0.0887813025534016,0.10114972414710499,-0.6690855399946724,3,right
2.452,-0.1511692384159205,0.998204367344885,-0.05582667799481782,-0.6536118440956818,1.9443935371001042,-0.010612980035459239,0.08868167069664497,0.09428833204618178,-0.6577723467621179,3,right
2.452,-0.1479807459979296,0.9964433213420906,-0.05719532763233357,-0.7011077401763316,1.9149357144511963,0.0021613140702063174,0.08850735994016841,0.08763589493023752,-0.646692719058332,3,right
2.457,-0.14479224562044338,0.9947312503613273,-0.058575304182625854,-0.7469801038467812,1.885008144972136,0.014640287636701978,0.08825878146801652,0.08119331734508443,-0.6358545949588554,3,right
2.458,-0.14160920524484472,0.9930676866782733,-0.05996451385017355,-0.7911654407488454,1.8546406812640825,0.026809382949907284,0.08793637867118148,0.07496143770834376,-0.6252655466176028,3,right
2.461,-0.13843696755962204,0.9914521136664118,-0.06136088123411835,-0.8336040925956524,1.8238632676121047,0.0386544163827228,0.08754062729672281,0.06894102978197458,-0.6149327798400688,3,right
2.4619999999999997,-0.1352807463160577,0.9898839682022776,-0.06276235227603544,-0.8742403470010884,1.792705881175181,0.05016158363890496,0.08707203557621339,0.06313280368962204,-0.6048631341315154,3,right
2.468,-0.13214562327957052,0.9883626432022419,-0.06416689683047719,-0.9130225324743213,1.761198476020876,0.06131746620909798,0.08653114433258645,0.0575374064608838,-0.5950630831897384,3,right
2.469,-0.12903654572730117,0.9868874902505653,-0.06557251085219726,-0.9499030987011959,1.7293709299163436,0.07210903907306074,0.08591852706424764,0.05215542208520136,-0.5855387358127416,3,right
2.471,-0.1259583244069764,0.9854578222739765,-0.06697721820443145,-0.9848386822291283,1.6972529937862109,0.08252367968111674,0.08523479000510745,0.04698737105869202,-0.5762958371924061,3,right
2.472,-0.12291563186253536,0.9840729162181633,-0.06837907210384206,-1.0177901576668074,1.6648742437468997,0.092549178246847,0.08448057215898118,0.042033709407848854,-0.5673397705660175,3,right
2.476,-0.11991300103028237,0.9827320156854632,-0.06977615622819433,-1.0487226745045577,1.6322640356260145,0.10217374938199997,0.08365654530659798,0.037294827174648555,-0.5586755591982985,3,right
2.476,-0.11695482401327675,0.9814343334983597,-0.07116658552182145,-1.0776056796556408,1.5994514618745928,0.11138604510351055,0.08276341398325612,0.032771046348222,-0.5503078686674091,3,right
2.4819999999999998,-0.11404535094888991,0.9801790541584728,-0.07254850674149915,-1.1044129258130804,1.56646531077927,0.12017516924140367,0.08180191542495918,0.028462618228857584,-0.5422410094291947,3,right
2.483,-0.11118868889461604,0.9789653361761065,-0.0739200987916258,-1.1291224657108063,1.5333340278807392,0.12853069327520655,0.0807728194806677,0.024369720210724526,-0.5344789396348045,3,right
2.4859999999999998,-0.10838880067155263,0.9777923142522519,-0.07527957290105422,-1.1517166323720334,1.5000856795043038,0.1364426736253108,0.07967692848810189,0.020492451970321138,-0.5270252681776489,3,right
2.4859999999999998,-0.1056495036240839,0.9766591013033326,-0.07662517269177921,-1.1721820054218395,1.466747918307827,0.14390167042451069,0.07851507711033509,0.01683083104827142,-0.5198832579465328,3,right
2.491,-0.10297446827558476,0.9755647903277802,-0.07795517418117073,-1.1905093635348882,1.433347950751959,0.1508987677936994,0.07728813213022331,0.013384787812712368,-0.5130558292626718,3,right
2.491,-0.1003672168784256,0.974508456121004,-0.07926788574753608,-1.206693623083171,1.3999125063971898,0.15742559564443184,0.07599699220056137,0.010154159810343205,-0.5065455634825232,3,right
2.492,-0.09783112186796736,0.9734891568497807,-0.08056164807823304,-1.2207337630425463,1.366467808932013,0.16347435302976263,0.07464258755285108,0.007138685597874275,-0.5003547067659304,3,right
2.495,-0.09536940423512871,0.972505935498435,-0.08183483411349202,-1.2326327362107092,1.3330395488363123,0.16903783306344192,0.07322587967671178,0.004337998302117765,-0.4944851740399982,3,right
2.496,-0.09298513183762568,0.9715578212004268,-0.08308584899794663,-1.2423973667830854,1.2996528575839732,0.1741094494262022,0.07174786098696391,0.001751619243628336,-0.48893855320670415,3,right
2.496,-0.09068121768014356,0.9706438304725834,-0.08431313005388766,-1.250038234558809,1.2663322833056168,0.17868326440681986,0.07020955449004976,-0.0006210481266277455,-0.4837161096264905,3,right
2.501,-0.08846041820054859,0.9697629683719562,-0.08551514679207634,-1.2555695472019044,1.2331017679169856,0.1827540180758559,0.06861201345194495,-0.0027807238823648103,-0.47881879088098933,3,right
2.502,-0.08632533159629557,0.968914229592917,-0.08669040097514456,-1.2590090040630568,1.199984625870888,0.18631715756147396,0.06695632106435417,-0.004728256859053121,-0.4742472318022848,3,right
2.505,-0.08427839622057952,0.9680965995166518,-0.08783742674648584,-1.260377656220363,1.1670035247753858,0.1893688650469182,0.06524359010477375,-0.006464629479794944,-0.47000175975371106,3,right
2.506,-0.08232188908008224,0.967309055220728,-0.08895479083659265,-1.2596997662323017,1.1341804680365808,0.19190608345617685,0.06347496258583447,-0.007990962176207345,-0.4660824001481198,3,right
2.511,-0.08045792447098969,0.9665505664528367,-0.09004109285851263,-1.257002669003772,1.1015367795324131,0.19392653941999594,0.06165160938917057,-0.009308517409908595,-0.4624888821904837,3,right
2.512,-0.07868845279111925,0.9658200965686946,-0.09109496570208542,-1.252316634001005,1.0690930902396973,0.19542876346132526,0.059774729878897,-0.010418703299598719,-0.4592206448326416,3,right
2.515,-0.07701525956510685,0.9651166034301482,-0.09211507603220885,-1.2456747288134584,1.0368693267201459,0.19641210740748116,0.05784555148961704,-0.01132307685812165,-0.456276842928924,3,right
2.516,-0.07543996471982015,0.9644390402567575,-0.09310012489112386,-1.2371126840550144,1.0048847013716498,0.1968767590348271,0.05586532928372437,-0.01202334684329705,-0.45365635358233464,3,right
2.52,-0.07396402214896074,0.9637863564222855,-0.09404884840035908,-1.226668759591088,0.9731577043516553,0.19682375395028578,0.05383534547261085,-0.012521376225714382,-0.4513577826718985,3,right
2.521,-0.07258871960890032,0.9631574981869488,-0.0949600185558364,-1.214383612072641,0.9417060970801105,0.19625498471250863,0.05175690889624055,-0.012819184276090951,-0.4493794715527166,3,right
2.526,-0.0713151789907519,0.9625514093589337,-0.09583244411097924,-1.2003001637525914,0.9105469072301354,0.1951732071940391,0.049631354455404085,-0.01291894827420962,-0.44771950392119575,3,right
2.5269999999999997,-0.07014435701396195,0.9619670318852671,-0.0966649715471262,-1.184463472554699,0.8796964251153125,0.19358204418432193,0.04746004249082459,-0.012823004840871262,-0.4463757128388476,3,right
2.53,-0.06907704638309307,0.9614033063796721,-0.09745648613500951,-1.1669206033597301,0.8491702013832818,0.1914859862319307,0.04524435810314734,-0.012533850893722158,-0.44534568790896956,3,right
2.531,-0.06811387744250091,0.9608591725996151,-0.0982059130920734,-1.1477205004685418,0.818983045926164,0.1888903897229134,0.042985710407709876,-0.012054144227247971,-0.4446267826014341,3,right
2.536,-0.06725532035433351,0.9603335698859683,-0.09891221883702943,-1.1269138611966882,0.789149027919219,0.18580147219069434,0.04068553171785787,-0.011386703716664049,-0.44421612172172026,3,right
2.537,-0.06650168781452313,0.9598254375783997,-0.09957441233741655,-1.1045530105502617,0.759681476900079,0.18222630485152363,0.038345276650444834,-0.010534509144877153,-0.4441106090212243,3,right
2.54,-0.06585313830935054,0.9593337154191045,-0.10019154654154348,-1.0806917769279194,0.7305929848018657,0.17817280235802987,0.03596642114703024,-0.009500700651146575,-0.444306934946776,3,right
2.541,-0.06530967990117025,0.9588573439579411,-0.10076271988455064,-1.0553853687894375,0.7018954088545162,0.1736497097620187,0.033550461404171325,-0.008288577799533714,-0.4448015845281757,3,right
2.545,-0.0648711745158923,0.9583952649741172,-0.1012870778581883,-1.0286902522266705,0.6735998752696918,0.1686665866762634,0.03109891270608885,-0.006901598264698722,-0.44559084540344157,3,right
2.546,-0.06453734268877477,0.9579464219319851,-0.10176381463371138,-1.0006640293684899,0.6457167836257325,0.1632337886236615,0.02861330815287626,-0.0053433761320814946,-0.4466708159823234,3,right
2.55,-0.06430776871214554,0.9575097604894061,-0.10219217472634211,-0.9713653175471214,0.618255811870239,0.15736244556078444,0.026095197277315074,-0.0036176798089923327,-0.44803741374949557,3,right
2.55,-0.06418190612044498,0.9570842290758653,-0.10257145468786699,-0.9408536291493218,0.5912259218590207,0.15106443756152763,0.02354614454325715,-0.001728429542635655,-0.4496863837096888,3,right
2.5540000000000003,-0.06415908344359499,0.9566687795533335,-0.10290100481167466,-0.9091892520720056,0.5646353653513285,0.14435236764527767,0.0209677277184367,0.00032030545940148707,-0.45161330697785357,3,right
2.555,-0.0642385101572972,0.9562623679652995,-0.10318023083335626,-0.8764331306982849,0.5384916903825063,0.1372395317327556,0.018361536114481564,0.002524310311145117,-0.4538136095182735,3,right
2.559,-0.06441928275879286,0.9558639553707349,-0.10340859561116036,-0.8426467473063981,0.5128017479364251,0.12973988571147077,0.01572916869165211,0.004879228131530007,-0.4562825710301984,3,right
2.56,-0.0647003909026487,0.955472508753664,-0.10358562077385355,-0.8078920038206971,0.4875716988413325,0.12186800959153207,0.013072232049990532,0.007380564095254916,-0.45901533394259686,3,right
2.56,-0.06508072354311559,0.9550870019956654,-0.10371088832732997,-0.7722311038107258,0.4628070208140259,0.11363906873141316,0.01039233837211317,0.010023689758477549,-0.4620069124170126,3,right
2.5639999999999996,-0.06555907503869929,0.9547064168938744,-0.10378404221372153,-0.7357264346414623,0.4385125155785635,0.10506877211215876,0.007691103407041908,0.012803847534048639,-0.46525220122251015,3,right
2.565,-0.0661341511758768,0.9543297441990118,-0.10380478981642867,-0.6984404496750193,0.4146923159870454,0.09617332763745051,0.004970144560161622,0.01571615522441886,-0.468745984383226,3,right
2.565,-0.06680457507016795,0.953955984640935,-0.10377290340253878,-0.6604355505115843,0.39134989309377605,0.08696939451898958,0.002231079110694905,0.018755610580184556,-0.47248294356417875,3,right
2.57,-0.06756889291168545,0.9535841499086096,-0.10368822149346518,-0.621773969705415,0.3684880632476844,0.07747403322098467,-0.0005244774462146193,0.021917095885645554,-0.4764576661974947,3,right
2.57,-0.06842557953664052,0.9532132635566811,-0.10355065015563782,-0.5825176552002845,0.3461089954712292,0.06770465418416337,-0.003294912940623511,0.025195382579730693,-0.4806646533590745,3,right
2.575,-0.06937304382052786,0.9528423618157015,-0.10336016420258518,-0.542728158177168,0.3242142195076033,0.05767896696415076,-0.006078619959979374,0.02858513592101147,-0.48509832740642445,3,right
2.576,-0.0704096339007889,0.952470494283223,-0.10311680829632276,-0.5024665255546117,0.3028046348072142,0.047414931002911435,-0.00887399718029387,0.03208091970587469,-0.48975303938905806,3,right
2.5789999999999997,-0.07153364224805035,0.9520967244713935,-0.10282069793202776,-0.4617931975696946,0.28188052052381407,0.03693070850360244,-0.011679450604253147,0.03567720104926032,-0.49462307624354296,3,right
2.58,-0.0727433106166609,0.9517201301890932,-0.10247202028769158,-0.4207679104155006,0.2614415464798274,0.026244619463137105,-0.014493394714259087,0.03936835523769058,-0.49970266778591643,3,right
2.5839999999999996,-0.07403683491572988,0.951339803744836,-0.10207103491933779,-0.3794496038195706,0.24148678503937196,0.015375098833013055,-0.017314253548428308,0.04314867066462099,-0.5049859935148299,3,right
2.585,-0.0754123700493006,0.9509548519687099,-0.10161807428157373,-0.33789633344661985,0.2220147238288632,0.004340655778325411,-0.020140461707604806,0.04701235385843217,-0.5104671892393997,3,right
2.589,-0.07686803477775919,0.9505643960661279,-0.10111354405293509,-0.29616518800779273,0.20302327924648494,-0.0068401649956933005,-0.02297046530146661,0.05095353461365401,-0.5161403535463441,3,right
2.591,-0.07840191665072936,0.9501675713328086,-0.10055792324678342,-0.2543122109578831,0.18450981070319755,-0.018148819880792005,-0.02580272284182659,0.054966271236269494,-0.5219995541215713,3,right
2.593,-0.08001207705300638,0.9497635267774015,-0.09995176409220458,-0.21239232666127206,0.16647113553934154,-0.029566800998137747,-0.02863570609124304,0.059044555914184824,-0.5280388339419523,3,right
2.594,-0.08169655639033084,0.9493514247132346,-0.09929569167445107,-0.17045927090682148,0.14890354456227378,-0.04107566885814975,-0.03146790087506659,0.06318232022417504,-0.5342522173535631,3,right
2.5989999999999998,-0.08345337942426993,0.9489304403932515,-0.09859040332888068,-0.1285655256516084,0.13180281815184458,-0.05265708308017776,-0.0342978078650564,0.06737344078681974,-0.5406337160532146,3,right
2.5989999999999998,-0.08528056074780163,0.9484997617700853,-0.09783666778506224,-0.08676225787319235,0.11516424288188784,-0.06429283120478582,-0.0371239433427009,0.07161174508113166,-0.5471773349906075,3,right
2.603,-0.08717611037597671,0.9480585894612105,-0.0970353240597176,-0.04509926241006565,0.09898262860724794,-0.07596485563166377,-0.03994483995037585,0.0758910174307515,-0.5538770782089484,3,right
2.6039999999999996,-0.08913803940941756,0.9476061369852198,-0.09618728010001232,-0.003624908670047291,0.0832523259672076,-0.08765527871639772,-0.042759047438466154,0.08020500517373585,-0.5607269546423469,3,right
2.609,-0.09116436571242943,0.9471416313129792,-0.09529351118219544,0.0376139089133619,0.0679672442575071,-0.09934642605948697,-0.045565133416567066,0.08454742502810028,-0.5677209838887771,3,right
2.61,-0.09325311953224548,0.9466643137505485,-0.0943550580726607,0.07857181679624531,0.053120869624457355,-0.11102084802109935,-0.04836168411686526,0.08891196966539719,-0.5748532019778404,3,right
2.613,-0.0954023489734335,0.9461734411420573,-0.09337302495832683,0.11920500473020153,0.038706283535944866,-0.12266133949511061,-0.05114730517778116,0.0932923145047081,-0.5821176671529912,3,right
2.614,-0.09761012523484043,0.9456682873542419,-0.0923485771533548,0.1594712647773108,0.024716181485404297,-0.1342509579759755,-0.053920622455930635,0.09768212473951123,-0.5895084656883074,3,right
2.617,-0.09987454751677856,0.9451481449844028,-0.09128293859323953,0.1993300270517035,0.011142891886094337,-0.14577303995193147,-0.05668028287443685,0.10207506260994884,-0.5970197177602795,3,right
2.6180000000000003,-0.10219374751284424,0.9446123272218824,-0.09017738913589157,0.23874239230436833,-0.0020216048857482306,-0.15721121565793805,-0.05942495531559156,0.10646479493306446,-0.6046455833954764,3,right
2.6239999999999997,-0.10456589341280925,0.9440601697889148,-0.08903326169951735,0.27767116146678694,-0.014785657339082653,-0.16854942222161015,-0.062153331565829986,0.1108450009036069,-0.612380268515305,3,right
2.625,-0.10698919335871873,0.943491032888326,-0.08785193927484404,0.3160808622678146,-0.027157923646576158,-0.17977191523520972,-0.06486412732094418,0.11520938017800747,-0.6202180310994319,3,right
2.628,-0.1094618983142263,0.9429043030920782,-0.0866348518513511,0.3539377730369486,-0.03914735239128984,-0.19086327878652032,-0.06755608325604133,0.11955166124300412,-0.6281531874779618,3,right
2.6289999999999996,-0.1119823043265961,0.9422993951154134,-0.08538347329258439,0.3912099438057386,-0.050763163318224856,-0.20180843398114198,-0.0702279661478293,0.12386561001474491,-0.6361801187038065,3,right
2.6289999999999996,-0.11454875418024116,0.9416757534336482,-0.08409931818718276,0.4278672148176094,-0.0620148281262904,-0.2125926459884126,-0.07287857000638227,0.12814503851405243,-0.6442932768508033,3,right
2.6319999999999997,-0.11715963846027175,0.9410328537061526,-0.08278393869590905,0.4638812325547778,-0.07291205133515578,-0.22320152964278567,-0.07550671715660774,0.13238381340785205,-0.6524871910244435,3,right
2.6319999999999997,-0.11981339606763342,0.9403702039717039,-0.08143892141349214,0.4992254633892727,-0.08346475126037604,-0.23362105363207555,-0.078111259226456,0.136575864262301,-0.6607564729313172,3,right
2.633,-0.12250851425291207,0.9396873455774211,-0.08006588426396151,0.5338752049329205,-0.09368304112400924,-0.24383754332615537,-0.08069107802923124,0.14071519145316133,-0.6690958219597901,3,right
2.638,-0.12524352825320245,0.9389838538070123,-0.07866647344570026,0.5678075950073949,-0.10357721030129509,-0.25383768241237115,-0.0832450863441764,0.1447958737344577,-0.677500029783646,3,right
2.639,-0.1280170206205861,0.9382593381815064,-0.0772423604383178,0.6010016178800582,-0.11315770565684143,-0.26360851370711913,-0.08577222860281138,0.14881207547744987,-0.685963984512437,3,right
2.642,-0.130827620336113,0.9375134424103704,-0.07579523907977218,0.6334381072574109,-0.12243511289717449,-0.2731374396256318,-0.08827148148843356,0.15275805359179792,-0.694482674412489,3,right
2.642,-0.13367400182212608,0.9367458439715407,-0.07432682271852763,0.6650997456778284,-0.13142013789120824,-0.2824122226782158,-0.09074185445611523,0.15662816414063088,-0.7030511912226922,3,right
2.6489999999999996,-0.1365548839871851,0.9359562533013008,-0.07283884143960917,0.6959710602165996,-0.14012358795542157,-0.2914209861568012,-0.09318239018045552,0.16041686866104346,-0.7116647330893826,3,right
2.6489999999999996,-0.13946902944690043,0.9351444125845436,-0.07133303935514877,0.726038414566028,-0.14855635312529183,-0.30015221506178585,-0.09559216493826439,0.16411874020134465,-0.7203186071447746,3,right
2.6519999999999997,-0.14241524406165101,0.9343100941533128,-0.06981117194253708,0.7552899975815164,-0.15672938743881976,-0.3085947572957938,-0.09797028893327346,0.16772846908616396,-0.7290082317535486,3,right
2.653,-0.14539237692423593,0.9334530985254471,-0.06827500340991693,0.7837158083822917,-0.16465369025717147,-0.3167378251502017,-0.10031590656988246,0.17124086842028774,-0.7377291384523307,3,right
2.659,-0.14839932091747426,0.9325732521448795,-0.06672630407071893,0.8113076380931199,-0.17234028764668702,-0.32457099710949316,-0.10262819668286237,0.17465087934184848,-0.7464769736069128,3,right
2.66,-0.15143501394213782,0.9316704049192559,-0.06516684771520882,0.8380590483110212,-0.1798002138457573,-0.3320842199976691,-0.10490637272984492,0.17795357603522566,-0.755247499812166,3,right
2.662,-0.1544984408878688,0.930744427685903,-0.06359840897609194,0.8639653463786287,-0.18704449283935806,-0.33926781149008634,-0.1071496829533348,0.18114417051373752,-0.7640365970596922,3,right
2.6630000000000003,-0.15758863638166729,0.9297952097692151,-0.06202276069623474,0.8890235575434375,-0.1940841200633458,-0.3461124630132045,-0.10935741051888584,0.18421801718190922,-0.772840263698335,3,right
2.668,-0.16070468829982454,0.9288226568160872,-0.06044167131703623,0.9132323940797882,-0.20093004425997046,-0.35260924305380326,-0.11152887363598406,0.18717061718679487,-0.7816546172127352,3,right
2.6689999999999996,-0.16384574197342325,0.9278266891068233,-0.05885690231140093,0.9365922214479958,-0.2075931495054385,-0.35874960089828806,-0.11366342566808031,0.18999762256750918,-0.7904758948451718,3,right
2.6710000000000003,-0.16701100495984783,0.9268072405339952,-0.05727020568341294,0.9591050215626115,-0.2140842374297737,-0.3645253708217262,-0.11576045523811346,0.19269484021178893,-0.7993004540859698,3,right
2.6719999999999997,-0.17019975219906144,0.9257642584190798,-0.05568332154973883,0.9807743532393588,-0.22041400964866525,-0.3699287767452593,-0.11781938633576047,0.1952582356280574,-0.80812477305779,3,right
2.676,-0.17341133133110553,0.9246977042964365,-0.05409797580847149,1.001605309887859,-0.2265930504264676,-0.3749524373795146,-0.11983967843254441,0.19768393654110428,-0.8169454508191321,3,right
2.677,-0.17664516792557897,0.9236075557396564,-0.052515877891358975,1.0216044745148236,-0.23263180958902288,-0.37958937187058905,-0.12182082661082311,0.19996823631911959,-0.8257592076123955,3,right
2.681,-0.17990077036501914,0.9224938092418142,-0.05093871858665787,1.0407798720999772,-0.23854058570451186,-0.38383300596411457,-0.12376236171257216,0.2021075972394388,-0.8345628850818392,3,right
2.682,-0.18317773413011199,0.9213564840945975,-0.0493681679130732,1.0591409194045658,-0.24432950955010702,-0.3876771787018199,-0.12566385051376489,0.2040986535999581,-0.8433534464867732,3,right
2.687,-0.1864757452534002,0.920195627148611,-0.04780587302063701,1.0766983722699195,-0.2500085278817972,-0.3911161496638963,-0.12752489593003974,0.20593821468277523,-0.8521279769352963,3,right
2.688,-0.18979458273705105,0.9190113182848823,-0.04625345609447748,1.093464270461177,-0.2555873875243808,-0.3941446067693439,-0.12934513725923139,0.20762326757619412,-0.8608836836638617,3,right
2.6910000000000003,-0.19313411976660735,0.9178036763901475,-0.04471251224677196,1.1094518801089404,-0.261075619798278,-0.39675767464533046,-0.13112425046622744,0.2091509798608064,-0.8696178963879188,3,right
2.6910000000000003,-0.19649432359477234,0.9165728656083427,-0.04318460740098638,1.1246756337993256,-0.2664825252994982,-0.3989509235754295,-0.13286194851549604,0.210518702164928,-0.8783280677488301,3,right
2.696,-0.19987525401510664,0.91531910164019,-0.041671276192986134,1.1391510683605974,-0.271817159048809,-0.4007203790354276,-0.13455798175449302,0.2117239705903375,-0.8870117738723705,3,right
2.697,-0.20327706038999863,0.9140426578862443,-0.04017401992488974,1.1528947603923527,-0.2770883160258938,-0.40206253182419893,-0.13621213834093943,0.21276450898937738,-0.8956667150048281,3,right
2.697,-0.20669997723612876,0.9127438712705656,-0.03869430460535204,1.1659242595810164,-0.28230451710404925,-0.4029743487959369,-0.1378242446886627,0.2136382310390333,-0.9042907161040727,3,right
2.701,-0.21014431840821152,0.911423147615669,-0.03723355910053883,1.1782580198432715,-0.2874739954007671,-0.40345328419882076,-0.1393941658964752,0.2143432420377068,-0.91288172721366,3,right
2.702,-0.21361046996671765,0.9100809664472606,-0.035793173410401155,1.1899153283369397,-0.29260468305936144,-0.4034972916239655,-0.14092180613454328,0.2148778403693574,-0.9214378234971757,3,right
2.702,-0.2170988818634319,0.90871788510904,-0.03437449707429649,1.200916232430579,-0.2977041984767418,-0.4031048365370821,-0.14240710898075878,0.21524051861419777,-0.929957204898529,3,right
2.7060000000000004,-0.22061005860889546,0.9073345420873555,-0.03297883769802435,1.2112814649900203,-0.30277983399279357,-0.4022749092131034,-0.1438500577096025,0.2154299643040761,-0.9384381954430259,3,right
2.7060000000000004,-0.2241445490901536,0.9059316594778087,-0.03160745958537133,1.2210323688222533,-0.30783854405760125,-0.4010070376211066,-0.145250675537888,0.21544506032407837,-0.9468792422037989,3,right
2.7110000000000003,-0.2277029357163297,0.9045100445533115,-0.030261582452860893,1.2301908213841508,-0.312886933893155,-0.3993012996546798,-0.1466090258316529,0.21528488496138926,-0.9552789139580635,3,right
2.713,-0.23128582311017096,0.903070590410188,-0.028942380205751177,1.2387791605927279,-0.31793124866561845,-0.3971583342525546,-0.14792521227834252,0.214948711601954,-0.9636358995575612,3,right
2.716,-0.23489382661352173,0.901614275683058,-0.027650979759072,1.2468201120877502,-0.3229773631832963,-0.3945793512247467,-0.14919937902830988,0.2144360080749822,-0.971949006037435,3,right
2.717,-0.23852756089916294,0.9001421633357684,-0.02638845990036228,1.2543367180268408,-0.328030772134916,-0.3915661397491194,-0.15043171080953438,0.2137464356448318,-0.980217156487665,3,right
2.721,-0.24218762897697416,0.8986553985522078,-0.025155850204024492,1.261352267437805,-0.33309658088272853,-0.38812107553221614,-0.15162243301934067,0.21287984764930673,-0.9884393877110685,3,right
2.722,-0.2458746118605211,0.8971552057652182,-0.023954130012813483,1.267890228151325,-0.33817949682493487,-0.38424712662695704,-0.152771811796778,0.21183628778289446,-0.996614847691743,3,right
2.725,-0.24958905912893178,0.8956428848756205,-0.02278422749822654,1.273974180335664,-0.343283821341967,-0.37994785789854923,-0.1538801540792013,0.210615988022962,-1.0047427928977026,3,right
2.7260000000000004,-0.25333148058417304,0.8941198067289917,-0.02164701880289911,1.2796277516535868,-0.34841344234118615,-0.3752274341287194,-0.15494780764647473,0.20921936619642126,-1.0128225854413277,3,right
2.7310000000000003,-0.257102339169241,0.8925874079372607,-0.02054332726109802,1.2848745540603281,-0.35357182741460946,-0.37009062174714885,-0.1559751611561004,0.20764702318386613,-1.020853690121111,3,right
2.7310000000000003,-0.2609020452792571,0.8910471851567472,-0.01947392269399376,1.2897381222601385,-0.3587620176243366,-0.3645427891777682,-0.15696264417245714,0.2058997397576767,-1.0288356713680469,3,right
2.738,-0.26473095256470525,0.8895006889626687,-0.018439520786721144,1.2942418538376985,-0.3639866219304202,-0.35858990578636196,-0.15791072719321667,0.20397847305007982,-1.0367681901198773,3,right
2.738,-0.2685893552921151,0.8879495174881284,-0.0174407825699993,1.2984089510795254,-0.3692478122760046,-0.35223853941473765,-0.1588199216758903,0.20188435264665083,-1.0446510006462597,3,right
2.74,-0.2724774872892153,0.8863953100184778,-0.016478314042188448,1.3022623644993943,-0.3745473193446498,-0.3454958524855355,-0.15969078006734316,0.19961867630023897,-1.0524839473477905,3,right
2.74,-0.27639552245620286,0.8848397407464779,-0.015552665971271357,1.3058247380807604,-0.37988642900485275,-0.3383695966605914,-0.16052389583900095,0.19718290525979948,-1.0602669615516704,3,right
2.748,-0.28034357677144617,0.8832845128985415,-0.014664333907745075,1.3091183562482045,-0.38526597945688484,-0.33086810603462236,-0.16131990353036235,0.19457865920811937,-1.0680000583266562,3,right
2.7489999999999997,-0.2843217116618709,0.8817313534371491,-0.013813758422716102,1.3121650925790194,-0.3906863590971718,-0.32300028884488147,-0.16207947880332005,0.1918077108019316,-1.0756833333397993,3,right
2.75,-0.28832993855250233,0.8801820085279888,-0.013001325570026612,1.3149863602652199,-0.39614750511555585,-0.3147756176763289,-0.16280333850968504,0.18887197980742346,-1.0833169597773322,3,right
2.7510000000000003,-0.2923682243638223,0.8786382399303341,-0.01222736756375621,1.3176030643354844,-0.4016489028408952,-0.30620411814078824,-0.16349224077420232,0.18577352682366186,-1.0909011853519184,3,right
2.755,-0.296436497694684,0.8771018224248035,-0.011492163661196453,1.3200355556458263,-0.40718958585057125,-0.29729635600750576,-0.16414698509524173,0.18251454658597943,-1.0984363294183337,3,right
2.7560000000000002,-0.3005346554127839,0.875574542335738,-0.01079594124165741,1.3223035866471453,-0.41276813685959185,-0.2880634227615076,-0.16476841246524496,0.17909736084089237,-1.1059227802195148,3,right
2.759,-0.3046625693714946,0.8740581971403479,-0.010138877071979953,1.3244262689372202,-0.41838268940509177,-0.2785169195651539,-0.16535740551290945,0.17552441078365374,-1.1133609922847594,3,right
2.76,-0.3088200929791361,0.872554596090012,-0.009521098749675872,1.3264220326041727,-0.42403093034214495,-0.2686689395973241,-0.16591488866899193,0.17179824904908486,-1.1207514840017256,3,right
2.765,-0.31300706736315786,0.8710655617077447,-0.008942686310281464,1.32830858736796,-0.4297101031669096,-0.2585320487437341,-0.16644182835751853,0.1679215312458733,-1.1280948353837397,3,right
2.765,-0.31722332689508975,0.8695929319741142,-0.008403673973696384,1.3301028855260322,-0.43541701218323053,-0.2481192646109879,-0.16693923321409584,0.16389700702407922,-1.1353916860537798,3,right
2.766,-0.32146870387177057,0.8681385629768977,-0.007904051989440554,1.3318210867089257,-0.4411480275289185,-0.237444033836099,-0.1674081543311398,0.15972751068280971,-1.142642733457145,3,right
2.7689999999999997,-0.3257430321879182,0.8667043317913995,-0.007443768533841235,1.3334785244512528,-0.44689909107801473,-0.22652020766238948,-0.1678496855208193,0.15541595141288012,-1.149848731268559,3,right
2.77,-0.3300461498843154,0.8652921393798244,-0.007022731618200458,1.3350896745832708,-0.452665723235427,-0.21536201575188288,-0.1682649635703488,0.15096530342778203,-1.1570104878763137,3,right
2.7710000000000004,-0.3343779005015032,0.8639039133171894,-0.006640810977631985,1.3366681254656354,-0.4584430306218496,-0.20398403824912192,-0.1686551684552496,0.14637859632415337,-1.164128864779796,3,right
2.7739999999999996,-0.33873813320074636,0.8625416101506028,-0.006297839916272412,1.3382265501779174,-0.46422571455422396,-0.19240117633847287,-0.16902152348505323,0.1416589059242457,-1.1712047747827428,3,right
2.775,-0.3431267016416625,0.8612072172017892,-0.005993617087219811,1.3397766809300116,-0.4700080800601548,-0.1806286219464248,-0.169365295371924,0.13680934569355999,-1.1782391799474508,3,right
2.779,-0.34754346164391037,0.8599027536307143,-0.005727908187950324,1.3413292860536277,-0.47578404507201666,-0.1686818274676044,-0.16968779422153743,0.13183305873813914,-1.1852330893211716,3,right
2.78,-0.3519882677121158,0.8586302705692574,-0.005500447553022012,1.342894149842838,-0.4815471495392112,-0.15657647616479606,-0.16999037344727008,0.12673321036796606,-1.1921875564550182,3,right
2.784,-0.356460968562655,0.8573918501248846,-0.005310939626242394,1.3444800553539447,-0.48729056436391727,-0.14432845348259263,-0.17027442960869058,0.12151298121254189,-1.199103676735596,3,right
2.785,-0.36096140184871367,0.8561896030755278,-0.0051590602958838565,1.3460947701867798,-0.493007100158371,-0.13195381928596037,-0.17054140217528208,0.11617556087435608,-1.205982584549451,3,right
2.7880000000000003,-0.36548938832936767,0.8550256651254388,-0.0050444580785800885,1.3477450352519522,-0.49868921584021614,-0.11946878098897624,-0.1707927732162677,0.11072414210560463,-1.2128254503003135,3,right
2.7889999999999997,-0.3700447257666093,0.8539021916517987,-0.004966755142241957,1.3494365565286157,-0.5043290270824089,-0.10688966753858707,-0.17103006701735832,0.10516191549316696,-1.2196334772990127,3,right
2.793,-0.37462718286073043,0.8528213509358572,-0.004925548169948236,1.3511739998174082,-0.5099183146340833,-0.09423290421787638,-0.17125484962519275,0.09949206463651535,-1.2264078985458218,3,right
2.7939999999999996,-0.3792364935497949,0.8517853159367098,-0.004920409082579362,1.3529609884933198,-0.5154485325286832,-0.0815149882330079,-0.17146872832019594,0.09371776180290317,-1.2331499734248956,3,right
2.799,-0.3838723520028435,0.8507962547284912,-0.00495088564666411,1.3548001042633535,-0.5209108161955442,-0.06875246504774478,-0.17167335101854014,0.08784216404386033,-1.2398609843303625,3,right
2.8,-0.3885344086257249,0.8498563197805661,-0.0050165019877881105,1.3566928909339815,-0.5262959904909655,-0.05596190542922032,-0.17187040560385788,0.08186840975671428,-1.2465422332435299,3,right
2.803,-0.3932222673678092,0.8489676363091101,-0.005116759014284011,1.3586398611935362,-0.5315945776646361,-0.04315988316846085,-0.1720616191893253,0.07579961567455594,-1.2531950382805803,3,right
2.804,-0.39793548456512257,0.8481322899602916,-0.005251134743183295,1.36064050641482,-0.536796805277091,-0.030362953439033037,-0.17224875731070688,0.06963887426777783,-1.259820730230035,3,right
2.8080000000000003,-0.40267356948496963,0.8473523140989082,-0.0054190845167043184,1.3626933094833746,-0.5418926140836444,-0.017587631757107425,-0.1724336230509317,0.06338925154003022,-1.2664206490991832,3,right
2.8089999999999997,-0.40743598665723985,0.846629676976638,-0.005620041097785248,1.364795760657,-0.5468716659000029,-0.004850373506197154,-0.172618056096754,0.057053785201168127,-1.2729961406885917,3,right
2.8139999999999996,-0.41222215999583434,0.8459662690466228,-0.005853414631410245,1.3669443764622697,-0.5517233514644783,0.007832446010154794,-0.17280393172803993,0.05063548319949728,-1.279548553213732,3,right
2.815,-0.4170314786345607,0.8453638906793649,-0.006118592459139195,1.3691347216339322,-0.5564367983114189,0.02044455102440449,-0.1729931597402149,0.04413732259537242,-1.286079233992685,3,right
2.818,-0.4218633043290745,0.8448242405214025,-0.006414938784602658,1.3713614341032307,-0.5610008786701404,0.03296978430630755,-0.1731876833004062,0.037562248757953984,-1.2925895262188196,3,right
2.818,-0.4267169802140112,0.8443489047254887,-0.006741794203755906,1.3736182530413052,-0.5654042174032682,0.04539212574589052,-0.1733894777378183,0.030913174866691838,-1.2990807658372705,3,right
2.823,-0.43159184065399686,0.8439393472697528,-0.007098475123454811,1.3758980499639581,-0.5696351999980102,0.05769571055428957,-0.1736005492688888,0.024192981698874644,-1.3055542785439747,3,right
2.824,-0.4364872218851669,0.8435969015693999,-0.007484273089258746,1.3781928629041627,-0.5736819806234449,0.06986484711840367,-0.1738229336577886,0.017404517684362904,-1.3120113769259782,3,right
2.827,-0.4414024731040332,0.8433227635603895,-0.007898454031185791,1.380493933658789,-0.5775324902664511,0.08188403454501418,-0.17405869481284936,0.01055059920841074,-1.3184533577616608,3,right
2.8280000000000003,-0.4463369676212461,0.8431179863947066,-0.008340257420067573,1.3827917481160734,-0.581174444958407,0.09373797992968187,-0.1743099233195298,0.0036340111432772693,-1.324881499499476,3,right
2.8339999999999996,-0.451290113665666,0.8429834768306389,-0.008808895312677928,1.3850760796704076,-0.5845953541042579,0.10541161538534681,-0.1745787349105637,-0.0033424924108677897,-1.331297059933762,3,right
2.835,-0.4562613644110001,0.8429199933311071,-0.009303551258105244,1.387336035731037,-0.5877825289249894,0.11689011486512602,-0.17486726887397172,-0.010376187195427775,-1.3377012740961305,3,right
2.8360000000000003,-0.46125022681651506,0.8429281458068453,-0.009823379046347289,1.389560107331248,-0.5907230910239387,0.1281589108133296,-0.1751776863990977,-0.01746437769175105,-1.3440953523716623,3,right
2.839,-0.46625626893634586,0.8430083968807293,-0.010367501298309495,1.3917362218445823,-0.593403981086747,0.13920371067819884,-0.17551216885805218,-0.024604395860239735,-1.350480478802887,3,right
2.839,-0.4712791254459904,0.8431610645161586,-0.010935007912729215,1.3938517988145442,-0.595811967724078,0.15001051331930942,-0.17587291601491406,-0.031793599719927124,-1.3568578094613162,3,right
2.84,-0.4763185012147893,0.8433863258216483,-0.01152495439507831,1.3958938088135733,-0.5979336564752561,0.16056562532139185,-0.17626214415227498,-0.03902937176158952,-1.3632284707200606,3,right
2.843,-0.48137417279618727,0.8436842218047486,-0.012136360098166968,1.3978488347939375,-0.599755499038884,0.1708556771227311,-0.17668208410760863,-0.046309117194429955,-1.3695935573072422,3,right
2.844,-0.48644598774152764,0.8440546628270181,-0.012768206404099647,1.3997031345776838,-0.6012638028832996,0.18086763868031994,-0.1771349792171126,-0.05363026203879354,-1.3759541301030729,3,right
2.847,-0.4915338616921858,0.8444974344985812,-0.013419434874291009,1.4014427026795926,-0.6024447414375657,0.1905888342902705,-0.17762308316758005,-0.06099025108433076,-1.3823112136896594,3,right
2.8480000000000003,-0.4966377732643856,0.8450122037139225,-0.014088945393485373,1.4030533301098111,-0.6032843650141667,0.20000695628417556,-0.1781486577575127,-0.06838654573451586,-1.3886657936718239,3,right
2.852,-0.5017577568121067,0.8455985244990891,-0.014775594335550351,1.4045206616178953,-0.603768612526106,0.20911007750661725,-0.17871397056878077,-0.07581662175854662,-1.3950188137872148,3,right
2.853,-0.50689389324115,0.8462558433614978,-0.015478192781142243,1.405830250292632,-0.6038833240114948,0.21788666258113357,-0.17932129255023702,-0.08327796697176323,-1.4013711728239697,3,right
2.858,-0.5120462991405473,0.8469835038995994,-0.016195504819951627,1.4069676095222392,-0.6036142539680164,0.2263255779916732,-0.1799728955147998,-0.09076807886582859,-1.4077237213641887,3,right
2.858,-0.5172151145789216,0.8477807505066516,-0.016926245970376574,1.4079182623191253,-0.6029470854986267,0.23441610100566382,-0.18067104955163382,-0.09828446221000899,-1.4140772583714736,3,right
2.863,-0.5224004899735186,0.8486467310685509,-0.01766908174300803,1.408667788012943,-0.6018674452687873,0.2421479274638838,-0.18141802035517812,-0.10582462664498445,-1.4204325276407774,3,right
2.863,-0.5276025724750383,0.8495804985997185,-0.01842262636331657,1.4092018663151684,-0.60036091927443,0.249511178461356,-0.18221606647289806,-0.11338608429070034,-1.4267902141288205,3,right
2.866,-0.5328214923207819,0.8505810117823537,-0.01918544166125212,1.409506318757908,-0.5984130694187048,0.2564964059424837,-0.18306743647377197,-0.12096634738984748,-1.4331509401833233,3,right
2.867,-0.5380573495933646,0.8516471343808479,-0.01995603613648597,1.409567147509058,-0.5960094508943762,0.2630945972326189,-0.18397436603966302,-0.12856292600862626,-1.439515261689318,3,right
2.8710000000000004,-0.543310201787091,0.8527776335077775,-0.020732864215739544,1.4093705715653182,-0.5931356303675133,0.26929717852719576,-0.18493907498187392,-0.1361733258165116,-1.4458836641507995,3,right
2.872,-0.5485800525352554,0.8539711767342272,-0.021514325727554073,1.4089030603239008,-0.5897772049568424,0.275096017358475,-0.18596376418533478,-0.14379504596678908,-1.4522565587259948,3,right
2.878,-0.5538668417942767,0.8552263280730028,-0.022298765627449684,1.408151364533086,-0.5859198220018299,0.2804834240588379,-0.1870506124830342,-0.15142557709968033,-1.45863427823453,3,right
2.878,-0.5591704377172956,0.8565415429167827,-0.023084474012872655,1.4071025446210264,-0.5815491996112058,0.2854521522384286,-0.1882017734634704,-0.1590623994899145,-1.465017073154793,3,right
2.8819999999999997,-0.5644906303804256,0.8579151620766565,-0.023869686470130047,1.4057439964014284,-0.5766511479822506,0.28999539829378795,-0.18941937221406935,-0.1667029813606358,-1.4714051076298014,3,right
2.8819999999999997,-0.5698271274477895,0.8593454051303016,-0.024652584790101736,1.4040634741539277,-0.5712115914797333,0.29410679996293887,-0.19070550200369843,-0.17434477738556226,-1.4777984554998944,3,right
2.887,-0.5751795517776215,0.860830363343873,-0.025431298076115643,1.4020491110761126,-0.5652165914619145,0.29778043394118375,-0.1920622209075859,-0.1819852274013283,-1.4841970963805884,3,right
2.888,-0.5805474408875521,0.8623679924706705,-0.026203904251256314,1.3996894371032687,-0.5586523698395124,0.30101081257065054,-0.19349154837814928,-0.18962175535195572,-1.4906009118039454,3,right
2.892,-0.5859302481219696,0.8639561057504891,-0.026968431957503758,1.3969733940909932,-0.5515053333519772,0.3037928796153862,-0.19499546176543128,-0.1972517684873998,-1.4970096814418208,3,right
2.8930000000000002,-0.5913273453038058,0.8655923674374748,-0.027722862828081198,1.3938903483548668,-0.5437620985438207,0.3061220051325389,-0.19657589279104548,-0.20487265683811448,-1.503423079429373,3,right
2.8960000000000004,-0.5967380266076033,0.8672742871735463,-0.028465134111773805,1.3904301005603792,-0.5354095174221151,0.3079939794488981,-0.19823472397974182,-0.21248179298756822,-1.5098406708072294,3,right
2.897,-0.6021615133565583,0.8689992154998767,-0.029193141635493587,1.3865828929552833,-0.5264347037745993,0.30940500625077527,-0.19997378505291658,-0.22007653216462433,-1.5162619081007191,3,right
2.9010000000000002,-0.6075969594240634,0.8707643407590753,-0.029904743103123733,1.3823394139355005,-0.5168250601261234,0.31035169479390595,-0.2017948492873139,-0.22765421266788732,-1.5226861280508022,3,right
2.9019999999999997,-0.6130434569260081,0.8725666875842985,-0.030597761736136767,1.3776907999346142,-0.5065683053094051,0.31083105123874366,-0.20369962983590437,-0.23521215658515737,-1.5291125484923365,3,right
2.903,-0.6185000419256576,0.8744031171054969,-0.03126999025904722,1.3726286346258807,-0.49565250262429206,0.3108404691151915,-0.20568977599648297,-0.24274767068302575,-1.5355402653411758,3,right
2.906,-0.6239656998921604,0.8762703289419282,-0.031919195217850534,1.3671449454245472,-0.48406608855789474,0.31037771891948435,-0.20776686940727634,-0.25025804729266965,-1.5419682496326008,3,right
2.907,-0.6294393706244071,0.8781648649964163,-0.032543121594284345,1.361232197277105,-0.471797902036101,0.30944093684459384,-0.20993242015557684,-0.2577405650667736,-1.5483953445725782,3,right
2.907,-0.6349199523217425,0.8800831150105998,-0.03313949765317951,1.3548832837821994,-0.4588372141628755,0.30802861268084963,-0.2121878627973405,-0.26519248957050734,-1.554820262597534,3,right
2.911,-0.6404063045124697,0.8820213237894053,-0.03370603994883556,1.3480915159831162,-0.4451737583407532,0.3061395771054777,-0.2145345522924222,-0.2726110737183444,-1.5612415824573,3,right
2.912,-0.645897249629784,0.8839755999719762,-0.034240458424618016,1.3408506097040696,-0.43079776055405644,0.30377298890844423,-0.21697375986167192,-0.279993558078212,-1.5676577463396975,3,right
2.915,-0.6513915730982903,0.8859419261958257,-0.034740461557652966,1.3331546725976646,-0.4156999695333094,0.3009283228839913,-0.2195066687723745,-0.28733717106437157,-1.5740670570552118,3,right
2.9160000000000004,-0.6568880218401999,0.8879161704456626,-0.03520376151685042,1.3249981917732374,-0.39987168657837263,0.29760535893251816,-0.2221343700587765,-0.2946391290403373,-1.5804676753002003,3,right
2.9210000000000003,-0.6623853011558023,0.8898940983157422,-0.035628079316364365,1.3163760223409455,-0.383304794925698,0.29380417258604263,-0.22485785818471052,-0.3018966363530341,-1.5868576170170625,3,right
2.9210000000000003,-0.667882070001043,0.8918713858748349,-0.03601114995434938,1.3072833769087708,-0.36599178860410014,0.2895251269857419,-0.22767802665559558,-0.30910688531928493,-1.5932347508697806,3,right
2.926,-0.673376934766262,0.8938436328072962,-0.03635072751997652,1.2977158160089919,-0.3479258007335551,0.2847688663020272,-0.2305956635873641,-0.316267056185599,-1.5995967958532147,3,right
2.927,-0.6788684417388386,0.8958063755003697,-0.036644590231140924,1.2876692394293487,-0.3291006312194203,0.27953631058623357,-0.23361144724014135,-0.32337431708210235,-1.6059413190545024,3,right
2.932,-0.6843550685032563,0.8977550997528093,-0.03689054534429344,1.2771398784227663,-0.3095107737923226,0.2738286520416332,-0.2367259415247811,-0.33042582399131853,-1.6122657335848776,3,right
2.932,-0.6898352145916332,0.8996852527956246,-0.03708643386997469,1.2661242887681456,-0.2891514423418041,0.26764735270011053,-0.23993959149063995,-0.33741872075236296,-1.6185672967001823,3,right
2.937,-0.695307191742382,0.9015922543458171,-0.037230135037297066,1.25461934465335,-0.26801859648963383,0.26099414348947086,-0.2432527188032553,-0.3443501391209614,-1.6248431081282917,3,right
2.938,-0.7007692141524663,0.903471506459931,-0.037319570472337985,1.2426222333501349,-0.24610896634649784,0.2538710246749881,-0.2466655172208752,-0.3512171989055439,-1.6310901086216103,3,right
2.9410000000000003,-0.706219389119475,0.905318402013599,-0.03735270807901799,1.2301304506493667,-0.22342007639357317,0.24628026765743863,-0.2501780480790725,-0.35801700819949644,-1.637305078752743,3,right
2.9410000000000003,-0.7116557084641694,0.9071283316996723,-0.03732756562767927,1.2171417970234741,-0.1999502684282688,0.23822441810851278,-0.2537902357929614,-0.3647466637294763,-1.6434846379713572,3,right
2.945,-0.7170760411041444,0.908896689504064,-0.037242214065163884,1.2036543744816652,-0.17569872351118818,0.22970630042314585,-0.2575018633868208,-0.3714032513395129,-1.6496252439401762,3,right
2.945,-0.7224781271175373,0.9106188766816428,-0.037094780568643175,1.1896665840820158,-0.15066548284913026,0.22072902346696782,-0.26131256806121494,-0.37798384663042073,-1.6557231921679536,3,right
2.949,-0.7278595735932882,0.9122903043144118,-0.036883451381136155,1.1751771240631137,-0.12485146754670508,0.2112959875957354,-0.26522183680798717,-0.3844855157738508,-1.66177461595717,3,right
2.95,-0.7332178525085304,0.9139063945900002,-0.036606474487951374,1.1601849885565114,-0.09825849715689576,0.2014108929222835,-0.269229002083789,-0.39090531652009775,-1.6677754866840855,3,right
2.9560000000000004,-0.7385503008000868,0.9154625809867546,-0.036262162212728086,1.1446894668397976,-0.0708893069586549,0.19107774880521367,-0.27333323755309086,-0.39724029941855976,-1.6737216144286586,3,right
2.957,-0.7438541227057074,0.9169543075895475,-0.03584889382211315,1.128690143088664,-0.04274756388738274,0.18030088453222828,-0.2775335539119024,-0.40348750926952287,-1.679608648971705,3,right
2.96,-0.7491263943481988,0.9183770277875009,-0.03536511822489625,1.1121868965848976,-0.013837881041898167,0.1690849611697234,-0.2818287948037133,-0.40964398682570574,-1.6854320811765244,3,right
2.9610000000000003,-0.7543640704321992,0.919726202621379,-0.034809356834997286,1.09517990233578,0.015834169310713575,0.15743498454896382,-0.2862176328394416,-0.41570677076175716,-1.691187244772075,3,right
2.966,-0.7595639928289695,0.9209972990533991,-0.0341802066444796,1.0776696320589354,0.0462620443132106,0.14535631935789198,-0.29069856573345393,-0.4216728999296461,-1.6968693185545902,3,right
2.966,-0.7647229007472726,0.9221857884243433,-0.03347634353251839,1.0596568554852148,0.07743822076229906,0.1328547043063611,-0.2952699125679945,-0.4275394159176244,-1.702473329024359,3,right
2.97,-0.7698374421329021,0.9232871453419421,-0.03269652582490195,1.041142641930764,0.10935418710395865,0.1199362683313366,-0.29992981019862675,-0.4333033659301728,-1.707994153474195,3,right
2.971,-0.7749041859122028,0.9242968472097717,-0.031839598112502976,1.0221283620879713,0.14200043726738398,0.10660754780737976,-0.30467620981366433,-0.4389618059961459,-1.7134265235361978,3,right
2.971,-0.7799196347127576,0.9252103745563116,-0.030904495328764606,1.0026156899835563,0.1753664664270843,0.09287550472651267,-0.3095068736613666,-0.4445118044624724,-1.7187650291446732,3,right
2.975,-0.7848802377602015,0.9260232122667668,-0.029890247074590617,0.9826066050718189,0.20944076874636636,0.07874754577526188,-0.3144193719598961,-0.4499504456412297,-1.724004122785488,3,right
2.975,-0.7897824037257901,0.9267308517733003,-0.02879598216805771,0.9621033945356878,0.24421083696531695,0.06423154205997159,-0.31941108000582347,-0.455274833428034,-1.72913812385337,3,right
2.9760000000000004,-0.794622513342781,0.9273287942317188,-0.027620933386533146,0.9411086560576478,0.2796631633525012,0.04933584891436821,-0.3244791754966674,-0.4604820947589513,-1.7341612229869035,3,right
2.9789999999999996,-0.7993969316149885,0.9278125546962552,-0.026364442355599687,0.9196253014272471,0.3157832413494197,0.03406932504669363,-0.3296206360822226,-0.46556938286205607,-1.7390674863380415,3,right
2.98,-0.8041020194294554,0.9281776672887259,-0.0250259645217641,0.8976565612444248,0.3525555674309702,0.018441350458138727,-0.33483223715911714,-0.4705338803090091,-1.743850859781159,3,right
2.983,-0.8087341443900441,0.9284196913423063,-0.02360507413260475,0.8752059907856038,0.3899636430530823,0.0024618428791708903,-0.34011054992315254,-0.47537280188160896,-1.7485051730760652,3,right
2.987,-0.8132896907281023,0.9285342184841923,-0.022101469147421112,0.852277476992049,0.42798997675281414,-0.013858727355186657,-0.34545193969418914,-0.4800833972679253,-1.7530241439990595,3,right
2.988,-0.8177650682053353,0.9285168806032418,-0.020514976012654118,0.8288752465173905,0.4666160865065138,-0.030509324035997404,-0.35085256452854063,-0.4846629536022698,-1.7574013824557548,3,right
2.992,-0.822156719981057,0.9283633586254488,-0.018845554250168383,0.8050038747698228,0.5058225024534699,-0.04747833346285823,-0.3563083741340344,-0.4891087978628987,-1.7616303945890301,3,right
2.992,-0.8264611294653036,0.9280693919927275,-0.017093300811524135,0.7806682958831224,0.5455887700942518,-0.06475355452501111,-0.36181510910307185,-0.49341829914097485,-1.7657045868950765,3,right
2.997,-0.8306748262229103,0.9276307887145624,-0.015258454141576958,0.7558738135492659,0.5858934540746594,-0.08232219052892749,-0.36736830047919683,-0.4975888707939385,-1.7696172703601,3,right
2.998,-0.8347943910322426,0.9270434358451738,-0.013341397874463727,0.7306261126440828,0.6267141426678695,-0.10017084282108651,-0.3729632696728336,-0.5016179724960529,-1.7733616646298134,3,right
3.0010000000000003,-0.8388164602333074,0.9263033102371343,-0.011342664066643433,0.7049312715760452,0.6680274530689683,-0.11828550625554671,-0.37859512874200646,-0.5055031121984992,-1.7769309022234068,3,right
3.002,-0.842737729520305,0.925406489437604,-0.00926293586905459,0.6787957752869771,0.7098090376176078,-0.1366515665567522,-0.3842587810539818,-0.5092418480109964,-1.7803180328032269,3,right
3.0060000000000002,-0.8465549573425208,0.9243491626209359,-0.0071030495610917635,0.6522265288321701,0.7520335910660025,-0.1552537996288176,-0.38994892234389644,-0.5128317900165151,-1.7835160275109008,3,right
3.0069999999999997,-0.850264968074261,0.9231276414813496,-0.004863995907166575,0.6252308714661006,0.794674859010896,-0.17407637286329894,-0.3956600421865393,-0.5162706020302419,-1.7865177833801456,3,right
3.011,-0.8538646550989542,0.9217383710301228,-0.0025469208341447214,0.5978165911586858,0.8377056476094698,-0.19310284849817827,-0.4013864258975446,-0.5195560033135277,-1.7893161278359788,3,right
3.011,-0.8573509839285645,0.9201779402446782,-0.00015312544594446877,0.5699919394657681,0.8810978347004383,-0.21231618908146763,-0.40712215688033315,-0.52268577025313,-1.7919038232895026,3,right
3.016,-0.8607209954546893,0.9184430925005562,0.002315934618452693,0.5417656466762906,0.9248223824527684,-0.23169876509346868,-0.4128611194351928,-0.5256577380156211,-1.794273571836866,3,right
3.017,-0.8639718094066925,0.9165307356888202,0.004858650508519508,0.5131469371574316,0.9688493516655793,-0.2512323647823094,-0.41859700204693845,-0.5284698021863965,-1.7964180200704332,3,right
3.0210000000000004,-0.8671006280732206,0.9144379518935299,0.0074732622233111565,0.48414554481778105,1.0131479178438128,-0.27089820626791505,-0.4243233011676141,-0.5311199204022704,-1.7983297640095715,3,right
3.022,-0.870104740322081,0.9121620064889615,0.01015786147377882,0.45477172860749243,1.05768638917522,-0.29067695197005455,-0.4300333255107105,-0.5336061139861902,-1.800001354157855,3,right
3.0269999999999997,-0.8729815259291874,0.9097003565238548,0.012910395388203742,0.4250362879732193,1.1024322265350757,-0.3105487254165373,-0.43572020087336194,-0.5359264695921444,-1.8014253006928236,3,right
3.0269999999999997,-0.8757284602054689,0.9070506582962531,0.015728671067414903,0.39495057818454365,1.1473520656458096,-0.3304931304880129,-0.4413768755029574,-0.5380791408678736,-1.802594078793778,3,right
3.032,-0.8783431188959065,0.9042107740873057,0.018610360961719048,0.36452652544753555,1.1924117415194315,-0.3504892731561504,-0.4469961260245558,-0.5400623501425208,-1.8035001341123926,3,right
3.033,-0.8808231833134624,0.9011787781050213,0.02155300900717134,0.3337766417200484,1.237576315311221,-0.3705157857722396,-0.4525705639454253,-0.5418743901458849,-1.8041358883902245,3,right
3.037,-0.883166445654274,0.8979529617689403,0.024554037423776716,0.3027140391423456,1.2828101037136517,-0.39055085396346345,-0.45809264275294354,-0.543513625765455,-1.804493745226455,3,right
3.037,-0.8853708144199275,0.8945318385204357,0.027610754053616418,0.2713524439956872,1.3280767110199196,-0.41057224619424065,-0.46355466561092756,-0.544978495849499,-1.8045660959949497,3,right
3.0380000000000003,-0.8874343198614553,0.8909141483513223,0.03072036011839791,0.2397062101005664,1.3733390639867433,-0.43055734605012047,-0.4689487936040589,-0.5462675150768639,-1.804345325891413,3,right
3.042,-0.8893551193648784,0.8870988622065067,0.03387995830127037,0.20779033156539267,1.4185594496263016,-0.45048318730173903,-0.4742670543804182,-0.5473792759368435,-1.8038238200590562,3,right
3.042,-0.8911315027036729,0.8830851863630808,0.03708656108185487,0.17562045479555788,1.4636995560572716,-0.47032649180630354,-0.47950135098669217,-0.5483124508748466,-1.8029939697228705,3,right
3.045,-0.8927618970739646,0.8788725668420627,0.04033709926002669,0.14321288966666118,1.5087205164542759,-0.4900637102428405,-0.48464347074569836,-0.5490657946462122,-1.8018481782792601,3,right
3.0460000000000003,-0.8942448718158016,0.8744606938667835,0.043628430606716145,0.11058461973816434,1.5535829556817873,-0.5096710653716415,-0.48968509412515526,-0.5496381468968247,-1.800378867318491,3,right
3.0460000000000003,-0.8955791427226618,0.8698495063377072,0.046957348594156054,0.0777533113349077,1.5982470383826268,-0.5291245969579643,-0.4946178036016613,-0.5500284349757801,-1.7985784825740483,3,right
3.05,-0.8967635758360936,0.8650391962475201,0.05032059117568535,0.044737321296505296,1.6426725168376946,-0.54840020719411,-0.49943309253463697,-0.5502356769822668,-1.7964394997955957,3,right
3.051,-0.8977971905986482,0.8600302129139048,0.05371484959454583,0.011555703220735422,1.686818777366278,-0.5674737057592562,-0.5041223740646947,-0.5502589850483024,-1.793954430541299,3,right
3.055,-0.8986791622151217,0.8548232668725162,0.05713677720411227,-0.021771787925425314,1.7306448848513716,-0.58632085420612,-0.5086769900505886,-0.5500975688584457,-1.791115827884323,3,right
3.056,-0.8994088230752755,0.8494193332637666,0.06058299828233249,-0.05522469292727566,1.7741096254269173,-0.6049174096686468,-0.513088220058559,-0.5497507394070782,-1.7879162920273468,3,right
3.06,-0.8999856631241098,0.8438196545643292,0.06405011681742567,-0.08878184727165031,1.817171547453696,-0.6232391679454652,-0.5173472904175238,-0.5492179129933171,-1.7843484758179364,3,right
3.0610000000000004,-0.9004093291191325,0.8380257425494724,0.06753472522930407,-0.12242138201966447,1.8597890009096816,-0.6412620060131983,-0.5214453833531821,-0.5484986154530995,-1.7804050901566089,3,right
3.0639999999999996,-0.9006796227775862,0.8320393794170207,0.07103341297680422,-0.15612072669899799,1.9019201753196315,-0.6589619240230035,-0.5253736462136844,-0.547592486627436,-1.7760789092883758,3,right
3.065,-0.9007964978790829,0.8258626180492004,0.07454277498828771,-0.18985661431207268,1.94352313634753,-0.6763150868329224,-0.5291232007990836,-0.5464992850653044,-1.771362775967507,3,right
3.072,-0.9007600564395267,0.8194977814272142,0.07805941984416308,-0.22360508855671188,1.9845558611742211,-0.6932978651277617,-0.5326851528063223,-0.5452188929591157,-1.7662496064841662,3,right
3.073,-0.9005705441035647,0.8129474612405572,0.0815799776367708,-0.2573415133560411,2.0249762727811746,-0.7098868761773026,-0.5360506014010216,-0.5437513213101484,-1.7607323955404754,3,right
3.074,-0.900228344916097,0.8062145157480592,0.08510110743638,-0.29104058479449235,2.064742273259806,-0.7260590242826389,-0.5392106489268222,-0.5420967153208106,-1.7548042209624486,3,right
3.075,-0.8997339756363351,0.7993020669531248,0.0886195043003438,-0.32467634555680946,2.10381177626414,-0.7417915409593806,-0.542156410762495,-0.5402553600100526,-1.7484582482330842,3,right
3.08,-0.8990880797577012,0.7922134971557447,0.09213190577508015,-0.3582222019669161,2.1421427387228387,-0.7570620249053278,-0.5448790253364653,-0.5382276860477128,-1.7416877348307587,3,right
3.08,-0.8982914213953215,0.7849524449415163,0.09563509785581693,-0.3916509437233985,2.1796931919247493,-0.7718484817990261,-0.547369664307813,-0.5360142758030454,-1.7344860343558728,3,right
3.085,-0.8973448791976462,0.7775228006647152,0.09912592038300128,-0.4249347664281719,2.216421272090106,-0.7861293639743479,-0.5496195429221906,-0.5336158696021409,-1.7268466004275045,3,right
3.085,-0.8962494404268162,0.7699287014799404,0.1026012718636865,-0.4580452970046417,2.2522852505374154,-0.7998836100149234,-0.551619930550461,-0.5310333721884156,-1.7187629903306094,3,right
3.089,-0.8950061953327155,0.7621745259758196,0.10605811371061816,-0.49095362210132965,2.2872435635538118,-0.81309068431085,-0.553362161417192,-0.5282678593798128,-1.7102288683930609,3,right
3.09,-0.8936163319202204,0.7542648884641967,0.10949347389350136,-0.523630319576521,2.3212548420742953,-0.8257306166186601,-0.5548376455254526,-0.5253205849158281,-1.7012380090705714,3,right
3.094,-0.8920811311828049,0.7462046329783509,0.11290444999970996,-0.5560454931589861,2.3542779412727985,-0.8377840416640175,-0.5560378797836366,-0.5221929874869427,-1.6917842997162613,3,right
3.095,-0.8904019628531916,0.7379988270343586,0.11628821170654277,-0.5881688103792531,2.386271970165412,-0.8492322388250376,-0.556954459339303,-0.5188866979385213,-1.6818617430103437,3,right
3.1,-0.8885802817043633,0.7296527552115086,0.11964200267209306,-0.619969543865235,2.4171963213233854,-0.8600571719325014,-0.5575790891242501,-0.5154035466407133,-1.6714644590240837,3,right
3.1010000000000004,-0.8866176244189294,0.7211719126099561,0.12296314185672315,-0.6514166160952695,2.4470107007906914,-0.8702415292215497,-0.5579035956142572,-0.5117455710153741,-1.6605866868908619,3,right
3.1039999999999996,-0.8845156070268093,0.7125619982432445,0.12624902429464893,-0.682478647700784,2.4756751582979613,-0.8797687634677063,-0.5579199388061051,-0.5079150232105126,-1.6492227860558235,3,right
3.105,-0.8822759228896497,0.7038289084160155,0.1294971213460094,-0.7131240094098765,2.503150117861556,-0.8886231323382894,-0.5576202244037227,-0.5039143778998977,-1.6373672370937336,3,right
3.1060000000000003,-0.8799003411933181,0.6949787301210164,0.13270498047049809,-0.7433208777220819,2.5293964088533274,-0.8967897389884336,-0.55699671615477,-0.4997463401231231,-1.6250146421807654,3,right
3.11,-0.8773907059057956,0.6860177344669068,0.13587022457298512,-0.7730372944034895,2.5543752976233334,-0.9042545729290561,-0.556041848188691,-0.49541385296963697,-1.6121597254800468,3,right
3.111,-0.87474893516364,0.6769523701272526,0.1389905509868737,-0.8022412298901791,2.5780485197543475,-0.9110045511921724,-0.5547482371566892,-0.4909201048479267,-1.598797333796869,3,right
3.115,-0.8719770210572718,0.6677892567902083,0.14206373018493176,-0.830900650686655,2.600378313023483,-0.9170275598169928,-0.5531086940228179,-0.4862685361423962,-1.5849224377605418,3,right
3.116,-0.869077029791577,0.6585351785912867,0.14508760432485743,-0.8589835907234162,2.6213274511283413,-0.9223124956047531,-0.5511162354438258,-0.48146284517130133,-1.570530133612942,3,right
3.117,-0.866051102204139,0.6491970775230871,0.14806008573010684,-0.8864582260305481,2.6408592781600513,-0.9268493077208775,-0.5487640947240937,-0.4765069934204742,-1.5556156455848655,3,right
3.1189999999999998,-0.8629014546260875,0.6397820468264735,0.15097915537547577,-0.9132929509922296,2.6589377436733588,-0.9306290380598357,-0.5460457323409366,-0.4714052100394813,-1.540174328820306,3,right
3.1189999999999998,-0.8596303800665918,0.630297324374789,0.1538428614059034,-0.9394564538396157,2.675527438128659,-0.933643858918629,-0.5429548460345329,-0.46616199558641913,-1.524201672807307,3,right
3.123,-0.8562402496897086,0.6207502860670866,0.156649317680982,-0.9649177896435883,2.6905936285481,-0.9358871068900045,-0.53948538045571,-0.46078212500711957,-1.507693305272533,3,right
3.1239999999999997,-0.8527335145337156,0.6111484392424138,0.15939670231794978,-0.9896464501574535,2.7041022943520527,-0.9373533125454686,-0.5356315363637626,-0.45527064983411847,-1.4906449964951898,3,right
3.128,-0.8491127074040716,0.601499416111882,0.162083256209152,-1.013612430463521,2.716020163409267,-0.9380382258432862,-0.5313877793654125,-0.44963289959033476,-1.4730526639944,3,right
3.1289999999999996,-0.8453804448576822,0.5918109671872617,0.16470728151178146,-1.0367862924966444,2.726314748343924,-0.9379388372678988,-0.5267488481849304,-0.4438744823820178,-1.4549123775425994,3,right
3.134,-0.8415394291910849,0.5820909546734366,0.16726714013287744,-1.0591392255156957,2.734954383138322,-0.9370533947049633,-0.5217097624543359,-0.43800128466513977,-1.4362203644559741,3,right
3.134,-0.8375924503481414,0.572347345788814,0.1697612522467924,-1.08064310359176,2.741908260065357,-0.9353814160539726,-0.516265830011474,-0.4320194701690494,-1.4169730151113873,3,right
3.139,-0.8335423876720327,0.5625882059805556,0.17218809488083583,-1.1012705401795588,2.747146466980307,-0.9329236975781704,-0.5104126536926301,-0.4259354779608587,-1.3971668886376751,3,right
3.139,-0.8293922114389689,0.5528216920069499,0.17454620059109727,-1.120994939836256,2.7506400249966783,-0.9296823179892129,-0.5041461376051982,-0.4197560196337026,-1.376798718727611,3,right
3.142,-0.8251449841228,0.5430560448637166,0.1768341562326424,-1.139790547149364,2.75236092656601,-0.9256606382617777,-0.4974624928647542,-0.4134880756017022,-1.3558654195152349,3,right
3.1430000000000002,-0.8208038613473917,0.533299582533442,0.17905060181515714,-1.1576324929329473,2.7522821739766457,-0.9208632971710645,-0.4903582427797093,-0.407138890484167,-1.3343640914616444,3,right
3.148,-0.8163720924875811,0.5235606925386045,0.18119422943166158,-1.174496837748733,2.750377818281422,-0.9152962025438809,-0.4828302274655355,-0.40071596756130073,-1.3122920271907281,3,right
3.1489999999999996,-0.8118530208818839,0.5138478242782627,0.1832637822533802,-1.1903606128060682,2.7466229986591824,-0.9089665182117729,-0.47487560786935323,-0.39422706228341936,-1.2896467172146995,3,right
3.153,-0.8072500836216234,0.504169481125652,0.18525805359373923,-1.2052018582919293,2.740993982209819,-0.9018826466524289,-0.4664918691844669,-0.3876801748154583,-1.2664258554876568,3,right
3.154,-0.8025668108820633,0.4945342122609075,0.18717588605392171,-1.2189996591793786,2.733468204177327,-0.8940542073033813,-0.45767682363321655,-0.38108354159833385,-1.2426273447237586,3,right
3.16,-0.7978068247633424,0.4849506042126683,0.18901617076891725,-1.231734178559995,2.7240243085900264,-0.8854920105298401,-0.44842861259528727,-0.37444562590853536,-1.2182493014149531,3,right
3.161,-0.7929738376140634,0.4754272720845108,0.19077784677736653,-1.2433866885428673,2.7126421893017403,-0.8762080272263287,-0.4387457080573888,-0.36777510739715835,-1.1932900604815535,3,right
3.1630000000000003,-0.7880716498167294,0.4659728504461969,0.1924599005427061,-1.253939598759747,2.6993030314122564,-0.8662153540296564,-0.42862691335897757,-0.36108087058944655,-1.1677481794872826,3,right
3.1639999999999997,-0.7831041470192691,0.4565959838751183,0.19406136565637055,-1.2633764825129001,2.6839893530399035,-0.8555281741186563,-0.41807136320745025,-0.35437199232579264,-1.1416224423487578,3,right
3.167,-0.7780752967996594,0.4473053171391049,0.19558132275261092,-1.271682100599096,2.666685047413502,-0.8441617135740467,-0.40707852293498975,-0.3476577281250539,-1.1149118624677086,3,right
3.167,-0.7729891447517393,0.43810948501706604,0.19701889965689087,-1.2788424228400148,2.647375425245336,-0.8321321932697403,-0.3956481869679929,-0.3409474974509725,-1.0876156852125485,3,right
3.1719999999999997,-0.7678498099811462,0.42901710175908975,0.19837327177707068,-1.2848446473461506,2.6260472573411096,-0.8194567762649329,-0.38378047647875624,-0.33425086786244596,-1.0597333896742498,3,right
3.173,-0.762661480002019,0.4200367501929569,0.199643662732496,-1.2896772175380347,2.602688817397156,-0.8061535106643514,-0.3714758362135815,-0.32757753805946016,-1.0312646896579374,3,right
3.174,-0.7574284050273158,0.4111769704873807,0.20082934520674758,-1.2933298369453283,2.577289924929396,-0.7922412679121438,-0.3587350306189194,-0.32093731999190545,-1.0022095340607091,3,right
3.178,-0.7521548916476664,0.40244624858288325,0.2019296420086443,-1.2957934818009984,2.549841988272749,-0.777739676483034,-0.345559139617596,-0.31434012047824905,-0.9725681071278852,3,right
3.178,-0.7468452958973285,0.3938530043059455,0.20294392732902447,-1.2970604114444375,2.520338047583872,-0.7626690509325679,-0.33194955451462216,-0.3077959229365023,-0.9423408292689732,3,right
3.182,-0.7415040157124282,0.385405579195477,0.20387162818215762,-1.2971241765725765,2.488772817753853,-0.7470503164048652,-0.31790797438212465,-0.30131476967461945,-0.9115283589221849,3,right
3.1830000000000003,-0.7361354827930569,0.3771122240823223,0.2047122260208702,-1.2959796255174998,2.455142731029642,-0.7309049293863024,-0.3034364030400041,-0.29490674490787333,-0.8801315956112732,3,right
3.1839999999999997,-0.730744153883784,0.3689810864630437,0.2054652585155091,-1.2936229089828082,2.419445978953571,-0.714254796736979,-0.2885371466189695,-0.28858195851551005,-0.8481516841460103,3,right
3.187,-0.7253345014901195,0.3610201977091386,0.20613032148569,-1.2900514838103978,2.381682553122441,-0.6971221957219476,-0.2732128116656166,-0.282350530518085,-0.8155900198777919,3,right
3.187,-0.7199110040547164,0.35323746016432706,0.2067070709672787,-1.2852641162029768,2.3418542843636794,-0.6795296970709712,-0.25746630374798096,-0.2762225762570936,-0.7824482549201786,3,right
3.1919999999999997,-0.7144781356228319,0.34564063419800994,0.20719522538716095,-1.2792608845669946,2.2999648801036754,-0.66150009184907,-0.24130082651877052,-0.2702081922587491,-0.7487283052425021,3,right
3.193,-0.709040355028303,0.3382373252899748,0.2075945678084525,-1.2720431819942966,2.2560199597994104,-0.6430563222270241,-0.22471988119226108,-0.26431744276402847,-0.7144323585430051,3,right
3.197,-0.7036020946313328,0.33103497121990333,0.20790494820029815,-1.2636137183687493,2.2100270883189874,-0.624221416101346,-0.20772726638962585,-0.25856034690740387,-0.6795628828063057,3,right
3.198,-0.6981677486405703,0.3240408294311679,0.2081262856799952,-1.2539765220805947,2.161995807150727,-0.6050184255119756,-0.190327078306268,-0.25294686652700293,-0.6441226354483275,3,right
3.202,-0.6927416610545126,0.3172619646341574,0.20825857067103476,-1.2431369413278057,2.1119376633146043,-0.5854703688047654,-0.1725237111535309,-0.2474868945892983,-0.608114672950174,3,right
3.2030000000000003,-0.6873281132598079,0.3107052367087902,0.20830186691840158,-1.2311016449802343,2.0598662358439266,-0.5656001764846963,-0.15432185782598043,-0.24219024421180804,-0.5715423608807852,3,right
3.2060000000000004,-0.6819313113254507,0.3043772889580999,0.20825631330365824,-1.21787862297888,2.0057971596992905,-0.5454306407047084,-0.13572651074428224,-0.23706663826770288,-0.5344093842065709,3,right
3.207,-0.6765553730334729,0.29828453675599276,0.20812212541036096,-1.2034771862391538,1.9497481469710503,-0.5249843683340414,-0.1167429628225401,-0.23212569955665582,-0.4967197577845864,3,right
3.2110000000000003,-0.6712043146913632,0.29243315662399455,0.20789959680738876,-1.187907966023578,1.8917390052207355,-0.504283737549051,-0.09737680850781667,-0.2273769415267399,-0.4584778369341978,3,right
3.2119999999999997,-0.6658820377807956,0.2868290757641393,0.20758910004326445,-1.1711829127459605,1.8317916528061375,-0.48335085788860743,-0.07763394483842898,-0.2228297595326756,-0.4196883279805717,3,right
3.216,-0.6605923155106307,0.28147796206771314,0.20719108737452238,-1.15331529416569,1.769930131029091,-0.4622075337153884,-0.05752057246649552,-0.21849342261625435,-0.380356298661725,3,right
3.217,-0.6553387793573726,0.2763852146139824,0.20670609127807588,-1.1343196929274555,1.706180612939349,-0.44087523102364723,-0.037043196589114404,-0.21437706579531676,-0.3404871882892879,3,right
3.222,-0.6501249056914143,0.271555954672629,0.20613472481245207,-1.1142120033983702,1.6405714086223984,-0.419375047533368,-0.016208627731469468,-0.21048968284824268,-0.3000868175515585,3,right
3.2230000000000003,-0.6449540026011801,0.26699501722871266,0.20547768188918006,-1.0930094277512024,1.5731329667935532,-0.3977276860101145,0.0049760176759016655,-0.20684011958151516,-0.2591613978458698,3,right
3.227,-0.6398291970364277,0.2627069430556879,0.20473573749326165,-1.0707304712391783,1.5038978725152579,-0.3759534307493365,0.026503316984489125,-0.20343706756855298,-0.21771754002574925,3,right
3.228,-0.6347534223917011,0.2586959713669967,0.20390974785865768,-1.0473949366046307,1.4329008408491808,-0.35407212716341463,0.0483655413396787,-0.20028905834866315,-0.1757622624468242,3,right
3.2310000000000003,-0.6297294066401385,0.2549660330795698,0.20300065057437952,-1.023023917560623,1.3601787062494426,-0.3321031644092986,0.07055465607794797,-0.19740445807564813,-0.13330299819391914,3,right
3.2319999999999998,-0.6247596611111248,0.25152074472427477,0.20200946457918387,-0.9976397912815905,1.2857704074981557,-0.31006546099423193,0.09306232157121626,-0.19479146260630983,-0.09034760137030393,3,right
3.236,-0.6198464699891152,0.2483634030410943,0.2009372899995346,-0.971266209836007,1.2097169679794009,-0.28797745329674423,0.11587989458113536,-0.19245809301982506,-0.046904352328581485,3,right
3.237,-0.6149918806007066,0.24549698030146902,0.19978530779183284,-0.9439280904911131,1.1320614710828134,-0.2658570869398414,0.1389984301870465,-0.19041219155972344,-0.002981961721258512,3,right
3.24,-0.610197694554965,0.24292412040360092,0.19855477916024247,-0.9156516048168369,1.0528490305231113,-0.2437218109531252,0.16240868435224354,-0.1886614179909787,0.04141042675238265,3,right
3.241,-0.6054654598037988,0.2406471357841794,0.1972470447311571,-0.8864641665131954,0.9721267553571753,-0.22158857466042786,0.18610111717294822,-0.18721324634228473,0.0862632349851567,3,right
3.241,-0.6007964636853865,0.23866800518067396,0.19586352347188607,-0.856394417882697,0.8899437094756988,-0.19947382722945287,0.2100658967496498,-0.18607496188820236,0.13156645035633177,3,right
3.247,-0.5961917270025952,0.23698837226484842,0.19440571134487336,-0.8254722148665752,0.8063508653419489,-0.17739351981987014,0.23429290343118586,-0.18525365801753052,0.17730962636793043,3,right
3.248,-0.5916519991814869,0.2356095451555066,0.19287517969197768,-0.7937286105610671,0.7214010517458529,-0.15536311026631816,0.25877173407713455,-0.1847562325189128,0.22348188329707588,3,right
3.2510000000000003,-0.5871777545584116,0.23453249680921415,0.19127357334722034,-0.7611958371335306,0.6351488954728154,-0.13339757019718226,0.28349170609048663,-0.18458938293179122,0.2700719083534589,3,right
3.252,-0.5827691898459028,0.23375786628071293,0.18960260847987706,-0.7279072860863176,0.5476507574595599,-0.11151139431193928,0.3084418611634317,-0.18475960082091047,0.3170679552168915,3,right
3.252,-0.5784262228184429,0.2332859608390149,0.18786407017239834,-0.6938974868689882,0.45896466522387214,-0.08971861121928269,0.333610968785433,-0.1852731649497148,0.3644578430448274,3,right
3.2560000000000002,-0.5741484922482236,0.23311675891932612,0.186059809742108,-0.6592020838677455,0.36915024402831764,-0.06803279506025157,0.35898752958458074,-0.1861361333521727,0.41222895508366436,3,right
3.2560000000000002,-0.569935359116622,0.23324991388175728,0.18419174182423728,-0.6238578117682415,0.27826864855749933,-0.046467077318989754,0.3845597785738757,-0.18735433430353193,0.46036823701880963,3,right
3.26,-0.5657859091217571,0.2336847585340432,0.18226184124475736,-0.5879024692308124,0.18638249566652948,-0.025034158544747234,0.4103156883747221,-0.18893335619149318,0.5088621951996198,3,right
3.261,-0.5616989564868151,0.23442031035921687,0.180272139721089,-0.5513748907846622,0.09355579807822303,-0.0037463198872194742,0.43624297249050376,-0.1908785362902938,0.5576968948764207,3,right
3.266,-0.5576730490502027,0.23545527737332222,0.17822472243452683,-0.5143149168395452,-0.00014610123193234653,0.017384565616700733,0.4623290887036813,-0.19319494844121365,0.6068579585878684,3,right
3.266,-0.5537064745962085,0.23678806452569426,0.17612172451810135,-0.47676336171173733,-0.09465659422685609,0.038347022066303416,0.4885612426703724,-0.1958873896440503,0.6563305648379334,3,right
3.27,-0.5497972683707202,0.2384167805467604,0.17396532749610924,-0.43876197955944995,-0.18990787284152952,0.059129960091702294,0.5149263917868715,-0.19896036556516253,0.7060994472027653,3,right
3.2710000000000004,-0.5459432217216219,0.24033924514665336,0.17175775569792454,-0.40035342812131086,-0.2858309941282631,0.07972266668041503,0.5414112494030188,-0.20241807496874697,0.7561488940086319,3,right
3.275,-0.5421418918042068,0.2425529964729731,0.1695012726538027,-0.3615812301501257,-0.3823559457849338,0.1001147954960785,0.5680022894577492,-0.2062643930790925,0.8064627487230228,3,right
3.2760000000000002,-0.538390612294217,0.24505529874651802,0.16719817746894267,-0.3224897324328448,-0.4794117123396743,0.12029635774897994,0.594685751612532,-0.21050285388264872,0.8570244112018555,3,right
3.28,-0.5346865050519654,0.24784315000655607,0.16485080116549783,-0.2831240622864908,-0.5769263422674269,0.14025771367753875,0.6214476469587565,-0.21513663137985037,0.9078168399365277,3,right
3.28,-0.5310264926775773,0.25091328991028966,0.16246150298048334,-0.24353008141876145,-0.6748270163154982,0.15998956469929912,0.6482737643754236,-0.22016851979775445,0.9588225554453205,3,right
3.286,-0.527407311888081,0.25426220754488593,0.1600326666111779,-0.20375433704110427,-0.773040117316775,0.1794829462893882,0.6751496776137658,-0.22560091277567315,1.0100236449543607,3,right
3.286,-0.5238255276331281,0.2578861492250404,0.15756669640798796,-0.1638440101212755,-0.8714913017705778,0.1987292216437643,0.7020607531856459,-0.2314357815371199,1.0614017685140253,3,right
3.2889999999999997,-0.5202775478509637,0.2617811262628829,0.1550660135244916,-0.12384686066174021,-0.9701055734722377,0.21772007618391936,0.7289921591327687,-0.23767465206252933,1.112938166697269,3,right
3.29,-0.516759638753508,0.26594292270867104,0.15253305204235568,-0.08381116988975021,-1.0688073594733747,0.236447512959017,0.7559288747538798,-0.2443185812783607,1.1646136700269243,3,right
3.2939999999999996,-0.513267940521904,0.2703671030705844,0.14997025509427334,-0.04378567924455109,-1.1675205886555404,0.2549038490007372,0.7828557013672285,-0.2513681322793505,1.2164087102795307,3,right
3.295,-0.5097984832925255,0.27504902002974807,0.1473800710103313,-0.0038195260469209855,-1.2661687732003555,0.27308171268536624,0.8097572741856295,-0.2588233486018391,1.2683033338137029,3,right
3.299,-0.5063472033170049,0.27998382217033485,0.14476494951080235,0.036037824263865786,-1.3646750932395213,0.29097404215691425,0.8366180753814717,-0.2666837275672582,1.3202772170714399,3,right
3.3,-0.5029099591867545,0.2851664617438245,0.142127337962079,0.07573664944052688,-1.462962484968118,0.3085740848642646,0.8634224484189964,-0.2749481927160322,1.3723096844011329,3,right
3.304,-0.4994825480212451,0.2905917024830051,0.13946967770557564,0.1152270454004175,-1.5609537325044123,0.3258753982645602,0.8901546137310907,-0.28361506535330705,1.4243797283513033,3,right
3.305,-0.49606072152786407,0.2962541274759317,0.1367944004640365,0.15445900497472578,-1.6585715637789953,0.34287185174421214,0.9167986858177266,-0.2926820352290869,1.4764660325843333,3,right
3.31,-0.492640201849187,0.3021481471030401,0.13410392482615174,0.19338250054815478,-1.755738750735433,0.35955762980807626,0.943338691795624,-0.3021461304265059,1.528546997473462,3,right
3.3110000000000004,-0.48921669712423965,0.3082680070348596,0.13140065280888633,0.2319475707024287,-1.8523782141237675,0.37592723658648775,0.9697585911915501,-0.31200368678306745,1.5806007680156264,3,right
3.3110000000000004,-0.4857859167037779,0.31460779628660995,0.12868696649665495,0.27010441097621846,-1.9484131331671348,0.3919755017089667,0.9960422963448934,-0.3222503176207439,1.6326052629173349,3,right
3.3139999999999996,-0.482343585968013,0.32116145532661267,0.12596522475654975,0.30780346885319604,-2.043767060380464,0.40769758759251673,1.0221736925479017,-0.3328808848119159,1.6845382032799516,3,right
3.315,-0.4788854606950564,0.3279227842318658,0.12323776003100805,0.34499554308889724,-2.1383640418187153,0.4230889981915308,1.0481366572885746,-0.3438894719593119,1.7363771397414878,3,right
3.319,-0.4754073409279572,0.33488545087727645,0.12050687521480277,0.38163188733479086,-2.2321287428009944,0.43814558920789326,1.0739150783873406,-0.35526936001931253,1.7880994777072898,3,right
3.32,-0.4719050842947157,0.3420429991422607,0.1177748406285164,0.4176643172610854,-2.3249865780080374,0.452863579521414,1.0994928710551566,-0.36701300544913584,1.839682500732606,3,right
3.32,-0.46837461874553893,0.34938885712220086,0.115043891103174,0.4530453190183573,-2.416863842783967,0.46723956317224996,1.124853993947583,-0.3791120209095143,1.891103392205897,3,right
3.327,-0.4648119546783582,0.3569163453361107,0.11231622319479048,0.4877281561209387,-2.507687841323948,0.48127052098849415,1.1499824642888543,-0.3915571585555375,1.9423392554814345,3,right
3.3280000000000003,-0.4612131964272044,0.3646186849195729,0.10959399255620189,0.5216669725888183,-2.5973870085736643,0.494953831188654,1.174862372139386,-0.4043382959493803,1.9933671326093187,3,right
3.3280000000000003,-0.4575745530933303,0.3724890057863641,0.10687931150065005,0.5548168915429345,-2.6858910247281087,0.5082872787152921,1.1994778938795423,-0.41744442462965237,2.0441640218105817,3,right
3.3289999999999997,-0.4538923487067809,0.38052035473925255,0.1041742467905986,0.5871341092022849,-2.7731309223610854,0.5212690632926267,1.223813304981815,-0.4308636413731,2.0947068938445192,3,right
3.333,-0.450163031712289,0.38870570351043293,0.10148081767760236,0.6185759843802558,-2.8590391864429416,0.5338978062473959,1.2478529921428556,-0.44458314218535244,2.144972707414787,3,right
3.3339999999999996,-0.4463831837767877,0.3970379567118547,0.09880099420989935,0.6491011235753041,-2.94354984750064,0.5461725561312859,1.271581464846039,-0.4585892190583377,2.1949384237601386,3,right
3.339,-0.44254952791952984,0.4055099596754288,0.09613669581638679,0.6786694617487418,-3.0265985681706327,0.5580927931822114,1.2949833664244337,-0.47286725953289055,2.2445810205749535,3,right
3.34,-0.4386589359712813,0.4141145061648647,0.09348979016902483,0.707242338879856,-3.108122723391191,0.5696584326607284,1.3180434846932052,-0.487401749105935,2.293877505403903,3,right
3.344,-0.4347084353750583,0.42284434594479725,0.09086209232034509,0.7347825723859708,-3.1880614744768256,0.5808698270968372,1.340746762219588,-0.5021762765224461,2.3428049286542443,3,right
3.344,-0.4306952153461173,0.43169219219832683,0.0882553641078848,0.761254525492307,-3.2663558373132524,0.5917277674814212,1.363078306297616,-0.5171735419931742,2.3913403963683058,3,right
3.3489999999999998,-0.4266166324131708,0.44065072879127487,0.08567131381233133,0.7866241716336447,-3.3429487449069497,0.602233483435546,1.385023398693826,-0.53237536837985,2.4394610828977212,3,right
3.35,-0.42247021536623736,0.44971261738941776,0.08311159605174591,0.8108591549668256,-3.417785104518838,0.6123886423898285,1.4065675052291264,-0.547762715390277,2.487144243619928,3,right
3.352,-0.418253669638292,0.45887050444197347,0.0805778118909478,0.8339288470700705,-3.4908118496068723,0.6221953478050709,1.4276962852609454,-0.5633156968263544,2.5343672278363103,3,right
3.353,-0.4139648811469011,0.4681170280500088,0.07807150914203972,0.8558043999019209,-3.5619779867974573,0.6316561364643418,1.448395601128677,-0.5790136009286613,2.5811074919901635,3,right
3.358,-0.4096019196186903,0.4774448247419679,0.07559418282964367,0.8764587950893593,-3.6312346381005627,0.640773974865684,1.468651527624278,-0.5948349138617622,2.627342613341429,3,right
3.358,-0.40516304141470544,0.4868465361795665,0.07314727579475942,0.8958668896113213,-3.6985350785782103,0.6495522547436255,1.4884503615486886,-0.6107573463848696,2.673050304233795,3,right
3.363,-0.4006466918693474,0.4963148158151599,0.07073217941352197,0.9140054579403818,-3.7638347696706673,0.6579947877466792,1.5077786314135053,-0.6267578637529116,2.718208427088398,3,right
3.364,-0.3960515071513103,0.5058423355158725,0.06835023440873417,0.9308532307018963,-3.827091388379208,0.666105799297029,1.5266231073460674,-0.6428127188934105,2.7627950102568954,3,right
3.367,-0.3913763156531894,0.5154217921613156,0.06600273173315274,0.9463909299063028,-3.8882648524986747,0.6738899216576316,1.5449708112548084,-0.6588974889048584,2.8067882648651605,3,right
3.3680000000000003,-0.38662013891721597,0.5250459142131964,0.06369091350573367,0.9606013008066423,-3.9473173420873455,0.6813521862309955,1.5628090273103645,-0.6749871149225087,2.850166602777292,3,right
3.372,-0.3817821921074161,0.5347074682480806,0.06141597398420257,0.9734691404296603,-4.0042133173557355,0.6884980151129454,1.5801253127965513,-0.6910559453976498,2.8929086558079646,3,right
3.373,-0.37686188404238063,0.5443992654390931,0.05917906055804801,0.9849813228250847,-4.058919533149983,0.6953332119237483,1.5969075093838845,-0.7070777828365147,2.9349932963094645,3,right
3.377,-0.3718588168067609,0.5541141679684325,0.05698127474598034,0.9951268210738701,-4.111405050199395,0.7018639519380473,1.6131437548768666,-0.7230259340449922,2.9763996592579707,3,right
3.377,-0.36677278496270493,0.5638450953506126,0.05482367318137217,1.0038967260923468,-4.161641243291519,0.7080967715341442,1.6288224954640063,-0.7388732638453077,3.017107165894857,3,right
3.378,-0.3616037743825951,0.5735850306485443,0.05270726856864095,1.0112842622653235,-4.209601806531832,0.7140385569822808,1.6439324983942485,-0.7545922518310112,3.057095548642006,3,right
3.3819999999999997,-0.35635196072145087,0.5833270265719337,0.050633030594001364,1.0172847999372667,-4.255262755838769,0.7196965325906948,1.658462864815168,-0.770155051006955,3.096344876405422,3,right
3.383,-0.35101770754667516,0.593064211454065,0.048601886774422176,1.0218958647867382,-4.298602428818341,0.7250782482273662,1.6724030424029241,-0.785533546760962,3.134835579044538,3,right
3.388,-0.34560156414805115,0.6027897951029084,0.04661472322730404,1.0251171441053024,-4.339601482156073,0.7301915662345444,1.6857428375160939,-0.8006994150132044,3.1725484701174214,3,right
3.388,-0.34010426305657726,0.6124970745195433,0.04467238534203923,1.0269504899815103,-4.378242886649886,0.7350446477533457,1.6984724267905962,-0.8156241791083116,3.209464767612736,3,right
3.389,-0.3345267172996615,0.6221794394786836,0.042775678335958675,1.0273999193034498,-4.414511919963419,0.7396459384800406,1.710582368194982,-0.830279265414387,3.2455661127120266,3,right
3.3930000000000002,-0.32887001741294636,0.631830377973227,0.04092536768059278,1.0264716103397322,-4.448396157105087,0.7440041538840881,1.7220636115843895,-0.8446360576724379,3.280834586690613,3,right
3.395,-0.3231354282232854,0.6414434815312605,0.03912217938692244,1.0241738955716688,-4.479885458593918,0.7481282639223452,1.7329075087897128,-0.8586659501390345,3.3152527260631177,3,right
3.3960000000000004,-0.31732438541836183,0.651012450415556,0.03736680013952285,1.0205172505285556,-4.508971956303919,0.7520274772780395,1.7431058232767551,-0.8723403995642329,3.348803536077282,3,right
3.397,-0.3114384919222425,0.6605310987149231,0.03565987727073137,1.01551427852366,-4.535650037039284,0.7557112251431867,1.7526507394083273,-0.8856309760459483,3.3814705026573666,3,right
3.404,-0.3054795140971177,0.6699933593383988,0.034002018568439756,1.009179691267706,-4.559916323923415,0.7591891445573397,1.76153487134043,-0.8985094128010161,3.413237602895965,3,right
3.405,-0.299449377790617,0.6793932889272625,0.032393791913533435,1.0015302853493804,-4.581769655685283,0.7624710613138953,1.769751271581794,-0.9109476548921669,3.4440893141905753,3,right
3.406,-0.2933501642495947,0.6887250727036895,0.030835724741850923,0.9925849145685189,-4.601211063919781,0.7655669724445586,1.777293439244188,-0.9229179069490329,3.474010622118748,3,right
3.407,-0.28718410592610194,0.6979830292768505,0.02932830331842418,0.9823644581038115,-4.618243748391749,0.768487028291979,1.7841553280089975,-0.9343926799201213,3.502987027143022,3,right
3.412,-0.28095358220626737,0.7071616154269226,0.02787197180032203,0.9708917844930919,-4.632873050446488,0.7712415141800075,1.7903313538336647,-0.9453448368914281,3.5310045502342566,3,right
3.4130000000000003,-0.2746611150938931,0.7162554308850544,0.026467131053381925,0.9581917114005606,-4.645106424582584,0.773840831690489,1.795816402419645,-0.9557476380060179,3.5580497374992786,3,right
3.4160000000000004,-0.26830936487638674,0.7252592231238891,0.025114137182317538,0.9442909611416272,-4.654953408236012,0.7762954795550034,1.8006058364615776,-0.9655747845174782,3.584109663896058,3,right
3.417,-0.2619011257928462,0.7341678921697128,0.02381329973558249,0.9292181119324706,-4.662425589817541,0.7786160341694874,1.8046955026954032,-0.9748004620086509,3.609171936116869,3,right
3.4219999999999997,-0.25543932171465294,0.7429764954435547,0.022564879555073778,0.9130035448278871,-4.667536575038621,0.7808131297392295,1.8080817387611767,-0.9833993828054703,3.6332246947171014,3,right
3.4219999999999997,-0.24892700183938266,0.7516802526341868,0.02136908625330479,0.8956793863075586,-4.670301951554052,0.7828974380613104,1.8107613798943218,-0.9913468276140831,3.6562566155645633,3,right
3.426,-0.24236733639044786,0.7602745506012025,0.02022607531514202,0.8772794464675031,-4.670739251942937,0.7848796479511808,1.8127317654570692,-0.9986186864076961,3.6782569106812373,3,right
3.427,-0.23576361230755657,0.7687549483016053,0.01913594483812393,0.8578391527701983,-4.668867915042633,0.7867704443197071,1.8139907453198016,-1.0051914985878043,3.6992153285465768,3,right
3.432,-0.22911922890629158,0.7771171817283002,0.018098731944334537,0.837395479303682,-4.664709245643681,0.7885804869067004,1.8145366860999967,-1.0110424924425758,3.719122153928469,3,right
3.4330000000000003,-0.2224376934796694,0.7853571688432417,0.017114408914062046,0.8159868714968492,-4.658286372547012,0.790320388676642,1.8143684772644204,-1.0161496239232342,3.737968207305057,3,right
3.435,-0.21572261681100435,0.7934710144820776,0.0161828791035733,0.7936531662351772,-4.649624204978106,0.7920006938820635,1.8134855370981875,-1.0204916147572716,3.7557448439375953,3,right
3.4360000000000004,-0.20897770856409126,0.8014550152017421,0.015303972716340992,0.770435507318233,-4.638749387346197,0.7936318557998019,1.811887818542255,-1.0240479899152528,3.772443952651517,3,right
3.4410000000000003,-0.20220677251146033,0.8093056640380912,0.014477442501597678,0.746376256197547,-4.6256902523301315,0.7952242141451512,1.8095758148988628,-1.0267991144458355,3.788057954379829,3,right
3.4419999999999997,-0.1954137015547547,0.8170196551372905,0.013702959458349304,0.7215188979307846,-4.610476772266061,0.7967879721687607,1.806550565402386,-1.028726229691437,3.8025798005198803,3,right
3.445,-0.1886024724856878,0.8245938882217713,0.012980108626853025,0.6959079422856058,-4.593140508805772,0.7983331734409881,1.802813660651008,-1.0298114888947205,3.8160029711514665,3,right
3.446,-0.18177714043354348,0.8320254728499965,0.012308385050872454,0.6695888199241936,-4.573714560808219,0.799869678328301,1.7983672478830575,-1.0300379921851108,3.828321473158281,3,right
3.446,-0.17494183294679844,0.839311732432517,0.011687189988885217,0.6426077735971358,-4.552233510420617,0.8014071401662467,1.7932140360321989,-1.029389820838906,3.839529838277405,3,right
3.451,-0.16810074366094857,0.846450207974834,0.011115827441407006,0.6150117442731867,-4.528733367299359,0.8029549811334442,1.7873573004079366,-1.0278520705362462,3.8496231210729217,3,right
3.452,-0.16125812550774674,0.8534386615213566,0.010593501055952637,0.586848252129399,-4.5032515109150335,0.8045223678310374,1.7808008867982605,-1.025410883242457,3.858596896812371,3,right
3.4560000000000004,-0.15441828342159078,0.8602750792678405,0.010119311478741806,0.5581652723242189,-4.475826630879911,0.8061181865720439,1.7735492148368275,-1.022053477432056,3.866447259235746,3,right
3.457,-0.14758556650122226,0.8669576742995568,0.009692254232719506,0.5290111056614114,-4.446498665296529,0.8077510184147153,1.765607280560742,-1.017768176539038,3.8731708182290334,3,right
3.458,-0.14076435959155736,0.8734848889106493,0.00931121819968508,0.4994342451862651,-4.415308737450681,0.8094291141223127,1.756980658130588,-1.0125444356077535,3.8787646974252246,3,right
3.46,-0.1339590742595331,0.8798553964676927,0.00897498477043496,0.46948324143740955,-4.3822990917611255,0.8111603694986173,1.7476755006918925,-1.0063728661347024,3.8832265317553496,3,right
3.4610000000000003,-0.1271741391485782,0.886068102786476,0.008682227714947616,0.4392065700114353,-4.3475130302232206,0.8129523016968319,1.7376985403552152,-0.9992452590889138,3.8865544649688406,3,right
3.465,-0.12041398970860467,0.8921221469869507,0.008431513822805273,0.4086525041610839,-4.310994850248011,0.8148120269514227,1.7270570872700977,-0.9911546060958842,3.8887471471392945,3,right
3.466,-0.11368305731088253,0.8980169017826483,0.008221304362761458,0.37786899346332115,-4.272789784198429,0.8167462399157792,1.715759027766156,-0.9820951187673275,3.8898037321684327,3,right
3.47,-0.10698575776896924,0.903751973157,0.008049957399261998,0.3469035486574637,-4.232943940588855,0.8187611946404998,1.7038128215326707,-0.9720622461562454,3.8897238752978383,3,right
3.471,-0.10032647929815432,0.9093271993812257,0.007915730986077119,0.3158031325656874,-4.191504246843212,0.820862687197662,1.6912274978061168,-0.9610526903140646,3.888507730634747,3,right
3.4760000000000004,-0.09370956995699205,0.9147426493350373,0.007816787239740863,0.28461405700758763,-4.148518393501958,0.8230560399566466,1.678012650533204,-0.9490644199238033,3.8861559486949404,3,right
3.477,-0.0871393246263917,0.9199986201026752,0.0077511972790334175,0.25338188561993713,-4.104034779763606,0.8253460875173154,1.664178432475121,-0.9360966819804403,3.882669673962503,3,right
3.4819999999999998,-0.08061997159526581,0.9250956338331476,0.00771694700004734,0.222151342492398,-4.058102460241815,0.8277371643065938,1.6497355482168525,-0.9221500114868543,3.878050542462957,3,right
3.483,-0.07415565883600637,0.9300344338732671,0.007711943639607042,0.19096622652968803,-4.010771092814689,0.8302330938447663,1.6346952460436317,-0.9072262391308912,3.872300679343021,3,right
3.485,-0.06775044006651054,0.9348159802025314,0.007734023063522951,0.15986933145057539,-3.962090887438592,0.8328371796880756,1.6190693086448045,-0.8913284969063101,3.8654226964469753,3,right
