time,gFx,gFy,gFz,ax,ay,az,wx,wy,wz,subject_number,foot
10.061,0.21303471631548224,0.876563601154391,0.028668782296881867,2.7258949802638988,0.6740022801533602,0.2456901157153578,-0.1556861541425105,0.010298996366725518,0.3917734877060543,1,left
10.065,0.20371567094852855,0.8764072737152371,0.0261164942978683,2.7268859069578433,0.6168045137468136,0.2567113505668892,-0.15209445010287762,0.016603015781461398,0.3848053347594236,1,left
10.065,0.1945700905692812,0.876291488250838,0.023591564061984628,2.723771061442965,0.5607773179120166,0.26678382771314707,-0.14873353257818978,0.0227724297037041,0.37843357531457616,1,left
10.07,0.18560947268986763,0.8762152095882735,0.021096929301542278,2.7165517174176004,0.5059647294720623,0.2758947267650497,-0.1456058641891914,0.028808563199900297,0.3726674618181417,1,left
10.071,0.17684508738079024,0.8761774569253314,0.018635517843120446,2.7052350300065755,0.4524095958977574,0.284031857033853,-0.14271383363350135,0.034712749461853994,0.36751581418674817,1,left
10.074,0.16828795782034733,0.876177307096499,0.016210248490118526,2.689833958293017,0.40015353072287907,0.2911836761239448,-0.1400597541546359,0.0404863317487213,0.3629870096327308,1,left
10.075,0.15994884167166282,0.8762138972377985,0.013824031328693843,2.6703671721356774,0.34923686819702937,0.29733931172691214,-0.13764586162919487,0.046130666187405675,0.3590889718544732,1,left
10.079,0.1518382132976171,0.8762864268819283,0.011479767433262546,2.6468589432392915,0.2996986170223285,0.30248858664023137,-0.13547431227191217,0.051647125425887716,0.35582915960020123,1,left
10.08,0.14396624681756054,0.8763941595199495,0.009180347936364632,2.619339020433763,0.25157641302391504,0.30662204703110385,-0.13354717999896973,0.057037103021500016,0.353214554733844,1,left
10.081,0.13634280000525706,0.8765364236657722,0.006928652437640994,2.5878424891063116,0.2049064706080684,0.3097309939630981,-0.1318664535626943,0.06230201824391813,0.35125165014579973,1,left
10.085,0.1289773990270034,0.8767126134603573,0.004727546736243881,2.5524096147191075,0.15972353286572294,0.3118075182003713,-0.13043403361146846,0.06744332086012267,0.34994643797128255,1,left
10.086,0.1218792240237066,0.8769221888584748,0.0025798798809476674,2.513085670674362,0.11606082030851979,0.3128445382035892,-0.1292517297893725,0.07246249558037306,0.34930439846277395,1,left
10.086,0.11505709554647404,0.8771646754451192,0.0004884805429122319,2.469920752482139,0.07394997885525824,0.31283584074004467,-0.12832125791875282,0.07736106604574225,0.3493304896525595,1,left
10.089,0.10851946185764921,0.8774396639242414,-0.001543847273142972,2.4229695832433564,0.033421028818662116,0.3117761226478872,-0.1276442372696091,0.08214059834955535,0.3500291378252146,1,left
10.089,0.1022743871122155,0.8777468093155256,-0.0035143291482036083,2.3722913171540063,-0.005497682726710633,0.30966103180271404,-0.127222187912407,0.0868027041071543,0.35140422879820576,1,left
10.094,0.09632954044266134,0.878085829893073,-0.0054202257425430425,2.3179493460208653,-0.042779524436681086,0.30648720582045064,-0.12705652815164742,0.09134904308806412,0.35345910001069186,1,left
10.094,0.09069218597961087,0.8784565058990509,-0.00725883877888777,2.2600111106996117,-0.07839961741429562,0.3022523079070502,-0.12714857203825056,0.09578132542429467,0.3561965334225406,1,left
10.099,0.08536917384474749,0.8788586780596813,-0.009027517410022709,2.198547917650848,-0.1123348661377416,0.29695505975119507,-0.12749952695954508,0.10010131340817441,0.35961874922751813,1,left
10.099,0.0803669321509873,0.8792922459217833,-0.010723664858851288,2.1336347604580563,-0.14456398370637968,0.2905952714508757,-0.12811049130638982,0.10431082289278022,0.3637274003865604,1,left
10.104,0.07569146003917446,0.8797571660189765,-0.012344745223341868,2.065350146141208,-0.17506751150716995,0.2831738684616803,-0.12898245221769464,0.1084117243077,0.3685235679889948,1,left
10.105,0.0713483217725673,0.8802534498693839,-0.013888290349022947,1.9937759260896144,-0.20382783339893304,0.27469291555157593,-0.13011628340335119,0.11240594330254196,0.3740077574515476,1,left
10.107999999999999,0.06734264190080101,0.8807811618028478,-0.015351906683551237,1.9189971314277119,-0.23082918450699014,0.2651556377439141,-0.13151274304733077,0.11629546103028757,0.3801798955669414,1,left
10.109,0.0636791014926555,0.8813404166163268,-0.016733282041701762,1.841101812617796,-0.2560576547157719,0.25456643822734476,-0.1331724717934562,0.12008231408227303,0.38703932841586286,1,left
10.113,0.06036193542243342,0.8819313770605667,-0.018030192224737968,1.760180883094271,-0.27950118694198395,0.24293091320828275,-0.13509599081710638,0.12376859408627792,0.3945848201580547,1,left
10.113999999999999,0.057394930682373106,0.8825542511672039,-0.019240507449547407,1.6763279667147872,-0.30114957026586536,0.23025586367853776,-0.13728369998686643,0.12735644697889878,0.40281455272026145,1,left
10.12,0.05478142568587545,0.8832092894311335,-0.020362198546597654,1.5896392488046913,-0.32099442799299055,0.21654930406770004,-0.13973587612089308,0.13084807196309117,0.4117261264007318,1,left
10.12,0.052524310521343785,0.8838967818678671,-0.02139334288559194,1.500213330562518,-0.33902920071393816,0.20182046774687085,-0.14245267134352135,0.13424572016147393,0.42131656141194945,1,left
10.126,0.0506260281114707,0.8846170549704597,-0.02233212998620315,1.408151086585855,-0.3552491244239993,0.18607980934734258,-0.14543411154839797,0.13755169297570793,0.4315823003852294,1,left
10.127,0.049088576227361146,0.8853704685955743,-0.023176866767670914,1.313555525268753,-0.3696512037599204,0.1693390038548737,-0.14868009497518644,0.14076834016198425,0.44251921186277365,1,left
10.128,0.04791351030164698,0.8861574128126893,-0.023925982388645548,1.2165316518140001,-0.3822341804054791,0.15161094243726822,-0.15219039090764827,0.14389805763238736,0.45412259480472994,1,left
10.129,0.047101946980920885,0.8869783047530648,-0.024578032632078195,1.11718633359602,-0.392998496712482,0.1329097249600671,-0.15596463850166528,0.14694328499163584,0.4663871841407347,1,left
10.135,0.04665456835652425,0.8878335854937542,-0.025131703796455594,1.0156281676028611,-0.4019462545785556,0.1132506491422865,-0.16000234575252686,0.14990650281844586,0.4793071573973497,1,left
10.136000000000001,0.04657162681417594,0.8887237170050725,-0.025585816055485072,0.9119673496787933,-0.40908116961787816,0.09265019630130605,-0.1643028886115661,0.15279022970051395,0.492876142434713,1,left
10.138,0.046852950446347214,0.8896491791784666,-0.025939326238222295,0.8063155452823465,-0.41440852065578065,0.07112601363321587,-0.16886551026298585,0.15559701903187248,0.5070872263276264,1,left
10.139,0.04749794897507109,0.890610466938213,-0.02619132996645865,0.6987857614682826,-0.41793509457292877,0.048696892972183034,-0.17368932057247255,0.1583294555811354,0.5219329654281799,1,left
10.142999999999999,0.04850562013580593,0.8916080874258492,-0.02634106308083614,0.5894922197959511,-0.41966912651959465,0.025382745969695607,-0.17877329571995085,0.16099015183892446,0.5374053966488795,1,left
10.144,0.049874556475539955,0.8926425572296083,-0.026387902302835234,0.47855022986076035,-0.41962023551533606,0.0012045756318915125,-0.1841162780295838,0.16358174415254434,0.553496050007086,1,left
10.148,0.051602952521181,0.8937143996118337,-0.026331365113948922,0.3660760631401076,-0.41779935544423247,-0.02381555584941769,-0.1897169760108743,0.16610688865576204,0.5701959624733955,1,left
10.149,0.05368861227737669,0.8948241416694,-0.026171108872540656,0.2521868268400451,-0.41421866145067965,-0.0496545630389583,-0.19557396461715273,0.1685682570054374,0.5874956931293375,1,left
10.15,0.056128957017924495,0.8959723113540972,-0.025906929217423408,0.137000337424225,-0.4088914917356261,-0.07628837704285112,-0.2016856856868921,0.1709685319570449,0.605385339446258,1,left
10.154,0.058921033343463304,0.8971594342836176,-0.025538757820195872,0.020634993502267513,-0.4018322647480467,-0.1036919892079397,-0.20805044845917506,0.17331040284781793,0.6238545541475097,1,left
10.154,0.06206152148726542,0.898386030277053,-0.025066659557549706,-0.09679035213356461,-0.39305639191470915,-0.13183949871944645,-0.2146664300137856,0.17559656107655527,0.6428925619225074,1,left
10.155,0.06554674385772534,0.8996526095451671,-0.024490829186609706,-0.2151565209592153,-0.38258018681284794,-0.16070416363149123,-0.2215316755287174,0.17782969564846296,0.6624881754581875,1,left
10.158,0.06937267381354294,0.9009596684632843,-0.023811587611160586,-0.3343441362541994,-0.37042077306521043,-0.19025845405433212,-0.2286440983234744,0.18001248881635323,0.6826298106065667,1,left
10.158999999999999,0.07353494468002686,0.9023076848512134,-0.023029377823721088,-0.45423374774250597,-0.3565959939985853,-0.22047410577272006,-0.236001479698848,0.18214761182887246,0.7033055007040143,1,left
10.163,0.0780288590333405,0.9036971126697589,-0.022144760604138326,-0.5747059519417784,-0.3411243263354659,-0.25132217302342036,-0.2436014685928879,0.18423772079217882,0.7245029100985042,1,left
10.163,0.08284939830150696,0.9051283760241198,-0.021158410039022274,-0.6956415078680933,-0.3240247988038432,-0.2827730799748188,-0.25144158107349446,0.1862854526513462,0.7462093469426837,1,left
10.168,0.08799123275103578,0.9066018623539999,-0.02007110889025251,-0.8169214483246895,-0.3053169157787668,-0.31479667090503105,-0.25951919968876286,0.1882934212976335,0.7684117753121276,1,left
10.169,0.0934487319404731,0.9081179146880273,-0.018883743801233074,-0.9384271871204737,-0.28502058591126833,-0.34736225916706953,-0.2678315726969071,0.19026421380762965,0.7910968267096448,1,left
10.173,0.09921597572499076,0.9096768228407845,-0.017597300304784794,-1.0600406225654646,-0.2631560556955679,-0.38043867503135337,-0.2763758131982799,0.19220038682016227,0.8142508110179663,1,left
10.175,0.10528676588992829,0.9112788134339606,-0.016212857588374655,-1.1816442375913219,-0.23974384792086254,-0.4139943124974905,-0.2851488981926883,0.19410446305674384,0.8378597269645673,1,left
10.177,0.1116546384777581,0.9129240386309526,-0.014731582973948248,-1.3031211968457617,-0.21480470494943535,-0.4479971751688164,-0.29414766758587685,0.1959789279912229,0.8619092721637636,1,left
10.179,0.11831287685464917,0.9146125634893234,-0.013154726076008188,-1.4243554411099666,-0.18835953675831793,-0.482414921284642,-0.30336882316971875,0.19782622667420735,0.8863848528025625,1,left
10.182,0.12525452554099856,0.9163443518597599,-0.011483612611529609,-1.5452317793880763,-0.1604293736772938,-0.5172149080065384,-0.3128089276013094,0.19964876071773507,0.9112715930380674,1,left
10.183,0.13247240480533948,0.9181192507946089,-0.009719637848859862,-1.6656359790174753,-0.1310353237516445,-0.5523642350562687,-0.322464403406807,0.20144888544558268,0.9365543441754849,1,left
10.187000000000001,0.1399591259932978,0.9199369734748759,-0.007864259699765425,-1.7854548541479063,-0.10019853465371376,-0.5878297878041705,-0.3323315320365025,0.20322890721452344,0.9622176936970183,1,left
10.187000000000001,0.14770710753312866,0.9217970807209571,-0.005918991478183087,-1.9045763529364095,-0.06794016006309886,-0.6235782799078888,-0.3424064529982309,0.2049910809117758,0.9882459742131068,1,left
10.192,0.15570859152853136,0.9236989612142988,-0.0038853943683210025,-2.0228896438037314,-0.034281330431074064,-0.6595762956023646,-0.35268516309685183,0.20673760763381838,1.0146232724086084,1,left
10.193,0.16395566082151172,0.9256418106177996,-0.0017650696611230656,-2.1402852010961677,0.0007568719592946343,-0.6957903317428865,-0.36316351580813844,0.20847063255169013,1.0413334380576162,1,left
10.197000000000001,0.1724402563859059,0.927624609836803,0.0004403491673893107,-2.2566548904948096,0.03715343372996752,-0.7321868397038335,-0.3738372208160079,0.2101922429678422,1.0683600931816462,1,left
10.198,0.18115419489621012,0.9296461027079315,0.0027292044458321583,-2.3718920545118407,0.07488742703832933,-0.768732267236447,-0.38470184374261196,0.2119044665695637,1.0956866414269355,1,left
10.202,0.19008918630546207,0.9317047734410131,0.005099822252638455,-2.485891598410891,0.11393802220177784,-0.8053931003895943,-0.3957528061013806,0.21360926988396453,1.123296277737551,1,left
10.203,0.1992368512595016,0.9337988241719009,0.007550520174742769,-2.5985500768855254,0.15428449642101524,-0.842135905598008,-0.4069853855036719,0.21530855693946516,1.1511719984019075,1,left
10.206,0.20858873817361695,0.9359261530105585,0.010079614706478184,-2.7097657818266807,0.1959062387103973,-0.8789273720429144,-0.41839471615022905,0.21700416813871623,1.179296611551165,1,left
10.207,0.2181363398008208,0.9380843329857069,0.012685428093624133,-2.8194388315063206,0.23878275114747763,-0.9157343543902959,-0.42997578963918054,0.21869787934785012,1.2076527481887815,1,left
10.214,0.22787110912662134,0.9402705922900666,0.0153662944277514,-2.9274712615007297,0.2828936465576071,-0.952523916012269,-0.44172345612284264,0.2203914012069493,1.2362228738312662,1,left
10.215,0.2377844744326295,0.9424817962159998,0.018120564821942242,-3.0337671176727175,0.32821864275311297,-0.9892633727971966,-0.45363242584608765,0.2220863786666066,1.264989300840886,1,left
10.216000000000001,0.24786785338370668,0.9447144311370833,0.02094661154370689,-3.138232551527591,0.37473755345018533,-1.025920337654201,-0.46569727108150644,0.22378439074915835,1.293934201488191,1,left
10.217,0.2581126660159512,0.9469645908316422,0.02384283103285595,-3.2407759182530356,0.42243027599014793,-1.0624627658176946,-0.47791242838691556,0.22548695050172712,1.3230396215650158,1,left
10.217,0.26851034653296185,0.9492279653686212,0.02680764578171475,-3.3413078777480525,0.47127677599527484,-1.0988590010574015,-0.4902722009489462,0.22719550505161787,1.3522874939771237,1,left
10.222000000000001,0.27905235383707006,0.9514998327176446,0.029839505099983222,-3.4397414989408697,0.5212570690927469,-1.1350778228991047,-0.5027707606867433,0.22891143564317679,1.381659651528362,1,left
10.224,0.2897301807206817,0.953775053221659,0.032936884828383285,-3.535992367690212,0.5723511998437132,-1.1710884949610294,-0.5154021498803906,0.2306360575666781,1.4111378383264617,1,left
10.224,0.30053536164063394,0.9560480670566317,0.03609828609849621,-3.6299786983275646,0.6245392180039523,-1.2068608144146125,-0.5281602822513696,0.2323706199464184,1.4407037196330967,1,left
10.227,0.31145947901715537,0.9583128947719067,0.03932223324739118,-3.721621447737228,0.677801152176963,-1.2423651620992087,-0.5410389435129146,0.23411630538666223,1.4703388901989747,1,left
10.228,0.32249416803225983,0.9605631409620115,0.042607270981987154,-3.810844428785969,0.7321169807994526,-1.2775725519580432,-0.5540317914265359,0.23587422948039602,1.5000248811686032,1,left
10.231,0.3336311199322799,0.9627920010774927,0.045951960869260094,-3.8975744187527437,0.7874666003334074,-1.312454677983345,-0.5671323554013501,0.23764544018587577,1.5297431656396274,1,left
10.231,0.3448620838613211,0.9649922713354354,0.04935487722635668,-3.981741259557071,0.8438297906109425,-1.3469839573365172,-0.5803340356731997,0.2394309170759858,1.5594751629618349,1,left
10.237,0.3561788672742136,0.9671563616291583,0.05281460250116259,-4.063277948656409,0.9011861774052126,-1.3811335691699937,-0.5936301021008736,0.24123157046546084,1.5892022418610656,1,left
10.238,0.3675733350043379,0.9692763112571574,0.056329722258036945,-4.14212072063057,0.9595151923725607,-1.4148774891551945,-0.6070136926170479,0.24304824042106188,1.6189057224733596,1,left
10.242,0.37903740709269235,0.9713438072004915,0.05989881990515062,-4.218209119694811,1.0187960305277797,-1.448190519815712,-0.6204778113718585,0.24488169565983686,1.648566877374715,1,left
10.242,0.3905630555170475,0.9733502045882593,0.06352047131128687,-4.29148606337571,1.0790076054172069,-1.4810483167637782,-0.6340153266072864,0.24673263234064094,1.678166931691815,1,left
10.248,0.4021422999905478,0.975286548915654,0.06719323945780117,-4.3618978975761715,1.1401285021571763,-1.513427410936893,-0.6476189683007877,0.24860167275413644,1.7076870623790124,1,left
10.249,0.41376720302300113,0.977143599527613,0.07091566925860673,-4.429394443248045,1.2021369285080774,-1.545305226930261,-0.661281325616832,0.25048936391654164,1.7371083967467398,1,left
10.25,0.42542986445189807,0.9789118538550311,0.07468628266308659,-4.493929034882719,1.2650106641569467,-1.5766600975193805,-0.6749948442052234,0.2523961760724463,1.76641201032634,1,left
10.251,0.4371224156548632,0.9805815718847036,0.07850357413942088,-4.555458551021883,1.3287270083841318,-1.607471274465751,-0.6887518233852677,0.2543225011120649,1.7955789241560765,1,left
10.255,0.44883701365498546,0.9821428003527249,0.08236600662342322,-4.613943436982231,1.393262726292108,-1.6377189356972268,-0.7025444132550177,0.2562686509083508,1.824590101572803,1,left
10.255999999999998,0.4605658353286215,0.9835853961719857,0.08627200801053758,-4.669347719979424,1.4585939937770254,-1.6673841889530485,-0.7163646117649747,0.25823485557945114,1.8534264445934372,1,left
10.261,0.472301071922485,0.984899048638751,0.09021996826055309,-4.721639016827982,1.5246963414259695,-1.696449071982024,-0.7302042617957507,0.2602212616820351,1.8820687899699784,1,left
10.262,0.4840349240819137,0.9860733000126614,0.09420823716987096,-4.770788534385026,1.5915445975252822,-1.7248965493807065,-0.7440550482792964,0.2622279303410888,1.9104979050013793,1,left
10.265,0.4957595975834068,0.9870975641312054,0.09823512284403271,-4.816771062896976,1.6591128303675695,-1.7527105061567563,-0.7579084954033776,0.26425483532182426,1.9386944831850603,1,left
10.265999999999998,0.5074672999505722,0.9879611428075686,0.10229889087784799,-4.8595649623993555,1.727374290047233,-1.7798757381009427,-0.7717559639390411,0.26630186104940873,1.9666391397903127,1,left
10.27,0.5191502381122248,0.9886532398724829,0.10639776422693029,-4.899152142310844,1.7963013499365112,-1.8063779390494725,-0.7855886487308422,0.2683688005822805,1.994312407435216,1,left
10.270999999999999,0.5308006172324355,0.989162972854187,0.11052992373560347,-4.935518034353621,1.8658654480360743,-1.8322036851165178,-0.799397576389609,0.27045535354487243,2.021694731748031,1,left
10.275,0.5424106408030114,0.9894793824382533,0.11469350927171008,-4.96865155892291,1.9360370283962125,-1.8573404159749478,-0.813173603227509,0.27256112402562305,2.0487664671933015,1,left
10.276,0.5539725120395358,0.9895914399979434,0.1188866214055804,-4.998545085019402,2.0067854828065634,-1.8817764132613688,-0.8269074134751341,0.2746856184462136,2.075507873142121,1,left
10.28,0.5654784365654209,0.989488053618811,0.12310732355333072,-5.0251943838490085,2.0780790929541553,-1.9055007761796388,-0.8405895178202516,0.27682824340802287,2.1018991102651867,1,left
10.280999999999999,0.5769206263088272,0.9891580731424929,0.12735364448096348,-5.048598576185113,2.1498849732512846,-1.9285033943750407,-0.8542102523077818,0.27898830352184967,2.1279202373263644,1,left
10.286,0.5882913044817539,0.988590294816084,0.13162358103868868,-5.068760073579189,2.2221690145364,-1.95077491814929,-0.867759777640429,0.2811649992270032,2.153551208453545,1,left
10.287,0.599582711471703,0.9877734661475966,0.13591510097554707,-5.085684513496329,2.294895828852731,-1.9723067260845064,-0.8812280789098362,0.2833574246105076,2.1787718709540767,1,left
10.288,0.6107871114706002,0.9866962915172867,0.14022614568837183,-5.099380688442942,2.368028695510862,-1.9930908901422126,-0.8946049657408682,0.2855645652601759,2.203561963698552,1,left
10.290999999999999,0.6218967996912412,0.9853474389928522,0.14455463278859407,-5.109860469144537,2.44152950864284,-2.0131201383013186,-0.9078800727466666,0.2877852962266818,2.227901116019218,1,left
10.292,0.6329041100433619,0.9837155487249201,0.1488984584031905,-5.117138721822225,2.515358726456642,-2.0323878147969325,-0.9210428601448027,0.29001838019276477,2.2517688470256525,1,left
10.292,0.6438014231364966,0.9817892433072711,0.15325549914415848,-5.121233219734596,2.5894753223940645,-2.0508878380862474,-0.9340826144316767,0.29226246592478217,2.2751445652815696,1,left
10.295,0.6545811744733482,0.9795571405016646,0.15762361369439726,-5.1221645497786925,2.663836738361252,-2.068614656998372,-0.9469884490967732,0.2945160870405394,2.298007568861688,1,left
10.296,0.6652358627214748,0.9770078686818608,0.16200064397793784,-5.119956016080031,2.738398840139313,-2.085563206121807,-0.9597493054051444,0.29677766110439996,2.320337045848705,1,left
10.3,0.6757580579796099,0.9741300853009852,0.16638441589993969,-5.114633543128805,2.8131158750484384,-2.1017288618138577,-0.9723539532855606,0.29904548905612055,2.3421120753374773,1,left
10.300999999999998,0.6861404099646318,0.9709124986936313,0.17077273964885303,-5.106225580374006,2.8879404319744726,-2.117107399881258,-0.9847909923613759,0.3013177549798806,2.3633116290120473,1,left
10.304,0.6963756560506889,0.9673438935496101,0.1751634095572922,-5.094763009032759,2.9628234039302153,-2.131694955380031,-0.9970488531607444,0.3035925262200002,2.3839145733596188,1,left
10.305,0.7064566291085472,0.963413160381667,0.17955420352942303,-5.080279051226919,3.0377139533590256,-2.145487984647575,-1.0091157985423738,0.30586775384985726,2.4038996725839823,1,left
10.309000000000001,0.7163762651134967,0.9591093292544965,0.18394288206197387,-5.062809181422838,3.112559480395576,-2.1584832296111447,-1.0209799253725167,0.30814127350052684,2.4232455922792524,1,left
10.31,0.7261276105060827,0.9544216079661542,0.18832718690705982,-5.04239104014145,3.1873055942987567,-2.170677684414623,-1.0326291664883922,0.310410806555674,2.441930903923055,1,left
10.314,0.7357038293038194,0.949339424779849,0.19270483944106226,-5.019064349897128,3.2618960882717616,-2.1820685644032065,-1.0440512929826717,0.3126739617192306,2.4599340902465294,1,left
10.315,0.745098209977691,0.9438524756925084,0.19707353881286574,-4.992870833315233,3.336272917884255,-2.1926532775033247,-1.0552339168430906,0.31492823696238337,2.4772335515366817,1,left
10.32,0.7543041721255339,0.9379507760963697,0.20143095994997204,-4.96385413336975,3.4103761833112136,-2.202429398032822,-1.0661644939806216,0.3171710218563869,2.4938076129247104,1,left
10.321,0.7633152729934661,0.9316247165443388,0.2057747515064762,-4.932059735674125,3.484144115602607,-2.2113946429741147,-1.0768303276789968,0.3193996002976982,2.5096345327119827,1,left
10.325,0.772125213911442,0.9248651221785896,0.21010253384449962,-4.897534892750125,3.5575130671974464,-2.2195468507407305,-1.087218572497675,0.321611153631903,2.524692511783312,1,left
10.325999999999999,0.7807278467133346,0.9176633152411663,0.21441189715079498,-4.86032855019147,3.6304175068949527,-2.2268839624653074,-1.0973162386596307,0.32380276418287085,2.5389597041550998,1,left
10.329,0.7891171802012564,0.9100111799716416,0.21870039980222072,-4.820491274631007,3.702790019494614,-2.2334040058348004,-1.1071101969545722,0.32597141919353506,2.5524142287037623,1,left
10.33,0.7972873866871304,0.9019012291180057,0.2229655671033054,-4.778075183412345,3.774561310315771,-2.239105081496314,-1.116587184187409,0.3281140151846445,2.5650341821176537,1,left
10.335,0.8052328086033087,0.8933266712391895,0.2272048905172243,-4.7331338758591714,3.845660214806011,-2.243985352054632,-1.1257338092009435,0.33022736273777636,2.5767976531134225,1,left
10.335999999999999,0.8129479651232991,0.8842814779501017,0.23141582749031464,-4.6857223660279335,3.916013713446132,-2.2480430336801698,-1.134536559500896,0.3323081917088335,2.587682737955407,1,left
10.338,0.820427558683777,0.8747604502420507,0.23559580193228133,-4.635897016822136,3.985546952157711,-2.2512763903437247,-1.142981808510461,0.3343531568781747,2.597667557314276,1,left
10.339,0.8276664812626013,0.8647592829967521,0.23974220537413224,-4.583715475339282,4.054183268417348,-2.2536837306920385,-1.151055823480636,0.3363588440434409,2.606730274498658,1,left
10.344000000000001,0.8346598202537665,0.8542746267999661,0.2438523987991329,-4.529236609314366,4.1218442232795525,-2.25526340757583,-1.1587447740815864,0.3383217765610501,2.614849115090988,1,left
10.345,0.8414028637926084,0.843304146155592,0.24792371513374625,-4.4725204445169116,4.188449639507845,-2.256013820239575,-1.1660347416992762,0.3402384223422253,2.622002388016202,1,left
10.347999999999999,0.8478911054221066,0.8318465732112729,0.25195346239077965,-4.413628102951788,4.253917646011085,-2.255933419179949,-1.1729117294605298,0.34210520130931177,2.6281685080692725,1,left
10.35,0.8541202480510801,0.8199017561419586,0.2559389274674024,-4.352621741707415,4.318164728779215,-2.255020713677472,-1.1793616730085799,0.343918493318015,2.6333260199248545,1,left
10.354000000000001,0.8600862072290006,0.8074707014128054,0.2598773806091491,-4.289564492288572,4.381105788509597,-2.2532742820034963,-1.1853704520424835,0.345674646546635,2.6374536236310173,1,left
10.355,0.8657851138276967,0.7945556092761353,0.26376608055452766,-4.22452040026475,4.442654205111823,-2.2506927843023177,-1.1909239025949063,0.3473699863311255,2.6405302014934886,1,left
10.355,0.8712133162611022,0.7811599020378509,0.2676022803740398,-4.157554365058929,4.502721909275385,-2.247274978145773,-1.196007829953731,0.3490008243848583,2.642534846087121,1,left
10.357999999999999,0.8763673824047744,0.7672882447965085,0.27138323401393594,-4.088732079748397,4.561219461203974,-2.243019736711074,-1.2006080220939912,0.35056346831970486,2.643446889035624,1,left
10.36,0.8812441014062857,0.7529465584728087,0.2751062035502669,-4.018119971006513,4.618056136231872,-2.2379260693090455,-1.2047102635230087,0.3520542314069764,2.6432459302902833,1,left
10.36,0.8858404855879017,0.7381420250416793,0.2787684671505391,-3.9457851397823003,4.6731400163419226,-2.2319931435894134,-1.2083003495080846,0.353469442556372,2.6419118678021545,1,left
10.362,0.8901537726406944,0.7228830850043433,0.28236732772024964,-3.871795303572438,4.726378086215738,-2.225220308526196,-1.2113641006924003,0.3548054565129952,2.6394249275717714,1,left
10.363,0.8941814283150076,0.7071794273035786,0.28590012217211686,-3.796218740872049,4.777676332826349,-2.2176071175050422,-1.2138873781108757,0.3560586642767123,2.6357656940757432,1,left
10.369000000000002,0.8979211497987182,0.6910419720655857,0.2893642311978704,-3.7191242379122786,4.8269398482701815,-2.2091533512300487,-1.2158560986162696,0.357225503747912,2.6309151410663687,1,left
10.37,0.9013708699030787,0.6744828467084455,0.2927570893578708,-3.6405810375248504,4.874072935914226,-2.19985904038637,-1.2172562507242952,0.35830247060349496,2.6248546627370812,1,left
10.373,0.904528762057696,0.6575153560605659,0.29607619525416434,-3.560658789916658,4.918979220005577,-2.1897244880367412,-1.2180739108849656,0.3592861294066861,2.6175661052431733,1,left
10.374,0.9073932459954023,0.6401539471719853,0.2993191215390779,-3.479427505133051,4.96156175888464,-2.1787502917276393,-1.2182952601857981,0.3601731249540151,2.6090317985638216,1,left
10.379000000000001,0.9099629939232581,0.6224141694829032,0.3024835245397662,-3.3969575069843425,5.001723161937222,-2.166937365278374,-1.217906601490866,0.3609601938625505,2.599234588687966,1,left
10.38,0.9122369369478128,0.6043126309531301,0.30556715333652723,-3.313319388206085,5.039365710414277,-2.1542869602240016,-1.2168943770180205,0.36164417640020613,2.588157870103068,1,left
10.382,0.9142142715475587,0.5858669506709928,0.30856785820018257,-3.228583966619919,5.074391482241438,-2.1408006868805316,-1.215245186354887,0.36222202856166097,2.5757856185621915,1,left
10.383,0.9158944659405464,0.5670957083672978,0.3114835983573751,-3.1428222420582275,5.106702480933504,-2.126480534998501,-1.2129458049124906,0.36269083439214705,2.5621024241012287,1,left
10.387,0.9172772662518069,0.5480183911759555,0.3143124491038878,-3.05610535381248,5.136200768721789,-2.111328893968575,-1.2099832028135744,0.3630478185610635,2.547093524274413,1,left
10.388,0.9183627024213532,0.5286553379228077,0.31705260831901344,-2.968504538361996,5.1627886039947555,-2.0953485725404333,-1.2063445642108437,0.36329035918707037,2.5307448375725454,1,left
10.392000000000001,0.9191510938001162,0.5090276811956173,0.3197024024458426,-2.8800910871369094,5.186368583144542,-2.0785428180138132,-1.2020173070285036,0.36341600091600307,2.5130429969845953,1,left
10.392999999999999,0.9196430543629353,0.48915728744803755,0.32226029199427936,-2.790936304066377,5.206843786903912,-2.060915334858189,-1.1969891031185511,0.3634224682526276,2.4939753836595253,1,left
10.398,0.9198394974372017,0.4690666954083841,0.32472487659967886,-2.7011114626605264,5.224117931249785,-2.042470302715181,-1.1912478988213395,0.36330767914692713,2.4735301606213502,1,left
10.398,0.9197416398173545,0.44877905308796784,0.3270948996379134,-2.6106877623723115,5.238095522940907,-2.0232123937354354,-1.1847819359179628,0.3630697588352777,2.4516963064865473,1,left
10.402999999999999,0.9193510051207308,0.4283180537045547,0.3293692523677435,-2.519736283983308,5.248682019748237,-2.0031467891993318,-1.1775797729599848,0.3627070539365252,2.4284636491290175,1,left
10.404000000000002,0.9186694262435331,0.4077078708511807,0.33154697754913715,-2.4283279437555634,5.2557839954275005,-1.9822791953685521,-1.1696303069599967,0.36221814680263076,2.40382289923384,1,left
10.405999999999999,0.9176990467928472,0.3869730932502179,0.3336272724687058,-2.336533446089888,5.259309309473839,-1.9606158585131899,-1.160922795424401,0.361601870123198,2.377765683677075,1,left
10.407,0.9164423213939935,0.36613865943863927,0.335609491286605,-2.2444232344294637,5.259167281688772,-1.9381635790567782,-1.1514468787077128,0.3608573217828359,2.35028457866485,1,left
10.411,0.9149020147960073,0.3452297927328324,0.33749314660338553,-2.152067440146328,5.2552688715796805,-1.9149297247792938,-1.141192602665514,0.35998387996995185,2.321373142560936,1,left
10.412,0.9130811997218601,0.3242719368184169,0.33927791013291503,-2.0595358291471837,5.247526862601741,-1.890922243015926,-1.130150441581025,0.35898121853520054,2.2910259483279303,1,left
10.417,0.9109832534415887,0.30329069229941147,0.3409636123666007,-1.966897745934083,5.2358560512417025,-1.8661496717871227,-1.1183113213380549,0.3578493225974509,2.2592386155030924,1,left
10.418,0.9086118530943436,0.28231175451937823,0.34255024114191646,-1.8742220548548152,5.220173440932133,-1.8406211497931877,-1.1056666428108424,0.3565885043947588,2.226007841625765,1,left
10.421,0.9059709698491071,0.2613608529353997,0.3440379390949374,-1.781577078277331,5.200398440773702,-1.8143464252044799,-1.0922083054390577,0.3551994193774668,2.191331433029192,1,left
10.422,0.903064862055117,0.24046369228501482,0.34542700006210525,-1.6890305314222291,5.1764530690317905,-1.7873358631760696,-1.0779287309478818,0.3536830825042208,2.1552083349061246,1,left
10.422,0.8998980675600594,0.2196458957333619,0.3467178645576773,-1.596649453587219,5.148262161362222,-1.7596004520135367,-1.0628208871405476,0.35204088452153187,2.117638660557063,1,left
10.425999999999998,0.8964753953567308,0.1989329501287629,0.34791111446793277,-1.5045001354975618,5.115753583709115,-1.7311518079144514,-1.0468783116339704,0.35027460768351715,2.078623719732284,1,left
10.427,0.8928019166884105,0.17835015345536,0.34900746709218355,-1.4126480426817798,5.078858449635036,-1.7020021782131043,-1.0300951353755072,0.34838644018829457,2.038166045978243,1,left
10.427999999999999,0.8888829557241538,0.15792256455961418,0.35000776864638866,-1.3211577355974686,5.037511340977056,-1.6721644430796405,-1.012466105806736,0.34637898878694146,1.9962694228912092,1,left
10.431,0.8847240798941997,0.1376749552198161,0.3509129873209098,-1.2300927887177973,4.9916505291719675,-1.6416521156689305,-0.9939866095921671,0.3442552893441947,1.9529389091703566,1,left
10.431,0.8803310899470971,0.11763176462009602,0.3517242059477177,-1.139515711615209,4.941218193727012,-1.6104793407381577,-0.9746526948586176,0.34201881530951633,1.9081808623548202,1,left
10.437000000000001,0.8757100097716678,0.09781705630233557,0.35244261430276236,-1.0494878742548028,4.886160635153992,-1.5786608917244687,-0.9544610928945905,0.33967348409276404,1.8620029611243707,1,left
10.437999999999999,0.8708670760208179,0.0782544776927091,0.3530695010591235,-0.9600694372259944,4.8264284812096445,-1.546212166225871,-0.9334092392565687,0.3372236613383726,1.81441422603924,1,left
10.440999999999999,0.8658087275650516,0.05896722230560357,0.3536062454150747,-0.8713192868173981,4.761976886126408,-1.513149179800991,-0.9114952942266712,0.3346741630916312,1.7654250385905388,1,left
10.442,0.8605415947818437,0.03997799470718897,0.3540543084386912,-0.7832949746764337,4.692765722675286,-1.4794885579963244,-0.8887181625636646,0.33203025585032714,1.7150471584286313,1,left
10.446,0.8550724886524125,0.021308978285487744,0.3544152241835244,-0.6960526617969062,4.618759766889158,-1.445247526507791,-0.8650775124868479,0.3292976544947296,1.6632937386327749,1,left
10.447000000000001,0.8494083895957544,0.0029818058382278458,0.35469059063331043,-0.6096470665797316,4.539928875261257,-1.4104438993816544,-0.8405737938298538,0.3264825180886002,1.61017933888132,1,left
10.450999999999999,0.8435564359327868,-0.014982467038687242,0.3548820605342867,-0.5241314167140562,4.456248154219939,-1.3750960651581423,-0.8152082552989354,0.32359144354364777,1.5557199363777772,1,left
10.452,0.8375239118511684,-0.03256338580217415,0.3549913321801883,-0.4395574046282642,4.367698121667073,-1.3392229708594428,-0.7889829607678258,0.3206314571395906,1.499932934384105,1,left
10.457,0.8313182347342317,-0.04974111811319052,0.3550201402320254,-0.3559751462627686,4.274264860353534,-1.3028441037221308,-0.7619008045387796,0.31761000389175276,1.4428371682086747,1,left
10.458,0.8249469417192854,-0.06649647236824217,0.3549702466806537,-0.2734331429190316,4.175940162851368,-1.265979470572525,-0.7339655254969333,0.3145349347579046,1.3844529084924968,1,left
10.460999999999999,0.8184176753582625,-0.08281091371023307,0.35484343208828667,-0.1919782459419657,4.072721667868216,-1.2286495747419601,-0.7051817200826509,0.3114144916758608,1.3248018616334938,1,left
10.462,0.8117381682702263,-0.09866657763805857,0.3546414872673595,-0.11165562399570911,3.964612987635582,-1.190875390417513,-0.6755548540040659,0.3082572904231721,1.2639071671848388,1,left
10.465,0.8049162267046073,-0.11404628135495423,0.35436620556329557,-0.032508732695755604,3.851623826088458,-1.1526783343223217,-0.6450912726095756,0.30507230129009505,1.201793392059685,1,left
10.466,0.7979597129777015,-0.12893353301234212,0.3540193758946771,0.0454207136364622,3.733770087539815,-1.1140802346183085,-0.613798209837614,0.30186882755689415,1.1384865213709747,1,left
10.47,0.7908765268009489,-0.14331253901504537,0.35360277666760814,0.12209276832718775,3.6110739755393992,-1.075103296922832,-0.5816837956586061,0.29865648176642606,1.0740139457314446,1,left
10.470999999999998,0.7836745855825363,-0.15716820955441363,0.35311817062606393,0.197469277039432,3.483564081592291,-1.0357700673295909,-0.548757061921603,0.29544515978287555,1.0084044448354508,1,left
10.475,0.7763618038470961,-0.1704861625287253,0.35256730063918995,0.27151390102132583,3.3512754633987045,-0.9961033923229414,-0.5150279465157235,0.2922450126274622,0.9416881671408054,1,left
10.475999999999999,0.7689460719760601,-0.1832527259965114,0.3519518863731308,0.3441921391339093,3.2142497122626184,-0.9561263754737082,-0.48050729575416096,0.28906641608191025,0.8738966054654754,1,left
10.481,0.7614352345199317,-0.19545493929311838,0.3512736217586812,0.41547134887481674,3.0725350093030133,-0.915862330803543,-0.44520686488619005,0.28591993805047816,0.8050625683107304,1,left
10.482000000000001,0.7538370683709723,-0.20708055293219715,0.35053417315276075,0.48532076661049345,2.9261861700877714,-0.87533473270393,-0.4091393166403002,0.28281630367137756,0.7352201467191496,1,left
10.485,0.746159261110264,-0.21811802741722722,0.34973517809992694,0.5537115272256584,2.775264677296711,-0.8345671622950454,-0.3723182176993133,0.2797663581684725,0.664404676472809,1,left
10.485999999999999,0.738409389860074,-0.228556531102038,0.34887824461772077,0.6206166833947142,2.619838701006757,-0.7935832501088507,-0.33475803300610424,0.27678102743424376,0.592652695433983,1,left
10.49,0.7305949009794952,-0.23838593725472704,0.3479649509429085,0.6860112246756989,2.4599831061789623,-0.7524066149800503,-0.29647411784741284,0.2738712763967985,0.520001895960845,1,left
10.49,0.7227230909202731,-0.2475968204818658,0.3469968456825835,0.7498720966231923,2.295779446913971,-0.7110607990278454,-0.2574827079164313,0.2710480655322326,0.4464910729930984,1,left
10.491,0.714801088502844,-0.2561804526539043,0.3459754483190057,0.8121782201123222,2.127315947029589,-0.6695691986108011,-0.21780090801237817,0.2683223064389023,0.372160069597217,1,left
10.495,0.706835838816048,-0.2641287984543656,0.3449022500145886,0.8729105110616814,1.9546874665014053,-0.62795499113659,-0.1774466802885499,0.2657048176987497,0.2970497224236277,1,left
10.495999999999999,0.6988340889157821,-0.27143451066762037,0.3437787146459122,0.9320519006333767,1.7779954534533506,-0.5862410577914192,-0.13643883270295246,0.2632062819427054,0.22120180886046692,1,left
10.497,0.6908023754659767,-0.27809092530907803,0.3426062799739912,0.9895873554580061,1.5973478821648046,-0.5444499031712164,-0.09479700786398733,0.2608372044824057,0.1446589964687511,1,left
10.5,0.6827470143972224,-0.2840920566739219,0.34138635884759794,1.0455038964811236,1.4128591789744978,-0.502603574448122,-0.05254167220637728,0.25860787356240117,0.0674647946163283,1,left
10.501,0.6746740925701067,-0.2894325923454895,0.34012034032961436,1.0997906144972311,1.2246501387417472,-0.4607235836232248,-0.009694105379569523,0.2565283222257022,-0.010336491907188198,1,left
10.504000000000001,0.6665894613486475,-0.29410788817583555,0.33880959062426835,1.15243868095868,1.0328478337222595,-0.41883083549858274,0.033723610270965446,0.25460829178587785,-0.08869980751429776,1,left
10.505,0.6584987319284692,-0.29811396323173184,0.3374554536828536,1.2034413535889448,0.8375855152791406,-0.37694556234957455,0.07768860025088178,0.2528571968993248,-0.16757938890396482,1,left
10.511,0.6504072722340004,-0.30144749468760984,0.3360592513916217,1.2527939768510086,0.6390025080471093,-0.3350872653608553,0.12217720861559521,0.25128409223175413,-0.24692880682985097,1,left
10.512,0.6423202051965563,-0.30410581264099273,0.3346222832857953,1.3004939774220894,0.4372440959992053,-0.2932746627056133,0.16716500894508693,0.24989764071339998,-0.3267010067774452,1,left
10.515,0.6342424082337166,-0.30608689482286705,0.3331458257713854,1.346540854821217,0.23246139985535283,-0.25152564414784406,0.2126268157211235,0.2487060833779393,-0.4068483487765921,1,left
10.515999999999998,0.6261785137546406,-0.3073893611727817,0.331631130866177,1.3909361673314287,0.02481124526261948,-0.20985723204743445,0.2585366962346439,0.24771721078062228,-0.4873226465772668,1,left
10.519,0.6181329105131999,-0.30801246824529377,0.33007942449210304,1.433683513353612,-0.18554397883210427,-0.168285548647979,0.3048679831524977,0.24693833599164805,-0.5680752064176581,1,left
10.52,0.6101097456271475,-0.3079561034097885,0.3284919043647035,1.474788508324283,-0.3984364722049525,-0.126825789527431,0.3515932878740774,0.24637626916137964,-0.6490568656146972,1,left
10.526,0.6021129270848949,-0.3072207788006055,0.32686973753607124,1.5142587573248374,-0.613693186369632,-0.08549220309192121,0.3986845148096754,0.24603729365457336,-0.7302180312081104,1,left
10.527000000000001,0.5941461265778032,-0.3058076249728303,0.3252140576589653,1.552103823505093,-0.8311359991876041,-0.0442980759933522,0.44611287671360317,0.24592714375139907,-0.8115087188898674,1,left
10.527999999999999,0.5862127825260964,-0.3037183842232025,0.3235259620498436,1.5883351924392217,-1.050581901685111,-0.003255724351696435,0.4938489112062416,0.24605098391365104,-0.8928785924515604,1,left
10.529000000000002,0.5783161032043861,-0.3009554035430888,0.3218065086336705,1.622966232527477,-1.2718431976950395,0.0376235093367138,0.5418624986202417,0.24641338961518713,-0.9742770039827582,1,left
10.534,0.5704590699083225,-0.29752162717882774,0.320056712852284,1.6560121515524666,-1.4947277169478794,0.07832925372321788,0.5901228813070605,0.2470183297362918,-1.055653035053754,1,left
10.534,0.5626444401289831,-0.293420588782909,0.3182775446114387,1.6874899494940752,-1.7190390422417863,0.11885210068105888,0.6385986845409002,0.24786915052232766,-1.1369555391163535,1,left
10.54,0.5548747507140437,-0.2886564031467373,0.31646992533051205,1.7174183677025592,-1.9445767513269567,0.15918359204722904,0.6872579391579157,0.2489685611077264,-1.2181331853564277,1,left
10.540999999999999,0.5471523209986658,-0.2832337575124356,0.3146347251461852,1.7458178345247837,-2.171136674144182,0.1993162011488453,0.7360681060692601,0.2503186206070626,-1.2991345042318914,1,left
10.543,0.5394792558909305,-0.2771579024686498,0.31277276031171164,1.772710407474066,-2.3985111660615344,0.2392433092304477,0.7849961027871596,0.2519207267756621,-1.3799079349295589,1,left
10.544,0.5318574489005209,-0.2704346424446418,0.3108847908298812,1.7981197120296473,-2.6264893977566586,0.27895917689806643,0.8340083321037305,0.2537756062429059,-1.4604018749739667,1,left
10.548,0.5242885851062077,-0.2630703258274948,0.3089715183599718,1.822070877147426,-2.854857662395062,0.318458910695333,0.883070713062688,0.255883306322113,-1.540564732220748,1,left
10.55,0.5167741440678014,-0.2550718347367997,0.3070335844431718,1.844590467559255,-3.0833997007571408,0.35773842492632385,0.9321487143644299,0.2582431884016038,-1.620344979466488,1,left
10.554,0.5093154027002759,-0.24644657449784216,0.30507156909306005,1.8657064129338543,-3.3118970449684015,0.39679439883921813,0.9812073903452216,0.26085392292227516,-1.6996912119061867,1,left
10.554,0.5019134381379656,-0.2372024628579118,0.30308598979513934,1.8854479339682004,-3.5401293814884514,0.4356242292842336,1.0302114196713505,0.2637134859477385,-1.7785522076685065,1,left
10.558,0.4945691306217064,-0.22734791899069393,0.30107730095109664,1.9038454654741466,-3.767874934014833,0.47422597895867297,1.0791251468106837,0.2668191573317523,-1.8568769915237637,1,left
10.559000000000001,0.4872831664401713,-0.2168918523280185,0.2990458937907641,1.9209305765209936,-3.9949108669576314,0.512598320351272,1.1279126259516077,0.27016752047816195,-1.9346149011878306,1,left
10.56,0.4800560409505857,-0.205843651246696,0.2969920967618647,1.936735887690794,-4.221013710140038,0.5507404754973939,1.1765376663328582,0.27375446367085515,-2.0117156544367054,1,left
10.562999999999999,0.4728880617001094,-0.19421317162896637,0.2949161763988251,1.9512949855582455,-4.445959804621623,0.5886521517413508,1.224963877555087,0.2775751829417098,-2.088129414574409,1,left
10.564,0.4657793516695643,-0.18201072531239065,0.2928183386678314,1.964642334797969,-4.669525765754029,0.6263334741284355,1.2731547138370503,0.28162418645544196,-2.1638068524657488,1,left
10.565,0.4587298526589763,-0.1692470684426559,0.290698730781314,1.976813188848752,-4.8914889527630505,0.6637849158171177,1.3210735168851468,0.2858953004093682,-2.2386992045506613,1,left
10.569,0.4517393288277466,-0.1559333897402557,0.28855744346431234,1.987843500355468,-5.111627930362706,0.7010072283281521,1.36868355743687,0.2903816764569983,-2.312758326925425,1,left
10.57,0.4448073703967106,-0.142081298695319,0.2863945136356642,1.997769832311195,-5.32972291168799,0.7380013730197298,1.4159480756165268,0.29507580066707695,-2.385936745708047,1,left
10.575999999999999,0.4379333975149415,-0.1277028137101516,0.28420992744534007,2.0066292702882165,-5.545556178641427,0.774768454408615,1.4628303202408086,0.2999695040303302,-2.4581877039028632,1,left
10.577,0.43111666428790363,-0.11281035020730465,0.2820036235942866,2.014459335848612,-5.758912479528361,0.8113096555295883,1.5092935872108988,0.30505397452678773,-2.529465204977003,1,left
10.579,0.4243562629573513,-0.0974167087110497,0.27977549685660486,2.0212979011630328,-5.969579404607034,0.8476261754394764,1.5553012571268248,0.31031977076714934,-2.5997240533588335,1,left
10.58,0.41765112821948597,-0.08153506289649574,0.2775254017220236,2.027183104863192,-6.177347740173016,0.8837191689713908,1.6008168322586491,0.31575683722223336,-2.6689198920658526,1,left
10.583,0.41100004166532506,-0.06517894758718155,0.2752531560779217,2.0321532691506494,-6.382011801790454,0.919589688844152,1.6458039730078997,0.32135452105509466,-2.7370092376666886,1,left
10.584000000000001,0.4044016363252626,-0.04836224667094549,0.272958544856549,2.0362468181816133,-6.583369747274877,0.9552386302312283,1.6902265339913287,0.3271015905709171,-2.803949512778942,1,left
10.588,0.3978544013002016,-0.031099180895646537,0.2706413235861257,2.0395021977447514,-6.781223870023977,0.9906666778928779,1.7340485998776745,0.33298625530027676,-2.869699076301567,1,left
10.59,0.3913566864662474,-0.013404295500163138,0.2683012218043341,2.041957796246371,-6.975380873283873,1.0258742559745422,1.7772345211065859,0.33899618773183254,-2.934217251577292,1,left
10.593,0.3849067072480619,0.004707552369045716,0.2659379463177632,2.0436518670148107,-7.165652125928888,1.060861480573903,1.8197489496172452,0.345118546710928,-2.9974643526773033,1,left
10.595,0.3785025494644925,0.02322120651062086,0.2635511843156133,2.0446224519334764,-7.351853900322789,1.0956281151783775,1.8615568747125042,0.3513400025209838,-3.0594017089969743,1,left
10.597000000000001,0.37214217425523916,0.0421212248503303,0.26114060636322034,2.044907306409663,-7.53380759281886,1.1301735290741965,1.9026236591825156,0.35764676366491754,-3.119991688347906,1,left
10.597999999999999,0.36582342309686056,0.061391893016937885,0.25870586930729267,2.0445438256841046,-7.711339927445008,1.1644966588275691,1.9429150758099176,0.3640246053641501,-3.179197718727881,1,left
10.604000000000001,0.35954402291118653,0.08101723837837368,0.25624661912117686,2.043568972484128,-7.884283143308424,1.198595972937814,1.9823973443766019,0.37045889979304186,-3.236984308946586,1,left
10.605,0.3533015912631126,0.10098104460448742,0.2537624937073077,2.042019206021301,-8.052475166242132,1.23246943976169,2.021037169289965,0.3769346480668451,-3.293317068281079,1,left
10.607000000000001,0.3470936416431663,0.1212668668212665,0.2512531256575729,2.0399304123326223,-8.215759765203057,1.2661144988075268,2.0588017779443146,0.38343651400146367,-3.3481627253310076,1,left
10.607999999999999,0.3409175888361792,0.1418580474175257,0.2487181449546068,2.0373378359625187,-8.373986693918097,1.299528035497108,2.095658959930785,0.3899488596634711,-3.4014891462395096,1,left
10.613,0.3347707543889846,0.1627377325567786,0.24615718158509667,2.0342760129812847,-8.527011818261034,1.3327063594926103,2.1315771072066854,0.3964557827289577,-3.453265352441561,1,left
10.614,0.32865037220324755,0.1838888894348677,0.24356986803533742,2.0307787053340323,-8.674697229829018,1.3656451866852473,2.166525255332711,0.4029411556698506,-3.5034615380972447,1,left
10.616,0.3225535942914303,0.20529432431004824,0.24095584164668712,2.0268788365127834,-8.816911346172867,1.3983396249415954,2.2004731258838186,0.40938866678638075,-3.5520490873630797,1,left
10.618,0.31647749674316356,0.22693670131734842,0.23831474681726827,2.022608428542979,-8.953528998120484,1.4307841637029075,2.2333911701368905,0.4157818631043553,-3.5990005916500762,1,left
10.622,0.3104190859560009,0.2487985620631949,0.23564623704299315,2.017998540274427,-9.084431504617386,1.462972667532026,2.2652506141355144,0.4221041951558306,-3.6442898670126618,1,left
10.624,0.30437530518949657,0.27086234598069403,0.23294997679566787,2.0130792069655614,-9.20950673549258,1.4948983737018104,2.296023505229339,0.42833906366167285,-3.6878919718079923,1,left
10.627,0.29834304150352947,0.293110411414254,0.23022564323755848,2.0078793811488023,-9.328649162542035,1.5265538939182632,2.3256827601027,0.4344698680613862,-3.729783224707709,1,left
10.628,0.2923191331362638,0.3155250574009438,0.2274729277693983,2.002426874763848,-9.441759899305543,1.5579312202708133,2.3542022139050953,0.44048005647063926,-3.769941222875574,1,left
10.629000000000001,0.2863003773637674,0.3380885461241052,0.22469153740286427,1.9967483025448214,-9.548746729896028,1.5890217355014584,2.381556669374677,0.44635317599012253,-3.808344859644667,1,left
10.630999999999998,0.2802835388718006,0.36078312601726414,0.22188119594013023,1.9908690266873577,-9.649524127285241,1.6198162275997194,2.4077219444436393,0.45207292192432375,-3.8449743407590673,1,left
10.632,0.2742653586664522,0.38359105548845596,0.21904164493447745,1.9848131030257798,-9.744013261741697,1.650304908309771,2.432674917210201,0.4576231848332095,-3.8798111985038086,1,left
10.633,0.2682425635479266,0.40649462722922686,0.216172644397928,1.978603229318482,-9.832142000655782,1.6804774343796407,2.456393567876829,0.4629880949959526,-3.912838303516774,1,left
10.637,0.26221187616875985,0.42947619306447465,0.21327397320967814,1.9722606964438667,-9.913844901278487,1.7103229299617153,2.478857017650009,0.46815206423015304,-3.944039874334955,1,left
10.638,0.2561700256981999,0.4525181892726962,0.21034542916083268,1.9658053431038678,-9.989063197572824,1.7398300089927186,2.5000455646732016,0.47309982508246196,-3.973401484775112,1,left
10.642000000000001,0.25011375911519157,0.4756031622695505,0.20738682855534332,1.95925551426302,-10.05774478180208,1.768986797136052,2.5199407170610675,0.47781646740598827,-4.000910069243682,1,left
10.642999999999999,0.24403985314862567,0.49871379451933584,0.2043980052827861,1.9526280233458562,-10.11984418115137,1.7977809532882534,2.538525223099463,0.48228747233928787,-4.0265539260655325,1,left
10.645999999999999,0.2379451268782401,0.5218329305191084,0.2013788092867498,1.945938118174129,-10.175322529598416,1.8261996907343148,2.555783098672024,0.48649874370111845,-4.050322718915884,1,left
10.648,0.23182645500731575,0.5449436026806143,0.1983291043735377,1.9391994506250718,-10.224147535230808,1.854229798035588,2.571699651970464,0.4904366368144784,-4.0722074764344,1,left
10.652000000000001,0.2256807818204722,0.5680290569138196,0.19524876534028773,1.9324240499917005,-10.266293443188019,1.8818576597329733,2.586261505541931,0.49408798477274224,-4.092200590095095,1,left
10.652999999999999,0.21950513584540612,0.5910727776955939,0.1921376744456979,1.9256223000259627,-10.3017409943875,1.9090692769470015,2.599456615722976,0.4974401221599618,-4.11029581040031,1,left
10.655,0.21329664524247727,0.6140585123918813,0.1889957172950372,1.9188029196454017,-10.33047738017504,1.9358502879552997,2.6112742895058285,0.5004809062366176,-4.126488241461628,1,left
10.657,0.2070525539457803,0.6369702945932962,0.18582277826068228,1.9119729472838944,-10.352496193020453,1.96218598882678,2.621705198878777,0.5031987356012817,-4.140774334025126,1,left
10.661,0.20077023857106402,0.6597924662232316,0.18261873560455105,1.9051377288669422,-10.367797373360371,1.9880613541906964,2.6307413926785466,0.5055825663377963,-4.153151876992963,1,left
10.662,0.19444722608950238,0.6825096981860114,0.1793834565005981,1.8983009093919405,-10.376387152670699,2.0134610582174637,2.6383763059886007,0.5076219256566784,-4.163619987487785,1,left
10.665999999999999,0.1880812122429374,0.7051070093421787,0.17611679216768444,1.8914644280938162,-10.37827799283197,2.03836949588687,2.6446047671133113,0.5093069230385341,-4.172179099501006,1,left
10.668,0.18167008064694615,0.7275697836290977,0.1728185733158895,1.8846285171764072,-10.373488521831582,2.062770804617977,2.6494230021539464,0.510628258886308,-4.178830951160515,1,left
10.671,0.17521192249434778,0.7498837851868401,0.1694886060872939,1.8777917040899468,-10.362043465827606,2.0866488863336468,2.652828637208392,0.5115772306922057,-4.183578570647859,1,left
10.672,0.1687050567354825,0.7720351713999472,0.16612666864015826,1.8709508173350133,-10.343973577579648,2.1099874300312105,2.6548206982124967,0.5121457367241088,-4.186426260789535,1,left
10.675999999999998,0.16214805057502246,0.7940105038218862,0.16273250848652018,1.8641009957733048,-10.319315561233074,2.132769934929346,2.6553996084368774,0.5123262772352601,-4.187379582341469,1,left
10.677,0.15553974009055188,0.8157967570065029,0.15930584065115183,1.8572357014255902,-10.288111993423737,2.1549797342597232,2.6545671836489606,0.5121119531999282,-4.186445335980353,1,left
10.68,0.1488792507482591,0.8373813253250592,0.15584634668057112,1.8503467357371786,-10.250411240651438,2.176600019770427,2.6523266249459874,0.5114964625766668,-4.183631543010015,1,left
10.681,0.14216601756948924,0.8587520278950009,0.1523536745010903,1.8434242592912085,-10.206267372851327,2.197613867006576,2.648682509260652,0.510474094099675,-4.178947424785597,1,left
10.686,0.13539980469239069,0.8798971117852884,0.14882743910753768,1.8364568149500233,-10.155740073073728,2.2180042614318873,2.6436407775369832,0.5090397185976269,-4.172403380852858,1,left
10.687000000000001,0.12858072407564872,0.9008052536916613,0.14526722405684636,1.8294313544048186,-10.09889454316421,2.237754125453283,2.6372087205700434,0.5071887778381913,-4.164010965794539,1,left
10.690999999999999,0.12170925310209171,0.9214655602918693,0.141672583739742,1.8223332681136508,-10.035801405317207,2.2568463464088526,2.6293949624989925,0.5049172708952939,-4.153782864770363,1,left
10.692,0.11478625085440111,0.9418675674940006,0.13804304640760134,1.8151464186077637,-9.96653659935816,2.2752638055777115,2.6202094419390485,0.5022217380349902,-4.1417328677318945,1,left
10.694,0.10781297285172983,0.9620012387814997,0.13437811793752463,1.8078531771460173,-9.89118127559107,2.2929894082684643,2.6096633907338833,0.49909924211462375,-4.127875842288172,1,left
10.696,0.1007910840565772,0.9818569628390987,0.13067728632255235,1.800434463696996,-9.809821683030352,2.3100061150410736,2.597769310345883,0.4955473475546854,-4.112227705237702,1,left
10.696,0.09372266999101503,1.0014255506164764,0.12694002687414244,1.792869790228111,-9.722549052818167,2.326296974115012,2.58454094609704,0.49156409727130435,-4.094805393001838,1,left
10.702,0.08661024584053717,1.0206982319548552,0.12316580812262666,1.7851373072631496,-9.629459476712032,2.341845154961126,2.5699932598280246,0.48714798854960567,-4.075626831593824,1,left
10.703,0.07945676346018504,1.0396666518748392,0.11935409840051568,1.777213853581581,-9.5306537810154,2.3566339828053584,2.554142401738396,0.4822979491666687,-4.054710906977273,1,left
10.703,0.07226561621976449,1.0583228666072104,0.11550437309252454,1.7690750087745224,-9.42623739721639,2.3706469732893307,2.5370056819677984,0.47701331474184944,-4.032077436438146,1,left
10.71,0.06504064163517223,1.0766593394379853,0.11161612253231382,1.7606951482839912,-9.316320231088334,2.3838678662633948,2.518601542115517,0.4712938076974601,-4.007747141184758,1,left
10.71,0.05778612173986082,1.0946689364267956,0.10768886051760194,1.7520475006393064,-9.201016531484182,2.3962806579528464,2.4989495266927495,0.4651395178818198,-3.9817416201607267,1,left
10.710999999999999,0.05050678116216453,1.1123449220383448,0.10372213340555315,1.7431042067618745,-9.080444759131314,2.407869631216811,2.478070254458404,0.458550884839494,-3.954083325005874,1,left
10.710999999999999,0.04320778289557742,1.1296809547000153,0.09971552974653636,1.733836381296672,-8.954727455212266,2.418619383884302,2.455985389585592,0.4515286817122921,-3.924795536095243,1,left
10.715,0.03589472177848523,1.1466710822705393,0.09566869042153216,1.7242141759455192,-8.82399110940041,2.428514855203074,2.432717612602412,0.4440740007533444,-3.8939023395815635,1,left
10.716,0.0285736157308443,1.1633097373837304,0.09158131926375734,1.714206844776399,-8.688366027004474,2.437541350434524,2.408290591047087,0.43618824043533383,-3.8614286053617684,1,left
10.72,0.021250894823168748,1.179591732622756,0.08745319416018221,1.703782811482122,-8.547986194861014,2.445684563625502,2.3827289497740525,0.42787309413270985,-3.8273999658834676,1,left
10.72,0.013933388276327266,1.1955122554823534,0.08328417863564264,1.6929097385606398,-8.402989145599571,2.4529305985854126,2.356058240844224,0.41913054035647435,-3.7918427957026966,1,left
10.724,0.006628309507406959,1.2110668630827601,0.07907423391552476,1.6815545983881837,-8.253515819891147,2.4592659880945216,2.328304912929303,0.409962834518888,-3.754784191699701,1,left
10.725,-0.0006567606537386034,1.2262514766058639,0.0748234314398748,1.6696837461552183,-8.09971042627706,2.464677711366817,2.2994962801567564,0.4003725022042147,-3.716251953855054,1,left
10.73,-0.00791389244801889,1.2410623754308514,0.07053196576681021,1.6572629946338964,-7.94172029816193,2.469153209788217,2.269660490318908,0.390362333920394,-3.6762745664840244,1,left
10.731,-0.015134827237416895,1.2554961909530915,0.06620016776646265,1.64425769074433,-7.779695747541712,2.4726804009483048,2.2388264923664694,0.3799353813053104,-3.6348811798227976,1,left
10.735999999999999,-0.022310998983590794,1.269549900074577,0.06182851797394228,1.6306327938855003,-7.613789915025245,2.475247690981097,2.207024003103813,0.3690949547601149,-3.5921015918559114,1,left
10.735999999999999,-0.029433557010648027,1.2832208183565776,0.057417659940013535,1.6163529559950451,-7.444158615695774,2.476843985227683,2.1742834730003384,0.3578446224808493,-3.5479662302701307,1,left
10.739,-0.03649338990295783,1.29650659282674,0.05296841339133547,1.601382603300495,-7.270960180347341,2.4774586972308428,2.1406360510294222,0.34618821085842644,-3.502506134415908,1,left
10.74,-0.04348115038404387,1.309405194436506,0.048481786990541405,1.5856860197227358,-7.09435529161976,2.4770817560689915,2.10611354844365,0.3341298062158316,-3.4557529371536084,1,left
10.743,-0.05038728101636213,1.3219149101725016,0.043958990471660075,1.5692274318906019,-6.914506814545214,2.4757036120340192,2.0707484013923505,0.32167375785023505,-3.4077388464577667,1,left
10.744000000000002,-0.057202040554424294,1.3340343348361743,0.03940144591972196,1.5519710957235162,-6.731579621009268,2.4733152406547636,2.0345736322848325,0.3088246823465387,-3.3584966266488614,1,left
10.749,-0.0639155307775856,1.3457623625158295,0.03481079796668077,1.5338813845370072,-6.545740407619323,2.4699081450650167,1.99762280980023,0.2955874691277252,-3.308059579118355,1,left
10.75,-0.0705177236241825,1.3570981777817899,0.030188922690318566,1.5149228786237454,-6.357157506464184,2.4654743567120843,1.9599300074424197,0.2819672872062367,-3.2564615224091473,1,left
10.753,-0.0769984884432668,1.3680412466370424,0.02553793502861228,1.4950604562604515,-6.166000688239627,2.4600064343990224,1.921529760536173,0.26796959309948165,-3.203736771510048,1,left
10.754000000000001,-0.08334761917362608,1.3785913072513825,0.02086019455774603,1.4742593860886322,-5.972440957206437,2.4534974616507403,1.8824570215584613,0.25360013987145474,-3.1499201162194557,1,left
10.759,-0.08955486125585556,1.3887483604981439,0.016158309524048863,1.4524854208146019,-5.77665033743955,2.445941042391222,1.84274711369671,0.2388649872613533,-3.0950467984300816,1,left
10.761,-0.095609938085483,1.3985126603030562,0.011435139063347484,1.4297048921716604,-5.578801649819522,2.437331294916141,1.8024356825237595,0.22377051285899152,-3.039152488183334,1,left
10.763,-0.10150257682396771,1.4078847038083968,0.006693793583304383,1.405884807084595,-5.379068279210649,2.427662844142159,1.7615586456773682,0.20832342428574593,-2.982273258338838,1,left
10.764000000000001,-0.10722253339946312,1.4168652213541801,0.0019376333286628146,1.3809929449738827,-5.177623931263644,2.4169308121111817,1.7201521404302536,0.19253077233871577,-2.924445557701532,1,left
10.765,-0.11275961655160739,1.4254551662812605,-0.0028297348054187993,1.3549979561340832,-4.9746423782749,2.4051308067248343,1.6782524691243395,0.17639996502534508,-2.865706182516319,1,left
10.769,-0.11810371080603095,1.4336557045673792,-0.007604462116406011,1.3278694611179203,-4.770297193528917,2.392258908681366,1.6358960428882052,0.15993878226771588,-2.8060922465898206,1,left
10.77,-0.12324479830137625,1.4414682043144744,-0.012382464495536535,1.2995781510068687,-4.564761474054893,2.3783116566723588,1.593119324859737,0.1431553907900827,-2.7456411509303242,1,left
10.770999999999999,-0.12817297942320152,1.448894225111806,-0.017159430301911128,1.2700958882078721,-4.358207554270651,2.36328603133459,1.5499587745815193,0.12605835855522424,-2.684390554146787,1,left
10.774000000000001,-0.13287849221815778,1.4559355073038673,-0.02193082963063858,1.2393958069840896,-4.150806717567003,2.3471794392432437,1.5064507947882388,0.108656668261264,-2.622378344492867,1,left
10.774000000000001,-0.1373517305731753,1.4625939611977166,-0.026691924884071756,1.2074524126862098,-3.9427289154288334,2.3299896986705955,1.4626316809996416,0.09095972967433306,-2.559642613805261,1,left
10.779000000000002,-0.14158326115663114,1.4688716562550383,-0.03143778252978041,1.17424167888548,-3.734142501139656,2.3117150283901777,1.4185375738845232,0.07297739071857473,-2.4962216332309506,1,left
10.78,-0.14556383913782778,1.4747708103283037,-0.036163285909481056,1.1397411420345611,-3.5252139805301232,2.2923540400094105,1.374204414270843,0.054719947273520086,-2.432153830565288,1,left
10.783,-0.1492844227289024,1.4802937790126072,-0.040863148964092794,1.1039299935167888,-3.316107779682397,2.271905733869524,1.3296679006761616,0.03619815162801785,-2.3674777690207924,1,left
10.784,-0.15273618662390231,1.4854430451929694,-0.045531930755148074,1.0667891689883826,-3.1069860289915403,2.2503694984602713,1.284963449231807,0.017423219539081807,-2.3022321272445327,1,left
10.787,-0.155910534436713,1.49022120887154,-0.05016405067914351,1.0283014349144528,-2.8980083629840814,2.2277451132938104,1.2401261558734882,-0.0015931641567697526,-2.2364556804001485,1,left
10.788,-0.15879911026087704,1.49463097736039,-0.05475380428478982,0.9884514721958821,-2.6893317352933943,2.2040327551790138,1.1951907606704946,-0.020838841432866444,-2.170187282128778,1,left
10.792,-0.1613938094907568,1.4986751559238192,-0.05929537961427906,0.9472259567803534,-2.481110248191491,2.179233007834333,1.150191614165127,-0.040301178516340345,-2.1034658472015533,1,left
10.794,-0.16368678905538317,1.502356638949793,-0.06378287399812341,0.9046136371469241,-2.273494996077225,2.1533468747742295,1.1051626455936356,-0.05996706494128551,-2.0363303346747874,1,left
10.797,-0.1656704772226302,1.505678401723221,-0.06821031123685826,0.8606054085496422,-2.066633922321764,2.1263757954010485,1.0601373328596468,-0.07982291426638291,-1.9688197313575622,1,left
10.798,-0.16733758313069683,1.5086434928653296,-0.07257165910159667,0.8151943839017461,-1.8606716888734938,2.0983216642311,1.0151486741308837,-0.09985466651287268,-1.9009730354001282,1,left
10.802999999999999,-0.1686811061977043,1.5112550274955803,-0.07686084708158591,0.7683759611780178,-1.655749558026251,2.0691868531805824,0.9702291609298954,-0.12004779237933917,-1.8328292398103445,1,left
10.804,-0.1696943455525527,1.5135161811661753,-0.08107178430324771,0.720147887208849,-1.4520052857569319,2.0389742368338744,0.925410752589521,-0.14038729929031918,-1.7644273157042933,1,left
10.808,-0.17037090962405943,1.5154301846138534,-0.08519837754257882,0.6705103177355589,-1.2495730260411184,2.0076872206136054,0.8807248519439177,-0.160857739336248,-1.6958061950962555,1,left
10.809000000000001,-0.1707047260213187,1.5170003193686723,-0.08923454925279228,0.6194658735924585,-1.0485832455583197,1.9753297717688207,0.8362022821261798,-0.1814432191627202,-1.627004753032366,1,left
10.812000000000001,-0.17069005183491986,1.5182299142544302,-0.09317425553583923,0.5670196928771183,-0.849162648201824,1.9419064530944468,0.7918732643438647,-0.202127411867462,-1.5580617888715373,1,left
10.812999999999999,-0.17032148448434833,1.5191223428104879,-0.09701150400276284,0.5131794789662483,-0.6514341088119037,1.9074224592921925,0.7477673965041224,-0.22289357096378748,-1.4890160065166023,1,left
10.815999999999999,-0.16959397322947187,1.5196810216589485,-0.10074037149137095,0.4579555442305649,-0.4555166155552579,1.8718836558799399,0.7039136325605908,-0.24372454646963937,-1.419905993398111,1,left
10.817,-0.1685028314500289,1.519909409830608,-0.10435502163648065,0.4013608492979961,-0.2615252203780735,1.8352966205536199,0.6603402624547771,-0.2646028031815989,-1.3507701980128133,1,left
10.821,-0.16704374977089217,1.5198110090424857,-0.10784972231504336,0.3434110377105805,-0.06957099696494111,1.7976686869025196,0.6170748925252809,-0.2855104411934835,-1.2816469058185544,1,left
10.822000000000001,-0.16521281006581282,1.519389364886238,-0.11121886300748048,0.2841244658164427,0.12023899435894583,1.759007990375947,0.5741444262589424,-0.3064292187193365,-1.2125742132871402,1,left
10.825999999999999,-0.1630065003056683,1.5186480688456878,-0.11445697211154558,0.2235222277342987,0.30780173533935445,1.71932351639616,0.5315750452587978,-0.327340577280747,-1.1435899999166375,1,left
10.828,-0.16042173013953828,1.5175907610272001,-0.11755873420980803,0.16162817522405576,0.4930182726695415,1.6786251505094822,0.4893921903046123,-0.34822566931852444,-1.074731898004623,1,left
10.832,-0.1574558470340787,1.5162211334719387,-0.12051900724449177,0.0984689322932374,0.6757937355767997,1.6369237304645672,0.4476205423827167,-0.36906538828878016,-1.0060372599840344,1,left
10.833,-0.15410665277577834,1.514542933926887,-0.12333283951829395,0.03407390436519177,0.8560373486576254,1.5942311001038232,0.4062840036144491,-0.38984040124431146,-0.9375431232288126,1,left
10.834000000000001,-0.15037242016938293,1.512559969975302,-0.12599548642552877,-0.03152471816866521,1.0336624404933819,1.550560164951112,0.36540567827127707,-0.41053118360641633,-0.8692861727632911,1,left
10.838,-0.14625190982356415,1.510276113455832,-0.1285024268192866,-0.09829196213500743,1.2085864484634914,1.5059249493025484,0.3250078545296671,-0.4311180552998954,-0.8013027032572897,1,left
10.839,-0.14174438696929956,1.5076953051211543,-0.1308493789276794,-0.166190079334435,1.3807309196267517,1.4603406542573965,0.28511198787768366,-0.4515812171281218,-0.7336285822158495,1,left
10.84,-0.1368496382918039,1.5048215594958576,-0.13303231574089883,-0.23517855917125505,1.5500215065633378,1.4138237154626594,0.24573868682894684,-0.47190078656050827,-0.6662992157468215,1,left
10.842,-0.13156798877794837,1.5016589698906424,-0.1350474798057677,-0.3052141451701223,1.7163879565231266,1.3663918589752058,0.20690770113714638,-0.4920568326366392,-0.5993495173427755,1,left
10.843,-0.12590031858326672,1.498211713517699,-0.13689139739548484,-0.37625085469039854,1.8797640927571813,1.3180641540095417,0.16863791244808105,-0.5120294099866746,-0.532813879588176,1,left
10.845999999999998,-0.1198480798793016,1.494484056629935,-0.13856089207082253,-0.4482400016826811,2.040087787871557,1.2688610619972434,0.1309473272761569,-0.531798592026355,-0.46672614859848116,1,left
10.847999999999999,-0.11341331353394304,1.4904803595738831,-0.14005309768969318,-0.5211302226296546,2.1973009295733816,1.2188044817484374,0.09385307219383382,-0.551344503384467,-0.4011196009989108,1,left
10.850999999999999,-0.10659866532084386,1.4862050816081243,-0.1413654709157502,-0.5948675058752309,2.351349379278405,1.1679177905765379,0.05737139112412028,-0.5706473516201024,-0.3360269232518171,1,left
10.853,-0.0994074011954219,1.481662785312308,-0.14249580321927807,-0.6693952245486708,2.5021829240404725,1.11622588124494,0.021517644627878363,-0.5896874582864602,-0.2714801931428764,1,left
10.856,-0.09184342106753966,1.4768581404180312,-0.1434422322919088,-0.7446541732929679,2.64975522225442,1.0637551945919228,-0.013693688920588091,-0.608445289397299,-0.2075108632377037,1,left
10.857000000000001,-0.08391127048398049,1.4717959269493173,-0.14420325273680143,-0.820582609009197,2.7940237435748374,1.0105337476876304,-0.048249010374431085,-0.626901485351449,-0.1441497461219638,1,left
10.860999999999999,-0.07561614971864566,1.4664810376702,-0.1447777258292188,-0.8971162958308005,2.9349497034838983,0.9565911573746895,-0.082135595174609,-0.6450368903700383,-0.08142700123962235,1,left
10.862,-0.06696391993343044,1.460918479981923,-0.14516488803981387,-0.9741885545438779,3.0724979929321026,0.9019586590417931,-0.1153415871308135,-0.6628325815002797,-0.019372123145635453,1,left
10.866,-0.057961106274867516,1.4551133775590785,-0.14536435790093935,-1.0517303166714616,3.20663710346629,0.8466691204774203,-0.1478559907222136,-0.6802698972387937,0.0419860690088764,1,left
10.867,-0.048614897967372464,1.4490709721276036,-0.14537614076297453,-1.1296701834414957,3.337339048249694,0.7907570506487976,-0.1796686620153385,-0.6973304658265282,0.10261944093909213,1,left
10.87,-0.03893314562334769,1.4427966258443519,-0.14520063110183265,-1.207934489859779,3.464579279369109,0.7342586032492281,-0.21077029829446736,-0.7139962332663553,0.1625005518147969,1,left
10.870999999999999,-0.02892435609698849,1.436295824730543,-0.14483861228247946,-1.2864473741104745,3.5883366018144525,0.6772115748550298,-0.24115242649790974,-0.7302494911133979,0.22160266215073696,1,left
10.876,-0.018597685251297583,1.429574183539734,-0.14429125397358308,-1.365130852507926,3.7085930845061483,0.6196553975315422,-0.2708073905515454,-0.7460729040870594,0.2798997411731471,1,left
10.876,-0.00796292897492845,1.4226374523014993,-0.14356010765201102,-1.4439049002244526,3.825333968735802,0.5616311257259767,-0.2997283376889524,-0.7614495375525935,0.33736647383441526,1,left
10.88,0.0029694873294537167,1.4154915245783344,-0.14264710075196618,-1.5226875380194989,3.9385475743756606,0.5031814172833144,-0.3279092038453867,-0.7763628849188675,0.39397826764561333,1,left
10.880999999999998,0.014188520744426045,1.4081424472370239,-0.14155452995381199,-1.6013949251960045,4.048225204202286,0.44435050841999696,-0.3553446982107889,-0.7907968949977413,0.44971125949431084,1,left
10.886,0.025682524481259978,1.4005964313165422,-0.1402850538922247,-1.679941459010114,4.154361046669781,0.38518418248881325,-0.38203028702488767,-0.8047359993691962,0.5045423226127057,1,left
10.886,0.03743926347440815,1.3928598634051366,-0.1388416852785505,-1.75823988076037,4.256952077457789,0.32572973236716807,-0.4079621766953442,-0.8181651397950241,0.5584490738586514,1,left
10.890999999999998,0.04944593229271879,1.384939316824906,-0.1372277821752485,-1.8362013887823065,4.355997960109313,0.2660359162998246,-0.43313729631774345,-0.8310697957225079,0.6114098814696366,1,left
10.890999999999998,0.06168917568833511,1.3768415618642873,-0.13544703799381216,-1.9137357585739005,4.45150094606327,0.20615290702625416,-0.4575532796740839,-0.8434360119181019,0.6634038734471832,1,left
10.895,0.07415511196234152,1.368573574313396,-0.13350346973771463,-1.990751470276619,4.5434657743764735,0.14613223402190093,-0.4812084467842545,-0.8552504262696626,0.7144109467264778,1,left
10.895,0.08682935910151106,1.3601425416665982,-0.1314014040838722,-2.0671558437358333,4.631899571419605,0.08602671868198591,-0.5041017850828161,-0.8665002977942691,0.764411777283332,1,left
10.899000000000001,0.09969706336144536,1.3515558665637135,-0.12914546107613006,-2.142855181363135,4.716811750821518,0.02589040227593295,-0.526232930291223,-0.8771735348871288,0.8133878313277937,1,left
10.9,0.11274292969230484,1.3428211673111075,-0.1267405354477337,-2.2177549190216044,4.798213913926091,-0.03422153349989313,-0.5476021470534382,-0.887258723845483,0.861321377730898,1,left
10.9,0.12595125320903605,1.333946275586646,-0.12419177582436494,-2.2917597851533116,4.876119751015698,-0.09425285354368662,-0.5682103094015974,-0.8967451576502481,0.9081955017708867,1,left
10.905,0.13930595088703943,1.3249392316056137,-0.12150456220796657,-2.3647739683663205,4.950544943545239,-0.15414636411657623,-0.5880588811206304,-0.9056228647387011,0.9539941199959276,1,left
10.905999999999999,0.15279059281920393,1.3158082770739332,-0.11868448217035904,-2.436701293500767,5.021507067636574,-0.21384401538192863,-0.6071498960865611,-0.9138826370538392,0.9987019954819395,1,left
10.905999999999999,0.16638843257979533,1.3065618462332487,-0.1157373061459828,-2.5074454052141144,5.089025499152876,-0.27328701099684294,-0.6254859386554682,-0.9215160564065498,1.0423047524747326,1,left
10.909,0.18008243639683863,1.2972085552872847,-0.1126689621985451,-2.5769099563644033,5.153121320805957,-0.3324159227000992,-0.6430701241734592,-0.928515518432757,1.0847888896889377,1,left
10.91,0.193855310958867,1.287757190522175,-0.1094855107062117,-2.644998797490276,5.213817231819447,-0.39117080709770224,-0.6599060796678404,-0.9348742538719235,1.1261417920485037,1,left
10.914000000000001,0.20768952985976025,1.2782166954675187,-0.10619311954077729,-2.7116161646600783,5.271137460581039,-0.44949132258898755,-0.6759979247730533,-0.9405863471392674,1.1663517409367241,1,left
10.915999999999999,0.2215673589627199,1.268596157415963,-0.10279804038902998,-2.7766668647170833,5.325107680563683,-0.5073168457119518,-0.6913502529418987,-0.9456467522117883,1.2054079230778088,1,left
10.92,0.2354708812910416,1.2589047934824922,-0.09930658676555175,-2.840056457920862,5.37575492970608,-0.5645865869279562,-0.7059681129904244,-0.9500513058463538,1.243300438168775,1,left
10.921,0.24938202230202575,1.2491519361818828,-0.09572511400465891,-2.901691438175956,5.423107533417202,-0.6212397060132094,-0.7198569910227117,-0.9537967381462468,1.2800203053771415,1,left
10.925999999999998,0.26328257647531367,1.2393470183057134,-0.09206000119913776,-2.9614794110345413,5.467195031359939,-0.6772154272230176,-0.7330227927796771,-0.9568806804907012,1.315559468816609,1,left
10.927,0.2771542360533324,1.2294995567307474,-0.0883176347850298,-3.019329269654961,5.508048108159427,-0.7324531543931905,-0.7454718264538918,-0.9593016708400733,1.3499108021095558,1,left
10.931,0.2909786225786613,1.2196191347047896,-0.08450439332752886,-3.075151368893003,5.5456985281721565,-0.7868925861412226,-0.7572107860103323,-0.9610591564274025,1.3830681121418238,1,left
10.932,0.30473732164643214,1.209715382142743,-0.08062663306746301,-3.12885769769748,5.580179074442576,-0.8404738313279231,-0.7682467350508984,-0.9621534938452158,1.4150261421118706,1,left
10.936,0.3184119210576865,1.1997979535301146,-0.07669067392268838,-3.1803620499761,5.61152349196462,-0.8931375249380453,-0.7785870912584728,-0.9625859465345326,1.4457805739729572,1,left
10.937000000000001,0.3319840523254008,1.1898765031718257,-0.07270278585364158,-3.2295801940918096,5.639766435356396,-0.9448249445361792,-0.7882396114542635,-0.9623586796811179,1.4753280303636127,1,left
10.939,0.34543543525651144,1.1799606577256465,-0.06866917572559722,-3.2764300411436973,5.664943421047144,-0.995478127451702,-0.7972123773001459,-0.9614747525221309,1.5036660761181724,1,left
10.939,0.35874792513464104,1.1700599861932939,-0.06459597496206784,-3.3208318121802414,5.687090784066601,-1.0450399888439523,-0.8055137816757288,-0.9599381080644148,1.5307932194457332,1,left
10.945,0.37190356188654505,1.160183967773403,-0.06048922834588248,-3.362708204486114,5.706245639517973,-1.0934544407959816,-0.8131525157578892,-0.9577535602137842,1.5567089128624014,1,left
10.945,0.38488462054420647,1.1503419581773089,-0.05635488428893795,-3.4019845570769567,5.722445848806923,-1.1406665125822792,-0.8201375568285691,-0.9549267783127763,1.5814135539582366,1,left
10.949000000000002,0.3976736623106017,1.140543155147819,-0.05219878678646868,-3.438589015529514,5.73572999069028,-1.1866224722527234,-0.8264781568347047,-0.9514642690824626,1.6049084860768237,1,left
10.95,0.41025358558533964,1.1307965639907467,-0.048026669133787336,-3.4724526962672675,5.746137337199575,-1.2312699496717259,-0.8321838317222467,-0.9473733559620602,1.6271959989819176,1,left
10.955,0.42260767638430285,1.1211109639294574,-0.043844149347726444,-3.5035098504142437,5.753707834486021,-1.274558061148078,-0.8372643515643626,-0.9426621558382309,1.6482793295821359,1,left
10.955,0.4347196576689639,1.1114948760382735,-0.039656727126166406,-3.531698027321997,5.7584820886251995,-1.3164375357874087,-0.8417297315020512,-0.9373395531541432,1.6681626627812,1,left
10.959000000000001,0.44657373716217497,1.1019565334244756,-0.03546978210716149,-3.5569582378669224,5.760501356411412,-1.3568608436954017,-0.8455902235135859,-0.9314151713865589,1.6868511325177569,1,left
10.96,0.45815465325457594,1.0925038542336178,-0.031288573153501115,-3.579235117606967,5.759807541163553,-1.395782326156023,-0.8488563090274007,-0.924899341877429,1.7043508230553546,1,left
10.963,0.4694477186024239,1.0831444179643215,-0.027118238385131204,-3.5984770898785974,5.756443193556309,-1.4331583279049644,-0.8515386923912683,-0.9178030700047304,1.7206687705797084,1,left
10.964,0.48043886099892524,1.0738854455024343,-0.022963795705162455,-3.614636528906472,5.750451517482555,-1.468947331614331,-0.8536482952088862,-0.9101379986755485,1.7358129651569498,1,left
10.969000000000001,0.49111466108496726,1.064733783217116,-0.018830143605547623,-3.6276699229896914,5.741876380945071,-1.5031100947002878,-0.855196251553273,-0.9019163691227058,1.7497923531031536,1,left
10.97,0.5014623864729678,1.0556958913922374,-0.01472206208603112,-3.6375380378198185,5.730762331967982,-1.5356097885609474,-0.8561939040460824,-0.893150979053747,1.762616839770783,1,left
10.970999999999998,0.5114700219146899,1.0467778371845697,-0.01064421356820954,-3.644206079976983,5.717154619510828,-1.566412140347231,-0.8566528006971798,-0.8838551385452774,1.7742972925481073,1,left
10.974,0.5211262952477222,1.0379852922100938,-0.006601143726958687,-3.6476438604024786,5.701099219213757,-1.595485577103312,-0.8565846922295992,-0.8740426246965475,1.7848455434930752,1,left
10.975,0.5304206989593169,1.0293235347818068,-0.0025972821847172933,-3.6478259564424103,5.682642863060327,-1.6228013708012616,-0.8560015295203062,-0.863727636400443,1.7942743908135894,1,left
10.975,0.5393435072750072,1.0207974567641953,0.0013630569794847972,-3.64473186889718,5.661833070714685,-1.648333780436628,-0.8549154608787584,-0.8529247502426882,1.8025975986090663,1,left
10.979000000000001,0.547885788726877,1.0124115749467586,0.005275674959733647,-3.638346169307578,5.638718179548109,-1.672060186039495,-0.8533388290513527,-0.8416488779160991,1.8098298946561349,1,left
10.979000000000001,0.5560394142091426,1.0041700467444972,0.009136488264983821,-3.628658633893655,5.613347371097751,-1.6939612107577482,-0.8512841679314885,-0.8299152251894498,1.815986966224345,1,left
10.982999999999999,0.5637970605932932,0.996076689910949,0.012941529185506336,-3.615664362703744,5.58577069301623,-1.7140208295171775,-0.848764198972151,-0.8177392523999507,1.8210854539458294,1,left
10.984000000000002,0.5711522100378807,0.9881350058234497,0.016686946849376248,-3.5993638837163004,5.5560390762987995,-1.7322264640650857,-0.8457918272965148,-0.8051366364369787,1.8251429437597253,1,left
10.987,0.5780991451695962,0.9803482057888393,0.020369009077820733,-3.5797632418667287,5.524204347715336,-1.7485690644602832,-0.8423801375006905,-0.7921232341833851,1.8281779569490828,1,left
10.988,0.5846329403298807,0.9727192397237652,0.023984105252186746,-3.5568740729618686,5.490319237368025,-1.7630431770670698,-0.8385423891414056,-0.7787150473794368,1.8302099382849417,1,left
10.993,0.5907494490909906,0.9652508264817955,0.02752875035328584,-3.530713662435322,5.454437381289457,-1.7756469991054862,-0.8342920119001055,-0.7649281888732206,1.8312592422892755,1,left
10.994000000000002,0.596445288261021,0.9579454850292451,0.030999590237222038,-3.5013049888873398,5.416613318989785,-1.786382419804765,-0.8296426004137062,-0.7507788502201617,1.831347117625562,1,left
10.998,0.6017178186232276,0.950805565620405,0.034393408100661674,-3.4686767523435527,5.376902485855716,-1.7952550482015646,-0.8246079087610001,-0.7362832705931716,1.830495689622861,1,left
10.999,0.6065651226943808,0.9438332800963984,0.0377071319955622,-3.432863387157444,5.33536120029838,-1.8022742276191919,-0.8192018445925345,-0.7214577069638559,1.8287279409364594,1,left
11.002,0.6109859798463113,0.9370307304310405,0.040937843202874254,-3.3939050594721407,5.2920466455415385,-1.8074530368586708,-0.8134384628906376,-0.7063184055141689,1.8260676903453854,1,left
11.003,0.6149798392191169,0.9303999346755929,0.0440827852736846,-3.351847649147868,5.247016845936166,-1.8108082781271608,-0.807331959345155,-0.6908815742369077,1.8225395696843933,1,left
11.007,0.6185467909612804,0.9239428495194745,0.04713937358150696,-3.3067427160522667,5.200330637682201,-1.8123604517239225,-0.8008966633294005,-0.6751633566824918,1.8181689989053926,1,left
11.008,0.6216875364490423,0.9176613887890737,0.05010520527579977,-3.2586474506017566,5.152047633833159,-1.8121337174987382,-0.7941470304597933,-0.6591798068085721,1.8129821592607338,1,left
11.014000000000001,0.6244033582430996,0.9115574373492076,0.05297806956103469,-3.2076246084332456,5.10222818345436,-1.8101558430924758,-0.7870976347216703,-0.6429468648881559,1.8070059645982686,1,left
11.015999999999998,0.6266960906085729,0.9056328600473534,0.05575595823641921,-3.153742429076721,5.050933324800809,-1.8064581389643024,-0.7797631601428185,-0.626480334431131,1.800268030755684,1,left
11.017000000000001,0.6285680914301716,0.8998895055441517,0.05843707641752506,-3.097074538490701,4.9982247323761335,-1.8010753802049613,-0.7721583919953675,-0.6097958600733058,1.7927966430392726,1,left
11.017999999999999,0.6300222162830088,0.8943292050938415,0.06101985332372625,-3.037699835314114,4.944164657729598,-1.7940457151304934,-0.7642982075058241,-0.5929089063863648,1.7846207217700265,1,left
11.023,0.6310617952689649,0.8889537665586363,0.06350295295962623,-2.9757023606799806,4.888815863843977,-1.7854105606458566,-0.7561975660522106,-0.5758347375614731,1.7757697858777608,1,left
11.023,0.6316906130146195,0.883764964143268,0.06588528445885589,-2.911171151428271,4.832241552962997,-1.7752144843630628,-0.7478714988264913,-0.558588397918629,1.766273914521863,1,left
11.027000000000001,0.6319128919804318,0.8787645245009135,0.06816601181034568,-2.8442000765475517,4.774505287703182,-1.763505073453728,-0.7393350979397415,-0.5411846931932882,1.7561637067152518,1,left
11.027999999999999,0.631733278991555,0.8739541099716908,0.07034456265824679,-2.7748876566675142,4.715670905291239,-1.750332790211322,-0.7306035049468175,-0.5236381725512423,1.745470238926174,1,left
11.030999999999999,0.6311568347057372,0.8693352997624222,0.07242063586190352,-2.70333686641721,4.655802424764596,-1.7357508142939309,-0.7216918987666434,-0.5059631112822386,1.734225020630636,1,left
11.032,0.630189025604684,0.8649095698698043,0.07439420752721829,-2.6296549194568017,4.594963946969374,-1.719814871614007,-0.7126154829736245,-0.48817349412237654,1.7224599477864846,1,left
11.036,0.6288357180392162,0.8606782724966149,0.07626553527482853,-2.5539530359839446,4.533219547186909,-1.702583049837372,-0.7033894724547375,-0.47028299918076055,1.7102072542582667,1,left
11.037,0.627103173880972,0.856642615602732,0.07803516058160434,-2.476346192509486,4.470633160216979,-1.6841156004497133,-0.6940290795243416,-0.4523049825747899,1.6974994615192807,1,left
11.038,0.6249980474124146,0.8528036430842928,0.07970390909925792,-2.396952853691047,4.407268457743093,-1.6644747273449083,-0.6845494997646979,-0.43425246411083057,1.6843693274937206,1,left
11.042,0.6225273831549561,0.8491622159586767,0.08127288889902863,-2.3158946864669185,4.343188718115799,-1.643724362244819,-0.674965897957765,-0.41613811447599414,1.6708497956992936,1,left
11.043,0.6196986143592177,0.8457189948855645,0.08274348661344227,-2.2332962590255208,4.278456690253356,-1.6219299290516718,-0.6652933943754404,-0.39797424427722566,1.6569739455505006,1,left
11.043,0.6165195619004525,0.8424744243212628,0.08411736145993057,-2.1492847312774326,4.2131344561755135,-1.5991581024618362,-0.6555470515186622,-0.3797727950309944,1.6427749441435842,1,left
11.045,0.6129984333459293,0.8394287185642305,0.08539643714984686,-2.063989545790519,4.147283298249867,-1.5754765679616602,-0.6457418612974717,-0.3615453320774317,1.6282859995441565,1,left
11.049000000000001,0.6091438219588003,0.8365818499386202,0.08658289171537145,-1.9775421258459673,4.080963575662581,-1.5509537885279923,-0.6358927326242859,-0.3433030393667618,1.6135403155377113,1,left
11.05,0.6049647053899161,0.8339335393647803,0.08767914532767422,-1.8900755831321043,4.0142346118049845,-1.5256587801221577,-0.6260144793924107,-0.3250567160657617,1.5985710478023052,1,left
11.052999999999999,0.6004704438207195,0.8314832495410115,0.08868784622965863,-1.8017244352908992,3.9471545927001728,-1.499660896268513,-0.6161218088116608,-0.30681677493191234,1.583411261461857,1,left
11.054,0.5956707773514552,0.8292301809127308,0.08961185495862037,-1.7126243330691062,3.8797804762792283,-1.4730296216472736,-0.6062293100728244,-0.28859324240285883,1.5680938899777714,1,left
11.059000000000001,0.5905758224581088,0.8271732705537371,0.09045422708128174,-1.62291179682306,3.812167912315486,-1.445834374629108,-0.5963514433126255,-0.2703957603487854,1.5526516953359637,1,left
11.06,0.585196067361267,0.8253111940359001,0.09121819470050162,-1.5327239621236086,3.7443711728242595,-1.4181443186769567,-0.5865025288507973,-0.2522335894353278,1.537117229485797,1,left
11.065,0.5795423661609634,0.8236423703168916,0.0919071470157314,-1.4421983342055218,3.6764430927346106,-1.390028182538721,-0.5766967366708797,-0.23411561404469367,1.5215227969870104,1,left
11.065999999999999,0.5736259315946042,0.8221649696275987,0.0925246102256917,-1.351472551003943,3.608435020639036,-1.3615540891528477,-0.5669480761163929,-0.21605034870273263,1.505900418820335,1,left
11.069,0.5674583262710738,0.8208769242898346,0.0930742270500466,-1.2606841545190999,3.5403967794264304,-1.3327893931874104,-0.5572703857741281,-0.19804594595980177,1.4902817973172506,1,left
11.071,0.5610514522246661,0.8197759423415839,0.0935597361169271,-1.1699703702495161,3.4723766366032924,-1.3038005271320658,-0.5476773235164133,-0.1801102056733956,1.4746982821641494,1,left
11.073,0.5544175386221202,0.8188595237926684,0.09398495141939633,-1.0794678944333824,3.404421284107916,-1.2746528558612285,-0.5381823566743781,-0.1622505856406623,1.459180837436096,1,left
11.074000000000002,0.5475691274540067,0.8181249792792984,0.09435374199533181,-0.989312688837577,3.33657582742221,-1.2454105395859765,-0.5287987523144487,-0.14447421352910034,1.4437600096153838,1,left
11.078,0.5405190570607892,0.8175694508343219,0.09467001194201358,-0.8996397828340315,3.268883783785847,-1.2161364051115502,-0.5195395675905412,-0.12678790005392757,1.4284658965501877,1,left
11.079,0.5332804433933567,0.8171899344467332,0.09493768084845877,-0.8105830825037464,3.2013870893176195,-1.186891825316849,-0.5104176401447053,-0.10919815335083187,1.413328117308799,1,left
11.083,0.5258666589836789,0.816983304052783,0.0951606647211084,-0.7222751865097552,3.134126114849197,-1.1577366067720558,-0.5014455785292914,-0.0917111944930515,1.3983757828852115,1,left
11.084000000000001,0.5182913096868974,0.8169463365791989,0.09534285748875826,-0.634847208481717,3.0671396902769104,-1.1287288854104252,-0.4926357526240688,-0.074332974101991,1.3836374677121817,1,left
11.089,0.5105682093346849,0.8170757376404216,0.09548811318927773,-0.5484286056565899,3.0004651372377475,-1.0999250301703505,-0.4840002840221167,-0.05706919000085531,1.369141181938344,1,left
11.09,0.5027113525023195,0.8173681674724022,0.09560022895314521,-0.46314701352198046,2.9341383099164333,-1.0713795545240843,-0.475551036358741,-0.039925305861079674,1.3549143444264846,1,left
11.093,0.4947348856358828,0.8178202666659588,0.09568292890476658,-0.3791280862112923,2.8681936437912268,-1.0431450358098953,-0.46729960555813516,-0.02290657079164462,1.3409837564306963,1,left
11.094000000000001,0.48665307681138525,0.8184286812452495,0.09573984910743313,-0.29649534240268965,2.802664212126983,-1.0152720422850392,-0.45925730997300174,-0.006018039821693495,1.327375575910833,1,left
11.097999999999999,0.478480284408333,0.8191900866221723,0.0957745236883131,-0.21537001647715667,2.7375817900250095,-0.9878090678176508,-0.45143518039288905,0.010735404772785888,1.3141152924434418,1,left
11.097999999999999,0.47023092498407276,0.820101209945593,0.09579037229618827,-0.1358709146945533,2.672976925840348,-0.9608024741365562,-0.443843949897562,0.02734903134709491,1.3012277026892225,1,left
11.102,0.46191944064008106,0.8211588503577147,0.09579068905852778,-0.05811427615054763,2.608879019778308,-0.934296440559038,-0.43649404353232757,0.04381823601927885,1.2887368863779685,1,left
11.104000000000001,0.45356026617541473,0.822359896679923,0.09577863320343959,0.017786361718371065,2.5453164094833394,-0.9083329211177592,-0.4293955677967867,0.06013851913300471,1.2766661827905168,1,left
11.105,0.4451677963071803,0.8237013420996545,0.0957572214867326,0.09172029330992752,2.482316462434733,-0.8829516090093584,-0.42255830000874317,0.07630546127948373,1.2650381678061187,1,left
11.107000000000001,0.43675635319826295,0.8251802955161491,0.09572932251945424,0.1635797709342741,2.419905674965058,-0.8581899082886629,-0.4159916777309657,0.09231469937550293,1.25387463174286,1,left
11.107999999999999,0.42834015451067464,0.8267939892721224,0.09569765304463045,0.23326012701318613,2.358109777718806,-0.8340829127340159,-0.40970478851882003,0.10816190344412298,1.2431965583077875,1,left
11.112,0.4199332822341861,0.8285397830164483,0.0956647761730689,0.30065989261239995,2.296953847370314,-0.8106633918108891,-0.40370636017793615,0.12384275459423863,1.2330241048868424,1,left
11.113,0.41154965259371445,0.8304151634569167,0.09563310154968806,0.36568091251330076,2.236462424421732,-0.78796178366272,-0.39800475159658427,0.13935292442488795,1.2233765842479631,1,left
11.114,0.40320298736395593,0.8324177398229126,0.09560488738125167,0.4282284569784542,2.176659636698353,-0.7660061950129557,-0.3926079441486361,0.15468805592980941,1.2142724476442868,1,left
11.117,0.3949067868959544,0.8345452349495394,0.09558224422778203,0.48821133013162527,2.117569327134409,-0.7448224076300861,-0.38752353364989756,0.16984374594728505,1.2057292692882708,1,left
11.119000000000002,0.3866743051021445,0.8367954719822231,0.09556714045014386,0.5455419744569546,2.059215182597418,-0.7244338905879918,-0.38275872285145096,0.1848155291998162,1.1977637321690595,1,left
11.122,0.37851852660062785,0.8391663567855046,0.09556140919319771,0.6001365706875567,2.001620859475111,-0.7048618173218999,-0.3783203144545198,0.19959886396767668,1.1903916151869778,1,left
11.123,0.37045214621354516,0.8416558562403739,0.0955667567454155,0.6519151325737508,1.9448101027770492,-0.6861250867166243,-0.37421470463226447,0.21418911943987168,1.1836277815806466,1,left
11.128,0.36248755101127633,0.844261972728052,0.09558477206514684,0.7008015964226766,1.8888068573520838,-0.6682403478875582,-0.37044787704483695,0.2285815647855026,1.177486168623872,1,left
11.129000000000001,0.3546368050514512,0.8469827152046563,0.09561693722570937,0.7467239055204927,1.8336353708510356,-0.6512220285513993,-0.36702539733495687,0.24277135998799645,1.1719797785711605,1,left
11.130999999999998,0.34691163688540055,0.8498160673597207,0.09566463850892597,0.7896140895857439,1.7793202882714532,-0.6350823669328199,-0.36395240809222806,0.2567535484841035,1.167120670832461,1,left
11.132,0.3393234298171781,0.8527599534215385,0.09572917786007898,0.8294083393941762,1.7258867379236134,-0.6198314471557316,-0.3612336242753859,0.27052305164899854,1.1629199553595182,1,left
11.137,0.3318832148134679,0.8558122022234586,0.09581178440179712,0.8660470767067798,1.673360408659325,-0.6054772380702848,-0.35887332908265507,0.2840746651682383,1.1593877872280438,1,left
11.138,0.32460166588642714,0.8589705101755958,0.09591362569168302,0.8994750196241318,1.6217676182075582,-0.5920256354692582,-0.3568753702613999,0.29740305733673167,1.156533362401772,1,left
11.142000000000001,0.317489097715757,0.8622324037939578,0.09603581840518018,0.9296412434812295,1.571135372463457,-0.579480507650045,-0.3552431568492669,0.3105027693242669,1.1543649146663535,1,left
11.142000000000001,0.31055546524577093,0.8655952024230723,0.09617943813865076,0.9564992373879477,1.5214914155798926,-0.5678437442810101,-0.3539796563400452,0.3233682174465154,1.1528897137229586,1,left
11.149000000000001,0.3038103649890015,0.8690559817499389,0.09634552805996419,0.9800069565110424,1.4728642707134068,-0.5571153085335873,-0.3530873922685157,0.3359936974797885,1.1521140644334107,1,left
11.15,0.29726303778920515,0.8726115386489773,0.09653510618303378,1.000126870184256,1.42528327127915,-0.547293292444079,-0.3525684422096033,0.34837339105716725,1.1520433072106337,1,left
11.151,0.29092237283749806,0.8762583578233092,0.0967491711059825,1.0168260059235938,1.3787785825722656,-0.538373975471731,-0.3524244361882104,0.3605013741829519,1.1526818195501898,1,left
11.152000000000001,0.28479691278336894,0.8799925806237523,0.0969887061257042,1.0300759894152203,1.3333812136160836,-0.5303518862222568,-0.35265655549717073,0.37237162790168915,1.1540330187006913,1,left
11.157,0.27889485982508566,0.8838099763425368,0.09725468171789434,1.0398530805337018,1.2891230191005107,-0.523219867308588,-0.3532655319218387,0.3839780511573265,1.1560993654728926,1,left
11.158,0.2732240826959391,0.8877059162021456,0.0975480564439479,1.0461382054385104,1.2460366912770808,-0.5169691433232166,-0.35425164737090103,0.3953144758773227,1.1588823691893035,1,left
11.161,0.2677921244830654,0.8916753501946503,0.0978697764074882,1.0489169847867974,1.2041557416803217,-0.5115893918990678,-0.3556147339140802,0.4063746843157995,1.162382593778212,1,left
11.163,0.2626062112228552,0.8957127868727386,0.09822077342851684,1.0481797580904852,1.1635144725483666,-0.5070688178383965,-0.3573541742284787,0.41715242868906555,1.1665996650180532,1,left
11.165999999999999,0.2576732612092866,0.8998122761479305,0.09860196213226025,1.0439216042357016,1.1241479378191084,-0.5033942302917289,-0.35946890245639784,0.427641453136064,1.1715322789401237,1,left
11.167,0.2529998949293306,0.9039673951135043,0.09901423616630597,1.0361423581725164,1.0860918935816577,-0.5005511229713687,-0.36195740547854494,0.4378355180355036,1.1771782113996945,1,left
11.171,0.24859244550654533,0.9081712368793373,0.09945846376567277,1.0248466237728557,1.049382737866425,-0.49852375738645316,-0.36481772460762346,0.44772842671062285,1.1835343288276328,1,left
11.172,0.2444569694961951,0.9124164023816369,0.09993548288151295,1.0100437828443571,1.0140574396608188,-0.49729524908897144,-0.3680474577083779,0.457314054551704,1.1905966001767003,1,left
11.172,0.24059925784332434,0.916694995111781,0.10044609607467463,0.9917480002778299,0.9801534570413122,-0.4968476569225451,-0.3716437617446263,0.46658638050943724,1.1983601100444004,1,left
11.175999999999998,0.2370248468062622,0.9209986186990852,0.10099106534681414,0.9699782252958911,0.9477086443164995,-0.497162075268109,-0.3756033557218222,0.47553952053050763,1.2068190727845973,1,left
11.177,0.23373902866612584,0.9253183772823826,0.10157110704141824,0.9447581887602824,0.9167611480797464,-0.4982187292829252,-0.3799225239352396,0.4841677618203428,1.2159668471131124,1,left
11.181,0.23074686206245731,0.929644878603315,0.1021868869115572,0.9161163964449219,0.8873492922914471,-0.4999970730049163,-0.3845971194018723,0.4924655964362009,1.225795950542825,1,left
11.183,0.22805318179993367,0.9339682397461594,0.10283901543062654,0.8840861179696257,0.8595114536017536,-0.5024758895630528,-0.3896225673882346,0.5004277530937207,1.2362980731574904,1,left
11.183,0.22566260797743484,0.9382780954462128,0.10352804340681616,0.8487053707156722,0.8332859300849257,-0.5056333915964732,-0.3949938690067943,0.5080492267546731,1.2474640905445094,1,left
11.186,0.2235795542996761,0.9425636088902768,0.10425445794583113,0.8100168978324184,0.8087108076475168,-0.5094473193536491,-0.40070560488784396,0.5153253059435715,1.2592840758805317,1,left
11.187000000000001,0.22180823542489256,0.9468134849289461,0.10501867879488574,0.768068139636593,0.7858238272904758,-0.5138950345783538,-0.4067519389412368,0.5222515978159991,1.2717473112000415,1,left
11.193,0.22035267318795926,0.9510159856216748,0.10582105509212501,0.722911198060147,0.764662254453896,-0.5189536094313364,-0.41312662222340546,0.5288240510005413,1.2848422978789804,1,left
11.194,0.21921670153627282,0.9551589480567677,0.10666186253408277,0.6746027939951912,0.7452627505912268,-0.5245999103319157,-0.4198229969260599,0.5350389762352139,1.2985567663673423,1,left
11.195,0.21840397002478165,0.9592298044246946,0.10754130096161721,0.6232042174156253,0.727661246907279,-0.5308106767322273,-0.4268340005039198,0.5408930648182755,1.3128776852065172,1,left
11.196,0.21791794572917705,0.9632156043630824,0.10845949235535006,0.5687812701458584,0.711892820199311,-0.5375625948386018,-0.4341521699597806,0.5463834048922985,1.3277912693689775,1,left
11.200999999999999,0.2177619134504038,0.9671030396310867,0.10941647922720213,0.5114042011379735,0.6979915707455446,-0.5448323662962469,-0.44176964630613474,0.5515074955793445,1.3432829879596753,1,left
11.202,0.2179389740979135,0.9708784712089304,0.11041222339898955,0.4511476341098244,0.6859905021906213,-0.552596771855023,-0.4496781792234721,0.5562632589840546,1.3593375713202607,1,left
11.205,0.21845204115130942,0.9745279589541571,0.11144660517209641,0.3880904873878752,0.6759214033827725,-0.5608327300356614,-0.4578691319362668,0.5606490500804229,1.3759390175789357,1,left
11.206,0.2193038351082257,0.978037293975885,0.1125194229042233,0.322315885790111,0.6678147321228419,-0.5695173508172565,-0.46633348632851523,0.5646636644969686,1.3930705986904106,1,left
11.21,0.22049687582986435,0.9813920339046495,0.11363039300742842,0.25391106437609134,0.6616995007907525,-0.5786279843682891,-0.47506184832152537,0.5683063442139633,1.4107148660120505,1,left
11.21,0.22203347269872967,0.9845775412304716,0.11477915036110917,0.18296726388317813,0.6576031638205564,-0.5881422648447895,-0.4840444535374687,0.5715767811853126,1.428853655463869,1,left
11.215,0.22391571251574688,0.9875790248516094,0.11596524909825402,0.10957961766017256,0.655551507000844,-0.5980381492805423,-0.4932711732729905,0.5744751188966215,1.4474680923215422,1,left
11.216,0.2261454450979767,0.9903815849201003,0.11718816368171737,0.03384702990204934,0.6555685385830011,-0.6082939515954562,-0.5027315208079316,0.5770019518699089,1.466538595693095,1,left
11.22,0.2287242666006239,0.9929702609874614,0.11844729014935979,-0.0441279550178097,0.6576763821856051,-0.6188883717493819,-0.5124146580749441,0.579158323124365,1.4860448827313268,1,left
11.220999999999998,0.2316535006748846,0.9953300833465623,0.11974194738380588,-0.12423929232849275,0.6618951714891149,-0.6298005200697635,-0.5223094027164854,0.5809457196014804,1.5059659726354038,1,left
11.225,0.23493417767288044,0.9974461273406305,0.12107137826757024,-0.2063775859728845,0.6682429467209542,-0.6410099367825346,-0.5324042355563425,0.5823660655618073,1.5262801904963657,1,left
11.225999999999999,0.2385670122055857,0.9993035702805285,0.12243475062923391,-0.29043024727321515,0.6767355529370835,-0.6524966067766532,-0.5426873085134815,0.5834217139595507,1.546965171042532,1,left
11.229000000000001,0.24255237943748778,1.0008877504919163,0.12383115797147035,-0.37628166338073454,0.6873865401122219,-0.6642409696335775,-0.5531464529866206,0.5841154358001289,1.5679978623419923,1,left
11.23,0.2468902905582175,1.002184227913383,0.1252596200766749,-0.46381337574523074,0.7002070650569866,-0.67622392495384,-0.563769188738503,0.5844504074847884,1.589354529520489,1,left
11.235999999999999,0.2515803679053493,1.0031788455834214,0.12671908367436294,-0.5529042688456047,0.7152057951863773,-0.6884268330136784,-0.5745427333093818,0.5844301961453114,1.6110107585540658,1,left
11.237,0.2566218202219311,1.0038577912828706,0.12820842339624225,-0.643430769427874,0.7323888141702259,-0.7008315107854179,-0.5854540119897375,0.5840587429708166,1.6329414601968515,1,left
11.239,0.26201341851018617,1.0042076585528543,0.12972644323548638,-0.7352670565018008,0.7517595295024606,-0.7134202233559912,-0.5964896683674509,0.5833403445729931,1.6551208741132273,1,left
11.24,0.2677534728789254,1.0042155063306957,0.13127187868247603,-0.828285282351811,0.7733185820322839,-0.7261756707786102,-0.6076360753887576,0.5822796326619463,1.6775225733242358,1,left
11.241,0.2738398106882855,1.003868916540514,0.13284339965373,-0.9223558048219936,0.7970637575066364,-0.7390809703931889,-0.6188793467353116,0.580881552712166,1.7001194691504122,1,left
11.245,0.2802697562183755,1.0031560490335847,0.13443961428626094,-1.0173474311387256,0.822989900179593,-0.7521196346516424,-0.6302053482437141,0.5791513425239885,1.7228838168736889,1,left
11.245,0.28704011205393454,1.0020656932227472,0.13605907364164294,-1.113127673537859,0.8510888285506192,-0.7652755444846694,-0.6415997091705093,0.5770945113580829,1.7457872223019089,1,left
11.249,0.2941471423518971,1.0005873156914917,0.13770027733724283,-1.2095630169664282,0.8813492532998917,-0.7785329182470557,-0.6530478332433214,0.5747168199111864,1.7688006493484991,1,left
11.25,0.301586558112102,0.9987111030976867,0.13936168008512134,-1.306519198682308,0.913756697539594,-0.7918762763882563,-0.6645349095153706,0.572024261173499,1.791894428700589,1,left
11.25,0.30935350451937327,0.9964279998303558,0.14104169908317182,-1.4038614973316643,0.9482934197285918,-0.8052904025420194,-0.6760459230560724,0.5690230421618425,1.8150382676413046,1,left
11.254000000000001,0.31744255039332003,0.9937297400531878,0.1427387221823545,-1.5014550250433998,0.9849383400041507,-0.8187603027131243,-0.687565665510573,0.5657195665217665,1.8382012610922887,1,left
11.255,0.32584767977560913,0.9906088739248268,0.14445111673954622,-1.599165013835428,1.0236669709127793,-0.8322711647862179,-0.6990787455611901,0.5621204179908784,1.8613519039427215,1,left
11.26,0.3345622856970226,0.9870587879099885,0.14617723904049684,-1.6968570898745845,1.0644513533061315,-0.8458083200352718,-0.7105695993237925,0.5582323447147914,1.8844581047312627,1,left
11.261,0.34357916618908885,0.9830737192262328,0.14791544414508737,-1.7943975331752204,1.107259997773893,-0.8593572073283282,-0.7220225007121792,0.5540622444062124,1.9074872007473884,1,left
11.264000000000001,0.35289052262556364,0.9786487646323035,0.14966409598012478,-1.8916535225677162,1.1520578317693,-0.8729033401756506,-0.7334215718034988,0.5496171503368472,1.9304059746185578,1,left
11.265,0.3624879604862759,0.973779883926621,0.15142157748539117,-1.98849336621727,1.198806152544385,-0.8864322766601399,-0.7447507932376857,0.5449042181509668,1.9531806724495189,1,left
11.27,0.37236249262285487,0.968463898652771,0.15318630060635574,-2.0847867179728827,1.2474625860178528,-0.8999295922889016,-0.7559940146837791,0.5399307134886712,1.9757770235798393,1,left
11.270999999999999,0.382504545071033,0.9626984865882396,0.15495671592714544,-2.180404779825649,1.2979810517041945,-0.9133808558048523,-0.7671349654058373,0.5347040004060964,1.998160262025424,1,left
11.275,0.3929039654027562,0.9564821726225471,0.15673132175413823,-2.2752204907542635,1.3503117338382407,-0.9267716079971964,-0.7781572649609575,0.5292315305790414,2.020295149669378,1,left
11.276,0.4035500335544349,0.9498143166174052,0.15850867249156173,-2.3691087022340915,1.4044010588348386,-0.9400873435495166,-0.7890444340616668,0.5235208332757418,2.042146001267048,1,left
11.279000000000002,0.41443147501867567,0.9426950987939935,0.16028738619002894,-2.461946340684224,1.460191679228665,-0.9533134959640911,-0.7997799056346535,0.5175795060837945,2.0636767113294687,1,left
11.28,0.4255364762569041,0.9351255031215688,0.1620661511930599,-2.5536125571246133,1.5176224642443972,-0.966435425600871,-0.810347036107465,0.5114152063755254,2.084850782948728,1,left
11.283,0.43685270218440936,0.9271072990999222,0.16384373185298637,-2.6439888643127514,1.5766284971524958,-0.9794384108693412,-0.8207291169544151,0.5050356434954131,2.1056313586279387,1,left
11.284,0.4483673155949434,0.9186430222490225,0.1656189733310786,-2.732959261626322,1.6371410795707486,-0.9923076426112283,-0.8309093865325047,0.4984485716525171,2.1259812531775992,1,left
11.288,0.4600669984209547,0.9097359535545866,0.16739080552892932,-2.8204103479549083,1.69908774287641,-1.0050282217117188,-0.840871042237675,0.49166178350021783,2.145862988739079,1,left
11.288,0.4719379747573755,0.9003900980780296,0.16915824621360454,-2.906231422860131,1.7623922668983014,-1.017585159976511,-0.8505972530111837,0.4846831043849591,2.1652388319948592,1,left
11.293,0.4839660356033559,0.8906101629272635,0.17092040340034761,-2.9903145762595624,1.8269747060625536,-1.029963384311636,-0.8600711722253125,0.4775203872450868,2.184070833623895,1,left
11.294,0.4961365652936198,0.8804015347953216,0.17267647705053613,-3.072554766885399,1.8927514231697788,-1.042147744242562,-0.8692759509769863,0.47018150814030313,2.2023208700591455,1,left
11.298,0.5084345695969381,0.8697702572948278,0.17442576013121275,-3.1528498897642,1.959635130985362,-1.0541230228086176,-0.87819475181721,0.4626743623917076,2.2199506876028408,1,left
11.299000000000001,0.520844705451156,0.8587230083375672,0.1761676390634024,-3.2311008329590223,2.027534941828216,-1.0658739508682662,-0.8868107629435009,0.4550068613118629,2.2369219489535093,1,left
11.302999999999999,0.5333513122823961,0.8472670778236607,0.17790159356206392,-3.3072115238099813,2.0963564253467744,-1.077385224850196,-0.8951072128817251,0.44718692950382083,2.253196282197107,1,left
11.304,0.5459384448244654,0.8354103459098283,0.17962719584945333,-3.3810889649036797,2.166001674674161,-1.088641527984598,-0.9030673856829211,0.4392225027075602,2.268735332312816,1,left
11.307,0.5585899073222559,0.8231612621141348,0.18134410921281485,-3.4526432599961128,2.236369381157397,-1.099627555048355,-0.9106746366456716,0.4311215261671976,2.2835008151840452,1,left
11.308,0.5712892889866744,0.8105288254752746,0.18305208587802937,-3.5217876301074815,2.3073549178581336,-1.1103280406571765,-0.9179124085028741,0.42289195346875846,2.297454573812515,1,left
11.309000000000001,0.5840200005733491,0.7975225659217146,0.18475096417920614,-3.588438420000948,2.3788504320247714,-1.120727791136986,-0.9247642478833867,0.41454174575622715,2.310558635907988,1,left
11.312999999999999,0.5967653119549394,0.7841525269486312,0.1864406650141756,-3.652515095250712,2.4507449467378826,-1.1308117200060825,-0.931213821787223,0.4060788712100675,2.32277527173334,1,left
11.314,0.6095083905225726,0.7704292496658535,0.1881211875862338,-3.713940230097857,2.522924471932628,-1.14056488709879,-0.9372449338826946,0.3975113046951709,2.3340670513729815,1,left
11.317,0.62223234020536,0.7563637582482837,0.18979260444829774,-3.772639486285261,2.5952721250033175,-1.1499725413604311,-0.942841540560206,0.3888470275264948,2.3443969011134027,1,left
11.318,0.6349202408726692,0.7419675467744501,0.19145505588848105,-3.8285415832646885,2.667668261088008,-1.1590201672152611,-0.9479877667470376,0.3800940273234706,2.3537281589127197,1,left
11.319,0.6475551878970361,0.7272525673923921,0.19310874371656142,-3.881578261207602,2.7399906125898204,-1.1676935337714993,-0.9526679215004094,0.3712602979285838,2.3620246289915845,1,left
11.323,0.6601203316947571,0.7122312197170431,0.19475392452055892,-3.931684240126273,2.8121144365165534,-1.175978744980854,-0.9568665133948673,0.3623538393652554,2.3692506355750513,1,left
11.323,0.6725989170836337,0.6969163413243737,0.19639090247184648,-3.978797179449768,2.8839126676782874,-1.1838622882323608,-0.9605682657187431,0.3533826578098957,2.375371075812131,1,left
11.327,0.6849743222727646,0.6813211991487366,0.1980200217794436,-4.0228576413451345,2.9552560763244577,-1.191331079495811,-0.9637581314930982,0.3443547655527706,2.3803514718967893,1,left
11.329,0.6972300972520273,0.6654594815231003,0.19964165892037847,-4.063809059182833,3.02601342977691,-1.1983725042747069,-0.9664213083251807,0.3352781809221125,2.3841580224110657,1,left
11.332,0.709350001315261,0.6493452905491193,0.20125621478292724,-4.1015977114908395,3.0960516581565223,-1.2049744542640528,-0.9685432531069983,0.3261609281457205,2.386757652907831,1,left
11.332,0.7213180394376631,0.6329931344508807,0.20286410684470438,-4.136172701523868,3.1652360244080553,-1.2111253597344096,-0.9701096965681363,0.3170110371241336,2.3881180657474146,1,left
11.337,0.73311849723052,0.6164179195483558,0.20446576147230225,-4.16748594256524,3.233430298826214,-1.2168142176624182,-0.9711066576904426,0.30783654308931785,2.3882077891989577,1,left
11.338,0.7447359742150509,0.59963494148235,0.2060616063845363,-4.195492149069853,3.300496938283829,-1.2220306156267287,-0.9715204579906425,0.2986454861226948,2.386996225813904,1,left
11.343,0.7561554151897466,0.5826598753323897,0.2076520632812494,-4.2201488337474595,3.3662972703606195,-1.2267647514869842,-0.9713377356753548,0.2894459105062428,2.384453700075456,1,left
11.344000000000001,0.7673621395091053,0.5655087642923388,0.2092375406157143,-4.241416310676119,3.4306916825681353,-1.2310074488621785,-0.9705454596713441,0.2802458638803323,2.3805515053241995,1,left
11.347999999999999,0.7783418681458238,0.5481980066058615,0.21081842648616358,-4.259257704526189,3.4935398168632528,-1.2347501684233526,-0.9691309435321674,0.27105339618190993,2.3752619499563448,1,left
11.349,0.7890807484735141,0.530744340514861,0.2123950816379376,-4.2736389659656,3.5547007696389463,-1.2379850150142087,-0.9670818592206627,0.2618765583366199,2.368558402887218,1,left
11.350999999999999,0.7995653767799454,0.5131648270361797,0.21396783259529983,-4.284528893307419,3.614033297377022,-1.2407047406118124,-0.964386250764977,0.2527234006784506,2.36041533826874,1,left
11.352,0.8097828185928139,0.49547683045169943,0.21553696497590277,-4.291899160450904,3.6713960281430573,-1.2429027431381179,-0.9610325477840431,0.24360197107051748,2.350808379445632,1,left
11.356,0.819720626957268,0.4776979964717648,0.21710271707494996,-4.2957243511572765,3.726647679098935,-1.2445730611315948,-0.9570095788765937,0.23452031270063556,2.339714342131041,1,left
11.357000000000001,0.8293668588342854,0.45984622810829956,0.21866527383002946,-4.2959819996914455,3.779647280203126,-1.2457103642867515,-0.9523065848659424,0.2254864615254054,2.327111276778138,1,left
11.360999999999999,0.8387100897851477,0.44193965936667207,0.22022476128484675,-4.292652637850796,3.8302544042631923,-1.2463099398678605,-0.946913231890875,0.2165084433366256,2.3129785101200397,1,left
11.363,0.8477394270715601,0.42399662692855866,0.22178124166534485,-4.285719848391982,3.87832940349894,-1.2463676750016706,-0.9408196243310697,0.20759427042396042,2.297296685846137,1,left
11.366,0.8564445212449872,0.40603564004824205,0.22333470917492482,-4.275170324856429,3.9237336527681608,-1.2458800348523624,-0.9340163175535146,0.19875193780792788,2.280047804378582,1,left
11.366,0.8648155762407633,0.3880753489196719,0.2248850866114986,-4.2609939377849395,3.966329799600056,-1.2448440366804647,-0.9264943304644069,0.18998941901743419,2.2612152617082897,1,left
11.372,0.8728433579484544,0.37013451178994666,0.22643222290645848,-4.243183807301453,4.005982021174143,-1.2432572197858829,-0.918245157849009,0.18131466138626345,2.2407838872453643,1,left
11.373,0.8805192012070853,0.35223196109963956,0.2279758916809564,-4.2217363820356475,4.042556288374782,-1.2411176113336393,-0.9092607824798955,0.17273558084313836,2.2187399806343726,1,left
11.377,0.8878350151709972,0.33438656892822644,0.22951579090347704,-4.196651524343626,4.075920637043408,-1.2384236880593391,-0.8995336869719681,0.16426005617019668,2.1950713474803187,1,left
11.378,0.8947832870042202,0.31661721201444104,0.2310515437096644,-4.16793260177554,4.105945446542074,-1.2351743338498022,-0.8890568653724508,0.15589592271871974,2.1697673339221923,1,left
11.378,0.9013570838819875,0.29894273659468196,0.23258270041262177,-4.135586584728496,4.1325037257331,-1.2313687931927084,-0.8778238345316248,0.14765096563992333,2.142818859964299,1,left
11.382,0.9075500532987915,0.28138192325853484,0.2341087416960106,-4.099624150212738,4.155471406470398,-1.2270066204875174,-0.865828645405311,0.13953291281257607,2.114218451431227,1,left
11.383,0.9133564216973922,0.26395345199768583,0.23562908294150128,-4.0600597916485865,4.174727644688439,-1.222087625208324,-0.8530658944975995,0.13154942771822883,2.08396027038559,1,left
11.386,0.9187709914448589,0.24667586764498292,0.23714307959559452,-4.016911934301123,4.190155128818558,-1.216611813056638,-0.8395307355905103,0.12370810244648255,2.0520401438649896,1,left
11.386,0.9237891361933124,0.22956754591725168,0.23865003344815777,-3.9702030544485933,4.201640393520214,-1.2105793239850748,-0.8252188917976983,0.1160164508894285,2.0184555908295825,1,left
11.387,0.9284067946735683,0.2126466602488607,0.24014919969062873,-3.919959797669048,4.209074133587052,-1.2039903693116238,-0.8101266679174582,0.10848190211608268,1.9832058472289118,1,left
11.392000000000001,0.932620462982769,0.19593114957156837,0.2416397946210605,-3.866213090118825,4.212351511144867,-1.1968451708871592,-0.7942509630461388,0.1011117939043045,1.9462918890962924,1,left
11.392999999999999,0.9364271854471525,0.17943868720125783,0.24312100383903631,-3.808998238166887,4.211372450979005,-1.189143904532662,-0.7775892834108427,0.09391336640811947,1.9077164535742774,1,left
11.395999999999999,0.9398245441620297,0.16318665100780672,0.24459199074078203,-3.748355014440001,4.20604192193424,-1.1808866486207423,-0.7601397553780509,0.08689375593881728,1.8674840577699385,1,left
11.397,0.942810647322706,0.14719209503314665,0.24605190510965785,-3.6843277298243082,4.196270204049977,-1.1720733379298613,-0.7419011385925595,0.08005998883866826,1.8256010153339262,1,left
11.401,0.9453841164613773,0.13147172268750004,0.24749989160236321,-3.61696529125901,4.181973141427768,-1.1627037227491226,-0.7228728391988569,0.07341897542659455,1.7820754506525016,1,left
11.402999999999999,0.9475440726998965,0.11604186161234104,0.2489350979503169,-3.5463212451480426,4.163072380815629,-1.152777333209916,-0.7030549230948169,0.06697750399564553,1.7369173105369737,1,left
11.405999999999999,0.9492901221198923,0.10091844025797658,0.2503566827258702,-3.472453806205934,4.139495595880904,-1.1422934488190934,-0.6824481291653066,0.060742234842661044,1.690138373290245,1,left
11.407,0.9506223403426842,0.08611696618557257,0.251763822559943,-3.3954258715444223,4.1111766971304435,-1.1312510731667607,-0.6610538824410489,0.05471969431105889,1.6417522550254493,1,left
11.41,0.9515412564035415,0.07165250607065891,0.253155718735581,-3.315305019797035,4.078056027423642,-1.1196489137801655,-0.6388743071258078,0.048916268828256435,1.5917744131069742,1,left
11.411,0.9520478359982097,0.05753966736087698,0.2545316031163376,-3.232163495069552,4.040080543010458,-1.1074853670935652,-0.6159122394327035,0.043338198919828166,1.5402221465795216,1,left
11.415,0.9521434641741735,0.04379258152632833,0.255890743396087,-3.1460781754952243,3.9972039800129346,-1.094758508502347,-0.5921712401682003,0.03799157318311171,1.4871145934462353,1,left
11.415999999999999,0.9518299275371208,0.030424888835651656,0.2572324476754011,-3.0571305261647392,3.949387006254976,-1.0814660874680682,-0.5676556070000588,0.03288232220360411,1.4324727246523565,1,left
11.421,0.9511093960512006,0.01744972459305924,0.2585560683781276,-2.9654065361922477,3.89659735833116,-1.0676055276394703,-0.542370386343294,0.028016212398137227,1.3763193346263625,1,left
11.422,0.9499844045365717,0.004879706778058846,0.25986100552252206,-2.8709966396703335,3.8388099637913546,-1.0531739319529,-0.5163213847959507,0.023398839769485414,1.3186790282260576,1,left
11.427,0.9484578340077757,-0.0072730749621068,0.26114670935761836,-2.773995620258587,3.7760070483036805,-1.0381680926739476,-0.4895151800542759,0.019035623557740602,1.2595782039327046,1,left
11.429,0.9465328930417115,-0.018997069008558225,0.2624126823692985,-2.674502499142475,3.708178227644139,-1.022584506340477,-0.4619591312346666,0.014931799774487624,1.1990450331319278,1,left
11.43,0.9442130994041303,-0.03028127018901274,0.2636584806538487,-2.5726204060915028,3.635320584346839,-1.0064193935655843,-0.43366138852757247,0.011092414606527094,1.1371094353158668,1,left
11.43,0.9415022621912201,-0.04111522694641931,0.2648837146535418,-2.4684564333382197,3.557438728834397,-0.989668723657367,-0.404630902106365,0.007522317676622714,1.0738030490368533,1,left
11.436,0.9384044647516652,-0.051489047283409826,0.26608804925134577,-2.3621214719924746,3.474544844833645,-0.9723282440107315,-0.3748774302120269,0.004226155149494666,1.0091591984387849,1,left
11.437999999999999,0.9349240486392298,-0.06139340350712363,0.2672712032284313,-2.253730030698468,3.3866587188673547,-0.9543935142247888,-0.3444115463323911,0.0012083626720400277,0.9432128551883378,1,left
11.44,0.9310655988042571,-0.07081953579917348,0.2684329480941154,-2.1434000362356103,3.2938077535982724,-0.9358599448977125,-0.31324464539255215,-0.0015268418624657103,0.8760005956242279,1,left
11.44,0.9268339301671232,-0.07975925463550688,0.26957310630029535,-2.0312526157579582,3.196026964787375,-0.9167228410492317,-0.2813889488709994,-0.00397546573564549,0.8075605529388906,1,left
11.444,0.9222340756382891,-0.08820494208017074,0.2706915488531623,-1.917411860361102,3.093358961613935,-0.8969774501192287,-0.24885750877358345,-0.006133749021087938,0.7379323643317803,1,left
11.445,0.9172712755782766,-0.0961495519762428,0.2717881923371881,-1.802004569659815,2.985853910090727,-0.87661901448919,-0.21566421049344506,-0.007998172414964875,0.6671571137127004,1,left
11.446,0.9119509686415315,-0.10358660905742717,0.27286299537158754,-1.685159977054569,2.873569479293576,-0.8556428284715237,-0.18182377475951897,-0.009565465312002544,0.5952772716871606,1,left
11.45,0.9062787839132742,-0.11051020700588954,0.27391595453059886,-1.5670094553601468,2.756570770110416,-0.8340442997100113,-0.14735175897231578,-0.010832614166035598,0.5223366351951949,1,left
11.450999999999999,0.9002605342167393,-0.11691500548682528,0.27494709977782755,-1.447686202465102,2.6349302262011447,-0.8118190149328955,-0.1122645581257543,-0.011796871165270135,0.4483802685289361,1,left
11.454,0.8939022104473344,-0.12279622619855997,0.2759564894860589,-1.3273249066866817,2.508727526845864,-0.7889628099983406,-0.07657940533550218,-0.012455763236662616,0.37345444629396085,1,left
11.455,0.8872099767899461,-0.12814964798706147,0.27694420512814527,-1.206061392142719,2.3780494616215204,-0.7654718440343066,-0.0403143718944374,-0.012807101384700774,0.2976065982335303,1,left
11.456,0.880190166692115,-0.1329716010803916,0.2779103457255415,-1.084032247761809,2.2429897882135648,-0.7413426767935938,-0.003488366754471354,-0.012848990367351217,0.22088525570336964,1,left
11.46,0.872849279488616,-0.13725896049869815,0.27885502213076824,-0.9613744494958106,2.103649077139972,-0.7165723471199146,0.033878864667741135,-0.012579838711061867,0.14333999958184682,1,left
11.460999999999999,0.8651939775872101,-0.14100913869579892,0.27977835121221534,-0.8382249885993036,1.9601345485320099,-0.6911584497395373,0.07176674246534415,-0.011998369065824436,0.0650214093977643,1,left
11.465,0.8572310841228618,-0.1442200774979752,0.28068045001469916,-0.7147205155352491,1.8125599047236913,-0.6650992082707059,0.11015385510182396,-0.011103628900413864,-0.014018986544529585,1,left
11.466,0.8489675809796998,-0.14689023942106488,0.2815614299782463,-0.5909970031185974,1.6610451599057239,-0.6383935435642811,0.14901796326485514,-0.009895001537028754,-0.09372876026536744,1,left
11.469000000000001,0.8404106070799743,-0.14901859845915286,0.28242139129657745,-0.4671894292049937,1.5057164667079062,-0.6110411371666937,0.188336004822245,-0.008372217523660385,-0.17405463266020513,1,left
11.47,0.8315674568460628,-0.15060463044380226,0.28326041748368613,-0.3434314785700805,1.3467059392862863,-0.5830424898303477,0.22808410099020454,-0.006535366341618597,-0.2549425217272288,1,left
11.474,0.8224455787475027,-0.15164830307337837,0.28407857019781135,-0.21985526362426133,1.1841514724800954,-0.5543989749947534,0.26823756382554254,-0.00438490844474191,-0.3363375907009968,1,left
11.474,0.8130525738461932,-0.15215006570897027,0.2848758843540774,-0.09659106360754852,1.0181965565925166,-0.5251128871598156,0.30877090515468125,-0.0019216876259175457,-0.41818429632275467,1,left
11.479000000000001,0.8033961942504135,-0.1521108390270514,0.28565236354614454,0.026232918090745117,0.8489900873387974,-0.4951874850708466,0.3496578470536267,0.0008530562943644514,-0.5004264374796747,1,left
11.48,0.7934843413867623,-0.15153200460975177,0.28640797579541494,0.14849077884219045,0.6766861704950359,-0.4646270296330249,0.3908713339941883,0.003937674463598851,-0.5830072044467267,1,left
