time,gFx,gFy,gFz,ax,ay,az,wx,wy,wz,subject_number,foot
8.922,-0.039491047616701545,1.3504885049283444,-0.13514626970492996,1.6007373187580203,0.9454697569767415,0.14757615333822102,-0.3453732283354978,1.974244170824718,-1.4076016638672528,1,right
8.925,-0.05010926927553609,1.3503482722477496,-0.13603900066834027,1.6411664005007274,1.0106056157874277,0.12808544764418314,-0.33702469335561225,1.9542693190874467,-1.4224860720283505,1,right
8.926,-0.06086632049401746,1.3499337127935378,-0.13691407030852895,1.6805114451498506,1.0763181487097588,0.10866458217625626,-0.32866029565866833,1.9336847800667936,-1.4366685435763613,1,right
8.93,-0.07174775150268664,1.3492477471350643,-0.13777086142572992,1.7187068403247001,1.142559824278321,0.08932048616845334,-0.32029202891571334,1.912513724033896,-1.4501458776490048,1,right
8.931000000000001,-0.08273852785859064,1.3482938874429469,-0.13860862893300255,1.7556869163017503,1.2092810507047826,0.07006007981764915,-0.3119316198789552,1.8907794294235207,-1.4629151888783904,1,right
8.932,-0.09382305393565979,1.3470762163759273,-0.13942649986758152,1.7913861542897307,1.2764302004658004,0.05089026692816898,-0.3035905110442113,1.8685052598282952,-1.4749739224934657,1,right
8.936,-0.10498520278485114,1.3455993606048042,-0.1402234734008585,1.8257393999694538,1.3439536400276266,0.03181792718794591,-0.29527984458108897,1.8457146420041206,-1.486319868707768,1,right
8.937000000000001,-0.11620835260863789,1.3438684594446781,-0.14099842074995012,1.8586820769171957,1.4117957652209032,0.012849908592515972,-0.28701044750690424,1.8224310448243735,-1.4969511764291652,1,right
8.94,-0.12747543001233547,1.3418891292056845,-0.14175008514075924,1.8901503958985792,1.4798990426998715,-0.006006979609515869,-0.27879281808040124,1.7986779591189617,-1.5068663663262134,1,right
8.941,-0.13876896005912356,1.339667424007536,-0.1424770821644547,1.9200815584853275,1.5482040577764367,-0.024745973332838404,-0.27063711339142194,1.7744788783328134,-1.5160643432837284,1,right
8.943999999999999,-0.15007112292723104,1.3372097938634682,-0.14317790098767258,1.9484139548150199,1.6166495688399458,-0.04336035945952186,-0.2625531381227922,1.7498572799369623,-1.524544408278103,1,right
8.946,-0.16136381668879907,1.3345230408381739,-0.14385090688260468,1.9750873555841166,1.6851725685581995,-0.061843481084986815,-0.25455033446083963,1.7248366075240413,-1.5323062697008556,1,right
8.95,-0.17262872547230645,1.3316142740622752,-0.14449434543686332,2.0000430983601025,1.7537083520557835,-0.08018874225967194,-0.2466377731311346,1.6994402535187205,-1.539350054156829,1,right
8.95,-0.18384739208171796,1.3284908643511377,-0.1451063486309436,2.0232242682940123,1.8221905922662125,-0.09838961227986051,-0.238824145536252,1.673691542432407,-1.5456763167614034,1,right
8.954,-0.19500129404224462,1.3251603991220011,-0.14568494279315344,2.044575873309836,1.8905514226545963,-0.11643962958074844,-0.23111775697258338,1.6476137145903784,-1.551286050959019,1,right
8.955,-0.2060719220195215,1.3216306382276461,-0.14622805831034633,2.064045013842376,1.958721527507564,-0.134332405284441,-0.22352652090348743,1.6212299102584458,-1.556180697883242,1,right
8.959,-0.2170408595985369,1.317909471231828,-0.14673354091866644,2.081581047190026,2.026630239987041,-0.15206162645515017,-0.21605795426634997,1.594563154095225,-1.5603621552765568,1,right
8.96,-0.2278898634879407,1.314004876552938,-0.14719916441634334,2.097135746543702,2.094205648144103,-0.16962105911343242,-0.20871917379143276,1.5676363398551536,-1.5638327859859973,1,right
8.966000000000001,-0.23860094330967022,1.3099248828085825,-0.14762264469111167,2.1106634547477365,2.1613747090885957,-0.18700455106085373,-0.20151689331071884,1.5404722152665071,-1.5665954260486803,1,right
8.967,-0.24915644021915645,1.3056775326084256,-0.14800165499081258,2.122121232843017,2.2280633715094442,-0.20420603456600028,-0.19445742203531516,1.5130933670078588,-1.5686533923792665,1,right
8.97,-0.2595391036592021,1.301270848964334,-0.14833384235746655,2.1314690034369512,2.294196706739625,-0.22121952896226516,-0.18754666378034468,1.4855222057056776,-1.570010490069318,1,right
8.971,-0.26973216557452895,1.2967128044154665,-0.14861684509014,2.1386696889390286,2.3596990485585976,-0.23803914320733546,-0.18079011711665074,1.4577809508750779,-1.5706710193064972,1,right
8.975,-0.279719411413237,1.292011292903996,-0.14884831102249524,2.1436893446948067,2.424494141923613,-0.2546590784537831,-0.17419287642904668,1.4298916157251171,-1.5706397819195315,1,right
8.976,-0.28948524723427704,1.2871741043879923,-0.14902591633159393,2.1464972870450985,2.4885053008197224,-0.2710736306796213,-0.1677596338612704,1.401875991749486,-1.569922087552846,1,right
8.979,-0.2990147622418375,1.2822089021451575,-0.1491473845628158,2.1470662163309697,2.551655575416488,-0.2872771934271327,-0.16149468212824405,1.3737556330229426,-1.5685237594727772,1,right
8.98,-0.3082937860870331,1.2771232027078265,-0.14921050556926005,2.145372334858902,2.6138679287173723,-0.3032642606977012,-0.15540191817669727,1.3455518401234192,-1.566451140005287,1,right
8.984,-0.31730894031992457,1.2719243583768123,-0.1492131541104119,2.141395459834131,2.675065422885528,-0.31902943004979073,-0.14948484767568268,1.3172856435993723,-1.5637110956031222,1,right
8.986,-0.32604768344365137,1.2666195422861977,-0.14915330790870338,2.1351191312637376,2.735171415427239,-0.33456740594660744,-0.14374659031899398,1.2889777869016301,-1.5603110215384284,1,right
8.988999999999999,-0.3344983491168639,1.261215736024975,-0.14902906499762092,2.1265307148245913,2.7941097654115588,-0.3498730033993591,-0.1381898859219914,1.260648708698768,-1.5562588462148692,1,right
8.99,-0.3426501771661265,1.25571971985062,-0.1488386602026083,2.115621499684677,2.851805049901788,-0.3649411519513911,-0.13281710128745394,1.2323185245362887,-1.551563035080595,1,right
8.99,-0.3504933371962432,1.2501380655395096,-0.1485804805944254,2.1023867912597547,2.908182790771306,-0.37976690004782326,-0.12763023777364374,1.2040070080069338,-1.5462325940674835,1,right
8.995,-0.35801894471027446,1.2444771319046433,-0.148253079762854,2.086825998880653,2.963169692072889,-0.3943454198346461,-0.12263093942278623,1.1757335719723176,-1.5402770723829708,1,right
8.996,-0.36521906976936136,1.2387430629789096,-0.1478551907659488,2.0689427183398603,3.016693888127112,-0.40867201243055196,-0.11782050146674967,1.1475172505832252,-1.5337065644249146,1,right
8.999,-0.37208673834748235,1.2329417888167071,-0.14738573760588264,2.048744809279377,3.0686852024916353,-0.42274211371408155,-0.1131998790691881,1.1193766826388114,-1.5265317106421363,1,right
9.0,-0.3786159266648087,1.2270790288110032,-0.1468438450909313,2.0262444672515207,3.119075417466209,-0.43655130063820075,-0.10876969623945305,1.0913300964521253,-1.5187636972587326,1,right
9.0,-0.38480154887053236,1.2211602973758648,-0.14622884698386804,2.001458289659562,3.167798551269216,-0.45009529793492253,-0.1045302548960681,1.0633952961823774,-1.5104142548324975,1,right
9.003,-0.39063943846855387,1.215190911822711,-0.14554029239325125,1.9744073336658026,3.2147911354904575,-0.46336998480405617,-0.10048154406649322,1.0355896495531487,-1.501495655626867,1,right
9.004,-0.3961263239070243,1.2091760022398403,-0.14477795041470565,1.9451171635299682,3.2599924829054885,-0.4763714010306392,-0.09662324921045333,1.0079300768760113,-1.4920207097740985,1,right
9.008,-0.40125979885405877,1.2031205231424749,-0.1439418130700781,1.9136178854523649,3.3033449382468247,-0.4890957521236235,-0.09295476165465201,0.9804330412993456,-1.4820027602057215,1,right
9.01,-0.4060382878121826,1.1970292666120177,-0.14303209662074035,1.879944169102381,3.3447941090491,-0.5015394133354103,-0.08947518812723887,0.9531145402025135,-1.4714556763246718,1,right
9.014,-0.41046100780866107,1.1909068766142745,-0.1420492413398832,1.8441352556246349,3.384289076194931,-0.5136989325698197,-0.08618336038094535,0.9259900976559668,-1.460393846391915,1,right
9.014,-0.41452792693145524,1.1847578641703012,-0.1409939098164782,1.8062349520323504,3.4217825842859133,-0.5255710322150413,-0.08307784489434862,0.8990747578683299,-1.4488321685988144,1,right
9.017999999999999,-0.41823972048301217,1.178586623034263,-0.13986698384193297,1.7662916118913132,3.457231211957712,-0.5371526099373058,-0.08015695264126507,0.8723830795420139,-1.436786040794967,1,right
9.02,-0.4215977255039509,1.1723974455089454,-0.13866955991320137,1.7243581021916323,3.4905955222526037,-0.5484407384702004,-0.07741874891881373,0.8459291310594721,-1.4242713488397742,1,right
9.023,-0.42460389438167245,1.1661945380082608,-0.13740294337926634,1.6804917562985278,3.521840193157084,-0.5594326644337273,-0.07486106322522469,0.8197264864228087,-1.411304453544555,1,right
9.024,-0.4272607482169229,1.1599820359639839,-0.13606864125972448,1.6347543128675204,3.550934128406291,-0.5701258062163721,-0.07248149917899754,0.7937882218700918,-1.397902176170638,1,right
9.027999999999999,-0.4295713305850286,1.1537640176771176,-0.1346683537704849,1.5872118406036757,3.577850548651018,-0.5805177509525995,-0.07027744447153882,0.7681269130924058,-1.3840817824475138,1,right
9.029,-0.431539162299863,1.1475445167382397,-0.13320396460200318,1.5379346487390244,3.602567063076997,-0.5906062506273513,-0.06824608084592587,0.7427546329763974,-1.3698609650738325,1,right
9.033,-0.43316819775907645,1.1413275326877537,-0.13167753001435006,1.4869971830969053,3.6250657215599875,-0.600389217338258,-0.06638439409495575,0.7176829497978287,-1.3552578246627853,1,right
9.033999999999999,-0.4344627834042025,1.1351170396525965,-0.13009126684250405,1.4344779076068082,3.6453330474339376,-0.609864717745414,-0.06468918407214115,0.6929229257924447,-1.3402908490922012,1,right
9.038,-0.4354276187575728,1.1289169927749287,-0.12844753954145877,1.3804591711283176,3.6633600509431847,-0.619030966737692,-0.06315707470981158,0.6684851160312957,-1.3249788912185512,1,right
9.039,-0.4360677203988503,1.1227313323363175,-0.12674884643972553,1.3250270594379954,3.679142223443299,-0.6278863203436974,-0.061784524038964624,0.6443795675285083,-1.3093411449129435,1,right
9.043,-0.4363883891264419,1.1165639855753116,-0.1249978054041586,1.2682712322285037,3.692679512408771,-0.6364292679145783,-0.06056783420599019,0.6206158185104039,-1.2933971193761578,1,right
9.044,-0.4363951804252469,1.1104188662929886,-0.12319713913974582,1.2102847449649752,3.703976277299327,-0.6446584236050212,-0.05950316148185875,0.5972028977757805,-1.2771666116887705,1,right
9.049,-0.436093878241891,1.1042998724297493,-0.12134966035403578,1.151163855439581,3.713041226330201,-0.6525725171778671,-0.05858652625982262,0.5741493240781308,-1.2606696775514923,1,right
9.049,-0.4354904719586064,1.098210881862474,-0.11945825701407523,1.0910078148614524,3.7198873341852705,-0.6601703841568871,-0.05781382303812688,0.5514631054615478,-1.2439266001699545,1,right
9.052999999999999,-0.434591136366936,1.0921557467044916,-0.11752587791742443,1.0299186433155803,3.724531740705523,-0.6674509553513541,-0.0571808303846627,0.5291517384830782,-1.2269578572373632,1,right
9.055,-0.4334022143871079,1.0861382863941136,-0.1155555187834684,0.9680008894210765,3.726995630578919,-0.6744132457751446,-0.056683220880921106,0.507222207255314,-1.209784085967675,1,right
9.058,-0.43193020226844064,1.0801622798413446,-0.11355020904309682,0.9053613740161959,3.7273040940513655,-0.6810563429821941,-0.05631657104301813,0.4856809822440662,-1.1924260461312384,1,right
9.059,-0.43018173703743123,1.0742314568741158,-0.11151299946741677,0.8421089176948534,3.7254859686721753,-0.6873793948392191,-0.056076371214364026,0.4645340187875067,-1.174904581112363,1,right
9.059,-0.4281635860185629,1.0683494891832448,-0.10944695073545317,0.7783540520169958,3.721573662081151,-0.6933815967557043,-0.05595803540693794,0.4437867554565798,-1.1572405773485133,1,right
9.062999999999999,-0.4258826383163038,1.0625199809140136,-0.10735512300083708,0.7142087142131118,3.715602955838244,-0.6990621783902384,-0.055956911036106595,0.4234441126517821,-1.1394549231237752,1,right
9.064,-0.4233458981917096,1.056746459016974,-0.10524056648140025,0.6497859252014146,3.707612790290628,-0.7044203898513588,-0.05606828847628934,0.40351049198486083,-1.1215684680296,1,right
9.067,-0.4205604802823535,1.051032363466635,-0.10310631306265018,0.5851994507347847,3.6976450304660324,-0.709455487410148,-0.056287410383121114,0.3839897768428066,-1.1036019840645932,1,right
9.068,-0.4175336066054164,1.0453810374642314,-0.10095536887257643,0.5205634454934444,3.6857442129752624,-0.7141667187408993,-0.05660948076050055,0.3648853342584977,-1.0855761287312844,1,right
9.068999999999999,-0.4142726052614,1.0397957177359116,-0.09879070775515335,0.4559920805730554,3.6719572744391935,-0.7185533077435743,-0.0570296737692331,0.346200018061205,-1.0675114101467122,1,right
9.071,-0.41078491073348955,1.0342795250183994,-0.09661526555544875,0.39159915799003536,3.6563332646405895,-0.7226144391925142,-0.05754314227788832,0.327936173250887,-1.0494281541152473,1,right
9.072000000000001,-0.4070780656624339,1.0288354548012721,-0.09443193513274521,0.3274977215363808,3.6389230524388783,-0.726349243799933,-0.05814502615678618,0.3100956415413987,-1.0313464731119202,1,right
9.077,-0.4031597239511812,1.0234663683849385,-0.09224356202302893,0.2637996764890486,3.6197790351713555,-0.7297567844734532,-0.058830460316308876,0.2926797680189417,-1.0132862371244016,1,right
9.078,-0.3990376549992408,1.0181749843246581,-0.09005294066549029,0.20061542750687922,3.59895485956827,-0.7328360443543434,-0.05959458249100303,0.27568940886329224,-0.9952670463017255,1,right
9.083,-0.3947197488025469,1.0129638703510528,-0.08786281109934926,0.13805353833824663,3.576505157360767,-0.7355859168771842,-0.06043254077119058,0.2591249400805594,-0.9773082053578602,1,right
9.083,-0.3902140216111516,1.0078354358711694,-0.0856758560420129,0.07622041379120104,3.552485296064963,-0.7380051978990819,-0.06133950088404714,0.24298626719744393,-0.9594286996782839,1,right
9.086,-0.3855286218204628,1.0027919251598036,-0.08349469827496588,0.015220003784825657,3.5269511448824473,-0.7400925799072721,-0.06231065322633243,0.22727283586818897,-0.9416471730778423,1,right
9.087,-0.38067183577235597,0.9978354113511801,-0.08132189827961911,-0.04484647069768636,3.499958855652845,-0.7418466483130131,-0.06334121965116955,0.21198364334663855,-0.9239819071583395,1,right
9.091000000000001,-0.3756520931520467,0.9929677913363568,-0.07915995207797655,-0.10388076993164154,3.4715646587895446,-0.7432658798387133,-0.0644264600114683,0.19711725077703934,-0.9064508022145377,1,right
9.092,-0.3704779716804885,0.98819078166261,-0.0770112892444525,-0.16178786622416197,3.4418246741253675,-0.744348643004288,-0.06556167846277204,0.1826717962584438,-0.8890713596375237,1,right
9.097999999999999,-0.36515820081900735,0.9835059155183372,-0.07487827106682962,-0.21847615331055104,3.4107947365907565,-0.7450932007177808,-0.06674222952847847,0.16864500863878945,-0.8718606657647353,1,right
9.099,-0.35970166422435185,0.9789145408709946,-0.07276318884580715,-0.2738576345430942,3.378530236643036,-0.7454977149743223,-0.06796352393054167,0.15503422199594324,-0.8548353771263191,1,right
9.101,-0.354117400720156,0.974417819806834,-0.07066826233306307,-0.327848090038449,3.345085975361429,-0.7455602536665339,-0.0692210341889069,0.14183639076420823,-0.8380117070379347,1,right
9.102,-0.34841460358525256,0.9700167290994012,-0.06859563831535744,-0.38036722294628517,3.310516034118812,-0.7452787995085116,-0.0705102999930594,0.12904810546599135,-0.8214054134905955,1,right
9.106,-0.34260261799905906,0.9657120620073968,-0.06654738935403319,-0.4313387849980902,3.2748736587376275,-0.744651261074547,-0.07182693334918584,0.11666560900952584,-0.8050317882886737,1,right
9.107000000000001,-0.33669093652734344,0.9615044312703104,-0.06452551268505513,-0.4806906814910669,3.238211158034009,-0.7436754859527608,-0.07316662350655162,0.10468481351472693,-0.7889056473877739,1,right
9.111,-0.3306891925761318,0.9573942732326002,-0.06253192927878581,-0.5283550558578329,3.2005798166509143,-0.7423492760128376,-0.07452514166678806,0.09310131763043561,-0.7730413223848017,1,right
9.112,-0.3246071517871222,0.9533818529877163,-0.0605684830556207,-0.5742683539681939,3.1620298220779874,-0.7406704047860521,-0.0758983454798625,0.08191042430746973,-0.7574526531132226,1,right
9.116,-0.318454701395846,0.9494672703989024,-0.058636940254093134,-0.6183713683046193,3.122610205752946,-0.7386366369547795,-0.077282183330571,0.07110715899305561,-0.7421529812972169,1,right
9.117,-0.31224183762309027,0.945650466832209,-0.05673898894968962,-0.6606092621482115,3.0823687981364913,-0.7362457499476777,-0.07867269841944709,0.06068628821335377,-0.7271551452191839,1,right
9.121,-0.30597865121662066,0.9419312324337582,-0.05487623872166991,-0.7009315739069366,3.0413521976500983,-0.7334955576357094,-0.08006603264202286,0.05064233851191927,-0.7124714753558457,1,right
9.122,-0.299675311299894,0.9383092137981026,-0.0530502204586389,-0.739292201712695,2.999605753363558,-0.7303839361231609,-0.08145843027040935,0.04096961571305093,-0.6981137909390217,1,right
9.125,-0.2933420477157942,0.9347839219020286,-0.05126238628198975,-0.7756493684084629,2.9571735613167625,-0.7269088516267818,-0.08284624144118219,0.031662224480080915,-0.6840933973980213,1,right
9.126,-0.2869891320727228,0.9313547402106452,-0.049514109554588244,-0.8099655670412363,2.9140984743580005,-0.7230683904351429,-0.08422592545242738,0.02271408812553248,-0.6704210846405323,1,right
9.127,-0.28062685769602486,0.9280209328933031,-0.04780668493654512,-0.8422074869708936,2.870422125378937,-0.7188607909392662,-0.08559405386709826,0.014118968560106575,-0.6571071261250231,1,right
9.13,-0.27426551865982346,0.9247816531102626,-0.046141328452276885,-0.8723459206993351,2.8261849638244634,-0.7142844777245418,-0.08694731340956133,0.00587048614064804,-0.6441612786699951,1,right
9.131,-0.2679153880552306,0.9216359513434843,-0.044519177538708175,-0.9003556515184109,2.781426305353777,-0.7093380977128951,-0.08828250863648472,-0.0020378608927588806,-0.6315927829416199,1,right
9.135,-0.2615866956657088,0.918582783747712,-0.04294129105091485,-0.9262153220691972,2.7361843945272972,-0.704020558343113,-0.08959656436889048,-0.009612677628369459,-0.6194103645671272,1,right
9.136000000000001,-0.2552896052431383,0.9156210204965649,-0.04140864921133218,-0.9499072843230403,2.6904964801153883,-0.6983310677001652,-0.09088652788241078,-0.016860654451980886,-0.6076222358310058,1,right
9.137,-0.24903419156898157,0.9127494540976153,-0.03992215349998894,-0.9714174336081507,2.644398901238188,-0.6922691761232168,-0.09214957085843713,-0.023788549810697546,-0.5962360979169763,1,right
9.142000000000001,-0.24283041744666217,0.909966807651379,-0.03848262648975173,-0.9907350331144142,2.5979271800511268,-0.6858348181368263,-0.0933829910999307,-0.030403173793033988,-0.5852591436607508,1,right
9.142999999999999,-0.23668811074315926,0.9072717430281901,-0.037090811632708956,-1.0078525374223335,2.5511161153042767,-0.6790283531686795,-0.09458421401559401,-0.03671137254619163,-0.5746980607797352,1,right
9.145,-0.23061694160273033,0.9046628689309216,-0.0357473730075696,-1.0227654214762862,2.503999872487654,-0.6718506038962162,-0.09575079387602597,-0.04272001355042594,-0.5645590355469792,1,right
9.146,-0.2246263999754226,0.902138748803373,-0.03445289504453246,-1.0354720176009413,2.456612068766844,-0.6643028917475751,-0.09688041484539843,-0.04843597176952076,-0.5548477568778549,1,right
9.149,-0.21872577361438603,0.8996979085388234,-0.03320788224846916,-1.0459733610338926,2.408985852297514,-0.6563870694612903,-0.09797089179209942,-0.053866116695506415,-0.5455694207991376,1,right
9.15,-0.21292412669916558,0.8973388439410042,-0.03201275893843151,-1.054273044017348,2.3611539757835267,-0.6481055506841235,-0.09902017088168975,-0.05901730030489769,-0.5367287352713745,1,right
9.155,-0.20723027924394166,0.8950600278873752,-0.0308678690115752,-1.0603770784853783,2.3131488641426032,-0.6394613365853503,-0.10002632995541302,-0.06389634594288679,-0.5283299253366556,1,right
9.156,-0.20165278744825113,0.8928599171405031,-0.02977347572807687,-1.0642937673768995,2.265002676142777,-0.6304580394647704,-0.10098757869738743,-0.06851003815110543,-0.5203767385651403,1,right
9.16,-0.1961999251379027,0.8907369587491764,-0.02872976150804153,-1.0660335845982474,2.2167473598723135,-0.6210999033306535,-0.10190225859348948,-0.0728651134537688,-0.5128724507749558,1,right
9.161,-0.19087966642483886,0.8886895959791989,-0.027736827736918962,-1.0656090636528928,2.1684147019052507,-0.6113918214227978,-0.10276884268481623,-0.0769682521162321,-0.5058198720013428,1,right
9.164,-0.18569966969146526,0.8867162737160129,-0.02679469459125969,-1.0630346949495775,2.1200363700243168,-0.6013393506548471,-0.10358593511848385,-0.08082607088922804,-0.4992213526922129,1,right
9.165,-0.18066726298358685,0.8848154432882969,-0.02590330091400053,-1.0583268317938912,2.071643949362673,-0.5909487229489914,-0.1043522704983869,-0.0844451167513109,-0.49307879010856337,1,right
9.17,-0.1757894308796524,0.8829855666734835,-0.025062504178764253,-1.0515036050621018,2.023268971825703,-0.5802268534351757,-0.10506671303840467,-0.08783186166130846,-0.48739363490949467,1,right
9.171,-0.17107280289233556,0.881225120059484,-0.024272080580447053,-1.0425848465498815,1.974942938653937,-0.5691813454859533,-0.10572825552039934,-0.0909926983318783,-0.4821668979028789,1,right
9.177,-0.16652364344961762,0.8795325967473173,-0.02353172527556698,-1.0315920209824394,1.9266973359881607,-0.5578204925571467,-0.10633601805920465,-0.09393393703457918,-0.4773991569440371,1,right
9.177999999999999,-0.16214784349377834,0.8779065093858572,-0.02284105277799211,-1.0185481666665062,1.8785636432978075,-0.5461532768035323,-0.10688924667665571,-0.09666180344620023,-0.4730905639660944,1,right
9.179,-0.15795091372674558,0.8763453915362026,-0.02219959750304612,-1.0034778447585917,1.8305733345338764,-0.5341893644378373,-0.10738731168655834,-0.09918243754544208,-0.46924085212700034,1,right
9.18,-0.15393797952057267,0.874847798574393,-0.021606814449177985,-0.9864070971179889,1.7827578718678447,-0.5219390978004295,-0.10782970589234199,-0.10150189356841244,-0.46584934305951764,1,right
9.185,-0.15011377750417548,0.87341230795953,-0.021062080008967116,-0.967363412707103,1.7351486918783678,-0.509413484106205,-0.10821604259898464,-0.10362614103078607,-0.46291495421180184,1,right
9.186,-0.146482653831224,0.8720375189173498,-0.02056469290843231,-0.9463757024958712,1.6877771840479738,-0.49662418083432713,-0.10854605344063897,-0.1055610668238832,-0.46043620626751086,1,right
9.189,-0.1430485641262439,0.8707220516131453,-0.020113875285459232,-0.9234742828212908,1.6406746614324543,-0.48358347772564825,-0.10881958602523016,-0.10731247839134227,-0.45841123063569933,1,right
9.191,-0.13981507509271324,0.8694645459114778,-0.019708773931432565,-0.8986908671474114,1.5938723233662537,-0.4703042753518561,-0.10903660139713435,-0.10888610799250224,-0.4568377770020648,1,right
9.193999999999999,-0.13678536774614958,0.8682636598436899,-0.019348461728589974,-0.8720585661655638,1.5474012100678396,-0.4568000602196323,-0.10919717131888552,-0.11028761805806564,-0.4557132209344209,1,right
9.195,-0.1339622422083186,0.8671180679258321,-0.019031939314864316,-0.8436118961691047,1.5012921490098048,-0.4430848763723875,-0.10930147537269676,-0.11152260764308564,-0.4550345715365754,1,right
9.195,-0.1313481239717946,0.8660264594818808,-0.018758136997783358,-0.8133867956315527,1.4555756929193227,-0.42917329345145444,-0.10934979788523778,-0.11259661995533642,-0.4547984791485293,1,right
9.199,-0.1289450715282785,0.8649875371191177,-0.018525916923836414,-0.7814206499116813,1.4102820492755168,-0.4150803711779754,-0.1093425246930443,-0.11351515080426046,-0.45500124310441137,1,right
9.201,-0.1267547852524446,0.8640000154747015,-0.01833407549616609,-0.7477523240039278,1.3654410011713576,-0.40082162021611567,-0.10928013979114196,-0.11428365757694217,-0.45563881958281816,1,right
9.204,-0.12477861742615061,0.8630626203253371,-0.018181346024440433,-0.7124222032473697,1.3210818194088145,-0.3864129593776705,-0.10916322192140217,-0.11490756821472431,-0.45670682959770914,1,right
9.205,-0.12301758326055852,0.8621740881388672,-0.018066401587253363,-0.6754722416517336,1.2772331659707392,-0.37187066921929934,-0.10899244114289293,-0.11539228979600712,-0.4582005671670596,1,right
9.205,-0.12147237274922455,0.8613331661335272,-0.017987858091274015,-0.63694601624507,1.2339229903818736,-0.3572113425415708,-0.1087685554009599,-0.11574321656860531,-0.4601150076757434,1,right
9.209,-0.1201433631867139,0.8605386128849323,-0.01794427752038337,-0.596888783594863,1.1911784229344822,-0.3424518331237364,-0.1084924070975223,-0.11596573740699309,-0.46244481643814545,1,right
9.209,-0.11903063219010916,0.8597891994911364,-0.017934171375712862,-0.5553475334007456,1.149025670123194,-0.3276092044861958,-0.10816491966209452,-0.11606524269584087,-0.4651843574647844,1,right
9.214,-0.11813397103572527,0.8590837112818329,-0.017956004310279276,-0.512371035301413,1.1074899162675673,-0.31270068001385265,-0.10778709412289196,-0.11604713064086375,-0.4683277024384338,1,right
9.215,-0.1174528980893296,0.858420950039209,-0.018008197961198184,-0.468009877282031,1.066595232840783,-0.29774359494810887,-0.1073600056772301,-0.11591681300763267,-0.47186863990642197,1,right
9.218,-0.11698667209690584,0.8577997366852892,-0.01808913498145898,-0.4223164953131157,1.026364495656955,-0.28275535029658017,-0.10688480026027791,-0.11567972028864552,-0.4758006846969686,1,right
9.219,-0.11673430511589608,0.8572189143857156,-0.01819716327312975,-0.37534519409753697,0.9868193097977876,-0.2677533686177427,-0.10636269111108272,-0.11534130629861784,-0.4801170875685743,1,right
9.222999999999999,-0.11669457489029482,0.8566773520214965,-0.018330600422389827,-0.3271521587983182,0.9479799421611489,-0.2527550516375793,-0.10579495533464191,-0.11490705219763057,-0.4848108451026209,1,right
9.224,-0.11686603649983965,0.8561739479831576,-0.018487738331380718,-0.27779545761608665,0.9098652615160352,-0.23777773965520693,-0.10518293045865904,-0.1143824699414656,-0.48987470985046466,1,right
9.229,-0.11724703314222878,0.8557076342403304,-0.018666848032580535,-0.22733503508135702,0.8724926859503679,-0.22283867269442534,-0.10452801098348724,-0.11377310515816842,-0.49530120074740625,1,right
9.229,-0.1178357059377961,0.8552773806312778,-0.018866184660783585,-0.1758326959233301,0.8358781376000863,-0.20795495335813796,-0.10383164492363181,-0.11308453944960253,-0.5010826138070062,1,right
9.232999999999999,-0.11863000267946133,0.8548821993021,-0.019083992549055018,-0.12335207937354475,0.8000360045500825,-0.19314351134265703,-0.10309533033905682,-0.11232239211650041,-0.5072110331102768,1,right
9.234,-0.11962768548791185,0.8545211492074707,-0.01931851041034898,-0.06995862375955876,0.7649791097996503,-0.17842106956901335,-0.10232061185441745,-0.11149232130527266,-0.5136783421053225,1,right
9.238,-0.12082633737166933,0.8541933405674716,-0.019567976565998242,-0.015719521240842107,0.7307186871872962,-0.16380411188855015,-0.10150907716422063,-0.11060002457460931,-0.5204762352340205,1,right
9.238999999999999,-0.12222336773054165,0.8538979391619289,-0.01983063418451322,0.039296337463738756,0.6972643641719728,-0.1493088523202879,-0.10066235352180251,-0.109651238879696,-0.5275962299033298,1,right
9.243,-0.12381601687594979,0.8536341703371821,-0.02010473649734989,0.09501842851008628,0.6646241513700527,-0.13495120577780192,-0.09978210420990005,-0.10865173997167278,-0.5350296788197884,1,right
9.244,-0.12560135967268773,0.8534013226015879,-0.020388551961782717,0.15137467068035285,0.6328044387496405,-0.12074676024365708,-0.0988700249904894,-0.10760734120978463,-0.5427677827067106,1,right
9.247,-0.1275763084355037,0.8531987506946431,-0.02068036934484524,0.2082915116096314,0.6018099983861358,-0.1067107503497925,-0.09792784053146206,-0.1065238917835103,-0.5508016034245181,1,right
9.248,-0.12973761524076877,0.8530258780282891,-0.020978502707607826,0.26569402464777536,0.5716439936852934,-0.09285803232264477,-0.09695730080761368,-0.10540727434181091,-0.5591220775155409,1,right
9.255,-0.13208187383683342,0.8528821984153611,-0.02128129627699029,0.3235060165180854,0.542307994982383,-0.07920306025223645,-0.09596017747332909,-0.10426340202651058,-0.5677200301954982,1,right
9.256,-0.13460552135506212,0.852767277016842,-0.02158712920101542,0.3816501459362092,0.513802001428415,-0.06575986364494016,-0.09493826020426072,-0.10309821490670937,-0.5765861898147193,1,right
9.259,-0.13730484003660012,0.852680750453664,-0.02189442018850899,0.4400480533539918,0.4861244690767772,-0.05254202622015434,-0.09389335300521615,-0.10191767581103338,-0.585711202812986,1,right
9.259,-0.1401759591972967,0.8526223260387427,-0.022201632032447276,0.49862050199418867,0.4592723450860084,-0.03956266591169385,-0.09282727048139412,-0.1007277655544488,-0.5950856491926783,1,right
9.262,-0.14321485765442837,0.8525917800928173,-0.02250727600697372,0.5572875303429051,0.4332411079568149,-0.026834416035305748,-0.09174183407003719,-0.09953447755630558,-0.6047000585356701,1,right
9.264,-0.14641736683104867,0.8525889553180143,-0.022809916114824316,0.6159686162673534,0.40802481372381383,-0.014369407584367347,-0.09063886823462465,-0.09834381185709465,-0.6145449265644167,1,right
9.265,-0.14977917472912033,0.8526137572175752,-0.023108173151945167,0.674582852927018,0.38361614802485383,-0.0021792526165074324,-0.08952019664927663,-0.0971617685956885,-0.6246107321196048,1,right
9.267999999999999,-0.15329583092276894,0.8526661495683289,-0.02340072855434888,0.7330491366465904,0.3600064839731202,0.009724971305388082,-0.08838763844707803,-0.09599434110658789,-0.6348879541956287,1,right
9.269,-0.1569627526910357,0.8527461489785806,-0.02368632799379195,0.7912863669190751,0.33718594575956856,0.021332735653569704,-0.08724300463158872,-0.09484750885101767,-0.645367088547036,1,right
9.272,-0.16077523239938957,0.8528538186048508,-0.023963784687428887,0.8492136587072732,0.315143477915549,0.03263407449221232,-0.08608809472515343,-0.09372723034142665,-0.6560386635085018,1,right
9.273,-0.16472844623118346,0.852989261154567,-0.024231982385078833,0.9067505672114303,0.2938669201677752,0.04361959708477253,-0.08492469368149097,-0.092639436121226,-0.6668932549032995,1,right
9.273,-0.1688174643432417,0.8531526113540858,-0.024489878000333226,0.9638173248449176,0.2733430877160246,0.05428049957206581,-0.08375456906440007,-0.09159002180734686,-0.6779215000445938,1,right
9.277000000000001,-0.1730372624806016,0.8533440280887867,-0.02473650385724402,1.0203350880326567,0.2535578562460201,0.06460857567446379,-0.08257946848926766,-0.09058484119241184,-0.689114110860194,1,right
9.277999999999999,-0.17738273504699636,0.8535636864187749,-0.02497096953154592,1.0762261876185908,0.2344962500558439,0.07459622625213876,-0.08140111732404154,-0.08962969940340784,-0.7004618861719304,1,right
9.283,-0.1818487095839378,0.8538117696769464,-0.02519246327432736,1.1314143745408825,0.21614253115622584,0.08423646749047983,-0.08022121664630966,-0.0887303461138587,-0.7119557231613122,1,right
9.283999999999999,-0.1864299625492676,0.8540884618970266,-0.025400253016177002,1.1858250545582167,0.19848028772733603,0.0935229375427218,-0.07904144145311387,-0.08789246880662172,-0.7235866280536034,1,right
9.286,-0.19112123620847418,0.854393940871635,-0.02559368696093425,1.2393855096360786,0.181492521253089,0.10244990157941834,-0.0778634391201169,-0.08712168608457746,-0.7353457260528943,1,right
9.287,-0.19591725637253013,0.8547283721667807,-0.025772193790797558,1.2920251057261316,0.16516173217616562,0.1110122552592655,-0.07668882810673645,-0.08642354102664086,-0.7472242705611697,1,right
9.292,-0.20081275064320714,0.8550919044180916,-0.025935282520058268,1.3436754870948475,0.14947000402297672,0.11920552664794072,-0.07551919690386093,-0.08580349458669896,-0.7592136517147655,1,right
9.293,-0.20580246676413805,0.855484666215832,-0.026082542051967965,1.3942707573551008,0.13439908594973024,0.1270258766105912,-0.0743561032207661,-0.0852669190332729,-0.7713054042719764,1,right
9.298,-0.21088119062626592,0.8559067648476044,-0.026213640503784382,1.4437476473517996,0.11993047366264818,0.13447009770255924,-0.0732010734078619,-0.08481909142791054,-0.7834912148859189,1,right
9.299,-0.21604376344360016,0.8563582871014979,-0.026328324360611322,1.4920456700497902,0.10604548866721711,0.1415356115818735,-0.07205560211191239,-0.08446518714053973,-0.7957629287970772,1,right
9.302,-0.22128509760464346,0.8568393022349804,-0.02642641750330998,1.5391072625692448,0.09272535580313694,0.1482204649659649,-0.0709211521603913,-0.08421027340025242,-0.8081125559802461,1,right
9.302,-0.22660019072241389,0.8573498670907144,-0.02650782014327469,1.5848779155105357,0.07995127902336349,0.154523324153987,-0.06979915467165806,-0.08405930288024414,-0.8205322767808622,1,right
9.306000000000001,-0.2319841374566974,0.857890033201594,-0.026572507697568824,1.6293062897072186,0.06770451537731663,0.16044346813503416,-0.06869100938766683,-0.08401710731590319,-0.8330144470759587,1,right
9.306000000000001,-0.2374321387668998,0.8584598555897401,-0.026620529650266653,1.672344320542207,0.05596644715994833,0.16598078030145771,-0.06759808522595265,-0.08408839115532774,-0.8455516029952059,1,right
9.311,-0.24293950836588743,0.8590594028445944,-0.026652008458273157,1.7139473099585105,0.04471865218993369,0.17113573878538588,-0.06652172104767465,-0.08427772524184776,-0.8581364652376966,1,right
9.312000000000001,-0.24850167627256717,0.8596887679773144,-0.02666713856055512,1.7540740062920641,0.03394297218176326,0.17590940543545358,-0.06546322663853563,-0.0845895405284406,-0.8707619430203206,1,right
9.317,-0.25411418949304404,0.8603480795001165,-0.026666185533433702,1.7926866720501902,0.023621579177976578,0.18030341344965073,-0.06442388389944155,-0.0850281218242547,-0.8834211376937285,1,right
9.317,-0.2597727099892564,0.861037512170066,-0.026649485402074943,1.8297511397551194,0.013737040009186002,0.1843199536790999,-0.06340494824381128,-0.0855976015737951,-0.8961073460620211,1,right
9.321,-0.26547301021228853,0.8617572968603792,-0.026617444077160782,1.8652368559677608,0.0042723787508967175,0.18796175961648035,-0.062407650198498865,-0.08630195366967568,-0.9088140634424189,1,right
9.322000000000001,-0.2712109665785689,0.8625077290698262,-0.02657053685080933,1.899116913602574,-0.004788862852565143,0.1912320910817261,-0.061433197205345104,-0.08714498730020678,-0.9215349865012662,1,right
9.325,-0.2769825513485797,0.8632891756460404,-0.026509307869375578,1.9313680726399507,-0.013462567025448508,0.1941347166165424,-0.06048277562043402,-0.08813034083346319,-0.9342640159027976,1,right
9.326,-0.2827838234287302,0.8641020793781693,-0.026434369503583424,1.9619707693379898,-0.021763983686522364,0.19667389459820941,-0.05955755290819196,-0.08926147573986341,-0.9469952588071572,1,right
9.331,-0.28861091865425426,0.8649469612068429,-0.026346401551910252,1.990909114040946,-0.02970767628963447,0.1988543530820758,-0.05865868002753226,-0.09054167055569054,-0.9597230312542011,1,right
9.332,-0.29446004011324123,0.8658244199006205,-0.02624615023408412,2.0181708776769582,-0.03730746980383387,0.20068126838109038,-0.057787294003139075,-0.09197401489281637,-0.9724418604578144,1,right
9.333,-0.3003274490194139,0.866735129143754,-0.02613442695143059,2.043747467032935,-0.044576400856936246,0.20216024238967606,-0.05694452065416118,-0.09356140351242846,-0.9851464869763659,1,right
9.335,-0.30620945654332876,0.8676798320568514,-0.026012106804513074,2.067633888889705,-0.05152667006538205,0.20329727865822098,-0.05613147741505199,-0.09530653050280263,-0.9978318666185048,1,right
9.336,-0.31210241693358737,0.8686593332386173,-0.025880126864333244,2.089828703095725,-0.05816959657224771,0.20409875722344728,-0.05534927616247649,-0.09721188361371919,-1.0104931718843648,1,right
9.341000000000001,-0.3180027222407887,0.8696744884890265,-0.025739484193064745,2.110333964652822,-0.06451557481431772,0.20457140819891934,-0.05459902598318241,-0.09927973878844677,-1.0231257928013153,1,right
9.341000000000001,-0.3239067989461591,0.8707261924421662,-0.025591233609931097,2.129155154882567,-0.07057403353820836,0.20472228412897134,-0.05388183585542882,-0.10151215491285596,-1.0357253371197523,1,right
9.342,-0.3298111067401145,0.8718153643740931,-0.025436485206213735,2.1463011018845655,-0.07635339709446098,0.20455873113751144,-0.05319881723754861,-0.10391096878956464,-1.048287629893468,1,right
9.345,-0.33571213960977037,0.8729429324412954,-0.025276401631472087,2.161783891230611,-0.08186104908672845,0.20408835904791714,-0.052551086561491836,-0.10647779034306007,-1.06080871248088,1,right
9.347000000000001,-0.341606429315891,0.874109816559806,-0.02511219519195541,2.175618769161381,-0.08710329854065997,0.2033190109115759,-0.05193976762929219,-0.10921399806221485,-1.0732848410033071,1,right
9.35,-0.34749055127933304,0.875316910095255,-0.02494512481756376,2.187824041285072,-0.09208534880534641,0.20225873252742285,-0.05136599391049677,-0.11212073468709138,-1.0857124842963712,1,right
9.351,-0.35336113284700765,0.8765650605286979,-0.02477649296454908,2.198420969035074,-0.09681126935034431,0.20091574238824597,-0.05083091073870078,-0.1151989031474115,-1.0980883213904853,1,right
9.355,-0.35921486386146195,0.8778550492713629,-0.024607642517136572,2.2074336648115014,-0.10128397053222261,0.19929840222640732,-0.05033567740543359,-0.11844916276055409,-1.110409238556262,1,right
9.356,-0.3650485094168151,0.8791875707961262,-0.024439953725051276,2.214888985989196,-0.10550518135476498,0.19741518818509265,-0.049881469149750224,-0.1218719256974331,-1.1226723259505378,1,right
9.36,-0.3708589246480203,0.8805632112403843,-0.024274841175099413,2.2208164278226974,-0.10947543023641039,0.1952746626112495,-0.04946947904199363,-0.12546735372510004,-1.1348748738985548,1,right
9.36,-0.37664307136844655,0.8819824266323828,-0.02411375075802966,2.225248015274131,-0.11319402879778455,0.19288544646558545,-0.04910091976030762,-0.12923535523540886,-1.1470143688476937,1,right
9.367,-0.38239803634074865,0.8834455209102293,-0.023958156564140846,2.228218193785482,-0.11665905868144971,0.19025619234423513,-0.04877702525859822,-0.13317558256957637,-1.159088489027976,1,right
9.368,-0.3881210509368346,0.8849526239412276,-0.02380955762508991,2.22976371901237,-0.11986736141527675,0.1873955581059656,-0.04849905232476249,-0.1372874296489668,-1.1710950998543876,1,right
9.37,-0.3938095119125508,0.8865036698050582,-0.02366947441767788,2.229923545532121,-0.12281453133011803,0.18431218109807468,-0.048268282028128696,-0.14157002992292397,-1.1830322491058929,1,right
9.371,-0.3994610029891759,0.8880983756701875,-0.023539445058963288,2.228738714534747,-0.12549491154172834,0.18101465297344857,-0.048086021055180166,-0.14602225464496896,-1.1948981619158174,1,right
9.377,-0.4050733168960599,0.8897362216582679,-0.0234210211468856,2.2262522405013527,-0.1279015930061411,0.17751149509057837,-0.04795360293276692,-0.15064271148917427,-1.2066912356080897,1,right
9.378,-0.41064447748782146,0.8914164321433358,-0.02331576323081012,2.222508996870533,-0.13002641665695375,0.17381113448769722,-0.04787238913814502,-0.15542974351901398,-1.2184100344136277,1,right
9.379,-0.4161727615068579,0.8931379589596363,-0.02322523592864052,2.2175556006894315,-0.13185997863220775,0.16992188042158302,-0.04784377009532292,-0.1603814285214773,-1.2300532841009566,1,right
9.38,-0.42165671951746775,0.8948994669871294,-0.02315100273793484,2.2114402962424236,-0.13339163859775943,0.16585190146098133,-0.04786916605733736,-0.16549557871971557,-1.2416198665549323,1,right
9.386000000000001,-0.4270951954923825,0.8966993225453117,-0.02309462061093293,2.2042128376467716,-0.13460953117322516,0.16160920312403648,-0.047950027874228446,-0.17076974087796998,-1.2531088143372329,1,right
9.387,-0.4324873444938961,0.8985355849560177,-0.02305763437125569,2.195924370401123,-0.13550058046574548,0.15720160604857492,-0.04808783764663481,-0.17620119681300045,-1.2645193052620634,1,right
9.39,-0.43783264787509135,0.9004060015399894,-0.02304157104463421,2.1866273118693895,-0.1360505177159428,0.15263672468356707,-0.04828410926508494,-0.18178696432670183,-1.275850657020299,1,right
9.391,-0.44313092544410176,0.9023080061979356,-0.02304793416636919,2.1763752306793607,-0.13624390205954293,0.14792194648959572,-0.04854038883522011,-0.18752379857505286,-1.287102321885071,1,right
9.394,-0.4483823440895576,0.9042387216021778,-0.02307819812226185,2.165222725012348,-0.13606414440718967,0.14306441163568556,-0.048858254989348135,-0.1934081938889948,-1.2982738815315735,1,right
9.395,-0.4535874224568015,0.9061949648991806,-0.023133802578655088,2.1532252997572723,-0.1354935344439986,0.13807099317939625,-0.049239319084895025,-0.1994363860632789,-1.3093650420036387,1,right
9.399,-0.45874703138742023,0.9081732567096296,-0.02321614705848645,2.140439242499857,-0.1345132707493705,0.13294827771665013,-0.049685225290494246,-0.20560435512975547,-1.3203756288594062,1,right
9.4,-0.463862389974916,0.9101698331310092,-0.023326585720668765,2.126921498315008,-0.13310349403650956,0.1277025464873547,-0.05019765055924321,-0.21190782862568566,-1.3313055825127578,1,right
9.401,-0.46893505721779744,0.9121806604232758,-0.023466422394939627,2.112729543328041,-0.1312433235099666,0.12233975692248968,-0.050778304481903215,-0.21834228533649097,-1.3421549537098707,1,right
9.405,-0.47396691934957375,0.9142014520885833,-0.023636905910985738,2.0979212570081374,-0.12891089633834854,0.11686552461795541,-0.05142892900052261,-0.22490295943591776,-1.35292389894124,1,right
9.406,-0.47896017301848626,0.9162276880828764,-0.02383922574313302,2.0825547931553348,-0.12608341023809946,0.11128510572012652,-0.05215129795621906,-0.23158484491540463,-1.3636126755122,1,right
9.408999999999999,-0.4839173046017969,0.918254635879828,-0.02407450797515898,2.0666884496109112,-0.12273716917228943,0.1056033797280726,-0.05294721645198787,-0.23838270022639393,-1.3742216360718345,1,right
9.41,-0.4888410660244274,0.9202773730923535,-0.02434381157457883,2.0503805370718546,-0.11884763221362628,0.09982483281886734,-0.05381852002408728,-0.24529105311653046,-1.3847512225387018,1,right
9.41,-0.49373444746826606,0.9222908113857047,-0.02464812495018724,2.0336892480231423,-0.11438946570342773,0.09395354198530596,-0.054767073622692855,-0.2523042056726159,-1.3952019594386644,1,right
9.415,-0.4986006473689223,0.9242897214375777,-0.024988362746120357,2.016672527152717,-0.10933659888343612,0.08799316037683846,-0.055794770404111335,-0.2594162395898359,-1.4055744466852969,1,right
9.416,-0.5034430401689516,0.926268758659522,-0.025365362800906253,1.999387944260179,-0.10366228312915904,0.08194690413246741,-0.05690353033706101,-0.2666210216870928,-1.4158693518331271,1,right
9.419,-0.508265142386056,0.9282224893192752,-0.025779883186153096,1.9818925700344765,-0.0973391548278367,0.07581754081088776,-0.05809529862574767,-0.2739122096885786,-1.4260874018337304,1,right
9.42,-0.5130705775932418,0.9301454166469528,-0.026232599251414534,1.9642428547223392,-0.09033930189579054,0.0696073794211089,-0.05937204395269244,-0.281283258292006,-1.4362293743244758,1,right
9.423,-0.5178630409016786,0.9320320064798842,-0.02672410063515157,1.9464945096379358,-0.08263433391879324,0.06331826203619557,-0.06073575654450103,-0.2887274255441808,-1.446296088479504,1,right
9.424,-0.5226462635228625,0.9338767119959955,-0.02725488824125512,1.9287023914636126,-0.07419545589723528,0.056951556972524735,-0.06218844606400221,-0.29623777954484776,-1.4562883954522867,1,right
9.429,-0.5274239779805113,0.9356739971061012,-0.027825371215189087,1.9109203892911273,-0.06499354557591844,0.050508153516722,-0.06373213933242745,-0.3038072054999704,-1.4662071684389097,1,right
9.431000000000001,-0.5321998845422751,0.9374183581212908,-0.028435863977629743,1.8932013143525162,-0.054999234336279804,0.043988458182213856,-0.0653688778855538,-0.3114284131458141,-1.4760532923909975,1,right
9.434,-0.5369776194364737,0.9391043433763896,-0.029086583380713273,1.8755967923895909,-0.04418299162674083,0.037392392477107544,-0.06710071536798742,-0.3190939445653936,-1.485827653406987,1,right
9.434,-0.541760725396595,0.940726570564134,-0.029777646038462634,1.8581571586111032,-0.032515212904683774,0.030719392164889406,-0.06892971477002686,-0.32679618241901326,-1.495531127830245,1,right
9.439,-0.5465526250266726,0.9422797416039284,-0.03050906585252107,1.8409313551867827,-0.019966311061280856,0.023968407999212155,-0.07085794551181251,-0.33452735861077826,-1.5051645710823225,1,right
9.44,-0.5513565974016489,0.9437586549229617,-0.03128075172134448,1.8239668312277835,-0.00650681129804017,0.01713790791382111,-0.07288748037974146,-0.34227956341308086,-1.5147288062594173,1,right
9.443999999999999,-0.5561757582115892,0.9451582150674017,-0.032092505403763086,1.8073094452035439,0.007892550578513707,0.010225880648447368,-0.0750203923204068,-0.35004475507117244,-1.5242246125199308,1,right
9.445,-0.5610130436334704,0.9464734396024552,-0.032944019513818555,1.7910033697456802,0.02326072648013756,0.0032298407912708447,-0.07725875109760502,-0.35781476991001215,-1.5336527132907907,1,right
9.448,-0.5658711979808643,0.9476994633217719,-0.033834875641686774,1.7750909987902765,0.039626251016874316,-0.0038531647816733346,-0.07960461981824617,-0.3655813329656468,-1.5430137643200168,1,right
9.449,-0.5707527650568529,0.9488315398802201,-0.03476454260696748,1.7596128570108127,0.05701713317519268,-0.011026549090006872,-0.08206005133329865,-0.37333606916341044,-1.5523083416028127,1,right
9.455,-0.5756600830333747,0.9498650410840064,-0.03573237484855469,1.7446075114949808,0.07546074473847167,-0.01829417587554289,-0.08462708452020318,-0.3810705150652475,-1.5615369292082675,1,right
9.456,-0.5805952826035462,0.9507954541963782,-0.03673761094756376,1.7301114856197624,0.0949837054969042,-0.02566034909219801,-0.0873077404534995,-0.38877613120845256,-1.5706999070335594,1,right
9.457,-0.5855602880917239,0.9516183777167215,-0.03777937227703851,1.7161591750803884,0.11561176529683793,-0.033129801079897436,-0.09010401847072395,-0.3964443150580861,-1.5797975385123677,1,right
9.458,-0.5905568211465791,0.9523295161446796,-0.038856661774757925,1.7027827660301509,0.13736968298259425,-0.04070767944336033,-0.09301789214095685,-0.40406641459526615,-1.5888299583039995,1,right
9.462,-0.595586406583307,0.9529246742478025,-0.03996836283525051,1.6900121552895018,0.1602811022869051,-0.04839953265693661,-0.0960513051437245,-0.41163374256345453,-1.5977971599895582,1,right
9.464,-0.600650379891287,0.9533997513286889,-0.04111323830959377,1.6778748725844213,0.1843684247292799,-0.056211294416964125,-0.09920616706629322,-0.4191375913947466,-1.6066989838012866,1,right
9.468,-0.6057498959017688,0.953750735949887,-0.04228992959092338,1.666396004775696,0.209652679584858,-0.0641492667634273,-0.10248434912387908,-0.4265692488172968,-1.6155351044175095,1,right
9.469,-0.6108859381430506,0.9539737015141735,-0.04349695575792055,1.6555981220424805,0.23615339098961363,-0.07222010199302664,-0.10588767978838405,-0.4339200140411194,-1.6243050188877641,1,right
9.469,-0.6160593284901462,0.9540648030153835,-0.04473271275339057,1.6455012059853262,0.26388844225115415,-0.0804307833861139,-0.10941794027695688,-0.4411812142326058,-1.633008034810789,1,right
9.472000000000001,-0.6212707367684499,0.9540202752142392,-0.04599547259120099,1.636122579615757,0.29287393743778967,-0.0887886047703108,-0.11307685983277473,-0.4483442208841579,-1.6416432589201975,1,right
9.472999999999999,-0.6265206899475778,0.9538364324818775,-0.04728338261144952,1.6274768392014056,0.32312406032204133,-0.09730114894401176,-0.11686611075005739,-0.4554004657888372,-1.6502095862001245,1,right
9.477,-0.631809580516271,0.9535096705485618,-0.048594464837362114,1.619575787937749,0.35465093075829823,-0.10597626498337345,-0.12078730313035192,-0.462341456516393,-1.6587056895946761,1,right
9.479,-0.6371376736297419,0.9530364703491101,-0.04992661551804416,1.6124283714195313,0.3874644585779215,-0.11482204445681707,-0.12484197937675073,-0.46915879139047983,-1.6671300103424636,1,right
9.479,-0.6425051126692698,0.9524134040770151,-0.05127760495651868,1.606040615036913,0.42157219530820716,-0.12384679658063133,-0.1290316084369326,-0.475844173987319,-1.6754807489608252,1,right
9.481,-0.6479119229309498,0.9516371434782865,-0.052645077716474135,1.6004155641727933,0.45697918512271346,-0.13305902239531328,-0.13335757980629412,-0.48238942717572364,-1.6837558569041424,1,right
9.482000000000001,-0.6533580132523998,0.9507044703495928,-0.054026553279088965,1.5955532294285826,0.4936878184095195,-0.14246738812482307,-0.13782119730282305,-0.48878650671805574,-1.6919530289204396,1,right
9.488999999999999,-0.6588431754684616,0.9496122891381351,-0.055419427197313,1.5914505398571543,0.5316976924451259,-0.15208069792702542,-0.14242367262575178,-0.4950275144513006,-1.7000696961302628,1,right
9.49,-0.664367081650069,0.9483576414499271,-0.05682097277768843,1.5881013064346172,0.5710054825680042,-0.1619078661985473,-0.1471661187104215,-0.5011047110670463,-1.7081030198515987,1,right
9.492,-0.669929279149133,0.9469377221642434,-0.05822834330463917,1.5854961966560555,0.611604825274163,-0.17195788951579763,-0.1520495428921825,-0.5070105285087274,-1.7160498861943787,1,right
9.492,-0.6755291835645523,0.9453498967495658,-0.05963857480385375,1.5836227203932869,0.6534862135634021,-0.18223981824890031,-0.1570748398925541,-0.512737582004044,-1.723906901447875,1,right
9.497,-0.6811660698457495,0.9435917192975859,-0.06104858932386982,1.5824652270050013,0.6966369046491612,-0.19276272787679136,-0.162242784641271,-0.5182786817500004,-1.731670388284065,1,right
9.498,-0.6868390618386034,0.9416609507473975,-0.062455198705033715,1.5820049136917693,0.7410408401485747,-0.20353569003237046,-0.16755402494824614,-0.5236268442675107,-1.7393363827997819,1,right
9.501,-0.6925471206463663,0.9395555767698022,-0.06385510880261468,1.582219845090502,0.7866785788730186,-0.21456774330726378,-0.1730090740398882,-0.52877530344201,-1.7469006324202168,1,right
9.502,-0.6982890322271218,0.9372738248200777,-0.06524492412918326,1.583084984104997,0.8335272423430742,-0.225867863846447,-0.17860830297462127,-0.533717521265973,-1.7543585946860656,1,right
9.506,-0.7040633946816179,0.9348141799349645,-0.06662115287561185,1.5845722339712036,0.8815604731554287,-0.2374449357636961,-0.18435193295286595,-0.5384471982986908,-1.7617054369463363,1,right
9.508,-0.7098686056988177,0.9321753989306434,-0.06798021226298914,1.5866504915577682,0.9307484063327688,-0.2493077214095771,-0.19024002753715294,-0.5429582838580794,-1.7689360369785303,1,right
9.511000000000001,-0.7157028506178702,0.9293565227413573,-0.0693184341762384,1.5892857119042851,0.9810576537911928,-0.26146483152445626,-0.196272484798455,-0.5472449859587073,-1.7760449845576198,1,right
9.512,-0.7215640915340504,0.926356886718888,-0.07063207103799639,1.5924409840014602,1.0324513020630648,-0.2739246953098074,-0.2024490294052374,-0.5513017810096137,-1.7830265839949104,1,right
9.516,-0.7274500578250114,0.923176128792446,-0.07191730189524212,1.5960766178190804,1.0848889234165418,-0.2866955304519136,-0.20876920467214163,-0.5551234232848653,-1.7898748576675516,1,right
9.516,-0.7333582384042786,0.9198141954674993,-0.07317023870729067,1.6001502425892848,1.13832660051622,-0.2997853131329054,-0.2152323645856309,-0.5587049541791534,-1.7965835505591057,1,right
9.521,-0.7392858759230455,0.9162713457183391,-0.0743869328446496,1.6046169163541102,1.192716964772454,-0.31320174806494705,-0.22183766582434059,-0.5620417112600756,-1.8031461358312142,1,right
9.522,-0.7452299630449767,0.9125481528975381,-0.07556338183606866,1.6094292467876705,1.2480092485298924,-0.32695223858427536,-0.22858405979228844,-0.5651293371280678,-1.8095558214460254,1,right
9.526,-0.7511872408229079,0.9086455048387565,-0.07669553642942908,1.614537523304573,1.3041493512486393,-0.3410438568427114,-0.23547028468350895,-0.5679637880942675,-1.81580555785864,1,right
9.527000000000001,-0.7571541991218964,0.9045646023623183,-0.07777930805444898,1.619889860467297,1.3610799198341836,-0.35548331413520173,-0.24249485759708567,-0.5705413426858832,-1.8218880467984158,1,right
9.532,-0.7631270789668261,0.9003069564049979,-0.07881057678874687,1.6254323527062609,1.4187404432748196,-0.3702769314029078,-0.24965606672195909,-0.5728586099879309,-1.8277957511575227,1,right
9.533,-0.7691018766476326,0.8958743839871378,-0.07978519992662218,1.6311092403671308,1.4770673617477081,-0.38543060995233713,-0.25695196361128886,-0.5749125378294744,-1.8335209060046926,1,right
9.535,-0.7750743493903873,0.8912690032015042,-0.08069902122838449,1.6368630871006404,1.5359941903569965,-0.4009498024320127,-0.2643803555665469,-0.5767004208217632,-1.8390555307416174,1,right
9.536,-0.7810400223968443,0.886493227362773,-0.08154788089689968,1.6426349686107145,1.5954516576695028,-0.41683948410919014,-0.27193879815629896,-0.5782199082407605,-1.8443914423951686,1,right
9.537,-0.7869941970727822,0.8815497584039451,-0.08232762629934301,1.64836467277709,1.6553678592153818,-0.43310412449016694,-0.2796245879169687,-0.5794690116749834,-1.84952026991915,1,right
9.541,-0.7929319603028543,0.8764415795589606,-0.08303412342766721,1.6539909111688282,1.7156684261228978,-0.4497476593287776,-0.2874347553227668,-0.5804461122313609,-1.8544334691646904,1,right
9.542,-0.7988481946602258,0.8711719473383973,-0.08366326906278941,1.659451541965177,1.7762767090579634,-0.4667734630687306,-0.2953660581342912,-0.5811499670202388,-1.8591223380588797,1,right
9.545,-0.8047375894426482,0.8657443827883673,-0.08421100356754531,1.6646838043001053,1.837113977640401,-0.48418432176651993,-0.3034149752137194,-0.5815797147106901,-1.8635780316495807,1,right
9.546,-0.8105946524190828,0.8601626620176938,-0.08467332418903625,1.6696245636976321,1.8980996351320987,-0.5019824065360288,-0.31157770085536196,-0.5817348800739645,-1.867791576887802,1,right
9.547,-0.8164137221796848,0.8544308059816381,-0.08504629872349467,1.67421056652003,1.9591514463036306,-0.5201692475235333,-0.3198501396587435,-0.5816153775029363,-1.8717538871372994,1,right
9.551,-0.822188981009415,0.8485530695199799,-0.08532607939639825,1.6783786982101268,2.0201857729855224,-0.5387457083626044,-0.3282279019673259,-0.5812215135087848,-1.8754557764241822,1,right
9.552,-0.8279144682337565,0.842533929665127,-0.08550891681683101,1.6820662383635354,2.0811178099212837,-0.5577119610260085,-0.3367062998963141,-0.5805539881953504,-1.878887973438612,1,right
9.555,-0.8335840940022069,0.8363780732655082,-0.08559117386070808,1.6852111074101765,2.141861815428998,-0.5770674610263337,-0.34528034397329965,-0.5796138957108268,-1.8820411352999586,1,right
9.556000000000001,-0.8391916534874967,0.8300903840063475,-0.0855693393407859,1.6877521028234652,2.2023313347792493,-0.5968109229784948,-0.3539447404157983,-0.5784027236756575,-1.8849058610960239,1,right
9.56,-0.8447308414914849,0.8236759289432011,-0.0854400413505519,1.689629124518711,2.2624394160863517,-0.6169402965719022,-0.3626938890700283,-0.5769223515847217,-1.887472705206173,1,right
9.56,-0.8501952674554959,0.8171399446859028,-0.08520006021025134,1.6907833894496325,2.322098818887199,-0.6374527430078928,-0.37152188203554737,-0.5751750481811121,-1.8897321904174171,1,right
9.565,-0.8555784708672132,0.8104878233794987,-0.08484634097347031,1.691157635410155,2.3812222155812504,-0.6583446119591378,-0.3804225030006284,-0.5731634677980287,-1.891674820841649,1,right
9.567,-0.8608739370416024,0.8037250986243064,-0.08437600546073,1.6906963140467632,2.4397223859041532,-0.679611419108847,-0.38938922731349457,-0.5708906456645428,-1.8932910946413883,1,right
9.571,-0.8660751132372709,0.7968574314615448,-0.08378636377368388,1.689345773084594,2.4975124046061863,-0.7012478243286876,-0.3984152228147597,-0.5683599921702149,-1.89457151657051,1,right
9.571,-0.8711754250581357,0.789890596527248,-0.08307492522192034,1.6870544277682291,2.5545058225051904,-0.7232476105554266,-0.407493351456631,-0.5655752860827962,-1.8955066103355116,1,right
9.577,-0.8761682930856592,0.7828304684471958,-0.08223940857859321,1.6837729215157466,2.610616841081855,-0.745603663427378,-0.41661617173461696,-0.5625406667124906,-1.896086930781943,1,right
9.578,-0.8810471496874425,0.7756830085101228,-0.08127775157694983,1.6794542757820392,2.665760480783182,-0.7683079517427964,-0.42577594195765506,-0.5592606250155161,-1.8963030759096577,1,right
9.58,-0.885805455949012,0.7684542516186418,-0.08018811956443161,1.6740540291247115,2.719852743197675,-0.7913515088034022,-0.4349646243827215,-0.5557399936289742,-1.8961456987195524,1,right
9.581,-0.8904367186732388,0.7611502934837853,-0.0789689132389711,1.6675303654630262,2.7728107672632647,-0.8147244147072434,-0.444173890240115,-0.5519839358283203,-1.8956055188934386,1,right
9.584,-0.8949345073852552,0.7537772780065186,-0.07761877539999217,1.659844231517403,2.8245529796661977,-0.8384157796560994,-0.45339512567571,-0.5479979333980215,-1.8946733343076507,1,right
9.585,-0.8992924712721058,0.7463413847807006,-0.07613659665490338,1.6509594434138577,2.8749992395861046,-0.8624137283436015,-0.46261943863655763,-0.5437877734053013,-1.8933400323799152,1,right
9.59,-0.9035043559788135,0.7388488166560293,-0.07452152003192501,1.6408427824345668,2.9240709779392082,-0.8867053854911925,-0.4718376667262726,-0.5393595338661893,-1.89159660124791,1,right
9.591000000000001,-0.9075640201792803,0.7313057873148071,-0.07277294446150183,1.6294640798923894,2.9716913312681363,-0.9112768625999562,-0.4810403860566763,-0.5347195682924412,-1.8894341407768191,1,right
9.594,-0.9114654518431191,0.7237185088394726,-0.07089052710186561,1.6167962911037588,3.0177852704230905,-0.9361132459872324,-0.4902179211221764,-0.5298744891072454,-1.886843873392031,1,right
9.595,-0.9152027841252628,0.7160931792727675,-0.0688741845017991,1.6028155584308128,3.0622797241751822,-0.9611985861777687,-0.4993603557233424,-0.5248311499170096,-1.8838171547319509,1,right
9.599,-0.9187703108077777,0.7084359701939562,-0.0667240926156193,1.587501263360019,3.105103697898564,-0.9865158887199631,-0.5084575449660951,-0.5195966266259118,-1.8803454841147005,1,right
9.601,-0.9221625012200523,0.7007530143512151,-0.06444068570923044,1.5708360675808486,3.1461883874536185,-1.0120471064985157,-0.5174991283628514,-0.5141781973793119,-1.8764205148112427,1,right
9.604,-0.9253740145581623,0.6930503934019705,-0.06202465421836199,1.5528059430242955,3.185467288398877,-1.0377731336155107,-0.5264745440618689,-0.5085833213215519,-1.8720340641162183,1,right
9.605,-0.9283997135225872,0.6853341258180586,-0.0594769416355961,1.5334001908172068,3.2228763006545376,-1.063673800912624,-0.5353730442071761,-0.502819616190727,-1.8671781232057523,1,right
9.606,-0.931234677200379,0.6776101550087701,-0.0567987405036714,1.5126114491045208,3.258353828735463,-1.0897278732077575,-0.5441837113127076,-0.4968948349605148,-1.8618448667664422,1,right
9.609,-0.9338742131318585,0.6698843377051682,-0.053991487578515594,1.490435689687594,3.2918408776663592,-1.1159130483199622,-0.552895475320565,-0.4908168420770942,-1.8560266623716668,1,right
9.61,-0.9363138685118836,0.6621624326463651,-0.05105685821222608,1.4668722034228523,3.3232811446864754,-1.142205957957009,-0.5614971308944957,-0.48459359002673036,-1.8497160795762506,1,right
9.613999999999999,-0.9385494404762356,0.654450089621448,-0.04799676000887313,1.4419235743210386,3.3526211068456058,-1.168582170540404,-0.5699773546180367,-0.4782330967811105,-1.8429058987029079,1,right
9.615,-0.9405769854252849,0.6467528389403674,-0.04481332582134938,1.4155956422833502,3.379810104587472,-1.195016196043025,-0.5783247219799923,-0.4717434243286228,-1.835589119299237,1,right
9.616,-0.9423928273493175,0.6390760814182788,-0.04150890617343098,1.387897454570365,3.404800421350434,-1.2214814929333755,-0.5865277241482086,-0.4651326583113239,-1.8277589682463722,1,right
9.619,-0.9439935651382798,0.6314250789535728,-0.038086061197669926,1.358841206913599,3.427547358908112,-1.247950477413296,-0.5945747845559821,-0.4584088887493397,-1.8194089074997097,1,right
9.62,-0.9453760788758279,0.6238049457639699,-0.03454755217457994,1.3284421766478525,3.4480093076239577,-1.274394535302815,-0.6024542753250567,-0.4515801918340744,-1.8105326414406817,1,right
9.625,-0.9465375351325431,0.6162206403328903,-0.030896332756157864,1.2967186510564768,3.466147810486179,-1.3007840370185129,-0.6101545335487488,-0.44465461277125395,-1.8011241238170612,1,right
9.626,-0.9474753912886734,0.6086769581202073,-0.027135539969697326,1.263691853299895,3.4819276200842983,-1.3270883559991724,-0.6176638774582943,-0.4376401496545058,-1.7911775642478063,1,right
9.629,-0.9481873989335479,0.601178525097617,-0.023268485114186305,1.229385866821591,3.4953167482244654,-1.3532758907657467,-0.6249706224950266,-0.43054473834987506,-1.780687434266924,1,right
9.631,-0.9486716064048935,0.5937297921664738,-0.019298644664712705,1.193827558304059,3.5062865081752856,-1.379314090709904,-0.6320630973104807,-0.42337623837139915,-1.7696484728793178,1,right
9.633,-0.9489263605438693,0.5863350305065124,-0.015229651290871527,1.157046499079895,3.514811549589431,-1.4051694856866477,-0.6389296597159733,-0.41614241972760774,-1.7580556916000303,1,right
9.634,-0.9489503077487071,0.5789983278940781,-0.011065285080336888,1.1190748848995307,3.520869886139431,-1.4308077194861737,-0.6455587126026204,-0.4088509507185807,-1.7459043789467343,1,right
9.638,-0.9487423944107498,0.5717235860206289,-0.00680946504254153,1.0799474539535274,3.5244429158991,-1.4561935872596896,-0.6519387198521452,-0.4015093866629881,-1.7331901043537528,1,right
9.639,-0.9483018668144134,0.5645145188333118,-0.0024662409518605454,1.0397014030438347,3.5255154344950523,-1.4812910769733982,-0.6580582222581748,-0.3941251595343483,-1.7199087214742914,1,right
9.644,-0.9476282705846512,0.5573746519030216,0.0019602144293536733,0.9983763017950077,3.524075641045658,-1.5060634149642256,-0.6639058534770469,-0.3867055684855735,-1.7060563708359668,1,right
9.645,-0.946721449774523,0.5503073228005391,0.00646561273774889,0.9560140047930599,3.5201151368976844,-1.5304731156701397,-0.6694703560264275,-0.3792577712407286,-1.6916294818130997,1,right
9.649,-0.9455815456905134,0.5433156824375289,0.011045557031012511,0.9126585615364211,3.513628917163666,-1.5544820356070768,-0.6747405973492955,-0.3717887763328061,-1.6766247738776066,1,right
9.65,-0.9442089955413836,0.5364026973176266,0.01569554848926202,0.8683561240803735,3.5046153550558583,-1.5780514316635639,-0.6797055859600692,-0.3643054361662175,-1.6610392570886923,1,right
9.652999999999999,-0.9426045309707721,0.5295711526474064,0.020410992833200754,0.8231548522533668,3.493076179005376,-1.6011420237830727,-0.6843544876888362,-0.3568144408826225,-1.6448702317798884,1,right
9.654,-0.9407691765080762,0.5228236562721774,0.025187206477078936,0.7771048163207606,3.4790164425478904,-1.6237140621029982,-0.688676642038802,-0.34932231300865135,-1.6281152874003288,1,right
9.658,-0.9387042479526231,0.5161626434152192,0.03001942242394159,0.7302578969688314,3.462444486949993,-1.645727398617881,-0.6926615786711979,-0.3418354028640403,-1.610772300465482,1,right
9.658999999999999,-0.9364113506898134,0.5095903822010759,0.03490279591999413,0.6826676824792992,3.4433718965430833,-1.6671415634331248,-0.6962990340309804,-0.3343598847086716,-1.592839431570885,1,right
9.664,-0.9338923779226873,0.5031089799335514,0.03983240991151096,0.6343893629621971,3.42181344672441,-1.687915845673963,-0.6995789681257143,-0.3269017536070119,-1.574315121420747,1,right
9.665,-0.9311495087908493,0.4967203900843686,0.04480328037896609,0.5854796215126189,3.397787044577688,-1.7080093791128255,-0.7024915814690679,-0.31946682298845175,-1.5551980858215904,1,right
9.668,-0.9281852063445886,0.4904264199358611,0.04981036164319478,0.5359965221547509,3.3713136620585256,-1.72738123257654,-0.7050273321993454,-0.31206072288208553,-1.5354873095894115,1,right
9.669,-0.9250022153455241,0.48422873881262735,0.05484855173732092,0.48599939443461915,3.342417261682781,-1.7459905051929536,-0.7071769533824604,-0.30468889880451866,-1.5151820393171453,1,right
9.673,-0.921603559871574,0.4781288868315478,0.05991269791707133,0.43554871452117117,3.3111247146488547,-1.7637964265346118,-0.7089314705076937,-0.2973566112793555,-1.494281774947512,1,right
9.674,-0.9179925407074352,0.4721282840966331,0.06499760235161256,0.3847059826736701,3.277465711317931,-1.780758461715057,-0.7102822191645743,-0.2900689359638676,-1.4727862601417518,1,right
9.676,-0.9141727325006348,0.4662282402674,0.07009802801051696,0.3335335969319018,3.241472663969208,-1.7968364214911183,-0.7112208627934666,-0.2828307643422591,-1.4506954716687366,1,right
9.677999999999999,-0.9101479806608591,0.46042996443624223,0.07520870474688289,0.2820947228843967,3.2031806017402915,-1.8119905774222573,-0.7117394102309565,-0.27564680491593063,-1.4280096084614338,1,right
9.679,-0.9059223979775051,0.4547345752527368,0.0803243355682237,0.2304531593687422,3.162627057656127,-1.8261817821356103,-0.7118302326753264,-0.26852158480509175,-1.4047290812216873,1,right
9.682,-0.9015003609251072,0.4491431112249281,0.08543960307949909,0.17867319995711814,3.1198519476431428,-1.8393715947428289,-0.7114860797908681,-0.2614594516923931,-1.380854503216877,1,right
9.683,-0.8968865056200781,0.4436565411165683,0.09054917607836535,0.12681949024291606,3.0748974416184933,-1.8515224112467457,-0.7107000948389368,-0.25446457606853257,-1.3563866824861048,1,right
9.684,-0.8920857233904121,0.43827577435674675,0.09564771628606973,0.0749568817611952,3.0278078277368707,-1.8625975987460113,-0.7094658288170617,-0.2475409537561403,-1.3313266154361585,1,right
9.687000000000001,-0.887103155923771,0.4330016713853578,0.10072988520703702,0.023150284846781874,2.9786293726692654,-1.8725616303941737,-0.7077772536051088,-0.24069240869166322,-1.3056754817586753,1,right
9.687999999999999,-0.8819441899637491,0.42783505386258547,0.10579035111985302,-0.0285354764489221,2.92741018178088,-1.8813802170395646,-0.7056287741162263,-0.23392259594516374,-1.279434640598217,1,right
9.693,-0.8766144515258095,0.4227767146642602,0.1108237962074756,-0.08003580507885216,2.8742000620701917,-1.8890204324963904,-0.7030152394490129,-0.22723500495815085,-1.252605627899265,1,right
9.693999999999999,-0.8711197996066344,0.4178274275747196,0.11582492383450121,-0.13128646652663542,2.8190503889268665,-1.895450831243039,-0.6999319530360464,-0.22063296297977786,-1.225190154858451,1,right
9.698,-0.8654663193675218,0.412987956586003,0.12078846597448642,-0.18222371912323254,2.7620139767613088,-1.9006415583674463,-0.6963746817825874,-0.2141196386819657,-1.1971901074066464,1,right
9.699,-0.8596603147832242,0.40825906471844253,0.1257091907808734,-0.23278443930167544,2.703144953353095,-1.9045644517813998,-0.6923396641879443,-0.207698045934248,-1.168607546643839,1,right
9.701,-0.8537083007588779,0.40364152228860334,0.13058191028348937,-0.28290624193699326,2.6424986377599766,-1.907193136722188,-0.6878236174406286,-0.2013710477193786,-1.1394447101480418,1,right
9.702,-0.8476169947264499,0.39913611456263576,0.1354014881825263,-0.3325275959175197,2.580131421623714,-1.9085031125564458,-0.6828237434770758,-0.19514136017099684,-1.1097040140778052,1,right
9.707,-0.8413933077367548,0.3947436487443218,0.14016284770529813,-0.3815879350926944,2.516100653703753,-1.9084718318974134,-0.6773377339923328,-0.1890115567149094,-1.079388055986227,1,right
9.709,-0.8350443350638721,0.39046496025530814,0.14486097948888368,-0.4300277647412137,2.450464527464639,-1.9070787720431015,-0.6713637743897319,-0.18298407229581884,-1.048499618262685,1,right
9.712,-0.8285773463383371,0.38630091826896956,0.14949094945465405,-0.4777887637019473,2.3832819715381257,-1.9043054987390793,-0.6649005466551846,-0.1770612076716079,-1.0170416721168634,1,right
9.713,-0.8219997752259409,0.38225243046009816,0.15404790664695325,-0.5248138823084324,2.314612542876171,-1.9001357222657507,-0.657947231140329,-0.17124513375757588,-0.9850173820179918,1,right
9.717,-0.8153192086698013,0.37832044693263567,0.15852709101424936,-0.5710474362659721,2.2445163224063793,-1.8945553458460833,-0.6505035072373688,-0.16553789600331614,-0.9524301105005619,1,right
9.718,-0.808543375712636,0.37450596328911284,0.16292384111554145,-0.616435196608421,2.17305381299703,-1.8875525063657788,-0.6425695529270331,-0.15994141878522536,-0.9192834232461656,1,right
9.722000000000001,-0.8016801359129347,0.37081002280954445,0.16723360174004287,-0.6609244758696297,2.1002858395345485,-1.8791176073938807,-0.6341460431796828,-0.15445750979794023,-0.885581094349461,1,right
9.724,-0.7947374673645321,0.3672337177143595,0.17145193143697385,-0.7044642106022445,2.0262734509121807,-1.8692433444877645,-0.6252341471881787,-0.14908786442831085,-0.8513271116746586,1,right
9.726,-0.7877234543273905,0.36377818949543317,0.17557450996383847,-0.7470050403741417,1.951077823724714,-1.857924722762368,-0.6158355244097218,-0.1438340700958371,-0.8165256822073169,1,right
9.727,-0.7806462744806604,0.36044462831212926,0.17959714566974436,-0.7884993833701859,1.874760167460329,-1.8451590666994178,-0.6059523193924699,-0.1386976105438181,-0.7811812373046361,1,right
9.732000000000001,-0.7735141858165028,0.35723427146590153,0.18351578282686665,-0.8289015087242885,1.7973816309770982,-1.8309460221682725,-0.5955871553613311,-0.13367987006579277,-0.7452984377458569,1,right
9.732999999999999,-0.7663355132017513,0.3541484009854507,0.18732650890361205,-0.868167605703871,1.7190032100482477,-1.8152875506258679,-0.584743126535941,-0.12878213765218155,-0.7088821784828003,1,right
9.736,-0.7591186346408654,0.3511883403711114,0.19102556174046573,-0.9062558498658362,1.6396856557570687,-1.7981879154590814,-0.5734237891524354,-0.12400561104237691,-0.6719375929890206,1,right
9.737,-0.7518719672751966,0.34835545056043504,0.19460933655307636,-0.9431264663000186,1.5594893835193255,-1.7796536604286983,-0.5616331511592504,-0.11935140066787052,-0.634470057104502,1,right
9.742,-0.7446039531494296,0.3456511251878904,0.1980743926578501,-0.9787417900728234,1.4784743825081317,-1.7596935801700004,-0.5493756605558054,-0.11482053347235004,-0.5964851922712963,1,right
9.743,-0.7373230447667157,0.34307678521924867,0.20141745980284925,-1.0130663239803879,1.396700125253563,-1.7383186827008719,-0.5366561923782006,-0.11041395660155925,-0.5579888680908933,1,right
9.744,-0.7300376904410515,0.34063387303978193,0.2046354439969545,-1.0460667937171026,1.3142254771867556,-1.7155421438841965,-0.523480034517911,-0.10613254098863133,-0.5189872043171933,1,right
9.747,-0.7227563194423081,0.3383238460648612,0.2077254327572001,-1.0777122005617283,1.2311086058958838,-1.6913792537872285,-0.5098528728878899,-0.10197708491957679,-0.4794865727296898,1,right
9.748,-0.7154873269201373,0.3361481699360069,0.21068469971893775,-1.1079738716796432,1.1474068898592265,-1.665847354876564,-0.4957807766323673,-0.09794831769652997,-0.4394935995145813,1,right
9.75,-0.7082390585894323,0.3341083113730073,0.21351070856480908,-1.1368255080974201,1.063176826592987,-1.6389657721525284,-0.48127018389211823,-0.09404690348415115,-0.3990151685955007,1,right
9.751,-0.7010197951605511,0.33220573075836063,0.21620111623562682,-1.1642432302093704,0.9784739410220034,-1.6107557361689122,-0.46632788830591043,-0.09027344536632714,-0.35805842602189347,1,right
9.752,-0.6938377365000942,0.3304418745217744,0.21875377539879023,-1.190205620324906,0.8933526964499896,-1.5812403014030105,-0.45096102624436085,-0.08662848960811087,-0.3166307853370818,1,right
9.755,-0.6867009855126897,0.3288181673823536,0.22116673616594681,-1.2146937615688531,0.8078664113767511,-1.55044426328314,-0.43517706473453127,-0.08311253011169345,-0.2747399338097478,1,right
9.756,-0.6796175317430764,0.32733600450707184,0.22343824707307325,-1.2376912726354041,0.7220671845361324,-1.5183940763309,-0.41898379003235275,-0.07972601305557009,-0.23239383941119354,1,right
9.761000000000001,-0.6725952347125652,0.32599674364877484,0.22556675537070256,-1.2591843382390464,0.6360058289570693,-1.4851177743487518,-0.4023892967987494,-0.07646934170642965,-0.18960075841938348,1,right
9.762,-0.6656418070240537,0.324801697325518,0.2275509067145439,-1.279161735294241,0.5497318149767452,-1.4506448927337192,-0.38540197783413643,-0.07334288139366861,-0.14636924352944625,1,right
9.765,-0.658764797292619,0.3237521250965335,0.22938954437562772,-1.29761485488989,0.46329322195948125,-1.4150063928252004,-0.36803051432479006,-0.0703469646368016,-0.10270815234900389,1,right
9.766,-0.6519715729821718,0.3228492259826971,0.23108170808609646,-1.3145377201203106,0.3767366984742352,-1.3782345881913558,-0.35028386655343613,-0.06748189641641382,-0.05862665615541376,1,right
9.77,-0.6452693032509148,0.3220941310729677,0.23262663260277466,-1.3299269998300869,0.2901074306829704,-1.3403630727551155,-0.33217126502527566,-0.06474795957967454,-0.014134248790749782,1,right
9.771,-0.6386649419261224,0.32148789635336833,0.23402374602231082,-1.343782018325799,0.20344911869168147,-1.3014266506574883,-0.3137022019595638,-0.0621454203718059,0.03075924443088382,1,right
9.777999999999999,-0.6321652107384191,0.32103149579150786,0.23527266783740783,-1.3561047611032357,0.11680396061551876,-1.2614612677526151,-0.29488642309578006,-0.05967453408527702,0.07604365793032043,1,right
9.779,-0.6257765829463073,0.32072581470811423,0.2363732066934684,-1.3668998766342995,0.03021264410924378,-1.2205039446258403,-0.2757339197623779,-0.05733555081887009,0.12170847731237414,1,right
9.78,-0.6195052674748374,0.3205716434685688,0.23732535779093417,-1.3761746742534082,-0.0562856548858399,-1.1785927110230316,-0.2562549211550777,-0.05512872133914267,0.16774283118590322,1,right
9.78,-0.6133571936804838,0.32056967153170324,0.23812929988089174,-1.3839391181788077,-0.1426532664273012,-1.1357665415764124,-0.23645988677067226,-0.053054303037188555,0.21413548348496125,1,right
9.783999999999999,-0.6073379968411854,0.32072048190015107,0.23878539181942526,-1.3902058176998167,-0.22885401413801076,-1.0920652927093344,-0.2163594989413464,-0.05111256597397834,0.2608748264221956,1,right
9.785,-0.6014530044614689,0.3210245460288961,0.23929416867507997,-1.3949900135566742,-0.31485319630199043,-1.0475296405996688,-0.1959646554135757,-0.04930379900794072,0.3079488742067131,1,right
9.79,-0.595707223481789,0.32148221926831905,0.23965633741582865,-1.39830956053532,-0.4006175607377161,-1.0022010200788771,-0.17528646191476113,-0.04762831599882583,0.35534525765966185,1,right
9.791,-0.5901053284880178,0.3220937369399668,0.2398727722279285,-1.4001849062951401,-0.4861152736964308,-0.9561215643413089,-0.15433622464988023,-0.04608646208227323,0.40305121986177345,1,right
9.794,-0.5846516510230583,0.32285921115529304,0.2399445095302765,-1.400639066443469,-0.5713158830324492,-0.9093340453358724,-0.13312544266958948,-0.04467862000988893,0.4510536129680688,1,right
9.795,-0.5793501700953977,0.3237786284794159,0.23987274274169695,-1.399697595866417,-0.6561902758917632,-0.8618818147099535,-0.11166580005039997,-0.043405216550019166,0.4993388963258592,1,right
9.8,-0.5742045039538659,0.32485184851224636,0.23965881684214257,-1.3973885563214692,-0.7407106311644946,-0.8138087451733034,-0.08996915782676594,-0.04226672894479233,0.5478931360330591,1,right
9.8,-0.56921790316003,0.32607860341412104,0.23930422275394844,-1.39374248029321,-0.8248503669458924,-0.7651591721475759,-0.06804754561417868,-0.041263691419385705,0.5967020060746805,1,right
9.804,-0.5643932449497636,0.3274584983505804,0.23881059156568854,-1.3887923311095316,-0.9085840832496334,-0.7159778355652956,-0.04591315286164376,-0.040396701739859674,0.6457507911761896,1,right
9.805,-0.5597330288432888,0.32899101277963777,0.23817968863249653,-1.3825734593117587,-0.9918875002161758,-0.6663098216802479,-0.023578319671238558,-0.039666427816290276,0.6950243915131775,1,right
9.809,-0.555239373446057,0.3306755024626899,0.2374134076088994,-1.375123555268284,-1.0747373920578216,-0.6162005047496327,-0.0010555271218014133,-0.03907361434831974,0.7445073294175288,1,right
9.81,-0.5509140143827098,0.3325112020556233,0.23651376449228448,-1.3664825980175737,-1.1571115169809791,-0.5656954884467915,0.021642612943362914,-0.03861908949203939,0.7941837581621815,1,right
9.81,-0.5467583033178893,0.3344972281386329,0.23548289176333495,-1.356692800322758,-1.2389885433248842,-0.5148405468619247,0.04450336858823153,-0.03830377143452997,0.8440374726133196,1,right
9.814,-0.542773208033775,0.3366325825682534,0.23432303269943314,-1.3457985499164888,-1.3203479721547393,-0.4636815649469451,0.06751389862827718,-0.03812867459541111,0.894051921010436,1,right
9.815,-0.5389593135495756,0.33891615605985226,0.23303653592029253,-1.3338463469113344,-1.4011700565458616,-0.4122644782594797,0.09066126324344191,-0.03809491508216706,0.9442102168413593,1,right
9.818999999999999,-0.5353168242794474,0.3413467319183465,0.23162585021277038,-1.3208847373476837,-1.481435717794008,-0.36063521186002573,0.11393243407385267,-0.03820371511939815,0.9944951500737444,1,right
9.818999999999999,-0.5318455672299521,0.3439229898434399,0.2300935196669232,-1.3069642428479626,-1.5611264587855584,-0.30883961821539324,0.1373143037236891,-0.03845640633991856,1.044889197533995,1,right
9.82,-0.5285449962353439,0.34664350975859537,0.228442179131518,-1.2921372863747695,-1.6402242748474163,-0.25692341404097574,0.1607936947162273,-0.03885443191900952,1.0953745325188933,1,right
9.823,-0.5254141972214388,0.3495067756430638,0.22667454997429207,-1.2764581142468328,-1.7187115628335006,-0.20493211641452533,0.18435736796688318,-0.039399347552143575,1.1459330337843552,1,right
9.824,-0.5224518944796803,0.3525111793708473,0.22479343612003191,-1.2599827148504803,-1.7965710299925437,-0.15291097921497507,0.20799203084139728,-0.040092821276908684,1.1965462940560416,1,right
9.828,-0.5196564579204187,0.35565502457808174,0.22280172033398452,-1.2427687346409069,-1.8737856045988146,-0.10090493134025064,0.23168434486658188,-0.040936632140279185,1.2471956282068157,1,right
9.829,-0.5170259112559089,0.3589365305945086,0.220702360711976,-1.2248753918658841,-1.9503383498870315,-0.048958517757050464,0.25542093316129455,-0.04193266771280238,1.2978620812462487,1,right
9.834,-0.5145579410431642,0.36235383648406133,0.21849838733268617,-1.2063633881557372,-2.026212382041423,0.0028841562858559168,0.27918838765550524,-0.04308292045169687,1.3485264362675335,1,right
9.835,-0.5122499065009368,0.365905005239993,0.21619289902592068,-1.187294817962101,-2.10139079254844,0.05457947794996577,0.3029732761654897,-0.044389482915290754,1.3991692224972658,1,right
9.839,-0.5100988500059533,0.3695880281701631,0.21378906021423771,-1.1677330757941873,-2.1758565751330003,0.10608437655415058,0.3267621493933096,-0.045854541831665194,1.449770723593604,1,right
9.839,-0.5081015081698864,0.3734008294888372,0.21129009779236171,-1.1477427611995128,-2.2495925574961904,0.15735637052536916,0.35054154791882763,-0.04748037102481248,1.5003109863383086,1,right
9.844,-0.5062543233978746,0.37734127110448906,0.2086992980176982,-1.1273895814344468,-2.3225813380703593,0.20835361170140046,0.37429800925255613,-0.0492693232020664,1.5507698298681056,1,right
9.845,-0.5045534558297969,0.3814071575634344,0.2060200033949522,-1.106740251768523,-2.3948052280054886,0.25903492713346477,0.39801807501764996,-0.05122382060701881,1.6011268555906903,1,right
9.847999999999999,-0.5029947955676598,0.38559624108276014,0.2032556095480104,-1.0858623933652292,-2.4662461985986193,0.30935985853593334,0.4216882983293258,-0.05334634454259779,1.6513614579305231,1,right
9.847999999999999,-0.5015739750981125,0.3899062265868073,0.20040956208208832,-1.06482442868095,-2.5368858343759815,0.35928869952953985,0.44529525143992543,-0.05563942376945199,1.7014528360493226,1,right
9.854,-0.5002863818280037,0.3943347766505805,0.1974853534474791,-1.0436954743228863,-2.6067052920352656,0.4087825308236004,0.46882553371773444,-0.058105621785261116,1.7513800066858778,1,right
9.855,-0.499127170661209,0.3988795162506148,0.19448651982184714,-1.0225452313061243,-2.675685265453221,0.457803253481726,0.4922657800275277,-0.06074752299107556,1.8011218182594435,1,right
9.857999999999999,-0.4980912765561957,0.4035380372280399,0.19141663802929973,-1.0014438726495665,-2.7438059569614786,0.506313620414377,0.5156026695806273,-0.06356771775127801,1.8506569663805714,1,right
9.859,-0.49717342701651634,0.40830790237875847,0.18827932251091126,-0.9804619282501758,-2.8110470550911253,0.5542772662403589,0.5388229353220411,-0.0665687863542573,1.899964010912762,1,right
9.863,-0.4963681544802124,0.41318664910091163,0.1850782223546557,-0.9596701669749252,-2.8773877189841452,0.601658735658003,0.5619133739219904,-0.06975328188138971,1.9490213947277848,1,right
9.865,-0.4956698085872697,0.41817179254956216,0.1818170183853584,-0.9391394759099868,-2.942806569667383,0.6484235104653125,0.5848608564388397,-0.07312371199243475,1.9978074642969215,1,right
9.868,-0.49507256831500596,0.4232608282720339,0.1784994203092032,-0.918940736707036,-3.0072816883821427,0.6945380353667825,0.6076523397201049,-0.07668251963597232,2.0463004922597325,1,right
9.868,-0.4945704539785009,0.428451234322045,0.1751291639028535,-0.8991446989670965,-3.0707906221599646,0.7399697427029338,0.630274878607845,-0.08043206269403479,2.0944787021112297,1,right
9.872,-0.4941573390975404,0.4337404728725217,0.17171000823298302,-0.8798218506030951,-3.1333103968324534,0.7846870762368329,0.6527156390143304,-0.08437459257062156,2.142320295147554,1,right
9.873,-0.49382696213465505,0.43912599136301345,0.16824573288713304,-0.8610422851232603,-3.1948175376603336,0.8286595141300004,0.6749619119334341,-0.08851223173432475,2.189803479809424,1,right
9.878,-0.493572938110969,0.4446052232277264,0.16474013519268868,-0.8428755657786402,-3.255288097764133,0.8718575912381553,0.6970011284129025,-0.09284695026231701,2.236906503473891,1,right
9.879,-0.4933887701066151,0.45017558825416404,0.16119702739916442,-0.8253905865193856,-3.3146976945360356,0.9142529208551889,0.7188208753131106,-0.09738054161588033,2.2836076863048995,1,right
9.879,-0.493267860650671,0.455834492620617,0.15762023379933354,-0.808655429705999,-3.3730215542095507,0.955818216031626,0.7404089113191046,-0.1021145982064874,2.329885455981771,1,right
9.883,-0.49320352300333714,0.46157932865813556,0.15401358776509433,-0.7927372205235085,-3.430234564760665,0.9965273105916098,0.7617531824731097,-0.10705048749438667,2.3757183816845595,1,right
9.884,-0.4931889923303431,0.467407474384043,0.15038092867512806,-0.7777019780484835,-3.48631133731109,1.036355179970142,0.7828418366930814,-0.11218932917983956,2.4210852061531623,1,right
9.889,-0.49321743676597934,0.4733162928568024,0.1467260987161777,-0.763614462920963,-3.5412262762010918,1.0752779619899258,0.8036632371004575,-0.11753197371946067,2.4659648754261774,1,right
9.89,-0.4932819683586942,0.47930313140078745,0.14305293954757167,-0.7505380215757081,-3.59495365789622,1.1132729776947068,0.8242059741785978,-0.12307898221831776,2.5103365663033204,1,right
9.891,-0.49337565389384286,0.4853653207441785,0.13936528882572066,-0.7385344271812705,-3.647467718644945,1.1503187522995755,0.844458876822466,-0.12883060771255586,2.5541797116616802,1,right
9.892000000000001,-0.4934915255909492,0.4915001741067147,0.13566697658961407,-0.7276637183958069,-3.6987427495807808,1.1863950360465967,0.8644110223393481,-0.1347867778578945,2.5974740237546925,1,right
9.892999999999999,-0.4936225916753783,0.4977049862683347,0.13196182151105082,-0.7179840387753691,-3.7487531957628693,1.2214828242663764,0.8840517454595904,-0.14094707903993403,2.64019951562126,1,right
9.899,-0.49376184682613494,0.5039770326461915,0.12825362701715745,-0.7095514806311941,-3.7974737544254236,1.2555643756739518,0.9033706464155216,-0.1473107419227934,2.6823365207309187,1,right
9.9,-0.4939022825043678,0.5103135684062963,0.1245461772976677,-0.7024199361780518,-3.8448794689229486,1.2886232281941066,0.9223575981458491,-0.15387662845318914,2.7238657109893896,1,right
9.902000000000001,-0.494036897171867,0.5167118276355759,0.12084323321237925,-0.6966409570952266,-3.8909458170507367,1.3206442120934705,0.9410027526819309,-0.16064322033765102,2.764768113227203,1,right
9.902999999999999,-0.4941587064137389,0.5231690225996211,0.11714852811419565,-0.6922636226675702,-3.935648793636523,1.3516134604633785,0.9592965467713979,-0.16760860901115238,2.8050251242924062,1,right
9.906,-0.49426075298295424,0.5296823431109953,0.11346576360189271,-0.6893344164862494,-3.9789649875394355,1.3815184171484238,0.9772297067936525,-0.17477048711601464,2.844618524866616,1,right
9.907,-0.49433611678649725,0.5362489560322288,0.10979860521541494,-0.6878971116926904,-4.0208716531885145,1.4103478422126645,0.9947932530207853,-0.18212614151052015,2.8835304921218814,1,right
9.912,-0.4943779248335092,0.5428660049361542,0.10615067808647331,-0.6879926647532494,-4.061346776789176,1.4380918150324205,1.011978503276439,-0.18967244782723777,2.921743611333959,1,right
9.914,-0.4943793611648092,0.5495306099438596,0.10252556256013969,-0.6896591177562845,-4.100369137322012,1.4647417351015495,1.0287770760441222,-0.1974058666016304,2.959240886565707,1,right
9.916,-0.49433367677948414,0.5562398677571447,0.09892678980830066,-0.6929315092275913,-4.137918362454255,1.490290320631997,1.0451808930754065,-0.2053224409920676,2.996005750532337,1,right
9.917,-0.4942341995670418,0.5629908518986771,0.09535783746040756,-0.6978417934645563,-4.173974979480151,1.5147316050293027,1.0611821815473608,-0.2134177961129148,3.0320220737582773,1,right
9.923,-0.4940743442438965,0.5697806131698345,0.09182212527934192,-0.7044187683938927,-4.208520461402279,1.5380609313196048,1.076773475817459,-0.22168714000290637,3.06727417313332,1,right
9.924,-0.4938476222826141,0.5766061803341382,0.08832301091090579,-0.7126880119624264,-4.241537268261662,1.5602749446015287,1.0919476188230712,-0.23012526625153534,3.101746819973636,1,right
9.926,-0.49354765181237403,0.583464561033532,0.08486378573469697,-0.7226718270751012,-4.273008883820195,1.5813715825931585,1.106697763171491,-0.23872655830670556,3.1354252476910927,1,right
9.927,-0.49316816746025216,0.5903527429443064,0.08144767084090286,-0.734389195099153,-4.302919847694605,1.6013500643411043,1.1210173719652672,-0.24748499548739028,3.1682951591721045,1,right
9.932,-0.492703030096488,0.5972676951777717,0.07807781315121533,-0.747855737958254,-4.331255783036751,1.6202108771554762,1.1349002194064228,-0.2563941607255258,3.2003427339650243,1,right
9.933,-0.492146236443258,0.6042063699278708,0.07475728169345684,-0.7630836888453504,-4.358003419850632,1.6379557618313676,1.148340391221917,-0.26544725006183606,3.2315546353727824,1,right
9.936,-0.49149192850436757,0.6111657043648403,0.07148906403008076,-0.7800818715878874,-4.383150614032014,1.654587696214243,1.161332284951475,-0.2746370839207359,3.2619180175451845,1,right
9.937000000000001,-0.49073440277222147,0.6181426227714231,0.06827606283215061,-0.7988556887041355,-4.40668636221204,1.6701108771634146,1.1738706101376533,-0.2839561201898907,3.291420532662888,1,right
9.942,-0.48986811916995815,0.6251340389152954,0.06512109258431044,-0.8194071181943786,-4.428600812481631,1.6845307009645913,1.185950388456739,-0.29339646913042555,3.3200503383027065,1,right
9.942,-0.48888770969160306,0.6321368586468995,0.06202687640295667,-0.8417347191158125,-4.448885271068913,1.6978537422392892,1.197566953827793,-0.30294991014416617,3.347796105071435,1,right
9.946,-0.4877879867095901,0.6391479827060654,0.05899604294801399,-0.8658336459950843,-4.467532205037236,1.7100877313957066,1.2087159525358475,-0.3126079104246666,3.374647024592921,1,right
9.947000000000001,-0.4865639509246402,0.6461643097164352,0.05603112340694992,-0.8916956721375139,-4.484535241066744,1.7212415306625044,1.219393343395702,-0.3223616454717792,3.400592817897863,1,right
9.948,-0.4852107989378755,0.6531827393471041,0.05313454852874627,-0.9193092218971248,-4.499889160377728,1.7313251087437802,1.2295953979402083,-0.3322020212131155,3.4256237440995467,1,right
9.952,-0.4837239304300441,0.660200175625316,0.05030864568772953,-0.9486594119766975,-4.513589889849348,1.7403495141304028,1.2393187005413768,-0.34211969704993017,3.4497306089414725,1,right
9.954,-0.4820989549362565,0.6672135303855417,0.047555635961844436,-0.9797281018321138,-4.525634489382523,1.7483268470997662,1.2485601483300581,-0.35210510890850377,3.4729047726364772,1,right
9.956,-0.480331698204914,0.6742197268346495,0.04487763121402926,-1.0124939532602906,-4.536021135551113,1.7552702304329586,1.257316950819814,-0.36214849161507906,3.4951381565780855,1,right
9.957,-0.4784182081285197,0.6812157032061985,0.042276631167654954,-1.0469324990983166,-4.544749101651486,1.76119377889392,1.2655866292134323,-0.3722399003387438,3.5164232487968476,1,right
9.958,-0.4763547602350603,0.6881984164773944,0.03975452046861317,-1.0830162201830502,-4.551818734609602,1.7661125676052694,1.2733670154103813,-0.3823692310835783,3.5367531081954713,1,right
9.962,-0.4741378627321662,0.6951648461292654,0.03731306572887799,-1.12071462831538,-4.557231429836766,1.7700425996201357,1.2806562507403514,-0.39252624025889804,3.556121367626616,1,right
9.962,-0.471764261101275,0.7021119979356674,0.03495391255068081,-1.1599943521948572,-4.560989605474208,1.773000773079505,1.28745278444664,-0.40270056335655996,3.574522235874462,1,right
9.966000000000001,-0.469230942245284,0.7090369077648391,0.03267858253766625,-1.2008192240784172,-4.563096677108133,1.7750048482486003,1.2937553719417243,-0.41288173276440837,3.59195049859846,1,right
9.967,-0.4665351382003287,0.7159366453725301,0.030488470308112223,-1.2431503663314698,-4.563557033395312,1.7760734145553645,1.299563072855961,-0.42305919474501785,3.6084015182948765,1,right
9.971,-0.4636743294291138,0.722808318163246,0.028384840533370436,-1.2869462778274607,-4.562376012680778,1.7762258576581988,1.3048752488989304,-0.4332223256089374,3.623871233328995,1,right
9.971,-0.4606462477187983,0.7296490748961401,0.026368825032007312,-1.3321629203130978,-4.5595598806136834,1.7754823265487627,1.3096915615515328,-0.44336044711166184,3.638356156088017,1,right
9.977,-0.45744887871042705,0.7364561093137647,0.02444141995753376,-1.3787538048607608,-4.555115808762661,1.7738637006929385,1.3140119696055192,-0.4534628411035441,3.651853370301927,1,right
9.978,-0.45408046408812835,0.7432266636748897,0.022603483124705434,-1.4266700785338147,-4.549051854227299,1.7713915572104484,1.317836726565713,-0.4635187634618216,3.664360527576745,1,right
9.98,-0.4505395034534938,0.7499580321759393,0.020855731525156566,-1.4758606113946193,-4.5413769402376705,1.7680881380910283,1.3211663779287612,-0.4735174573338579,3.675875843181774,1,right
9.98,-0.44682475590356413,0.7566475642493298,0.019198739087330392,-1.5262720839889745,-4.5321008377291525,1.7639763174425587,1.3240017583508286,-0.48344816572059807,3.6863980911296172,1,right
9.984,-0.4429352413199157,0.76329266773179,0.01763293473844386,-1.5778490754445407,-4.52123414787514,1.7590795687640963,1.3263439887152186,-0.4933001434291017,3.6959265985848777,1,right
9.985,-0.4388702413621691,0.7698908119005516,0.01615860082659082,-1.6305341523244337,-4.5087882855556325,1.7534219322343667,1.3281944731094941,-0.5030626684228554,3.704461239634631,1,right
9.99,-0.43462930014392653,0.776439530378343,0.01477587195669816,-1.68426795838069,-4.494775463735056,1.7470279820039563,1.3295548957202385,-0.5127250525983685,3.7120024284508912,1,right
9.991,-0.4302122245554982,0.7829364239097535,0.01348473428360555,-1.7389893053556482,-4.4792086787181455,1.7399227934771881,1.3304272176521967,-0.5222766520163322,3.718551111872443,1,right
9.995,-0.42561908418849825,0.7893791630133028,0.012285025290230725,-1.7946352649824664,-4.462101696248144,1.7321319105674815,1.3308136736771083,-0.5317068766153632,3.7241087614305592,1,right
9.995,-0.4208502108140228,0.7957654905155608,0.011176434061225211,-1.8511412623390093,-4.443469038407103,1.7236813129078827,1.3307167689161516,-0.541005199436067,3.7286773648402716,1,right
10.0,-0.4159061973674057,0.8020932239744607,0.010158502045964787,-1.9084411707121685,-4.423325971273583,1.714597382996408,1.3301392754585044,-0.5501611653828371,3.7322594169760053,1,right
10.001,-0.4107878963964784,0.8083602579979683,0.009230624291955139,-1.9664674081323317,-4.401688493288654,1.7049068732538766,1.3290842289171396,-0.5591643995504579,3.7348579103475554,1,right
10.004,-0.4054964179375944,0.8145645664623156,0.008392051120599962,-2.025151035740186,-4.378573324276694,1.69463687297001,1.3275549249215826,-0.5680046151422007,3.7364763250895225,1,right
10.005,-0.40003312679533465,0.8207042046317651,0.0076418902091046955,-2.0844218581503187,-4.353997895063157,1.6838147751117658,1.325554915545978,-0.5766716210056925,3.7371186184745198,1,right
10.01,-0.39439963921558613,0.8267773111788589,0.006979109034189604,-2.144208525978157,-4.327980337627191,1.6724682429661202,1.3230880056694416,-0.5851553288123995,3.7367892139576124,1,right
10.011000000000001,-0.38859781895443196,0.832782110099863,0.006402537627249076,-2.2044386406986822,-4.3005394757227355,1.6606251765878577,1.3201582492643127,-0.5934457599060998,3.7354929897566502,1,right
10.014,-0.3826297727551354,0.8387169125155448,0.005910871587997404,-2.2650388620070334,-4.271694815897528,1.6483136790213395,1.3167699456065693,-0.60153305184522,3.73323526697035,1,right
10.015,-0.37649784525136654,0.8445801183442053,0.005502675304129926,-2.325935017852591,-4.241466538835349,1.6355620222637135,1.3129276354048198,-0.6094074646665469,3.730021797247608,1,right
10.016,-0.37020461331541693,0.8503702178339487,0.005176385328757239,-2.387052217319412,-4.209875490942685,1.6223986129356034,1.308636096860417,-0.6170593869130695,3.725858750090875,1,right
10.022,-0.3637528798664717,0.8560857929450141,0.004930313875648451,-2.4483149665269464,-4.176943176097012,1.6088519576239748,1.3039003417013544,-0.6244793414965607,3.7207527000034313,1,right
10.023,-0.3571456671524773,0.8617255185771557,0.004762652400710357,-2.5096472877258096,-4.142691747469892,1.5949506278606018,1.2987256112487586,-0.6316579914807031,3.7147106137598085,1,right
10.024,-0.3503862095235973,0.8672881636383688,0.004671475243997706,-2.5709728416282593,-4.10714399934231,1.5807232247205796,1.2931173725560432,-0.6385861458541171,3.7077398380037194,1,right
10.025,-0.34347794571854795,0.8727725919523855,0.004654743313476955,-2.6322150523346592,-4.070323358866434,1.566198343135208,1.2870813146280848,-0.6452547653335485,3.699848087245389,1,right
10.026,-0.33642451068085244,0.8781777630055551,0.004710307801075945,-2.6932972329955587,-4.0322538777973245,1.5514045362123166,1.280623344709059,-0.6516549682209773,3.6910434322553627,1,right
10.029,-0.32922972691707203,0.8835027325353642,0.004835913929563689,-2.754142709670223,-3.9929602242550106,1.536370279967147,1.2737495846228366,-0.6577780363345322,3.681334288834784,1,right
10.031,-0.3218975954116276,0.8887466529605141,0.005029204734821899,-2.8146749415209915,-3.952467674533072,1.5211239387550755,1.2664663671486147,-0.6636154210323474,3.6707294069394902,1,right
10.033999999999999,-0.3144322861194952,0.8939087736490401,0.005287724893282192,-2.874817636704213,-3.910802104893173,1.505693731496917,1.2587802324132427,-0.6691587493477296,3.6592378601326447,1,right
10.035,-0.30683812806167887,0.8989884410186396,0.005608924607385602,-2.9344948639966333,-3.867989983240837,1.4901076986758774,1.2506979242805094,-0.6743998302532074,3.6468690353380397,1,right
10.038,-0.29911959904819135,0.9039850984613317,0.005990163563125228,-2.9936311603309584,-3.824058360566196,1.4743936700624147,1.2422263867164842,-0.6793306610702129,3.633632622863623,1,right
10.039,-0.29128131505239635,0.9088982860826587,0.00642871497607454,-3.0521516344132107,-3.779034862030082,1.458579233122745,1.2333727601088469,-0.6839434340403036,3.6195386066622484,1,right
10.044,-0.2833280192610987,0.9137276402442761,0.006921769746703098,-3.1099820665931426,-3.732947677572527,1.4426917020662782,1.2241443775170007,-0.6882305430729629,3.6045972547941516,1,right
10.045,-0.2752645708278456,0.9184728928970536,0.007466440750581486,-3.167049005157439,-3.685825551917525,1.4267580874869008,1.2145487608286498,-0.6921845906841282,3.5888191100531404,1,right
10.049,-0.2670959333629819,0.9231338706898867,0.008059767292886558,-3.223279859213652,-3.6376977738447844,1.4108050665527323,1.2045936167974216,-0.6957983951386797,3.572214980716028,1,right
10.05,-0.2588271632019029,0.9277104938394807,0.008698719758498084,-3.278602988330855,-3.5885941645961292,1.3948589536987732,1.1942868329350385,-0.699064997809192,3.5547959313724236,1,right
10.054,-0.2504633975009481,0.9322027747500305,0.009380204487909627,-3.3329477891007837,-3.5385450652812405,1.3789456717767332,1.1836364732304925,-0.70197767076229,3.536573273789567,1,right
10.054,-0.2420098422180448,0.9366108163787481,0.010101068904477322,-3.386244778780855,-3.4875813231445556,1.3630907236162615,1.1726507736676397,-0.7045299245829774,3.5175585577645347,1,right
10.058,-0.23347176004297993,0.9409348103524854,0.010858106910482848,-3.438425676177836,-3.4357342765523176,1.3473191639518287,1.161338137511624,-0.7067155164463041,3.4977635619137946,1,right
10.059,-0.22485445834999124,0.945175034851174,0.011648064559733948,-3.4894234799281336,-3.383035738556069,1.3316555716696015,1.14970713033355,-0.7085284584447313,3.4772002843478034,1,right
10.062999999999999,-0.21616327725211976,0.9493318522842952,0.012467646004430389,-3.539172544327666,-3.3295179788862557,1.316124022328815,1.1377664747418668,-0.7099630261785074,3.4558809331760285,1,right
10.064,-0.20740357784100108,0.9534057067963153,0.013313519703713445,-3.587608652861071,-3.2752137042270504,1.3007480609123911,1.1255250447879825,-0.7110137676153235,3.4338179167855625,1,right
10.068,-0.1985807306973236,0.9573971216457348,0.014182324870342442,-3.634669089576617,-3.2201560366210993,1.2855506747618535,1.1129918600127158,-0.7116755122244441,3.411023833834283,1,right
10.07,-0.18970010475668275,0.9613066965101082,0.015070678119952491,-3.680292708449592,-3.1643784898505056,1.2705542666519762,1.100176079099297,-0.7119433803894205,3.387511462897345,1,right
10.073,-0.18076705661304682,0.9651351047762342,0.015975180274235327,-3.724420000873176,-3.1079149436381197,1.255780627961041,1.0870869930977796,-0.7118127931023956,3.363293751703644,1,right
10.073,-0.17178692033726733,0.9688830908802443,0.016892423257286807,-3.7669931614118637,-3.0507996155110497,1.2412509118930952,1.0737340181848705,-0.7112794819418914,3.338383805896798,1,right
10.078,-0.16276499788019058,0.972551467764741,0.017818997015820452,-3.807956151948367,-2.9930670301662223,1.2269856067091756,1.0601266879223863,-0.710339499334837,3.312794877253137,1,right
10.079,-0.15370655011770093,0.9761411145174999,0.018751496389315704,-3.847254764350647,-2.934751986175872,1.2130045089251043,1.0462746449767528,-0.708989229102455,3.2865403512871443,1,right
10.083,-0.1446167885794186,0.979652974248039,0.019686527856201532,-3.8848366817812496,-2.8758895198689474,1.1993266964341598,1.0321876322612098,-0.707225397288463,3.2596337341728345,1,right
10.084,-0.1355008678863704,0.983088052245864,0.020620716088918033,-3.9206515387665033,-2.816514866222667,1.1859705015136848,1.0178754834843815,-0.7050450832488586,3.2320886389469647,1,right
10.084,-0.12636387890680886,0.9864474144502395,0.02155071026443284,-3.9546509801383674,-2.75666341659677,1.1729534836755107,1.003348113201824,-0.7024457308912408,3.2039187711550174,1,right
10.087,-0.11721084262460925,0.9897321862474969,0.02247319009374578,-3.986788718956775,-2.6963706731414447,1.1602924023209427,0.98861550667106,-0.6994251597882003,3.175137914453501,1,right
10.089,-0.10804670470403244,0.992943551596683,0.023384871547225964,-4.017020593515266,-2.635672199708445,1.1480031891619733,0.9736877099236168,-0.6959815757979806,3.1457599168772297,1,right
10.093,-0.09887633072880908,0.9960827524676866,0.02428251225920752,-4.045304623453572,-2.574603569224462,1.1361009204164332,0.9585748203533135,-0.6921135809145428,3.115798678281509,1,right
10.094,-0.08970450209029365,0.9991510885634233,0.02516291659953977,-4.0716010646259715,-2.5132003081392327,1.1245997890111048,0.9432869779148805,-0.6878201822301943,3.0852681391128978,1,right
10.095,-0.08053591249710688,1.0021499172926442,0.026022940405520043,-4.095872461703666,-2.451497839738093,1.1135130774334534,0.9278343569127775,-0.6831007999828588,3.0541822704635733,1,right
10.097999999999999,-0.07137516507649024,1.0050806539550494,0.026859495372548187,-4.1180836971143195,-2.3895314287622997,1.102853132099045,0.9122271583368197,-0.6779552746768741,3.022555065323257,1,right
10.1,-0.06222677003495201,1.0079447720882435,0.0276695531031928,-4.138202035285702,-2.327336129124799,1.0926313398775593,0.896475602700713,-0.6723838732649834,2.990400530941024,1,right
10.102,-0.05309514284278221,1.0107438039125605,0.028450148813353705,-4.156197161819687,-2.264946735329882,1.0828581070159502,0.8805899233391318,-0.6663872943779607,2.9577326822077334,1,right
10.103,-0.043984602903835116,1.0134793408039486,0.029198384694227742,-4.172041217586438,-2.2023977375497075,1.0735428404732088,0.8645803601185225,-0.6599666725870915,2.9245655359682363,1,right
10.109,-0.034899372668759386,1.0161530337268916,0.02991143293244338,-4.185708827796506,-2.1397232801791066,1.064693931637395,0.8484571535164097,-0.6531235816835022,2.8909131061710376,1,right
10.109,-0.02584357714762343,1.0187665935641765,0.030586538398522836,-4.197177126102482,-2.0769571236895112,1.0563187423968767,0.8322305390235875,-0.6458600369571161,2.856789399761586,1,right
10.112,-0.016821243776862286,1.0213217912860881,0.031221021024393628,-4.206425773775665,-2.014132609602392,1.0484235935390362,0.8159107418232282,-0.6381784964567953,2.8222084132239473,1,right
10.113,-0.007836302593942428,1.0238204579082624,0.031812277902048,-4.213436973996947,-1.9512826284022398,1.0410137554510392,0.7995079717006142,-0.6300818612120109,2.7871841296742086,1,right
10.117,0.001107413329239196,1.0262644841942434,0.03235778514678579,-4.218195481294833,-1.888439590208839,1.0340934410986191,0.7830324181368972,-0.6215734743951862,2.751730516407624,1,right
10.117,0.01000616724349552,1.0286558200637361,0.032855099579779085,-4.22068860615712,-1.8256353980284352,1.0276658012602085,0.7664942455400275,-0.6126571194026451,2.7158615228001857,1,right
10.122,0.01885631791483717,1.0309964736700905,0.03330186029491012,-4.220906214836338,-1.7629014234033151,1.0217329219951405,0.7499035885657527,-0.6033370168309208,2.6795910784640373,1,right
10.123,0.027654318689110925,1.0332885101124998,0.03369579018155705,-4.218840724362608,-1.7002684842793294,1.0162958243260465,0.7332705474813781,-0.5936178203239848,2.6429330915549056,1,right
10.127,0.03639671645694821,1.035534049751889,0.0340346974760038,-4.214487092771045,-1.6377668249110149,1.0113544661169884,0.7166051835248022,-0.5835046112657946,2.6059014471285473,1,right
10.128,0.04508015053818283,1.0377352661053478,0.0343164774085202,-4.2078428045443195,-1.5754260976241583,1.006907746130286,0.6999175142111855,-0.5730028922913932,2.5685100054420382,1,right
10.133,0.05370135149494451,1.0398943833016927,0.03453911400029523,-4.198907851264434,-1.5132753462559407,1.0029535102464187,0.6832175085394957,-0.5621185795886534,2.530772600094627,1,right
10.134,0.062257139873677494,1.042013673089526,0.034700682043717006,-4.187684707461206,-1.451342991093179,0.9994885598328045,0.6665150820510735,-0.550857993961624,2.492703035901803,1,right
10.136000000000001,0.07074442487036481,1.044095451399409,0.03479934927351974,-4.174178301638356,-1.389656815129634,0.9965086622486782,0.6498200916923006,-0.5392278506253236,2.4543150863951952,1,right
10.137,0.07916020291054675,1.0461420744742098,0.034833378710136455,-4.158395982451557,-1.328243951463906,0.9940085634747005,0.6331423304334194,-0.5272352477007266,2.4156224908399166,1,right
10.142000000000001,0.08750155613682241,1.0481559345954363,0.034801131132577164,-4.140347480006207,-1.2671308716600629,0.9919820028573364,0.616491521595541,-0.5148876533776077,2.3766389506600234,1,right
10.142000000000001,0.0957656508011387,1.0501394554469192,0.03470106761664639,-4.120044862236124,-1.2063433748938504,0.9904217299594311,0.5998773128379039,-0.5021928917118503,2.3373781251618397,1,right
10.146,0.10394973556520044,1.0520950871703327,0.034531752058260874,-4.097502486317881,-1.1459065777081183,0.9893195235097879,0.5833092697574936,-0.48915912702278314,2.2978536264440224,1,right
10.147,0.11205113971817665,1.0540253011793737,0.03429185359545934,-4.072736945068919,-1.0858449042019602,0.9886662124459101,0.5667968690532099,-0.47579484685508966,2.258079013382409,1,right
10.152000000000001,0.1200672713258143,1.055932584809244,0.033980148847766845,-4.0457670082711825,-1.026182076478989,0.9884516990454065,0.5503494912068749,-0.46210884346884096,2.218067784576891,1,right
10.152999999999999,0.127995615328216,1.0578194358829707,0.03359552390519794,-4.0166135588555205,-0.9669411051811869,0.9886649841428767,0.5339764126553345,-0.4481101938644168,2.17783337019873,1,right
10.154,0.13583373160463882,1.059688357272842,0.033136976017518485,-3.9852995238757765,-0.9081442799358349,0.9892941944303748,0.5176867975372075,-0.4338082385690874,2.137389122935688,1,right
10.157,0.1435792530227935,1.061541851524448,0.03260361495354845,-3.9518498001951152,-0.849813159544182,0.990326611840813,0.5014896892944782,-0.41921255980881894,2.096748308699063,1,right
10.158,0.15122988348623986,1.0633824156025193,0.03199466401600452,-3.9162911748008997,-0.7919685617417129,0.9917487050148933,0.48539400251848175,-0.4043329599089238,2.0559240980157494,1,right
10.161,0.15878339598602473,1.0652125358190236,0.03130946070841775,-3.8786522396582037,-0.7346305523611569,0.9935461628533444,0.46940851532093075,-0.3891794405453516,2.014929558768169,1,right
10.161,0.16623763065412514,1.0670346830056887,0.030547457059558646,-3.838963301163484,-0.6778184337884346,0.9957039301192961,0.4535418623144421,-0.37376218306985604,1.9737776504769542,1,right
10.162,0.17359049281082525,1.06885130798419,0.029708219617915387,-3.797256285041636,-0.6215507328917598,0.9982062448661901,0.4378025281781724,-0.35809152991050497,1.9324812200610668,1,right
10.167,0.1808399509968843,1.0706648373701046,0.028791429132632027,-3.7535646389416266,-0.5658451891250785,1.0010366771247312,0.42219884176265854,-0.34217796700402375,1.891052998957616,1,right
10.168,0.18798403497900834,1.0724776697289957,0.027796879940872682,-3.7079232357678067,-0.5107187437971615,1.0041781680928714,0.4067389706883012,-0.32603210721570447,1.8495056014831808,1,right
10.171,0.19502083370949397,1.0742921720855396,0.02672447908852442,-3.660368279990427,-0.45618753121060374,1.0076130692643508,0.3914309163922946,-0.309664674701886,1.807851524318038,1,right
10.171,0.20194849321196204,1.0761106767664552,0.0255742452197942,-3.6109372177552173,-0.40226687185708554,1.0113231812752395,0.37628250957919357,-0.29308649016931243,1.7661031469943014,1,right
10.177,0.20876521436015075,1.0779354785357849,0.02434630727954233,-3.559668650818559,-0.3489712675682914,1.0152897924393545,0.3613014060307253,-0.27630845698500955,1.7242727332686518,1,right
10.177999999999999,0.21546925051537433,1.0797688319601548,0.023040903081869197,-3.5066022541717095,-0.2963143984658631,1.019493716982384,0.34649508273088436,-0.25934154808968507,1.6823724332600194,1,right
10.18,0.22205890498817432,1.0816129489229642,0.02165837780996392,-3.4517786972121587,-0.24430912155552073,1.0239153329853345,0.33187083426281117,-0.24219679366704908,1.6404142862323137,1,right
10.181000000000001,0.22853252829019216,1.083469996190295,0.020199182521327994,-3.3952395683149277,-0.1929674708122769,1.0285346200486578,0.3174357694344338,-0.2248852695208813,1.5984102239020639,1,right
10.185,0.23488851514324832,1.0853420929201953,0.018663872733768426,-3.337027302651447,-0.1423006586055024,1.0333311966890864,0.3031968080903534,-0.2074180861111268,1.5563720741506197,1,right
10.185,0.2411253012138692,1.0872313080029887,0.017053107158472865,-3.2771851130986116,-0.09231907831447154,1.0382843574818428,0.2891606780679775,-0.1898063781997916,1.5143115650204082,1,right
10.19,0.24724135954374987,1.0891396571231038,0.015367646628650412,-3.215756924075684,-0.043032307986920745,1.0433731099614445,0.2753339122564478,-0.17206129505693127,1.4722403288746078,1,right
10.191,0.2532351966516771,1.0910690994424808,0.01360835325005818,-3.1527873081419044,0.0055508851049092915,1.048576211294841,0.26172284571747173,-0.1541939911765774,1.430169906599493,1,right
10.196,0.2591053482914164,1.0930215338226124,0.011776189777298426,-3.0883214251830027,0.05342253915431105,1.0538722047410667,0.24833361282775082,-0.13621561745203242,1.388111751728655,1,right
10.196,0.2648503748619439,1.0949987945250477,0.009872219199003246,-3.0224049640102297,0.10057549189779633,1.0592394559119833,0.23517214440329817,-0.11813731275957998,1.346077234368256,1,right
10.2,0.27046885647885777,1.0970026463551608,0.00789760449691559,-2.9550840861911176,0.14700337421998036,1.0646561888490103,0.2222441647665574,-0.09997019589930671,1.3040776448024922,1,right
10.201,0.2759593877273624,1.0990347792390256,0.005853608529401437,-2.886405371926872,0.1927006034231709,1.0701005219310114,0.20955518871787218,-0.08172535784141244,1.2621241966584598,1,right
10.205,0.2813205721273171,1.1010968022476197,0.0037415939802058883,-2.8164157677871318,0.23766237629710668,1.0755505036287125,0.19711051837350935,-0.06341385422609855,1.220228029509701,1,right
10.205,0.2865510163485393,1.1031902371052988,0.0015630233099570917,-2.7451625361088112,0.28188466212220786,1.0809841481211604,0.18491523983310876,-0.04504669806486924,1.1784002107977993,1,right
10.21,0.29164932421954903,1.1053165112384786,-0.0006805413479815259,-2.672693205861818,0.3253641957376041,1.0863794707898164,0.17297421964011941,-0.026634852590856777,1.1366517369515232,1,right
10.211,0.29661409057648325,1.107476950433823,-0.002987438395222497,-2.599055524780697,0.36809847080309493,1.0917145236058945,0.16129210099948227,-0.008189224205590479,1.0949935335831897,1,right
10.215,0.3014438950017525,1.1096727711833243,-0.00535590711318404,-2.524297412557605,0.41008573338207427,1.0969674304265062,0.14987329971753682,0.010279344530530926,1.0534364546421107,1,right
10.216000000000001,0.3061372955037051,1.111905072798666,-0.007784088163998698,-2.4484669148885385,0.4513249759703186,1.1021164222150628,0.13872199982985786,0.028760081916932367,1.011991280405211,1,right
10.219,0.31069282218885497,1.1141748293803715,-0.010270024255533632,-2.371612158161369,0.4918159320933995,1.1071398722012147,0.12784214888347245,0.04724229419368696,0.9706687141851709,1,right
10.22,0.31510897097722534,1.1164828817283174,-0.012811660973435373,-2.2937813045710405,0.531559071593336,1.1120163309953741,0.11723745284066255,0.06571537273750411,0.9294793776367328,1,right
10.221,0.31938419740875673,1.1188299292783217,-0.015406847783193393,-2.2150225074441794,0.5705555967229557,1.1167245616725607,0.10691137059076707,0.08416880140711848,0.8884338045967798,1,right
10.225,0.3235169105837079,1.1212165221424744,-0.018053339207990463,-2.135383866552449,0.6088074391642866,1.1212435748399583,0.09686710814937204,0.1025921639781722,0.8475424336673675,1,right
10.226,0.3275054672734282,1.1236430533207602,-0.020748796191548787,-2.0549133831911552,0.6463172580851514,1.1255526637021462,0.0871076127910225,0.12097515143818777,0.8068156002430799,1,right
10.23,0.331348166233283,1.1261097511479108,-0.02349078765930694,-1.973658914893845,0.6830884392843282,1.129631439112892,0.07763556745458622,0.13930756881802384,0.7662635289577123,1,right
10.231,0.3350432427479944,1.128616672043947,-0.02627679229578183,-1.891668130135511,0.7191250951651513,1.1334598644788803,0.06845338566901116,0.1575793413302686,0.7258963272525057,1,right
10.231,0.3385888634389332,1.131163693639062,-0.02910420055944087,-1.8089884642465832,0.754432064720274,1.137018290158817,0.05956320708208242,0.17578051975437956,0.6857239802768261,1,right
10.234,0.34198312136357173,1.133750508344344,-0.03197031696045721,-1.7256670782420482,0.7890149123998443,1.140287486877716,0.05096689358341247,0.19390128510238175,0.6457563470594608,1,right
10.234,0.345224031441562,1.1363766174502388,-0.03487236263494912,-1.641750821783501,0.8228799250415868,1.1432486777984212,0.04266602599529141,0.21193195261759323,0.6060031578345881,1,right
10.238999999999999,0.34830952624735717,1.1390413258508583,-0.037807478259773986,-1.557286200618014,0.8560341065942126,1.1458835691129916,0.03466190130586203,0.2298629751586436,0.5664740124070363,1,right
10.24,0.35123745221194036,1.1417437375016914,-0.04077272735733304,-1.4723193483514458,0.8884851706718473,1.148174379138702,0.02695553041992825,0.24768494602082086,0.5271783794420383,1,right
10.244000000000002,0.3540055662751493,1.144482751717468,-0.043765100035290674,-1.386896002315221,0.9202415310367791,1.1501038659271288,0.019547636403553448,0.26538860124652364,0.48812559656530236,1,right
10.245,0.3566115330265698,1.1472570604073027,-0.04678151719237348,-1.3010614832840386,0.9513122901057862,1.151655353393852,0.012438653199457294,0.2829648214763092,0.44932487115986053,1,right
10.249,0.3590529223689494,1.150065146325788,-0.04981883520218117,-1.2148606788005158,0.9817072255732838,1.1528127559753163,0.00562872479107412,0.30040463339171525,0.41078528174683127,1,right
10.25,0.36132720773645105,1.1529052823917394,-0.05287385106681154,-1.1283380298614711,1.0114367752425393,1.1535606018183584,-0.0008822952060070234,0.3176992108006939,0.37251577983792644,1,right
10.254000000000001,0.36343176490408974,1.1557755320930236,-0.055943308014969974,-1.0415375207193591,1.0405120201542346,1.153884054506824,-0.007094843545642593,0.33483987541612964,0.3345251921482586,1,right
10.255999999999998,0.36536387143536864,1.1586737509595568,-0.05902390150591785,-0.9545026715513254,1.0689446660997142,1.1537689333285643,-0.013009646965338437,0.3518180973775229,0.2968222230587543,1,right
10.259,0.36712070683012527,1.161597589050919,-0.06211228559001789,-0.8672765337474171,1.096747023604347,1.1532017320849302,-0.018627721431762743,0.3686254955655031,0.25941545721825304,1,right
10.26,0.3686993534507743,1.164544494374364,-0.06520507956983945,-0.7799016875686873,1.1239319864645543,1.1521696364436622,-0.023950371035416584,0.3852538377583932,0.22231336217617553,1,right
10.263,0.37009679832033404,1.1675117171266784,-0.06829887490568422,-0.6924202419252607,1.1505130089202087,1.1506605398348149,-0.028979186551455927,0.4016950406795816,0.18552429093746775,1,right
10.263,0.3713099358979529,1.1704963146411118,-0.07139024231651157,-0.6048738360238729,1.1765040815423013,1.1486630578880606,-0.03371604368280714,0.4179411699839672,0.1490564843323801,1,right
10.269,0.3723355719455837,1.1734951569191086,-0.07447573903974286,-0.5173036426339696,1.201919705914,1.146166541408381,-0.03816310100086997,0.4339844402312283,0.11291807309451497,1,right
10.27,0.37317042860282884,1.1765049326344168,-0.07755191623106249,-0.4297503727211456,1.2267748681814912,1.1431610878857865,-0.0423227975982585,0.4498172148931301,0.07711707954147533,1,right
10.273,0.3738111507858386,1.1795221555096265,-0.08061532650913925,-0.3422542811965144,1.2510850115492982,1.1396375515333026,-0.04619785046719241,0.4654320064415243,0.041661418753369595,1,right
10.274000000000001,0.3742543140175948,1.182543170979043,-0.0836625316737126,-0.2548551735305291,1.274866007793126,1.1355875518460292,-0.04979125161631907,0.480821476563113,0.006558899145374035,1,right
10.277000000000001,0.37449643377296365,1.18556416307325,-0.08669011062982052,-0.16759241297982566,1.2981341278616636,1.131003480672622,-0.05310626493792201,0.4959784365464433,-0.028182777668477023,1,right
10.277999999999999,0.3745339763750897,1.1885811615009876,-0.08969466752100073,-0.08050492817582074,1.320906011637217,1.1258785077890499,-0.05614642283665416,0.510895847885975,-0.06255601782211094,1,right
10.284,0.3743633714150032,1.1915900489613274,-0.09267284001844395,0.006368779175925927,1.3431986369235214,1.1202065849629843,-0.05891552263012576,0.5255668231474145,-0.09655333705567014,1,right
10.284,0.37398102560118246,1.1945865687733488,-0.09562130765352347,0.09299062673618252,1.3650292877276156,1.1139824484956329,-0.0614176227308778,0.5399846271378429,-0.1301673635849863,1,right
10.289000000000001,0.373383337894718,1.1975663329385795,-0.09853680003272665,0.17932294436244633,1.3864155219012304,1.1072016202262829,-0.06365703861848267,0.5541426784234761,-0.1633908420810043,1,right
10.29,0.37256671574990846,1.2005248307424354,-0.10141610474669095,0.26532846757875783,1.4073751382057695,1.0998604069832487,-0.06563833860973566,0.5680345512371892,-0.19621663885680554,1,right
10.290999999999999,0.3715275922566364,1.2034574379610061,-0.10425607479436688,0.3509703319336879,1.4279261428636332,1.0919558984633342,-0.06736633942784585,0.5816539778019784,-0.2286377483124157,1,right
10.292,0.37026244397743124,1.2063594266905409,-0.10705363539600765,0.4362120684944277,1.4480867156573614,1.0834859635203216,-0.06884610153933791,0.5949948510196406,-0.26064730045464435,1,right
10.293,0.36876780929140723,1.2092259757772668,-0.10980579014369923,0.521017600723973,1.4678751756368476,1.074449244841392,-0.07008292417003814,0.6080512273361134,-0.2922385688907929,1,right
10.298,0.36704030707492713,1.2120521817887042,-0.11250962650217516,0.6053512429873508,1.4873099464936965,1.0648451519887645,-0.07108233987934766,0.6208173295179888,-0.323404978462089,1,right
10.3,0.36507665555254165,1.214833070423007,-0.11516232070620679,0.689177700931686,1.5064095216606843,1.0546738527822197,-0.07185010860273647,0.6332875491500634,-0.3541401119133381,1,right
10.3,0.36287369117289764,1.2175636082159136,-0.11776114210264717,0.7724620738754533,1.5251924291818555,1.0439362630314015,-0.07239221112829167,0.6454564488000384,-0.38443771541135413,1,right
10.302999999999999,0.36042838742148,1.2202387144045486,-0.12030345696848671,0.8551698587998858,1.5436771963410147,1.0326340347994325,-0.07271484200391462,0.6573187638718039,-0.414291702955323,1,right
10.304,0.35773787354853226,1.222853272846655,-0.12278673182134182,0.9372669545602258,1.561882313933246,1.0207695436914392,-0.07282440187738579,0.668869404183116,-0.4436961597673807,1,right
10.307,0.35479945324418105,1.2254021439485514,-0.12520853624280884,1.0187196643919334,1.5798262000064238,1.0083458758342345,-0.07272748927086754,0.6801034553026165,-0.4726453447504288,1,right
10.308,0.35161062333511717,1.2278801766075693,-0.1275665452695384,1.099494695326324,1.5975271629555767,0.9953668150375063,-0.07243089179078595,0.6910161796802591,-0.5011336920989381,1,right
10.312000000000001,0.34816909260358914,1.2302822202287977,-0.12985854146646872,1.1795591541021897,1.6150033639543349,0.9818368303115628,-0.07194157677342022,0.7016030176043146,-0.5291558121471981,1,right
10.312999999999999,0.34447280082958787,1.232603136935106,-0.13208241684395675,1.2588805396991154,1.6322727787636924,0.9677610637408065,-0.07126668136593613,0.7118595880172177,-0.5567064915381649,1,right
10.317,0.34051993813352166,1.2348378141421834,-0.1342361747662009,1.3374267327244709,1.6493531589689798,0.953145318675663,-0.07041350204202627,0.7217816892215935,-0.583780692794734,1,right
10.318,0.3363089646616665,1.236981177698997,-0.1363179319114303,1.4151659818840083,1.6662619926952844,0.9379960482041045,-0.06938948355076716,0.731365299506869,-0.6103735533739286,1,right
10.322000000000001,0.331838630622518,1.239028205782149,-0.13832592023121923,1.4920668877638639,1.6830164648509702,0.9223203438623471,-0.06820220729676961,0.740606577725924,-0.6364803842831367,1,right
10.323,0.3271079966558868,1.240973943673017,-0.14025848878222794,1.5680983841495428,1.699633416948402,0.9061259245427464,-0.06685937914918788,0.7495018638502762,-0.6620966683361634,1,right
10.328,0.3221164544925899,1.2428135194546792,-0.14211410530186216,1.6432297171051404,1.7161293065504852,0.8894211255553908,-0.06536881667666193,0.7580476795313251,-0.6872180581254844,1,right
10.328,0.3168637478255208,1.2445421605774176,-0.14389135745501555,1.7174304220336465,1.7325201663911878,0.8722148877983716,-0.06373843580479889,0.7662407286941911,-0.7118403737856867,1,right
