time,gFx,gFy,gFz,ax,ay,az,wx,wy,wz,subject_number,foot
10.066,0.08395425445517898,1.2420082548283409,-0.1943703569727978,1.5926330406909903,0.2953944208201589,0.32477491768168454,-0.32892433649481084,2.7979196063661655,-0.15403781456456722,3,right
10.067,0.07461704650904928,1.2459438416272512,-0.19423501644782976,1.6106191293290864,0.3472767969708785,0.3013624381307829,-0.3404301978282587,2.8121498378666017,-0.2106296454886419,3,right
10.07,0.0651195272661238,1.2498418499348172,-0.19400795454444097,1.627885225462594,0.39859288398268594,0.27749291515562235,-0.35134042722714254,2.8248896914091675,-0.2665717826574981,3,right
10.075,0.055466684649021804,1.2536968866871063,-0.19368824205584267,1.644417049762816,0.4493636515365077,0.2531771330308339,-0.3616578171748233,2.8361400919514828,-0.32183431675181035,3,right
10.076,0.045663678127501314,1.2575034706285022,-0.19327509354153702,1.6602002881032807,0.49961085655532006,0.2284268154231558,-0.37138572229732225,2.84590352124691,-0.3763877895262286,3,right
10.076,0.03571584135485144,1.261256054819534,-0.19276787414810218,1.6752205679120524,0.5493569593161637,0.20325461663018315,-0.38052804751641234,2.854184001538914,-0.43020323096011276,3,right
10.082,0.02562868539186922,1.2649490493548667,-0.19216610635394255,1.6894634357985499,0.5986250374253366,0.1776741104228301,-0.38908923584285177,2.8609870772522275,-0.48325219886365484,3,right
10.083,0.01540790281572042,1.2685768440399945,-0.1914694767790569,1.7029143365001769,0.6474386978011583,0.15169977642043173,-0.39707425582077177,2.866319794754699,-0.5355068205017093,3,right
10.084,0.005059372896982624,1.272133830822113,-0.19067784313787764,1.7155585931918846,0.6958219868072651,0.1253469839262017,-0.4044885886071429,2.870190680328234,-0.586939834904038,3,right
10.085,-0.005410832098532086,1.2756144258293274,-0.1897912413077235,1.7273813891995544,0.7437992986780207,0.09863197314959096,-0.41133821465445647,2.8726097165211795,-0.6375246340331955,3,right
10.085,-0.01599643953085103,1.2790130909144974,-0.1888098923720614,1.738367751155802,0.7913952823763205,0.07157183374096279,-0.41762959997722204,2.873588317012074,-0.6872353014742777,3,right
10.085,-0.02669096805093363,1.282324354634902,-0.1877342094036521,1.7485025336447522,0.8386347470461557,0.044184480616078874,-0.4233696820066518,2.8731393000417533,-0.7360466481998976,3,right
10.092,-0.037487718462409995,1.2855428326354088,-0.18656480370430073,1.7577704054311925,0.8855425663377253,0.016488627312668595,-0.4285658550504017,2.87127686042842,-0.7839342454565935,3,right
10.093,-0.048379763919668556,1.2886632474264401,-0.18530249022643888,1.7661558374593547,0.9321435820916596,-0.0114962424011631,-0.43322595537545494,2.868016540168522,-0.8308744549154211,3,right
10.094,-0.0593599395765795,1.2916804475474146,-0.18394829194448042,1.7736430928553508,0.9784625079844829,-0.03974990368205528,-0.43735824593065675,2.8633751976221724,-0.8768444562268972,3,right
10.095,-0.07042083179671717,1.2945894260831896,-0.18250344300197016,1.7802162191135718,1.0245238336199036,-0.06825141981210589,-0.4409714007238414,2.8573709752778,-0.9218222721178155,3,right
10.099,-0.081554767054967,1.2973853384597054,-0.18096939052632965,1.7858590425525893,1.070351729339765,-0.09697917120655021,-0.4440744888669587,2.8500232660866955,-0.96578679116473,3,right
10.099,-0.0927538006928838,1.3000635193943273,-0.17934779504444906,1.7905551650722822,1.1159699519110924,-0.12591088425635963,-0.4466769583010887,2.8413526783541663,-1.0087177883761178,3,right
10.105,-0.10400970575325821,1.3026194988441684,-0.17764052945701234,1.7942879632310338,1.1614017512216082,-0.15502366008759141,-0.44878861921174323,2.8313809991700825,-1.050595943712387,3,right
10.105,-0.11531396223632541,1.3050490168247202,-0.17584967660917974,1.797040589659179,1.206669778115421,-0.18429400331996873,-0.4504196271433908,2.8201311563577645,-1.0914028586699829,3,right
10.109,-0.12665774727134654,1.307348037070695,-0.173977525624013,1.7987959768221544,1.251795993499985,-0.21369785090775437,-0.45158046582070005,2.80762717891634,-1.1311210710528794,3,right
10.111,-0.13803192681846557,1.3095127596264184,-0.17202656721970203,1.7995368431440357,1.296801578854891,-0.24321060114650125,-0.4522819296825914,2.793894155927975,-1.1697340680517252,3,right
10.113999999999999,-0.14942704954618555,1.3115396325127207,-0.169999488128141,1.7992457014993368,1.341706848272582,-0.27280714292971386,-0.4525351061338038,2.7789581938977155,-1.2072262977478279,3,right
10.113999999999999,-0.16083334344628847,1.3134253625959198,-0.16789916452566034,1.7979048700780758,1.386531162160673,-0.30246188533983637,-0.45235135751733585,2.7628463724900754,-1.2435831791560459,3,right
10.12,-0.17224071556065915,1.315166925706408,-0.1657286542036004,1.7954964856261948,1.4312928427352078,-0.33214878765829614,-0.4517423028097988,2.7455866986229727,-1.2787911109174772,3,right
10.12,-0.1836387549366966,1.3167615759536928,-0.1634911871269833,1.7920025190604647,1.476009091433896,-0.3618413898795706,-0.450719799040435,2.7272080588761596,-1.3128374787496182,3,right
10.124,-0.19501673865663924,1.3182068540787355,-0.1611901540595424,1.7874047934539796,1.520695908378137,-0.39151284381441104,-0.44929592243329697,2.7077401701679333,-1.3457106617584076,3,right
10.125,-0.20636364057512616,1.3195005945737766,-0.1588290930722933,1.7816850043852859,1.5653680140124588,-0.4211359448674495,-0.4474829492708645,2.6872135286506014,-1.3774000377132722,3,right
10.13,-0.217668142314647,1.3206409311867544,-0.15641167401621098,1.7748247426410688,1.6100387730498595,-0.45068316457442925,-0.4452933364761881,2.665659356771966,-1.4078959873829542,3,right
10.13,-0.22891864614083554,1.3216263003361495,-0.15394168138080333,1.7668055192591536,1.6547201208514608,-0.480126683984239,-0.44273970190949385,2.6431095484469718,-1.4371898980265336,3,right
10.134,-0.24010328954602256,1.3224554419336043,-0.1514229962422459,1.7576087928953399,1.6994224923688301,-0.5094384279707909,-0.4398348043740701,2.619596612280613,-1.4652741661306612,3,right
10.134,-0.25120996162858233,1.3231273971713593,-0.1488595781097871,1.7472159994943322,1.7441547537773274,-0.5385901005595621,-0.4365915233251706,2.5951536127802517,-1.492142199480587,3,right
10.139,-0.26222632156258896,1.3236415029745519,-0.14625544739824461,1.7356085842416826,1.788924136928854,-0.5675532213533263,-0.4330228382746288,2.5698141094926377,-1.5177884186491266,3,right
10.14,-0.27313981954148736,1.323997383022051,-0.14361466903548425,1.72276803577029,1.8337361767524405,-0.5962991631412142,-0.42914180788286227,2.543612093998154,-1.5422082579842236,3,right
10.142999999999999,-0.283937720543103,1.3241949354699913,-0.14094133740874784,1.7086759225915573,1.8785946517311956,-0.6247991907747918,-0.42496154872898173,2.516581924692141,-1.5653981661722864,3,right
10.144,-0.29460713112679254,1.324234317729373,-0.13823956255770653,1.6933139317178252,1.923501527584238,-0.6530245013942938,-0.4204952137487782,2.4887582592805786,-1.5873556064509626,3,right
10.148,-0.3051350292800904,1.3241159288228792,-0.13551345736178427,1.6766639094391513,1.9684569042823479,-0.6809462660875323,-0.4157559703294689,2.4601759849149336,-1.608079056541491,3,right
10.149,-0.3155082971300612,1.3238403899647522,-0.1327671254898365,1.6587079042139168,2.013458966526216,-0.708535673063292,-0.4107569780492214,2.4308701458885893,-1.6275680083672501,3,right
10.15,-0.32571375616864223,1.3234085240596656,-0.13000465000485986,1.6394282116290844,2.058503937816288,-0.7357639724202305,-0.40551136607482574,2.4008758689318306,-1.6458229676007021,3,right
10.154,-0.33573820456114534,1.3228213347767788,-0.127230082634444,1.6188074213822445,2.1035860382433533,-0.7626025225914361,-0.4000322103609699,2.370228286724277,-1.6628454529730328,3,right
10.155,-0.3455684561204403,1.3220799857389716,-0.1244474337750281,1.596828466233825,2.1486974461291424,-0.7890228385438395,-0.39433251102938444,2.3389624612929714,-1.6786379950893886,3,right
10.155,-0.35519138055858884,1.3211857802666611,-0.12166066330872005,1.5734746729140041,2.193828263685759,-0.8149966417518407,-0.3884251704362807,2.3071133095464678,-1.6932041343847175,3,right
10.158999999999999,-0.36459394462479855,1.3201401420784167,-0.11887367230449263,1.548729815164828,2.2389664870600323,-0.8404959116694402,-0.38232297230497186,2.2747155326092754,-1.7065484179560313,3,right
10.16,-0.37376325375002084,1.3189445973211464,-0.11609029565543015,1.5225781694537919,2.2840979814838556,-0.8654929378948246,-0.37603856206436803,2.2418035495678406,-1.718676395191236,3,right
10.163,-0.3826865938427566,1.3176007582658342,-0.11331429566876998,1.4950045740910094,2.329206462448789,-0.8899603719261197,-0.36958442840257777,2.208411435653473,-1.7295946122155064,3,right
10.163,-0.3913514728540163,1.3161103090015014,-0.1105493565828576,1.4659944922782897,2.374273483626055,-0.9138712776996158,-0.36297288601811334,2.1745728647692157,-1.7393106051935596,3,right
10.169,-0.3997456616618162,1.3144749934596516,-0.10779907994098147,1.435534079254732,2.4192784318981393,-0.9371991806294659,-0.356216059550672,2.1403210562661883,-1.7478328925226756,3,right
10.17,-0.4078572337675728,1.3126966060422822,-0.1050669807144367,1.4036102534995616,2.464198529670981,-0.9599181151602927,-0.3493258686729798,2.1056887258735495,-1.7551709659478483,3,right
10.172,-0.41567460325622596,1.3107769850086717,-0.10235648404510989,1.3702107719088383,2.5090088445961616,-0.9820026709013383,-0.34231401432473074,2.0707080406849374,-1.761335280626998,3,right
10.173,-0.4231865604515883,1.3087180086292518,-0.09967092247589521,1.3353243088585056,2.5536823068323424,-1.0034280374091147,-0.3351919660692355,2.0354105781030656,-1.766337244170746,3,right
10.179,-0.4303823047192386,1.3065215939591053,-0.0970135335663494,1.2989405390620405,2.5981897339749316,-1.0241700476837658,-0.3279709505530129,1.9998272886430533,-1.7701892046778565,3,right
10.18,-0.4372514739402412,1.304189697938347,-0.0943874578606926,1.2610502241267396,2.642499863782655,-1.044205220442532,-0.3206619410482035,1.963988462494068,-1.7729044377840772,3,right
10.183,-0.4437841702920902,1.3017243204144069,-0.09179573725932456,1.221645302708392,2.686579394829303,-1.0635108012318117,-0.31327564805737196,1.9279236997379465,-1.774497132738775,3,right
10.183,-0.4499709821223814,1.2991275086170895,-0.08924131388550897,1.1807189841598054,2.730393035208442,-1.0820648024373591,-0.30582251095997565,1.8916618841226391,-1.7749823775204574,3,right
10.187000000000001,-0.4558030018833626,1.296401362599793,-0.08672702949919876,1.1382658455643135,2.773903559418312,-1.0998460422501224,-0.2983126906795279,1.8552311602875844,-1.7743761429990184,3,right
10.187999999999999,-0.4612718402955494,1.2935480411728493,-0.08425562540720773,1.0942819320410535,2.8170718735534623,-1.116834182643135,-0.2907560633502578,1.818658914337473,-1.7726952661493107,3,right
10.192,-0.4663696370886149,1.2905697678750259,-0.08182974270149632,1.0487648602044306,2.8598570889289068,-1.1330097664127161,-0.2831622149618777,1.7819717576602887,-1.7699574323174727,3,right
10.193,-0.4710890687861355,1.287468836539243,-0.07945192256910465,1.0017139246558053,2.9022166042617163,-1.1483542533350175,-0.27554043696090774,1.7451955138850324,-1.7661811565383065,3,right
10.198,-0.4754233540367348,1.2842476160053833,-0.07712460638766472,0.9531302073810431,2.944106196533964,-1.1628500554866767,-0.26789972278686724,1.7083552088741234,-1.7613857638989179,3,right
10.199,-0.4793662569584231,1.2809085535326488,-0.07485013536484433,0.9030166899231673,2.985480120659846,-1.1764805717760023,-0.2602487653215401,1.6714750636451414,-1.7555913689407903,3,right
10.204,-0.4829120888892527,1.2774541764943852,-0.07263074958805661,0.8513783681949525,3.0262912180785695,-1.1892302217287374,-0.25259595522943695,1.6345784901163112,-1.7488188540894873,3,right
10.205,-0.4860557088653618,1.2738870920219525,-0.07046858648374256,0.7982223697918979,3.0664910343932426,-1.2010844785700083,-0.24494938016752357,1.5976880895699581,-1.7410898470982512,3,right
10.207,-0.48879252310502475,1.2702099844014592,-0.06836567880007835,0.7435580736616276,3.1060299461745307,-1.2120299016415794,-0.23731682484225458,1.5608256537280283,-1.7324266974888944,3,right
10.207,-0.4911184837706131,1.266425610195532,-0.06632395229733318,0.6873972319813908,3.1448572970462036,-1.2220541681910102,-0.2297057718919449,1.5240121683337355,-1.7228524519705812,3,right
10.212,-0.49303008729811354,1.262536791229279,-0.06434522335170548,0.6297540940909767,3.1829215431679594,-1.2311461045667398,-0.2221234035725294,1.4872678191334006,-1.7123908288143361,3,right
10.213,-0.49452437260960874,1.258546405716635,-0.062431196661484,0.5706455323240377,3.2201704082289897,-1.2392957168505176,-0.2145766042248007,1.4506120001526357,-1.7010661911584481,3,right
10.216000000000001,-0.49559891954278495,1.2544573778923362,-0.06058346320521749,0.5100911695765138,3.256551048063732,-1.246494220955948,-0.20707196350127605,1.4140633241611598,-1.6889035192173159,3,right
10.217,-0.49625184782803583,1.2502726665454322,-0.05880349855495418,0.4481135084466016,3.2920102249990264,-1.2527340722192517,-0.19961578032371685,1.3776396352103533,-1.675928381391703,3,right
10.218,-0.49648181690400606,1.2459952528160996,-0.05709266160345462,0.38473806177650743,3.3264944920395823,-1.2580089945056345,-0.19221406750638298,1.3413580230760256,-1.662166904415768,3,right
10.222000000000001,-0.4962880267915446,1.2416281275385577,-0.055452193727655724,0.3199934844220766,3.359950386996149,-1.2623140088519242,-0.18487255691534488,1.3052348393457665,-1.6476457429255826,3,right
10.224,-0.49567022017762263,1.2371742783477635,-0.05388321838177641,0.25391170607230823,3.3923246366581363,-1.2656454616633923,-0.17759670499827152,1.269285714838735,-1.6323920489713803,3,right
10.225,-0.4946286858168574,1.2326366767498291,-0.05238674109133594,0.1865280646952589,3.4235643707472834,-1.2680010524246839,-0.17039169855531192,1.2335255780980239,-1.6164334418536659,3,right
10.228,-0.4931642633228289,1.2280182653469178,-0.05096364980678333,0.11788143897542082,3.4536173435742414,-1.2693798606059286,-0.16326246068673927,1.197968674789594,-1.5997979784093606,3,right
10.229,-0.491278349378435,1.2233219453710908,-0.049614715573168044,0.04801437593034367,3.482432158055633,-1.269782370945375,-0.15621365688925837,1.1626285878941613,-1.5825141237322022,3,right
10.231,-0.4889729053490805,1.218550564647616,-0.04834059347172272,-0.023026791316954582,3.509958484934119,-1.269210496011017,-0.14924970128028883,1.12751825858934,-1.5646107222816124,3,right
10.231,-0.4862504662378546,1.2137069061111823,-0.047141823783329984,-0.09519183942937165,3.536147271852373,-1.2676675952169505,-0.14237476292975415,1.0926500077199213,-1.5461169693323022,3,right
10.236,-0.48311415087496884,1.2087936770263135,-0.04601883331808413,-0.1684265660604982,3.560950940189509,-1.2651584899643322,-0.13559277227913635,1.0580355577547984,-1.5270623827150303,3,right
10.238,-0.47956767318385696,1.2038134990925078,-0.044971936857271515,-0.24267271681826041,3.5843235693765645,-1.2616894748500922,-0.12890742762779966,1.0236860551296965,-1.5074767747971407,3,right
10.242,-0.47561535431233487,1.1987688996396546,-0.044001338663610376,-0.3178679281946224,3.6062210687661835,-1.2572683249389744,-0.122322201666842,0.9896120928755682,-1.4873902246498192,3,right
10.243,-0.47126213535501515,1.1936623041381496,-0.04310713402686373,-0.39394568667160634,3.6266013371276467,-1.251904299091714,-0.11584034804099932,0.955823733433242,-1.4668330503473925,3,right
10.245999999999999,-0.46651359031923284,1.1884960302543894,-0.04228931081794773,-0.47083530421678577,3.645424409834302,-1.2456081393394016,-0.10946490791940518,0.9223305315556664,-1.4458357813424694,3,right
10.247,-0.46137593890287704,1.1832722836719423,-0.041547751019957134,-0.5484619103841244,3.662652593806203,-1.2383920662913526,-0.10319871655629477,0.8891415571998879,-1.4244291308592896,3,right
10.25,-0.45585605856825967,1.1779931558704608,-0.04088223219040336,-0.6267464612385587,3.6782505902664284,-1.2302697705610972,-0.0970444098230394,0.8562654183117177,-1.4026439682462875,3,right
10.252,-0.4499614953261088,1.1726606240074167,-0.04029242879367557,-0.7056057653250474,3.692185605365063,-1.2212564001924278,-0.09100443069320265,0.8237102834068901,-1.3805112912276152,3,right
10.257,-0.4437004726016133,1.1672765529817315,-0.03977791333572779,-0.7849525269049173,3.7044274487202626,-1.2113685440648068,-0.08508103566262275,0.7914839038533887,-1.3580621979922038,3,right
10.258,-0.4370818975481079,1.1618426996742577,-0.03933815724080337,-0.8646954066842173,3.7149486199211417,-1.200624211254831,-0.0792763010868467,0.7595936357605116,-1.33532785905784,3,right
10.261,-0.4301153642049628,1.1563607192593843,-0.038972531435734314,-0.9447391002604344,3.7237243830324442,-1.1890428063278977,-0.07359212941856984,0.7280464613811723,-1.3123394888467435,3,right
10.262,-0.4228111529612148,1.150832173369622,-0.03868030664955607,-1.024984434515316,3.7307328291361177,-1.1766451005317022,-0.06803025532806899,0.6968490099348739,-1.2891283169082266,3,right
10.265,-0.4151802258794058,1.1452585397828243,-0.03846065348768002,-1.1053284821826754,3.7359549269399452,-1.1634531988607502,-0.06259225168995783,0.6660075777597575,-1.2657255587231904,3,right
10.265999999999998,-0.4072342175481821,1.139641223208933,-0.038312642388331604,-1.1856646948209084,3.7393745614784155,-1.1494905029586513,-0.057279535419939,0.6355281477031149,-1.242162386024485,3,right
10.27,-0.39898542126076497,1.1339815667000512,-0.03823524359926025,-1.2658830544205257,3.7409785609259125,-1.1347816698226314,-0.05209337314557874,0.6054164076607556,-1.2184698965665242,3,right
10.270999999999999,-0.3904467704540352,1.1282808632066599,-0.0382273273130474,-1.345870243877276,3.7407567115371956,-1.1193525662724153,-0.04703488669548504,0.5756777681766422,-1.1946790832769885,3,right
10.276,-0.3816318154863949,1.1225403668539407,-0.038287664068559824,-1.425509836561408,3.738701760724962,-1.1032302191434218,-0.04210505839163005,0.546317379015249,-1.1708208027229963,3,right
10.277000000000001,-0.3725546959783362,1.116761303605554,-0.038414925474292184,-1.5046825052132764,3.7348094082790837,-1.0864427611620744,-0.037304736129920815,0.5173401446201491,-1.146925742823745,3,right
10.28,-0.36323010907902153,1.1109448811026448,-0.038607685251715256,-1.5832662503948172,3.72907828572686,-1.069019372458958,-0.032634638234488575,0.48875073837341204,-1.123024389741344,3,right
10.280999999999999,-0.3536732741386062,1.105092297593961,-0.03886442054811898,-1.661136648725424,3.721509923828379,-1.050990217673572,-0.02809535807153652,0.46055361557147767,-1.0991469938813703,3,right
10.285,-0.34389989433245227,1.0992047499827606,-0.03918351344083781,-1.7381671211294023,3.712108708195796,-1.0323863786025103,-0.0236873684145728,0.4327530250617116,-1.0753235349822892,3,right
10.286,-0.3339261157655459,1.093283441080357,-0.03956325255802654,-1.8142292213204816,3.700881823020072,-1.0132397823410881,-0.019411025581305783,0.40535301962215686,-1.0515836865115198,3,right
10.287,-0.32376848449116197,1.0873295861730723,-0.04000183478196505,-1.8891929447468203,3.687839182883444,-0.9935831248666837,-0.015266573413392017,0.37835746541507365,-1.027956780015523,3,right
10.29,-0.313443901794954,1.0813444190164903,-0.040497367066175086,-1.962927058217507,3.672993352630626,-0.9734497900104218,-0.011254147198680542,0.35177005098319447,-1.0044717703100994,3,right
10.290999999999999,-0.30296957809709013,1.0753291973974304,-0.04104786843851842,-2.035299450428791,3.6563594552665193,-0.9528737637622665,-0.007373777607898754,0.3255942961215771,-0.9811572021586764,3,right
10.290999999999999,-0.29236298586779247,1.0692852084275124,-0.04165127223471736,-2.106177503050382,3.637955068080241,-0.9318895439922753,-0.003625394667565988,0.2998335607121461,-0.9580411786571402,3,right
10.295,-0.28164181194705057,1.0632137737156961,-0.04230542853946931,-2.175428479255002,3.6178001083763958,-0.9105320463651364,-8.831763223544435e-06,0.2744910534719914,-0.9351513313055361,3,right
10.295,-0.2708239095938313,1.0571162545115018,-0.04300810678174184,-2.2429199215779425,3.595916712324694,-0.8888365084761763,0.003476170338166247,0.24956984054023507,-0.9125147916997187,3,right
10.299000000000001,-0.2599272505302089,1.0509940568454765,-0.04375699846526666,-2.308520048215456,3.5723291116202036,-0.8668383949315912,0.006829959457420399,0.22507285382947018,-0.8901581647766094,3,right
10.3,-0.24896987723730982,1.044848636644058,-0.0445497200785647,-2.372098139639762,3.5470635114552422,-0.8445733053988426,0.01005296797432505,0.2010028990689745,-0.8681075035473587,3,right
10.305,-0.237969855769833,1.038681504772689,-0.04538381627544088,-2.433524912395919,3.520147971163627,-0.8220768863998587,0.013145708810826875,0.17736266346811505,-0.8463882852534468,3,right
10.307,-0.22694522934497974,1.032494231965479,-0.04625676342482927,-2.4926728797140116,3.4916122877068374,-0.7993847469230695,0.01610877143586162,0.15415472292957488,-0.8250253888815492,3,right
10.309000000000001,-0.21591397294354284,1.0262884536231713,-0.047165973600613934,-2.5494166991190133,3.4614878819295702,-0.7765323777903905,0.018942817901079687,0.13138154874326258,-0.8040430739738798,3,right
10.31,-0.20489394916253778,1.0200658744848006,-0.04810879903068896,-2.603633507214514,3.429807687507426,-0.7535550747146088,0.021648578916354674,0.10904551369299675,-0.7834649606716702,3,right
10.314,-0.19390286558378325,1.0138282731859796,-0.04908253696589865,-2.6552032418099643,3.3966060425048226,-0.7304878649820549,0.024226849973588354,0.08714889750930155,-0.7633140109304679,3,right
10.315,-0.18295823395195507,1.0075775067032267,-0.0500844348904845,-2.704008951554172,3.361918583456668,-0.7073654376949907,0.026678487526955178,0.06569389160289618,-0.743612510847027,3,right
10.32,-0.17207733145722706,1.0013155146545698,-0.05111169600297072,-2.74993709323055,3.3257821418828537,-0.68422207750778,0.029004405237360906,0.04468260301471874,-0.7243820540387265,3,right
10.321,-0.1612771643709999,0.9950443233953424,-0.05216148494110339,-2.792877816862008,3.2882346431402696,-0.6610916017906506,0.031205570288523877,0.024117057519585358,-0.7056435260176753,3,right
10.325999999999999,-0.15057443419665825,0.9887660498291798,-0.053230933757804716,-2.8327252387654487,3.2493150075127715,-0.6380073011546976,0.03328299978172386,0.003999201821854852,-0.6874170895029542,3,right
10.328,-0.13998550639867452,0.982482904853045,-0.05431714813661125,-2.8693777026875718,3.209063053435366,-0.6150018832717157,0.03523775721590221,-0.01566909521725651,-0.669722170615793,3,right
10.329,-0.12952638168631378,0.9761971963647603,-0.05541721377951118,-2.9027380291451177,3.1675194027448446,-0.5921074199224846,0.037070949059438946,-0.03488604237978541,-0.652577445903899,3,right
10.329,-0.11921266976146304,0.9699113317709652,-0.056528202865068496,-2.932713753083799,3.1247253878451344,-0.5693552972072634,0.038783721419576964,-0.05364992697634615,-0.6360008301426171,3,right
10.333,-0.10905956539459526,0.9636278199382483,-0.057647180499839516,-2.9592173499609977,3.080722960671832,-0.5467761688524726,0.0403772568151112,-0.07195911687316756,-0.6200094648621288,3,right
10.334000000000001,-0.09908182666770682,0.9573492725345499,-0.058771211154291216,-2.9821664503478824,3.0355546033366565,-0.5243999125478644,0.041852771057611524,-0.08981206371604361,-0.604619707551478,3,right
10.339,-0.08929375521546161,0.9510784047179058,-0.05989736513447561,-3.001484043136852,2.989263240328978,-0.502255589248885,0.0432115102461022,-0.10720730740509785,-0.5898471214918378,3,right
10.34,-0.07970917830129919,0.9448180351477378,-0.061022725156362326,-3.017098667430273,2.941892152148113,-0.48037140537942946,0.044454747879778406,-0.1241434818729558,-0.5757064661731178,3,right
10.344000000000001,-0.07034143257877559,0.9385710853178961,-0.06214439306423687,-3.028944593176274,2.8934848902367083,-0.45877467787077075,0.04558378209300116,-0.14061932221760898,-0.5622116882497319,3,right
10.345,-0.061203349406391334,0.932340578234582,-0.0632594966973093,-3.036961990606927,2.844085193082333,-0.4374918019731096,0.04659993301647686,-0.1566336732399392,-0.5493759129931215,3,right
10.347999999999999,-0.052307241607080675,0.9261296364807753,-0.06436519688638034,-3.0410970885235478,2.793736903351296,-0.41654822177693557,0.04750454026819553,-0.17218549943455397,-0.5372114362004434,3,right
10.349,-0.0436648915931189,0.9199414797206231,-0.06545869456145455,-3.0413023214630006,2.742483885915702,-0.39596840338221506,0.0482989605773741,-0.18727389648126086,-0.5257297165206818,3,right
10.353,-0.035287540811531945,0.9137794217038602,-0.06653723795767537,-3.037536465767933,2.690369946631946,-0.37577581065432164,0.048984565544326786,-0.20189810428318383,-0.5149413681613373,3,right
10.353,-0.02718588049687079,0.9076468668318384,-0.06759812990204628,-3.029764764572714,2.637438751726092,-0.3559928835065953,0.049562739537903626,-0.21605752154771382,-0.5048561539611254,3,right
10.354000000000001,-0.01937004373779762,0.9015473063404115,-0.06863873514517932,-3.0179590417055775,2.583733747639004,-0.33664101865046064,0.05003487772701873,-0.2297517216627459,-0.49548297891783094,3,right
10.357999999999999,-0.011849598868362583,0.8954843141415255,-0.0696564876833812,-3.0020978044960698,2.5292980811816057,-0.3177405527551448,0.05040238423383231,-0.2429804691829847,-0.48682988444562086,3,right
10.359000000000002,-0.0046335441931270776,0.8894615423550029,-0.07064889799887136,-2.9821663354654313,2.474174519848306,-0.2993107479602104,0.05066667039103913,-0.25574373599735656,-0.47890404373989254,3,right
10.36,0.0022696959436482246,0.8834827165612824,-0.07161356012708751,-2.958156772798801,2.418405372264552,-0.28136977967790777,0.050829153090214026,-0.2680417164896395,-0.4717117585280221,3,right
10.364,0.008852273733738932,0.8775516308061427,-0.07254815845453794,-2.9300681791508296,2.362032409393085,-0.2639347265864114,0.050891253216509905,-0.27987484143942215,-0.4652584573032784,3,right
10.365,0.015106919118394863,0.8716721423820128,-0.07345047417033207,-2.89790659772038,2.3050967882927815,-0.2470215626493361,0.05085439416950995,-0.29124379065157613,-0.4595486950394989,3,right
10.37,0.021026939635213023,0.8658481664055073,-0.07431839132390092,-2.8616850941826075,2.2476389808728516,-0.23064515096109783,0.05072000047070387,-0.3021495043495712,-0.45458615436587807,3,right
10.370999999999999,0.026606218892315757,0.860083670216196,-0.07514990245995135,-2.82142378339068,2.1896987094326836,-0.21481923925636542,0.05048949645776957,-0.31259319336662866,-0.45037364818333897,3,right
10.373,0.03183921366399328,0.8543826676327188,-0.075943113806301,-2.7771498403519694,2.131314889604731,-0.19955645699037003,0.05016430506555757,-0.32257634816737385,-0.4469131237060945,3,right
10.374,0.03672094961290911,0.8487492131100665,-0.07669624998582827,-2.728897495307558,2.072525580665606,-0.18486831393560918,0.049745846693395115,-0.3321007467313214,-0.44420566791414673,3,right
10.378,0.04124701566650986,0.8431873958435645,-0.07740765821504489,-2.676708012799459,2.013367943049019,-0.17076520024950942,0.049235538158050714,-0.34116846132819634,-0.4422515144046282,3,right
10.378,0.04541355710491782,0.8377013338633106,-0.07807581194667954,-2.6206296545984378,1.953878202892923,-0.15725638796922614,0.048634791731428165,-0.34978186421377533,-0.4410500516320456,3,right
10.382,0.04921726744769655,0.8322951681605291,-0.0786993139205843,-2.5607176263539135,1.8940916234520602,-0.1443500338914081,0.04794501426179097,-0.3579436322736127,-0.44059983252964985,3,right
10.384,0.052655379250192286,0.8269730568863978,-0.07927689860794726,-2.4970340078161053,1.8340424832060405,-0.1320531837964321,0.047167606377054125,-0.36565675064070635,-0.44089858550631555,3,right
10.387,0.055725653931860984,0.8217391696649046,-0.0798074340608184,-2.429647666469453,1.7737640604921314,-0.12037177797831808,0.046303961768420596,-0.37292451531185244,-0.4419432268154772,3,right
10.388,0.05842637075984849,0.8165976820631033,-0.08028992320071858,-2.3586341544053377,1.713288624491084,-0.10931065804326343,0.04535546655238388,-0.3797505347861425,-0.44372987429482247,3,right
10.392999999999999,0.0607563151071064,0.8115527702621219,-0.0807235045899306,-2.2840755882512926,1.652647432393559,-0.09887357494148345,0.044323498708866434,-0.38613873074776717,-0.446253862477595,3,right
10.394,0.06271476610277708,0.806608605968143,-0.08110745272838844,-2.206060511963294,1.5918707325740606,-0.08906319819881135,0.043209427593015985,-0.39209333781401323,-0.4495097590784988,3,right
10.398,0.0643014837966736,0.801769351594566,-0.08144117791184645,-2.124683742277304,1.530987773598713,-0.07988112631628955,0.04201461351793774,-0.39761890236807185,-0.4534913828593273,3,right
10.398,0.06551669596672272,0.7970391557366956,-0.08172422567607093,-2.040046196606068,1.470026818892741,-0.0713278983077758,0.04074040740540111,-0.40272028049501823,-0.4581918228815554,3,right
10.402000000000001,0.06636108470354711,0.7924221489496277,-0.08195627584012677,-1.9522547031572515,1.4090151668931232,-0.06340300634738448,0.03938815050132321,-0.40740263503807883,-0.4636034591552356,3,right
10.402999999999999,0.06683577290706401,0.7879224398280719,-0.08213714115205996,-1.861421793039366,1.3479791765115756,-0.05610490950038661,0.037959174152599875,-0.4116714317910696,-0.46971798469561965,3,right
10.407,0.06694231082486306,0.7835441113737948,-0.08226676553343,-1.7676654741125697,1.2869442977328007,-0.049431048512996616,0.036454799641626456,-0.41553243484167196,-0.4765264290009949,3,right
10.408,0.06668266275104298,0.779291217623089,-0.08234522191581302,-1.6711089863323825,1.2259351071727902,-0.04337786163827624,0.0348763380746267,-0.4189917010790091,-0.4840191829672612,3,right
10.412,0.0660591939880794,0.7751677804929361,-0.08237270966291384,-1.5718805383256313,1.1649753484218939,-0.037940801477184656,0.03322509031968747,-0.42205557387779796,-0.4921860252567966,3,right
10.413,0.06507465815482272,0.771177786789359,-0.08234955157606078,-1.4701130249295564,1.1040879769973717,-0.03311435281559483,0.03150234699018041,-0.4247306759701815,-0.5010161501411485,3,right
10.417,0.06373218490248857,0.7673251853059763,-0.0822761904897276,-1.3659437254169722,1.0432952097302186,-0.02889205143987729,0.029709388469038953,-0.42702390151519315,-0.5104981968390532,3,right
10.418,0.062035268077374466,0.7636138839289459,-0.08215318547855525,-1.2595139821227093,0.9826185784111877,-0.025266503915420072,0.027847484969149766,-0.42894240737466904,-0.5206202803732218,3,right
10.422,0.059987754342518164,0.7600477466605239,-0.08198120771293789,-1.1509688591792882,0.9220789875211473,-0.02222940831420588,0.025917896624912454,-0.43049360360330724,-0.531370023971236,3,right
10.423,0.05759383224251787,0.7566305904796359,-0.08176103600487403,-1.0404567810628733,0.8616967758711775,-0.01977157587930101,0.023921873610950713,-0.43168514317378315,-0.5427345929891526,3,right
10.424000000000001,0.054858021673997365,0.7533661819733414,-0.08149355207377358,-0.9281291506440774,0.8014917819781449,-0.017882953615822924,0.021860656289415664,-0.43252491102827983,-0.5547007300951992,3,right
10.427,0.051785163713362545,0.7502582336917486,-0.08117973554136101,-0.8141399464321145,0.7414834130018803,-0.01655264779964183,0.01973547539730807,-0.4330210126754863,-0.5672547910152309,3,right
10.427999999999999,0.04838041074714202,0.7473104001913091,-0.08082065864743111,-0.6986452993635242,0.6816907169958427,-0.015768948399683128,0.017547552290710727,-0.4331817626226094,-0.5803827799003293,3,right
10.429,0.04464921684332045,0.7445262737339648,-0.08041748066860295,-0.5818030528233208,0.6221324578501246,-0.015519354426075884,0.015298099256979489,-0.43301567285940884,-0.5940703836217058,3,right
10.431,0.04059732829854242,0.7419093796064576,-0.07997144201763184,-0.4637723155969706,0.5628271916338876,-0.015790600244536115,0.012988319895577307,-0.4325314414815316,-0.608303004737275,3,right
10.432,0.03623077429242369,0.7394631710168772,-0.07948385799400305,-0.34471302078911903,0.5037933426714085,-0.016568682913687467,0.010619409562399715,-0.43173794146792904,-0.6230657931189646,3,right
10.436,0.03155585756715852,0.7371910235150171,-0.07895611214690682,-0.224785500399279,0.4450492780601124,-0.01783889058880928,0.008192555871132285,-0.4306442096119003,-0.6383436762800548,3,right
10.437999999999999,0.026579145031714636,0.7350962288796288,-0.07838964921527868,-0.1041500792259651,0.386613380012038,-0.019585832010455356,0.005708939245007211,-0.4292594356043887,-0.6541213884434003,3,right
10.442,0.021307458175102243,0.7331819884319756,-0.07778596764126766,0.017033311574038354,0.3285041157744796,-0.021793467083095996,0.003169733512156366,-0.4275929512672719,-0.6703834983929111,3,right
10.443,0.01574786316613323,0.7314514057721483,-0.07714661170383173,0.13860550161545063,0.27074010496109185,-0.02444513854739913,0.0005761065375916647,-0.4256542199335235,-0.6871144361521502,3,right
10.447000000000001,0.00990766051925438,0.7299074789814051,-0.07647316336456403,0.2604084294495176,0.21334018412562533,-0.027523604751134547,-0.0020707791153195096,-0.42345282597028705,-0.7042985185353384,3,right
10.447000000000001,0.003794374219209646,0.7285530923767527,-0.07576723394636595,0.38228547211206965,0.15632346841139994,-0.03101107352500721,-0.004769765501175763,-0.42099846444009714,-0.7219199736174513,3,right
10.450999999999999,-0.002584259778479872,0.7273910079348068,-0.0750304557801856,0.5040817564035188,0.09970941011061712,-0.03488923717100018,-0.007519698594108321,-0.41830093089469744,-0.7399629641714368,3,right
10.452,-0.009220305719485216,0.7264238565195731,-0.07426447395901808,0.6256444522503647,0.043517853968657136,-0.03913930857203234,-0.010319427582194144,-0.41537011129515355,-0.7584116101218844,3,right
10.456,-0.016105640900823674,0.7256541290549883,-0.0734709383298812,0.7468230484979963,-0.012230910930390741,-0.04374205843291013,-0.013167804162466492,-0.41221597205123056,-0.7772500100657347,3,right
10.458,-0.023231969162429044,0.7250841677775551,-0.0726514958343727,0.8674696114843489,-0.0675161028595591,-0.048677853663673776,-0.016063681844420304,-0.408848550172307,-0.7964622619118276,3,right
10.460999999999999,-0.030590834950228164,0.7247161576849976,-0.07180778328447819,0.9874390267433083,-0.1223164028875742,-0.053926696917505824,-0.019005915270052787,-0.4052779435214271,-0.816032482692252,3,right
10.462,-0.03817363786156405,0.7245521182637483,-0.07094142064024994,1.1065892241856596,-0.17660991422027508,-0.05946826729638233,-0.02199335955861935,-0.40151430116345344,-0.8359448275995826,3,right
10.467,-0.04597164757833962,0.7245938955357472,-0.07005400484035366,1.2247813871038515,-0.23037412560365378,-0.0652819622386027,-0.025024869684421535,-0.397567813797666,-0.8561835083051574,3,right
10.469000000000001,-0.05397601910025706,0.7248431544185587,-0.06914710422241035,1.3418801453449098,-0.2835858789458961,-0.07134694060323321,-0.028099299896076714,-0.39344870426457385,-0.8767328106145869,3,right
10.472000000000001,-0.06217780820628884,0.7253013713459888,-0.06822225355784015,1.457753752993492,-0.33622134131434533,-0.07764216696733883,-0.03121550318584921,-0.3891672181161475,-0.8975771115176588,3,right
10.472999999999999,-0.07056798709021782,0.7259698270546391,-0.06728094971725411,1.5722742509043206,-0.38825598146178886,-0.0841464571526603,-0.03437233081774911,-0.3847336142381593,-0.9187008956907493,3,right
10.475999999999999,-0.07913746013087901,0.7268495994120407,-0.06632464797503612,1.6853176144201074,-0.43966455103488,-0.09083852499911355,-0.0375686319232283,-0.3801581555128185,-0.9400887715107346,3,right
10.477,-0.08787707976976632,0.7279415561480156,-0.06535475894920444,1.7967638866075681,-0.4904210706158492,-0.0976970304031509,-0.04080325317342322,-0.3754510995094249,-0.9617254866402559,3,right
10.48,-0.09677766247983301,0.7292463473517358,-0.0643726461517542,1.9064972973402468,-0.5404988207469331,-0.10470062863962318,-0.044075038537010745,-0.37062268919032604,-0.9835959432449828,3,right
10.481,-0.10583000482068818,0.7307643976087687,-0.06337962410242054,2.0144063685526326,-0.5898703380851468,-0.11182802098632089,-0.047382829132856685,-0.3656831436190561,-1.0056852129042848,3,right
10.485999999999999,-0.11502489958750522,0.7324958976717101,-0.06237695694551635,2.120384005985477,-0.6385074168331528,-0.1190580066708518,-0.05072546318674659,-0.36064264865715645,-1.027978551277437,3,right
10.487,-0.12435315207301983,0.7344407955828393,-0.06136585750517285,2.2243275777373075,-0.6863811155900289,-0.12636953615992824,-0.05410177610159547,-0.35551134763582903,-1.0504614125881535,3,right
10.49,-0.13380559647113408,0.7365987871957732,-0.06034748671164445,2.326138979931898,-0.7334617697637018,-0.13374176581149327,-0.057510600646677255,-0.35029933198967794,-1.073119463959489,3,right
10.491,-0.14337311245419937,0.7389693060720548,-0.05932295333044557,2.4257246898059233,-0.7797190096847089,-0.14115411391041094,-0.06095076725172009,-0.3450166318466176,-1.0959385994748154,3,right
10.492,-0.1530466419539075,0.7415515127553374,-0.05829331393045245,2.5229958065151843,-0.8251217845587508,-0.14858631810867895,-0.06442110435617943,-0.3396732065805724,-1.1189049535586548,3,right
10.495,-0.16281720616914896,0.7443442834537195,-0.05725957303082101,2.617868079951688,-0.8696383923932213,-0.1560184942912986,-0.06792043874429919,-0.3342789353404745,-1.1420049131147423,3,right
10.495999999999999,-0.1726759228135909,0.7473461981970024,-0.05622268336698508,2.7102619278574616,-0.9132365160305291,-0.1634311968890519,-0.07144759581645657,-0.32884360756175,-1.1652251280160706,3,right
10.495999999999999,-0.1826140236020122,0.7505555285775356,-0.055183546225635094,2.8001024415966183,-0.9558832652958896,-0.17080548056033912,-0.07500139978300327,-0.3233769134535001,-1.1885525198245546,3,right
10.5,-0.1926228719622623,0.753970225212935,-0.054143011823288664,2.887319381351568,-0.9975452246512673,-0.17812296266846123,-0.07858067378669428,-0.3178884344473259,-1.2119742887752645,3,right
10.5,-0.20269398095022192,0.7575879050784429,-0.05310187973049469,2.9718471622424496,-1.038188504640327,-0.1853658850882873,-0.08218423996383445,-0.31238763359220406,-1.2354779190919045,3,right
10.505,-0.21281903132506663,0.7614058388713999,-0.05206089936527394,3.0536248332728184,-1.0777787947930666,-0.19251717338036875,-0.08581091945434906,-0.30688384587972856,-1.2590511827005213,3,right
10.505999999999998,-0.2229898896971099,0.7654209386124232,-0.05102077059721471,3.1325960505858044,-1.1162814162694212,-0.1995604918661696,-0.0894595323710586,-0.30138626848397243,-1.2826821414087013,3,right
10.51,-0.23319862659727011,0.7696297457357398,-0.04998214451423839,3.2087090457669665,-1.153661373622393,-0.20648029403025822,-0.09312889773850695,-0.29590395090018745,-1.3063591476177496,3,right
10.511,-0.24343753425581804,0.7740284199422014,-0.048945624397760935,3.281916589510904,-1.1898834056716772,-0.2132618681708146,-0.09681783341175924,-0.2904457849665503,-1.3300708436355446,3,right
10.515999999999998,-0.2536991438316136,0.7786127290794157,-0.047911766927026776,3.352175950878373,-1.2249120355983154,-0.21989137831865394,-0.10052515598564797,-0.285020494753182,-1.3538061596579283,3,right
10.517000000000001,-0.26397624180520085,0.7833780402851528,-0.046881083599219074,3.419448852362466,-1.2587116203676827,-0.22635590044461282,-0.1042496807050062,-0.2796366263027096,-1.377554310486627,3,right
10.519,-0.2742618852400947,0.7883193125876339,-0.045854042320849824,3.4837014209740547,-1.291246399584791,-0.2326434539747505,-0.1079902213864825,-0.2743025372067109,-1.401304791051794,3,right
10.52,-0.28454941562466796,0.7934310911005494,-0.044831069105966466,3.544904135548262,-1.3224805438824554,-0.23874302863238156,-0.11174559036258526,-0.2690263860024732,-1.4250473708073366,3,right
10.525,-0.2948324710282867,0.7987075028844122,-0.04381254981200314,3.603031770465142,-1.3523782029393485,-0.24464460662548604,-0.11551459845865349,-0.263816121374619,-1.4487720870672292,3,right
10.526,-0.3051049963356559,0.8041422544741427,-0.04279883185698858,3.6580633359690893,-1.3809035532213245,-0.2503391801975346,-0.1192960550134969,-0.25867947114629203,-1.4724692373510158,3,right
10.529000000000002,-0.31536125136029625,0.8097286310020175,-0.04179022588981623,3.7099820152627347,-1.408020845535668,-0.2558187645592305,-0.12308876795449106,-0.2536239310447639,-1.4961293708066885,3,right
10.529000000000002,-0.32559581667997745,0.8154594967827025,-0.040787007418008385,3.7587750985422748,-1.4336944524840738,-0.26107640621810246,-0.12689154393795235,-0.2486567532265109,-1.5197432787790763,3,right
10.535,-0.33580359708344915,0.8213272971808704,-0.03978941842016828,3.804433914132284,-1.4578889158962305,-0.2661061867222894,-0.13070318856565336,-0.2437849345470204,-1.5433019845917975,3,right
10.536,-0.34597982257130294,0.8273240615575882,-0.038797668970925486,3.846953756869135,-1.4805689943218294,-0.2709032218342449,-0.13452250668837135,-0.23901520456081907,-1.566796732610728,3,right
10.539000000000001,-0.3561200469175537,0.8334414070915843,-0.03781193888023324,3.886333813873175,-1.5016997106546766,-0.2754636561494514,-0.13834830280739197,-0.23435401323746888,-1.5902189766568,3,right
10.54,-0.3662201438735559,0.8396705432955481,-0.03683237930208477,3.922577087840821,-1.5212463999583363,-0.2797846531745829,-0.14217938158491497,-0.2298075183795499,-1.6135603678357913,3,right
10.543,-0.37627630117778804,0.8460022770915365,-0.03585911421543966,3.955690317978702,-1.5391747575583834,-0.28386438087888893,-0.14601454847433176,-0.2253815727289416,-1.6368127418525793,3,right
10.544,-0.3862850126133974,0.8524270183658728,-0.03489224164254453,3.9856838986930088,-1.5554508874618964,-0.28770199273189395,-0.14985261048136259,-0.22108171074802568,-1.6599681058771316,3,right
10.549000000000001,-0.39624306841938056,0.8589347859894453,-0.03393183446223319,4.012571796138161,-1.5700413511602636,-0.291297604239822,-0.15369237706705596,-0.21691313506276166,-1.683018625029264,3,right
10.55,-0.40614754440511097,0.8655152143668206,-0.03297794070336916,4.036371462719951,-1.582913216866739,-0.2946522649924643,-0.15753266120366588,-0.2128807025549335,-1.7059566085489504,3,right
10.552999999999999,-0.41599579013762994,0.872157560666916,-0.03203058326316312,4.057103749639355,-1.5940341092354295,-0.2977679262315144,-0.16137228059442957,-0.20898891009122517,-1.7287744957186861,3,right
10.552999999999999,-0.42578541655984786,0.8788507129810236,-0.031089759073384585,4.074792817554285,-1.603372259603558,-0.3006474039507028,-0.1652100590682738,-0.20524187987716097,-1.7514648416041054,3,right
10.56,-0.4355142833495019,0.8855831997384194,-0.030155437811882756,4.089466045427716,-1.610896556793909,-0.3032943375373717,-0.16904482816047958,-0.20164334442433582,-1.7740203026787307,3,right
10.561,-0.4451804862473668,0.8923432007680181,-0.029227560308088124,4.101153937621768,-1.6165765985093372,-0.3057131439644468,-0.17287542888118493,-0.19819663115424652,-1.7964336223887905,3,right
10.562000000000001,-0.4547823444883169,0.8991185604008335,-0.02830603681009573,4.109890029288647,-1.6203827433460967,-0.3079089675410857,-0.17670071362786086,-0.19490464683485817,-1.8186976166656985,3,right
10.562999999999999,-0.46431838838582373,0.9058968029583668,-0.027390745269377906,4.1157107901047745,-1.6222861634738504,-0.3098876253312037,-0.18051954811555657,-0.19176986235680188,-1.840805159307015,3,right
10.564,-0.4737873470629574,0.9126651509090273,-0.026481529773544597,4.118655526406498,-1.6222588981564579,-0.3116555488563583,-0.18433081315295846,-0.18879429852894475,-1.8627491670983318,3,right
10.565,-0.48318813628519447,0.9194105459454611,-0.025578199233128953,4.118766281814451,-1.6202739085190379,-0.3132197236131196,-0.1881334061380316,-0.18597951340110605,-1.8845225845960765,3,right
10.569,-0.49251984631337914,0.9261196732519873,-0.02468052640259753,4.11608773644585,-1.6163051340928658,-0.31458762844236376,-0.1919262422293245,-0.18332659131181056,-1.9061183685771423,3,right
10.571,-0.5017817296500481,0.9327789892690123,-0.02378824727971293,4.110667104785177,-1.6103275515325932,-0.31576717627939055,-0.19570825519473573,-0.1808361336870152,-1.9275294722087775,3,right
10.573,-0.510973188516936,0.9393747532617698,-0.022901060881842884,4.1025540322383875,-1.60231723565788,-0.3167666568988962,-0.19947839794866368,-0.17850825158172548,-1.9487488290012631,3,right
10.573,-0.5200937618947802,0.9458930629111069,-0.022018629360588165,4.091800490367194,-1.5922514228342883,-0.31759468176033473,-0.20323564278843373,-0.17634255995688197,-1.9697693366054068,3,right
10.578,-0.5291431119706815,0.9523198939616877,-0.021140578413652713,4.078460670787954,-1.5801085766762153,-0.3182601309570746,-0.20697898134086415,-0.17433817368436266,-1.9905838405163438,3,right
10.58,-0.5381210098528983,0.9586411437175077,-0.02026649799484503,4.062590877711966,-1.5658684560488059,-0.3187721022722409,-0.21070742422980013,-0.17249370527341276,-2.0111851177445894,3,right
10.583,-0.5470273204169654,0.964842677901221,-0.01939594338698219,4.044249419096406,-1.5495121853398826,-0.31913986234363995,-0.21442000047540674,-0.1708072643122787,-2.031565860514709,3,right
10.584000000000001,-0.555861986141088,0.9709103801286834,-0.018528436743767036,4.023496496367687,-1.5310223269669667,-0.31937279993969797,-0.21811575663597263,-0.16927645861928547,-2.0517186600513906,3,right
10.587,-0.5646250097827655,0.9768302030217293,-0.017663469188447144,4.0003940926718,-1.5103829560784368,-0.31948038134790463,-0.22179375570293294,-0.16789839709805426,-2.0716359905120822,3,right
10.588,-0.5733164357603076,0.9825882198069347,-0.01680050347776881,3.975005859599057,-1.487579737401807,-0.319472107876838,-0.22545307575977505,-0.16666969429201053,-2.0913101931247287,3,right
10.592,-0.581936330150966,0.9881706751384222,-0.01593897713189025,3.9473970023237626,-1.4626000041859675,-0.3193574754724606,-0.22909280841544116,-0.16558647663377904,-2.1107334605884827,3,right
10.594000000000001,-0.5904847593123057,0.9935640338541627,-0.015078305832341437,3.9176341630925755,-1.4354328391780715,-0.3191459364490158,-0.23271205702279285,-0.16464439038549944,-2.1298978217945943,3,right
10.597999999999999,-0.5989617672766079,0.9987550264450151,-0.014217886821756974,3.8857853029887828,-1.4060691575695303,-0.31884686333452184,-0.2363099346926468,-0.1638386112665245,-2.1487951269239773,3,right
10.599,-0.6073673522542548,1.003730690195222,-0.01335710201148047,3.8519195818932976,-1.3745017918393316,-0.31846951483055325,-0.23988556211383644,-0.16316385576537965,-2.1674170329772346,3,right
10.604000000000001,-0.6157014427928396,1.0084784052350115,-0.012495320529952012,3.8161072365570363,-1.3407255784166219,-0.3180230038857232,-0.24343806518969457,-0.1626143941332673,-2.185754989792182,3,right
10.605,-0.6239638743340027,1.0129859250950815,-0.011631900532925487,3.778419456693336,-1.3047374460781775,-0.31751626788202764,-0.2469665725012906,-0.16218406505678953,-2.2038002266031325,3,right
10.607000000000001,-0.6321543670330807,1.0172414017129578,-0.010766190229798007,3.7389282589932624,-1.2665365059900755,-0.3169580409329867,-0.25047021260769264,-0.16186629200793845,-2.2215437391954245,3,right
10.607999999999999,-0.6402725057094056,1.02123340515461,-0.009897528225004306,3.6977063589610952,-1.2261241432965213,-0.3163568282923189,-0.2539481111934576,-0.16165410126976287,-2.2389762777078577,3,right
10.613,-0.6483177226658732,1.0249509385394195,-0.009025243392081645,3.654827040461868,-1.1835041101524515,-0.3157208828717124,-0.2573993880734843,-0.16154014163646044,-2.256088335134843,3,right
10.613,-0.6562892838892891,1.0283834487790862,-0.008148654556693198,3.6103640228676834,-1.1386826200901707,-0.31505818386610757,-0.2608231540652924,-0.16151670578696756,-2.272870136579233,3,right
10.617,-0.6641862788824395,1.0315208337757558,-0.007267070246279451,3.564391325684534,-1.0916684436039394,-0.31437641748478207,-0.2642185077387167,-0.16157575333142174,-2.2893116293058875,3,right
10.618,-0.6720076141499471,1.0343534466998716,-0.006379788683623032,3.5169831305366066,-1.042473004830088,-0.31368295978642746,-0.267584532052929,-0.16170893553015217,-2.305402473645107,3,right
10.623,-0.6797520102004883,1.0368720979119566,-0.005486098104308607,3.468213640380503,-0.9911104791939169,-0.3129848616163311,-0.27092029089062114,-0.1619076216851143,-2.3211320347941284,3,right
10.625,-0.6874180018391471,1.0390680550278952,-0.00458527740923861,3.4181569358174646,-0.9375978918883476,-0.3122888356437206,-0.27422482549910215,-0.16216292720391967,-2.3364893755638865,3,right
10.628,-0.6950039414845207,1.040933041572702,-0.0036765971377594677,3.3668868283675764,-0.8819552170430304,-0.31160124549729384,-0.2774971508479758,-0.1624657433368253,-2.351463250117248,3,right
10.628,-0.7025080052371057,1.0424592346282944,-0.002759320745888634,3.3144767105660016,-0.8242054774363935,-0.310928096996943,-0.28073625191206025,-0.16280676855016232,-2.366042098740675,3,right
10.629000000000001,-0.7099282014462369,1.0436392618377015,-0.0018327061740404697,3.260999402737607,-0.7643748445969522,-0.31027503147968793,-0.28394107988351847,-0.16317654131448728,-2.3802140436741794,3,right
10.630999999999998,-0.7172623815608683,1.0444661980722005,-0.0008960076828091285,3.2065269963028604,-0.7024927391340768,-0.3096473212178552,-0.28711054830879673,-0.16356547375223054,-2.3939668859944914,3,right
10.632,-0.724508253055472,1.0449335620391516,5.15220705472311e-05,3.151130693464584,-0.63859193113238,-0.30904986692758274,-0.290243529141269,-0.16396388540436585,-2.4072881035291935,3,right
10.633,-0.7316633941667363,1.04503531313252,0.0010106297383982766,3.0948806434089144,-0.5727086402623152,-0.30848719733167884,-0.29333884870498994,-0.16436203656106715,-2.420164849794436,3,right
10.638,-0.7387252701156861,1.0447658488477325,0.0019820587762075558,3.037845776585033,-0.504882634375741,-0.3079634705704163,-0.29639528357313755,-0.1647501609350187,-2.4325839539764855,3,right
10.639000000000001,-0.7456912504773056,1.04412000304736,0.002966546701226781,2.980093641206908,-0.43515732376908695,-0.30748247694698233,-0.2994115563692232,-0.16511849764143005,-2.4445319219921458,3,right
10.642000000000001,-0.7525586273440672,1.0430930453196203,0.00396482207145641,2.9216902475519215,-0.36357984741311394,-0.3070476423238835,-0.3023863314999586,-0.16545732248587897,-2.4559949386650026,3,right
10.642999999999999,-0.759324633854024,1.0416806816664748,0.00497760112425815,2.862699924194903,-0.29020114832064864,-0.3066620316572373,-0.3053182108285567,-0.16575697856107618,-2.4669588710531545,3,right
10.645999999999999,-0.7659864625701178,1.0398790567573937,0.006005584011578233,2.803185187732705,-0.2150760367985418,-0.3063283524629489,-0.30820572929712936,-0.16600790615358907,-2.4774092729627113,3,right
10.647,-0.772541283176794,1.0376847579408994,0.007049450584512615,2.743206626118502,-0.13826324120274577,-0.30604895817942407,-0.3110473505067239,-0.16620067196147675,-2.4873313906799717,3,right
10.651,-0.7789862590006278,1.0350948211237239,0.00810985570929773,2.682822795436475,-0.05982544598583257,-0.3058258514257175,-0.31384146226341775,-0.1663259976236773,-2.496710169953732,3,right
10.652000000000001,-0.7853185619317646,1.032106738530057,0.009187424130177766,2.622090129946046,0.020170683178736114,-0.3056606871541632,-0.316586372098764,-0.16637478756184698,-2.5055302642577275,3,right
10.655999999999999,-0.7915353854079985,1.0287184682493937,0.010282744923973821,2.5610628652234855,0.10165448741611399,-0.30555477569668765,-0.3192803027727465,-0.16633815613518566,-2.5137760443616695,3,right
10.658,-0.7976339552189885,1.0249284453742833,0.0113963656131234,2.499792974227553,0.18455131603853792,-0.3055090857041689,-0.3219213877672681,-0.166207454108589,-2.5214316092377924,3,right
10.661,-0.8036115379936583,1.0207355944304033,0.012528786021917567,2.438330116114807,0.2687825415324134,-0.3055242469783704,-0.3245076667780532,-0.16597429443424797,-2.528480798328211,3,right
10.662,-0.8094654473494807,1.0161393427287395,0.013680451983166237,2.3767215976293934,0.35426558837793853,-0.30560055319614665,-0.32703708121270036,-0.16563057734657224,-2.5349072051967467,3,right
10.665999999999999,-0.8151930478033411,1.011139634234683,0.014851749033864901,2.315012346891401,0.44091397593923753,-0.3057379645257914,-0.3295074697024668,-0.16516851477004402,-2.5406941925871753,3,right
10.667,-0.8207917566585065,1.005736943548473,0.01604299626945714,2.2532448994073198,0.5286373756667992,-0.30593611013557165,-0.33191656363521077,-0.16458065403931435,-2.5458249089081137,3,right
10.671,-0.8262590441777135,0.9999322896140402,0.017254440541428766,2.1914593961257163,0.6173416828576053,-0.3061942905946679,-0.33426198271675367,-0.16385990093053854,-2.5502823061629707,3,right
10.672,-0.8315924324194192,0.993727248807234,0.01848625117502692,2.1296935933609387,0.70692910322167,-0.30651148016691365,-0.33654123056775276,-0.16299954200260694,-2.5540491593415537,3,right
10.675,-0.8367894931493632,0.9871239670909681,0.0197385153546393,2.0679828844075043,0.7972982545067967,-0.30688632899790186,-0.33875169036300096,-0.1619932662465671,-2.5571080872880265,3,right
10.675999999999998,-0.8418478452426614,0.9801251709589155,0.021011234278934043,2.006360332667752,0.8883442834361621,-0.3073171651961986,-0.34089062051988595,-0.16083518604115207,-2.5594415750579897,3,right
10.681,-0.8467651519648882,0.9727341769197967,0.0223043201361157,1.9448567161153998,0.9799589982158718,-0.3078019968095714,-0.34295515044255015,-0.15951985741193012,-2.5610319977754683,3,right
10.682,-0.8515391184698077,0.9649548993031776,0.02361759390455556,1.8835005829178009,1.0720310168718674,-0.3083385136973056,-0.3449422763280963,-0.15804229959117203,-2.5618616459985586,3,right
10.685,-0.856167489785854,0.9567918561989366,0.024950783951597316,1.8223183180399398,1.1644459316775044,-0.3089240892998429,-0.34684885704097673,-0.15639801387509755,-2.561912752600393,3,right
10.686,-0.8606480494927101,0.9482501733798476,0.026303525379567223,1.7613342206535472,1.257086489934744,-0.30955578230712877,-0.34867161006149067,-0.15458300177471188,-2.5611675211699585,3,right
10.69,-0.8649786192193676,0.9393355861021191,0.02767536005035,1.700570592175128,1.3498327913732115,-0.31023033822720514,-0.3504071075140915,-0.15259378245597746,-2.559608155935111,3,right
10.690999999999999,-0.8691570590287125,0.930054438731094,0.029065737212183418,1.6400478347571972,1.4425625024323523,-0.3109441908567239,-0.35205177228097384,-0.15042740946458935,-2.5572168932078987,3,right
10.695,-0.8731812686969281,0.9204136821911656,0.030474014655437167,1.5797845600575804,1.5351510876925576,-0.3116934636551894,-0.3536018742173552,-0.14808148671868163,-2.5539760343202396,3,right
10.696,-0.8770491898595418,0.9104208692761209,0.031899460333155695,1.5197977081122631,1.6274720587214357,-0.31247397102485885,-0.35505352654054384,-0.1455541836950412,-2.549867979866793,3,right
10.697000000000001,-0.8807588089811743,0.9000841478720849,0.03334125439100438,1.4601026761379658,1.7193972406013425,-0.31328121949834475,-0.3564026825652958,-0.14284424963084208,-2.5448752648015227,3,right
10.7,-0.884308161095557,0.8894122521553767,0.03479849155365738,1.4007134570913602,1.8107970564038856,-0.3141104088360611,-0.3576451330136193,-0.13995102650514646,-2.538980593783141,3,right
10.700999999999999,-0.8876953342431333,0.8784144918455207,0.03627018381166207,1.3416427875658061,1.9015408293737204,-0.3149564330553534,-0.3587765040709745,-0.13687446062115144,-2.5321668763109932,3,right
10.703,-0.8909184745185262,0.8671007396038689,0.037755263356165705,1.2829023033731963,1.9914971000697046,-0.31581388151125916,-0.3597922562598483,-0.13361511271269205,-2.524417261458367,3,right
10.706,-0.8939757916424071,0.8554814166562207,0.03925258572296546,1.224502698937934,2.0805339511863936,-0.3166770403253659,-0.36068768414545016,-0.13017416655523836,-2.5157151721564803,3,right
10.707,-0.8968655649764528,0.8435674767026851,0.04076093312107469,1.1664538853968502,2.1685193302638632,-0.3175398945573142,-0.36145791687677026,-0.12655343607254946,-2.506044339009541,3,right
10.709000000000001,-0.8995861498885804,0.8313703881806901,0.04227901792577676,1.1087651435339467,2.2553213630046822,-0.31839613141549133,-0.3620979195659061,-0.12275537092962399,-2.4953888336185757,3,right
10.71,-0.9021359843580428,0.8189021149585762,0.043805486315723716,1.05144526990126,2.34080865443781,-0.3192391446270229,-0.3626024955082208,-0.11878306060206631,-2.4837331013889963,3,right
10.716,-0.9045135957025863,0.8061750955437101,0.04533892203502872,0.9945027157122865,2.4248505776792704,-0.32006203998913163,-0.3629662892455339,-0.11464023691147159,-2.471061993794086,3,right
10.717,-0.9067176073143364,0.7932022208935112,0.04687785026743378,0.937945718342258,2.5073175505386778,-0.3208576421043105,-0.363183790474173,-0.11033127501592627,-2.4573608000637654,3,right
10.72,-0.9087467453031908,0.779996810926266,0.048420741619384707,0.8817824252706239,2.5880813002169205,-0.3216185023017163,-0.3632493387993241,-0.10586119284422038,-2.4426152782651185,3,right
10.72,-0.910599844962918,0.7665725898401052,0.04996601621830963,0.8260210103021772,2.6670151163361453,-0.32233690774713253,-0.3631571293367129,-0.1012356489618797,-2.4268116857382465,3,right
10.727,-0.9122758569908705,0.7529436603598252,0.05151204793812697,0.7706697819043679,2.7439940925386797,-0.32300489174377073,-0.36290121916223034,-0.09646093885665032,-2.4099368088480597,3,right
10.728,-0.9137738534041651,0.7391244770394829,0.053057168765981474,0.715737283499479,2.818895356886628,-0.3236142452260796,-0.3624755346096786,-0.09154398963060618,-2.3919779920096182,3,right
10.729000000000001,-0.9150930331054825,0.7251298187518067,0.05459967332366628,0.6612323855514978,2.8915982912886298,-0.324156529448609,-0.3618738794163587,-0.08649235308560561,-2.372923165941595,3,right
10.73,-0.916232727063392,0.7109747604940777,0.05613782355328127,0.607164369288688,2.961984740174651,-0.3246230898718292,-0.3610899437157528,-0.08131419718839483,-2.3527608750993485,3,right
10.734000000000002,-0.9171924030840228,0.6966746446368219,0.05766985356733436,0.5535430019040777,3.029939208633727,-0.32500507124663824,-0.36011731387606366,-0.07601829590124992,-2.331480304236003,3,right
10.735,-0.9179716701586592,0.6822450517384938,0.05919397464967355,0.5003786030773048,3.095349050223254,-0.3252934338990967,-0.35894948318287073,-0.07061401736366268,-2.309071304036758,3,right
10.739,-0.9185702823739234,0.6677017710462301,0.060708380382322104,0.44768210266251796,3.1581046446517873,-0.3254789712167107,-0.3575798633636356,-0.065111310410214,-2.285524415768489,3,right
10.74,-0.9189881423713463,0.6530607707963904,0.06221125187306551,0.395465089388315,3.21809956553031,-0.3255523283373413,-0.35600179695124984,-0.05952068940944091,-2.2608308948834894,3,right
10.745,-0.9192253043471089,0.6383381684161604,0.06370076306898025,0.34373985041701516,3.275230738379649,-0.32550402204154916,-0.35420857048325527,-0.05385321740819412,-2.2349827335129455,3,right
10.745999999999999,-0.9192819765922682,0.6235502007129744,0.06517508614872392,0.29251940161190837,3.3293985890740814,-0.3253244618488861,-0.3521934285327885,-0.048120487565700365,-2.2079726817824947,3,right
10.75,-0.9191585235825902,0.6087131941303138,0.06663239697840631,0.24181750836250065,3.380507182893273,-0.3250039723183254,-0.3499495885667012,-0.042334602861293445,-2.179794267878903,3,right
10.751,-0.9188554676277003,0.5938435351489755,0.06807088059501695,0.19164869681919255,3.428464354346437,-0.32453281655267074,-0.3474702566256907,-0.036508154059557534,-2.150441816793594,3,right
10.753,-0.9183734900824243,0.5789576409165752,0.06948873666089153,0.14202825539027658,3.473181827924135,-0.32390122090640683,-0.34474864382063686,-0.030654195916440332,-2.1199104676654255,3,right
10.754000000000001,-0.9177134321154331,0.5640719301898558,0.07088418481982169,0.09297222635563196,3.514575329924329,-0.32309940089605044,-0.3417779836386854,-0.024786221609741855,-2.088196189641749,3,right
10.759,-0.9168762950261717,0.5492027946744968,0.07225546988104532,0.044497387453028385,3.5525646914902724,-0.3221175883116272,-0.33855155005193993,-0.018918135377269118,-2.055295796173417,3,right
10.76,-0.915863240101843,0.5343665708474533,0.0736008667647014,-0.0033787767054730953,3.587073942988514,-0.32094605952743877,-0.33506267642092974,-0.013064223345868915,-2.0212069576560316,3,right
10.764000000000001,-0.9146755880105457,0.519579512345151,0.07491868516265654,-0.05063811352791103,3.6180313998457567,-0.3195751650097959,-0.3313047751639486,-0.007239122572898413,-1.9859282123691453,3,right
10.765,-0.9133148177305463,0.5048577629896782,0.0762072738933768,-0.09726185178682381,3.6453697399535394,-0.31799536001887585,-0.32727135806084645,-0.001457788513628277,-1.9494589758759107,3,right
10.765999999999998,-0.9117825650155569,0.4902173305042192,0.07746502494731324,-0.14323066155115566,3.6690260727397264,-0.31619723650131815,-0.3229560568758967,0.004264538526403306,-1.9117995494277735,3,right
10.767999999999999,-0.9100806203916998,0.47567406095475084,0.07869037722690665,-0.18852472484139143,3.6889419999955866,-0.31417155616959946,-0.31835264388180823,0.009912367203049454,-1.872951128129566,3,right
10.769,-0.9082109266755803,0.4612436139599718,0.07988181998659293,-0.23312381714181624,3.7050636685368747,-0.3119092847636295,-0.3134550519679436,0.015469988649998113,-1.8329158094027604,3,right
10.77,-0.9061755759967649,0.4469414387243894,0.08103789597667484,-0.27700739964021603,3.717341814828276,-0.30940162743928906,-0.308257394198195,0.02092150948608424,-1.791696601895711,3,right
10.773,-0.903976806304649,0.4327827509512195,0.08215720429225197,-0.3201547207549117,3.7257318019976218,-0.3066400649775117,-0.3027539827849259,0.02625088429127462,-1.7492974347721253,3,right
10.774000000000001,-0.9016169973409595,0.41878251067960365,0.0832384029258613,-0.36254492315174736,3.7301936502092925,-0.30361639005599145,-0.2969393474648961,0.031441947567256656,-1.7057231672627564,3,right
10.777999999999999,-0.8990986660634867,0.4049554010813617,0.08428021102092985,-0.40415715114311346,3.730692061662958,-0.30032274257442965,-0.2908082532622259,0.036478445198257325,-1.6609795983619158,3,right
10.779000000000002,-0.8964244615122905,0.3913158082593766,0.08528141082313392,-0.4449706546674543,3.727196441164895,-0.2967516432739693,-0.2843557176225785,0.04134406542736741,-1.6150734765470136,3,right
10.783,-0.893597159117586,0.37787780210441935,0.08624084932905152,-0.4849648884008086,3.7196809126539083,-0.29289602534155507,-0.2775770269018441,0.046022469363248504,-1.5680125093959638,3,right
10.784,-0.8906196544585879,0.3646551182752194,0.08715743963470331,-0.5241196058581835,3.7081243317447807,-0.2887492639396474,-0.27046775219170405,0.05049732103165617,-1.5198053729739336,3,right
10.788,-0.8874949564906268,0.3516611413645419,0.08803016198725068,-0.562414948601962,3.692510294279143,-0.2843052036510168,-0.26302376446352677,0.05475231698572171,-1.4704617208575714,3,right
10.789000000000001,-0.8842261802602533,0.3389088893043074,0.08885806454228162,-0.5998315306721937,3.6728271408621307,-0.27955818382752745,-0.2552412490111133,0.058771215488397255,-1.419992192661545,3,right
10.793,-0.8808165391250312,0.3264109990474751,0.08964026383377253,-0.6363505183512095,3.6490679573516003,-0.27450306183098483,-0.24711671917185996,0.06253786527988396,-1.368408421928921,3,right
10.794,-0.8772693364883467,0.31417971354586194,0.09037594497772442,-0.671953705372527,3.6212305712550137,-0.26913523415326873,-0.23864702930494647,0.06603623394223189,-1.3157230432436593,3,right
10.798,-0.8735879570513674,0.3022268700224052,0.09106436164867439,-0.7066235836814969,3.589317543977445,-0.26345065540210294,-0.2298293870041836,0.06925043587262207,-1.261949698420261,3,right
10.798,-0.8697758575750123,0.2905638895129534,0.09170483588270531,-0.7403434098525592,3.5533361588524364,-0.25744585513793045,-0.22066136452217466,0.07216475987611669,-1.2071030416224087,3,right
10.802999999999999,-0.8658365571363448,0.2792017676261346,0.09229675776543343,-0.77309726726535,3.5132984048757505,-0.2511179525464646,-0.21114090938145386,0.07476369638789317,-1.151198743259282,3,right
10.804,-0.86177362685967,0.26815106644153763,0.09283958505547245,-0.8048701241392205,3.4692209560503544,-0.24446466893057853,-0.20126635414726485,0.07703196433416175,-1.0942534925050995,3,right
10.808,-0.8575906791049562,0.2574219074388474,0.0933328427750535,-0.8356478875230028,3.42112514623929,-0.23748433800427707,-0.19103642533563828,0.07895453764010532,-1.0362849982843625,3,right
10.809000000000001,-0.8532913561040115,0.247023965326879,0.09377612278222523,-0.8654174533340804,3.369036939411459,-0.23017591397056664,-0.18045025142941507,0.08051667139227467,-0.9773119885622397,3,right
10.814,-0.848879318048144,0.23696646262621554,0.09416908334052021,-0.8941667525380121,3.3129868951537382,-0.2225389773641078,-0.16950736997384555,0.08170392766192279,-0.917354207776539,3,right
10.814,-0.8443582306532239,0.22725816485749897,0.09451144872642951,-0.9218847935570955,3.253010129311318,-0.2145737386385945,-0.15820773372237446,0.0825022009947697,-0.8564324122447822,3,right
10.817,-0.8397317522608813,0.21790737620090583,0.0948030089453075,-0.9485617009933621,3.1891462696066903,-0.20628103947786464,-0.14655171580220008,0.08289774357165415,-0.7945683633770088,3,right
10.818,-0.8350035205741994,0.20892193551616048,0.09504361963717756,-0.9741887507485727,3.121439406076354,-0.19766235180880318,-0.13454011386817116,0.08287719004345256,-0.7317848185221133,3,right
10.822000000000001,-0.8301771391645673,0.20030921263889992,0.0952332022327347,-0.9987584016208166,3.0499380361530135,-0.18871977449315772,-0.12217415321256145,0.08242758204252883,-0.668105519272748,3,right
10.822000000000001,-0.82525616391436,0.19207610489315366,0.09537174437483123,-1.022264323454332,2.9746950042099103,-0.17945602767444696,-0.10945548879723918,0.08153639237182238,-0.603555177051124,3,right
10.827,-0.8202440895732496,0.18422903378013275,0.09545930057220257,-1.0447014219161503,2.8957674353728855,-0.16987444475520747,-0.09638620617372796,0.08019154887148779,-0.5381594557954005,3,right
10.828,-0.8151443366069594,0.17677394182134276,0.09549599301697365,-1.0660658599701345,2.8132166633948827,-0.15997896197889463,-0.08296882125563847,0.07838145796176707,-0.47194495156377975,3,right
10.833,-0.8099602385100296,0.1697162895485204,0.09548201248172843,-1.0863550761159244,2.7271081523768625,-0.14977410558983334,-0.06920627893145494,0.07609502785936957,-0.40493916895867504,3,right
10.833,-0.804695029735808,0.16306105264147866,0.09541761921557217,-1.1055677994572402,2.637511412108521,-0.1392649765437008,-0.055101950627239535,0.07332169146263608,-0.33717049470960503,3,right
10.834000000000001,-0.799351834370401,0.15681271921984963,0.09530314377441296,-1.1237040616609073,2.544499906791806,-0.12845723274012463,-0.04065963114847096,0.07005142889817627,-0.2686681695408202,3,right
10.838,-0.7939336556659391,0.15097528730655188,0.09513898772975947,-1.1407652058648907,2.4481509569000184,-0.11735706874809142,-0.02588353525182825,0.06627478971960539,-0.19946225988611302,3,right
10.839,-0.7884433665642094,0.14555226250517464,0.09492562419050032,-1.1567538925955114,2.3485456340661264,-0.10597119304729899,-0.01077829427416463,0.06198291474830431,-0.12958363057235484,3,right
10.84,-0.7828837013546824,0.14054665595713653,0.09466359805841776,-1.1716741027758444,2.2457686496384484,-0.09430680307428883,0.00465104707570641,0.05716755754595313,-0.05906391880149906,3,right
10.842,-0.7772572485944769,0.1359609826548027,0.0943535259405727,-1.185531137949051,2.139908238890042,-0.08237155884115933,0.020399033780333697,0.05182110550783096,0.012064490679948397,3,right
10.843,-0.7715664453917068,0.13179726019816465,0.09399609565465519,-1.1983316178622327,2.031056043613109,-0.0701735561604,0.036459803475442074,0.045936600564534476,0.08376848942466632,3,right
10.847000000000001,-0.7658135731412813,0.12805700811443835,0.09359206527214639,-1.2100834755284182,1.9193069950663093,-0.057721300242029316,0.05282708935454982,0.039507759478265826,0.15601426834397733,3,right
10.847999999999999,-0.7600007547890282,0.12474124790239674,0.09314226164773926,-1.220795949836397,1.8047591978762514,-0.04502367994863671,0.06949422306161701,0.032528993718315816,0.22876734018729092,3,right
10.853,-0.754129953665542,0.12185050399382022,0.09264757838315917,-1.2304795757501739,1.6875138147315243,-0.032089942726616916,0.08645413761784948,0.024995428898824355,0.30199256164744376,3,right
10.853,-0.7482029738777702,0.11938480583293032,0.09210897316801861,-1.239146172131822,1.567674951548456,-0.018929670177844048,0.103699370429663,0.016902923760337724,0.37565415529940605,3,right
10.857000000000001,-0.7422214621837271,0.11734369125859634,0.09152746444206254,-1.2468088272185314,1.4453495427797531,-0.0055527542353282135,0.12122206642567265,0.008248088675104072,0.4497157315812786,3,right
10.859000000000002,-0.7361869112104138,0.11572621133247088,0.0909041273533805,-1.2534818817816993,1.3206472365294277,0.008030626094279743,0.13901398137141277,-0.0009716963455437476,0.5241403110278592,3,right
10.862,-0.7301006638184928,0.11453093669335479,0.09024008905055339,-1.259180909992985,1.1936802791299808,0.0218100274591201,0.1570664854113111,-0.010758264164972867,0.5988903469683114,3,right
10.863,-0.7239639183875655,0.11375596544412643,0.0895365234230718,-1.2639226980193738,1.0645633988306678,0.03577476439989909,0.1753705668882379,-0.021112643581071282,0.6739277489006144,3,right
10.866,-0.7177777348073565,0.11339893250463734,0.08879464546434045,-1.267725220366454,0.9334136882388515,0.049913931136005646,0.19391683649172264,-0.03203504295859488,0.7492139067565142,3,right
10.867,-0.7115430410112533,0.11345702030234359,0.08801570545594324,-1.2706076139863107,0.8003504851499471,0.06421642293953164,0.21269553178667885,-0.04352483446215699,0.8247097162716335,3,right
10.870999999999999,-0.7052606399602726,0.1139269706288017,0.08720098315903634,-1.272590150163706,0.6654952513952948,0.078670957137289,0.23169652217519948,-0.055580538919606334,0.9003756056762169,3,right
10.872,-0.6989312170512548,0.1148050974678869,0.08635178215865943,-1.2736942041915,0.5289714493314567,0.09326609378141795,0.250909314344681,-0.06819981134716906,0.9761715639227067,3,right
10.876,-0.6925553479632444,0.11608730060039543,0.08546942445235911,-1.2739422228436454,0.3909044155889465,0.1079902560296493,0.2703230582561995,-0.08137942716935885,1.0520571706669402,3,right
10.877,-0.6861335069643775,0.11776907980635543,0.0845552453214041,-1.273357689651491,0.2514212316932528,0.1228317502767201,0.28992655372770176,-0.0951152691682829,1.1279916282202542,3,right
10.882,-0.6796660756832016,0.11984554951725353,0.08361058848780717,-1.2719650879866167,0.11065059116623076,0.13777878607884583,0.30970825766718085,-0.10940231519858847,1.2039337956901486,3,right
10.883,-0.67315335231345,0.12231145381174466,0.0826368015511656,-1.2697898619509618,-0.03127733728849433,0.1528194959135224,0.329656292011583,-0.12423462670590282,1.2798422255274202,3,right
10.885,-0.6665955611810124,0.12516118169476392,0.08163523170907494,-1.2668583750726228,-0.17423105091653202,0.16794195481726806,0.34975845242773546,-0.13960533808821504,1.355675202697819,3,right
10.886,-0.6599928625654062,0.1283887826435518,0.08060722178011269,-1.2631978668033716,-0.31807785876425704,0.18313419994421917,0.370002217832099,-0.1555066469412299,1.4313907866962983,3,right
10.89,-0.6533453626416706,0.1319879824361027,0.07955410655926985,-1.2588364068117042,-0.4626840326583024,0.1983842500887612,0.390374760786623,-0.17192980523028809,1.5069468566218334,3,right
10.890999999999998,-0.6466531233962156,0.13595219929131636,0.0784772095364417,-1.2538028470630562,-0.6079149637233976,0.21368012521561258,0.41086295882842383,-0.1888651114329922,1.5823011595305685,3,right
10.895999999999999,-0.6399161723733865,0.1402745603447794,0.07737783999656814,-1.2481267716767304,-0.7536353248514974,0.22900986604097878,0.43145340679141525,-0.2063019036981996,1.6574113622847075,3,right
10.897,-0.6331345121259282,0.14494791846456864,0.07625729049909251,-1.2418384445470692,-0.8997092395373264,0.24436155370856028,0.4521324301783865,-0.22422855406854064,1.7322351071141158,3,right
10.9,-0.6263081292663303,0.14996486938688502,0.0751168347134179,-1.2349687547144748,-1.0460004574972568,0.25972332960432903,0.4728860996126596,-0.24263246382427392,1.8067300709654248,3,right
10.9,-0.619437003041733,0.15531776913321166,0.07395772557445159,-1.2275491594700376,-1.192372537489844,0.27508341535408687,0.4937002462502665,-0.2615000600536472,1.880854028004809,3,right
10.901,-0.6125211133791537,0.16099875166289976,0.07278119372226784,-1.2196116251757754,-1.338689037757357,0.2904301330478808,0.5145604777665673,-0.2808167936389916,1.9545649133655123,3,right
10.905,-0.6055604483671222,0.1669997467050745,0.0715884461984756,-1.2111885657808117,-1.4848137145082652,0.3057519257353807,0.5354521943829617,-0.3005671388950656,2.02782088552233,3,right
10.905999999999999,-0.5985550111523381,0.17331249769220802,0.07038066538105262,-1.2023127790700006,-1.6306107285356162,0.3210373782069012,0.556360604548002,-0.32073459505157453,2.100580385382113,3,right
10.907,-0.5915048262366682,0.17992857970025378,0.06915900814627438,-1.1930173809687388,-1.7759448584397743,0.3362752379276175,0.5772707401546235,-0.3413016896904276,2.172802191452446,3,right
10.91,-0.58440994516394,0.18683941730047365,0.06792460525234348,-1.1833357387460381,-1.9206817159960912,0.35145443572768814,0.5981674713237758,-0.36224998420361726,2.2444454711572654,3,right
10.91,-0.5772704515910125,0.19403630222677948,0.06667856094455608,-1.1733014042453587,-2.0646879575808406,0.3665641057037992,0.61903552081449,-0.3835600813296195,2.3154698285083493,3,right
10.915999999999999,-0.5700864657431929,0.20151041073946602,0.06542195278528057,-1.1629480479827676,-2.20783148719372,0.3815936039346021,0.6398594781204181,-0.4052116348273594,2.3858353483400663,3,right
10.917,-0.5628581482543831,0.20925282053610034,0.06415583171379145,-1.1523093944311642,-2.3499816495408625,0.3965325258771152,0.6606238133128418,-0.4271833613478781,2.455502637313106,3,right
10.92,-0.5555857033835078,0.2172545270458607,0.0628812223425347,-1.1414191585195614,-2.491009413266496,0.4113707224580542,0.6813128906900655,-0.4494530545648768,2.524432861891145,3,right
10.92,-0.5482693815850838,0.22550645894736016,0.061599123497303745,-1.1303109833177563,-2.630787544744193,0.4260983149032449,0.7019109822929829,-0.4719976016262897,2.5925877834924935,3,right
10.925999999999998,-0.5409094814009486,0.2339994927666438,0.060310509004769836,-1.1190183788758976,-2.769190772835782,0.44070570834801087,0.7224022813464326,-0.4947930019899583,2.6599297910167863,3,right
10.927,-0.53350635063706,0.24272446644039639,0.05901632871785396,-1.1075746621877391,-2.9060959450227912,0.4551836042711422,0.7427709156857444,-0.5178143887073314,2.726421930944649,3,right
10.929,-0.5260603867963751,0.2516721917678636,0.05771750974915335,-1.0960128982457429,-3.0413821753116896,0.4695230117947328,0.7630009612276142,-0.5410360522199037,2.792027935206046,3,right
10.93,-0.5185720367580309,0.260833465719937,0.0564149578609144,-1.0843658421556572,-3.1749309843102673,0.48371525789182906,0.7830764555441388,-0.5644314667338242,2.856712247010694,3,right
10.935,-0.5110417957244902,0.2701990806212998,0.05510955894246316,-1.0726658822777733,-3.3066264318681786,0.49775199654346153,0.8029814115984923,-0.5879733192387542,2.9204400448314716,3,right
10.936,-0.5034702054971651,0.2797598332666119,0.053802180496857484,-1.0609449843617107,-3.4363552426700372,0.5116252168862349,0.8226998317003219,-0.6116335412376275,2.983177264729216,3,right
10.939,-0.4958578521768616,0.2895065330683703,0.05249367306170963,-1.049234636641347,-3.564006925164461,0.5253272503912282,0.8422157217385035,-0.6353833432544609,3.044890621204658,3,right
10.940999999999999,-0.48820536340704074,0.29943000935720643,0.05118487150616774,-1.037565795856347,-3.6894738842071515,0.5388507771145127,0.8615131057484017,-0.6591932521877863,3.105547626760489,3,right
10.944,-0.4805134052795272,0.3095211179633465,0.04987659617294418,-1.02596883416669,-3.8126515277904462,0.5521888310591233,0.8805760408702467,-0.68303315157761,3.1651166103537185,3,right
10.945,-0.4727826790060299,0.31977074720280624,0.048569653863339154,-1.0144734869266196,-3.933438368225821,0.5653348046878316,0.8993886327546579,-0.7068723248540644,3.223566734915543,3,right
10.949000000000002,-0.46501391743242343,0.330169823377791,0.04726483868823135,-1.0031088012845608,-4.05173611813955,0.5782824526255541,0.9179350514707156,-0.7306795016360861,3.2808680141128983,3,right
10.95,-0.4572078814434934,0.3407093158822821,0.04596293282533523,-0.9919030855757539,-4.1674497816351534,0.5910258945896993,0.9361995479713093,-0.7544229071485385,3.3369913285227626,3,right
10.954,-0.449365356278346,0.3513802419842654,0.04466470723028171,-0.9808838594746434,-4.2804877409694315,0.6035596175862038,0.9541664711697715,-0.7780703148261975,3.3919084413870575,3,right
10.954,-0.44148714775605474,0.3621736713382646,0.043370922345642625,-0.9700778048744364,-4.39076183908169,0.6158784774084398,0.9718202856810434,-0.8015891021729215,3.445592014112693,3,right
10.958,-0.4335740784034481,0.37308073026859506,0.042082328838664786,-0.9595107174616974,-4.4981874583083945,0.6279776994755922,0.9891455902798075,-0.8249463099441461,3.498015621677919,3,right
10.959000000000001,-0.42562698348586403,0.38409260585612737,0.04079966837728559,-0.9492074589543833,-4.60268359560779,0.6398528790464983,1.0061271371271663,-0.8481087047205655,3.5491537681026983,3,right
10.963,-0.4176467069666839,0.39520054985832304,0.03952367442889207,-0.9391919099723308,-4.704172934611071,0.6514999808443301,1.0227498518165503,-0.8710428449404929,3.598981902137251,3,right
10.965,-0.4096340974570813,0.4063958824925156,0.03825507304192229,-0.929486923509891,-4.802581914808572,0.6629153381268663,1.0389988542885933,-0.8937151504579266,3.6474764333193197,3,right
10.968,-0.4015900042512318,0.4176699961146207,0.03699458355251528,-0.9201142789811684,-4.8978407981709555,0.6740956512364612,1.054859480629889,-0.9160919755792956,3.6946147484903156,3,right
10.969000000000001,-0.3935152735569422,0.42901435882819255,0.03574291915353768,-0.9110946368091369,-4.9898837334968285,0.6850379856631599,1.0703173056003397,-0.9381396849637207,3.740375228573255,3,right
10.97,-0.3854107450237453,0.4404205180605442,0.034500787271465584,-0.9024474935308041,-5.078648818769316,0.6957397696537467,1.0853581654282103,-0.959824730749423,3.784737264901313,3,right
10.974,-0.37727724866061363,0.451880104143318,0.03326888970811857,-0.8941911374496136,-5.164078161666076,0.7061987913926544,1.0999681802417136,-0.9811137287005777,3.827681274098433,3,right
10.975999999999999,-0.3691156022349699,0.46338483393549135,0.03204792251245575,-0.8863426051576642,-5.246117937712758,0.7164131957490473,1.114133775673972,-1.0019735317354472,3.869188710792975,3,right
10.977,-0.3609266092389097,0.4749265145275361,0.03083857555617696,-0.8789176397740521,-5.324718444399128,0.726381480528041,1.1278417034815191,-1.0223713002170483,3.9092420779516233,3,right
10.979000000000001,-0.35271105749529363,0.4864970470655906,0.029641531800071067,-0.8719306520371427,-5.399834148922271,0.736102492132392,1.1410790611844481,-1.0422745689539383,3.9478249349001753,3,right
10.98,-0.3444697184689613,0.4980884307334704,0.02845746625653354,-0.8653946850993638,-5.471423727856787,0.7455754205712144,1.1538333107688745,-1.061651310970981,3.9849219031504224,3,right
10.984000000000002,-0.33620334734063356,0.5096927669271432,0.027287044675442344,-0.8593213833516699,-5.539450098203411,0.7547997938072498,1.166092296491061,-1.0804699981086137,4.020518670148142,3,right
10.985,-0.32791268387984696,0.5213022636502154,0.02613092199756154,-0.8537209653157078,-5.603880439902718,0.7637754714644246,1.1778442618212093,-1.098699658507725,4.054601991053018,3,right
10.988,-0.31959845412319865,0.5329092401506337,0.02498974062289295,-0.8486022005849324,-5.664686210019487,0.7725026379229106,1.1890778655635281,-1.1163099310357436,4.087159688657013,3,right
10.989,-0.3112613728368277,0.5445061318091139,0.023864128532116925,-0.8439723907972452,-5.72184314879307,0.7809817948281861,1.1997821971877713,-1.1332711167079248,4.1181806515434385,3,right
10.993,-0.3029021467224349,0.556085495280129,0.022754697286812637,-0.8398373546230892,-5.7753312777387995,0.7892137530398817,1.2099467914059812,-1.1495542271561465,4.1476548305846,3,right
10.995,-0.2945214783137687,0.5676400138785612,0.02166203992489492,-0.8362014167543101,-5.825134889975066,0.797199624045486,1.2195616420266844,-1.165131030195735,4.175573233871526,3,right
10.998,-0.2861200705026427,0.579162503199362,0.020586728760554326,-0.8330674008804952,-5.871242532940219,0.8049408108632666,1.2286172151172696,-1.1799740925389837,4.201927920164865,3,right
10.999,-0.27769863162810315,0.5906459169514853,0.019529313090097443,-0.8304366266409214,-5.913646983652892,0.8124389984580604,1.237104461503724,-1.1940568197020833,4.226711990951627,3,right
11.003,-0.2692578810587541,0.6020833529801346,0.018490316797533424,-0.8283089105416721,-5.952345216658845,0.8196961436928774,1.2450148286353304,-1.2073534931501508,4.249919581187929,3,right
11.004000000000001,-0.26079855519542305,0.6134680594442917,0.017470235849542763,-0.8266825708289247,-5.987338364796716,0.8267144648385574,1.252340271840318,-1.2198393047229386,4.271545848803443,3,right
11.007,-0.2523214138177369,0.6247934411102419,0.016469535669394422,-0.8255544363108489,-6.018631672904523,0.8334964306630281,1.2590732649968337,-1.2314903883816293,4.291586963038752,3,right
11.008,-0.24382724669445133,0.6360530657165592,0.0154886483822717,-0.824919859122001,-6.046234444578074,0.8400447491210136,1.265206810641935,-1.2422838493148551,4.310040091682251,3,right
11.013,-0.2353168803765918,0.6472406703623471,0.01452796992989431,-0.8247727314255346,-6.0701599820818295,0.8463623556643616,1.2707344495396395,-1.2521977904397612,4.326903387268717,3,right
11.014000000000001,-0.22679118509650179,0.6583501678680822,0.013587857061262872,-0.8251055060499769,-6.090425519502125,0.8524524011924794,1.275650269727351,-1.2612113363315343,4.342175972297123,3,right
11.017000000000001,-0.21825108170328858,0.6693756530561621,0.012668624218783921,-0.8259092210587352,-6.10705214922209,0.8583182396616938,1.279948915058274,-1.269304654612355,4.355857923520688,3,right
11.017999999999999,-0.20969754857264017,0.6803114088962626,0.011770540351776597,-0.8271735282518939,-6.120064741787036,0.8639634153716927,1.2836255932556786,-1.2764589748282114,4.3679502553576235,3,right
11.023,-0.20113162843452043,0.6911519124588217,0.010893825698362383,-0.8288867256012387,-6.129491859218551,0.8693916499465504,1.2866760834931315,-1.2826566048394217,4.378454902466435,3,right
11.024000000000001,-0.19255443506598127,0.7018918406172922,0.010038648581925304,-0.8310357936207948,-6.135365661825135,0.874606829027193,1.2890967435130256,-1.2878809447480777,4.387374701525093,3,right
11.027000000000001,-0.18396715979865438,0.7125260754365905,0.00920512227234955,-0.833606435676487,-6.13772180854683,0.8796129886915333,1.290884516293966,-1.2921164983829216,4.394713372248805,3,right
11.027999999999999,-0.1753710777912212,0.7230497091839967,0.008393301964381048,-0.836583122239813,-6.136599350860978,0.8844143016178728,1.2920369362757653,-1.295348882359427,4.400475497676601,3,right
11.032,-0.1667675540168498,0.7334580489014595,0.007603181923133288,-0.839949139091675,-6.132040620266058,0.8890150630065651,1.292552135148997,-1.2975648327300557,4.4046665037523205,3,right
11.033,-0.15815804891412527,0.7437466204846707,0.006834692841725199,-0.843686639483719,-6.124091109350473,0.8934196762743277,1.292428847214235,-1.2987522092368302,4.40729263822113,3,right
11.039000000000001,-0.14954412364542563,0.7539111722229735,0.006087699452177948,-0.8477767002656991,-6.112799346443124,0.897632638535008,1.2916664143142893,-1.2988999971754744,4.408360948858124,3,right
11.04,-0.14092744489904643,0.7639476777641486,0.005361998427554927,-0.8521993819884959,-6.098216763832808,0.9016585258800252,1.2902647903347904,-1.2979983069142007,4.407879261061293,3,right
11.040999999999999,-0.13230978916528302,0.7738523384803659,0.004657316607241671,-0.856933792993487,-6.0803975595336786,0.9055019784711564,1.2882245452360306,-1.2960383712909052,4.4058561549379025,3,right
11.042,-0.12369304641460234,0.7836215852257723,0.003973309568342332,-0.8619581574999747,-6.0593985525644545,0.9091676854577752,1.2855468685220386,-1.2930125414401399,4.402300942191017,3,right
11.043,-0.11507922310333095,0.7932520794878658,0.003309560559587114,-0.8672498875986264,-6.035279031888086,0.9126603697395621,1.2822335720204074,-1.2889142817818613,4.3972236432096645,3,right
11.043,-0.10647044442850775,0.8027407139421656,0.0026655798120642504,-0.8727856585362397,-6.008100600091736,0.9159847726424081,1.27828709187518,-1.2837381647172676,4.390634964660533,3,right
11.047,-0.09786895575650259,0.812084612426365,0.0020408042400002204,-0.8785414857356176,-5.977927014574187,0.9191456386597062,1.2737104897083729,-1.2774798652434027,4.382546277692454,3,right
11.048,-0.08927712315970561,0.8212811293585499,0.0014345975437657602,-0.8844928014715747,-5.944824029941264,0.9221477004579637,1.2685074529344962,-1.270136155511472,4.372969596759357,3,right
11.052,-0.08069743300637511,0.8303278486339073,0.0008462507279837074,-0.890614529648322,-5.908859244358636,0.9249956642979524,1.2626822942167455,-1.2617048993139912,4.361917559042792,3,right
11.052999999999999,-0.0721324905651773,0.8392225820455969,0.00027498304612565524,-0.8968811580664761,-5.870101950906392,0.927694195937155,1.2562399500517234,-1.2521850464827833,4.34940340445081,3,right
11.058,-0.06358501761471529,0.8479633672874933,-0.00028005662686438244,-0.9032668080920266,-5.828622994028912,0.9302479070315842,1.2491859784677515,-1.2415766271767215,4.335440956165718,3,right
11.059000000000001,-0.055057849086174254,0.8565484656077295,-0.0008197880102037307,-0.9097453017447937,-5.784494630976876,0.9326613420451669,1.2415265558200514,-1.2298807460349954,4.32004460170898,3,right
11.062000000000001,-0.04655392880697691,0.8649763591905127,-0.0013451972577088812,-0.9162902262243205,-5.737790398130232,0.9349389656744551,1.2332684726643002,-1.217099576168554,4.30322927448736,3,right
11.062999999999999,-0.03807630444960368,0.8732457483479945,-0.0018573344766976585,-0.9228749958914928,-5.688584982083108,0.9370851507960103,1.2244191286883084,-1.2032363529592482,4.285010435780216,3,right
11.065999999999999,-0.029628121818621327,0.8813555486035665,-0.0023573109894217295,-0.9294729117244344,-5.636954095364049,0.9391041669434032,1.2149865266798314,-1.1882953676330867,4.265404057123746,3,right
11.067,-0.02121261862862789,0.8893048877430492,-0.002846296404730651,-0.9360572182674279,-5.582974356657598,0.9410001693203803,1.2049792655068068,-1.1722819605708852,4.24442660304392,3,right
11.071,-0.012833117935458545,0.8970931029013929,-0.003325515566064132,-0.9426011580917162,-5.526723175386003,0.9427771883563757,1.1944065320846144,-1.1552025143165,4.222095014085793,3,right
11.072000000000001,-0.004493021382529756,0.9047197377404333,-0.0037962454346974067,-0.9490780237870823,-5.468278640502914,0.9444391198101715,1.1832780923032784,-1.1370644462397346,4.198426690082902,3,right
11.077,0.003804197585097353,0.9121845397586713,-0.0042598119548791814,-0.9554612075030653,-5.4077194133441475,0.9459897154271677,1.1716042808858849,-1.1178762008079293,4.1734394736065346,3,right
11.078,0.01205500040346803,0.9194874577584062,-0.004717586933433168,-0.9617242480585526,-5.345124624374115,0.9474325741553713,1.1593959901478628,-1.0976472414171865,4.1471516335307435,3,right
11.081,0.02025578985768472,0.9266286394801797,-0.005170984951961391,-0.9678408756383001,-5.280573773660166,0.9487711339248892,1.1466646576251793,-1.0763880417311422,4.119581848645164,3,right
11.082,0.028402916250821596,0.9336084293992423,-0.005621460313419333,-0.9737850540946561,-5.214146634901057,0.9500086639953846,1.133422252537941,-1.0541100764721836,4.090749191243876,3,right
11.085999999999999,0.036492683217397494,0.9404273666634512,-0.006070504007243358,-0.9795310208724296,-5.14592316282991,0.9511482578756524,1.1196812610543505,-1.0308258116070204,4.060673110614841,3,right
11.087,0.04452135315244093,0.9470861831377776,-0.006519640662381382,-0.9850533245744144,-5.075983403806377,0.9521928268191626,1.1054546703184744,-1.0065486938655661,4.029373416350764,3,right
11.092,0.05248515225311455,0.9535858015086252,-0.006970425448093895,-0.9903268601845913,-5.004407409407351,0.9531450938991362,1.0907559512038048,-0.9812931395291549,3.9968702613985743,3,right
11.093,0.06038027519129662,0.9599273333920475,-0.007424440877639388,-0.9953269019654594,-4.93127515282044,0.9540075886664318,1.0755990397531685,-0.9550745224212326,3.9631841247611836,3,right
11.095999999999998,0.06820288944972272,0.9661120773848698,-0.007883293469626447,-1.000029134045308,-4.856666447839422,0.9547826423932511,1.059998317264146,-0.9279091610308143,3.9283357937616445,3,right
11.097000000000001,0.07594913936134513,0.9721415169977867,-0.00834861022782536,-1.0044096787105237,-4.7806608702562565,0.9554723839054027,1.043968588977801,-0.8998143046961867,3.8923463457763745,3,right
11.100999999999999,0.08361514989339847,0.9780173184144622,-0.008822034913756745,-1.0084451224172442,-4.703337681439724,0.9560787360056083,1.0275250613272133,-0.8708081187735719,3.8552371293407264,3,right
11.102,0.09119703021531993,0.9837413280294616,-0.009305224104801014,-1.0121125395358173,-4.624775753886543,0.9566034124900826,1.010683317701028,-0.8409096687127525,3.8170297445268346,3,right
11.105,0.09869087708358185,0.9893155697289749,-0.009799843048662497,-1.015389513840597,-4.545053498526787,0.95704791576037,0.993459292676004,-0.8101389029589856,3.7777460224904043,3,right
11.106,0.10609277806841313,0.9947422418895472,-0.010307561338475277,-1.0182541577566206,-4.464248793561637,0.9574135350321861,0.9758692447172704,-0.7785166346267967,3.7374080041405073,3,right
11.107000000000001,0.11339881464033946,1.0000237140804697,-0.010830048439863741,-1.0206851293736539,-4.382438914607956,0.957701345142775,0.9579297275733989,-0.7460645220330574,3.6960379181864726,3,right
11.11,0.12060506513061972,1.0051625234656312,-0.01136896910319787,-1.0226616472687293,-4.299700465989932,0.9579122059500249,0.939657561005499,-0.712805048434131,3.6536581593585566,3,right
11.110999999999999,0.12770760757845784,1.010161370909217,-0.011925978695209668,-1.0241635033359031,-4.216109313360378,0.9580467622761882,0.9210698017180343,-0.6787615014537941,3.6102912678992185,3,right
11.112,0.13470252247686704,1.0150231167942927,-0.012502718487752527,-1.025171074106526,-4.13174051845325,0.9581054442765146,0.9021837151285105,-0.6439579525418945,3.5659599111156837,3,right
11.116,0.14158589542563468,1.0197507765643787,-0.01310081095063549,-1.0256653312008086,-4.046668277111725,0.9580884680727109,0.8830167481990397,-0.6084192365414975,3.520686867235897,3,right
11.117,0.1483538196927601,1.024347515998468,-0.013721855110845005,-1.0256278513913075,-3.9609658613882845,0.9579958365310935,0.8635865033223307,-0.5721709312956523,3.474495011503968,3,right
11.120999999999999,0.15500239867717833,1.0288166462312758,-0.014367422055677119,-1.0250408264717323,-3.874705565889147,0.9578273401373971,0.8439107132078866,-0.5352393371938504,3.427407304387808,3,right
11.122,0.16152774826052274,1.033161618531845,-0.015039050663994013,-1.0238870729642089,-3.7879586581879163,0.9575825579601525,0.8240072167133885,-0.49765145655613807,3.3794467817689413,3,right
11.126,0.16792599903859695,1.0373860188524027,-0.015738243647231958,-1.022150041664852,-3.7007953330623957,0.9572608587023707,0.8038939355654844,-0.45943497275080725,3.3306365469818533,3,right
11.127,0.1741932984358161,1.041493562153859,-0.01646646397437999,-1.019813827025926,-3.6132846703069292,0.9568614018410472,0.7835888519134967,-0.42061822893962825,3.280999764567644,3,right
11.13,0.1803258127267276,1.0454880865047165,-0.01722513174534837,-1.0168631763712432,-3.5254945958712103,0.9563831388537795,0.763109986658913,-0.38123020634270477,3.2305596556042735,3,right
11.13,0.18631972901408073,1.0493735469366825,-0.01801562156275367,-1.013283498939773,-3.4374918460753108,0.9558248145315748,0.7424753785029162,-0.3413005019132261,3.179339494473216,3,right
11.135,0.19217125723830325,1.053154009023288,-0.018839260428041238,-1.0090608747507221,-3.3493419346496855,0.9551849683766978,0.7217030636536618,-0.30085930531066807,3.127362606919986,3,right
11.136,0.19787663231528632,1.0568336421291418,-0.019697326150912863,-1.0041820632815739,-3.2611091223481012,0.9544619360841804,0.7008110561345121,-0.2599373750593567,3.0746523692636902,3,right
11.14,0.20343211651524204,1.0604167122603578,-0.020591046214531162,-0.9986345119487743,-3.172856388880812,0.9536538511053866,0.6798173286339881,-0.2185660137777509,3.021232208608499,3,right
11.140999999999998,0.20883400220081647,1.0639075744345385,-0.02152159699269056,-0.9924063643789082,-3.084645406914897,0.9527586462917925,0.6587397938378035,-0.17677704236233405,2.967125603907788,3,right
11.145,0.2140786150330907,1.0673106644849408,-0.02249010318063618,-0.9854864684563199,-2.996536517888429,0.9517740556168995,0.6375962861830031,-0.1346027730086244,2.912356087729571,3,right
11.145999999999999,0.21916231772762435,1.0706304902219599,-0.023497637285190963,-0.9778643841312176,-2.9085887093850697,0.9506976159739534,0.6164045439739362,-0.0920759809505237,2.856947248569811,3,right
11.15,0.22408151440106663,1.073871621897575,-0.024545219021128533,-0.9695303909703454,-2.820859593815826,0.949526669046894,0.5951821917995491,-0.049229874798024875,2.800922733558229,3,right
11.151,0.22883265549768347,1.077038681950754,-0.02563381447347396,-0.9604754954303222,-2.7334053881549716,0.9482583632517024,0.5739467231913009,-0.006098065352194231,2.7443062513993244,3,right
11.154000000000002,0.2334122432324552,1.0801363340462762,-0.026764334904692884,-0.9506914378317287,-2.6462808944776164,0.946889655745047,0.552715483460858,0.037285467224668495,2.6871215753894764,3,right
11.155,0.2378168374412297,1.0831692714503949,-0.02793763511075208,-0.9401706990099835,-2.559539481047015,0.9454173144968565,0.5315056526566402,0.08088640800670537,2.6293925463492447,3,right
11.159,0.24204306169514245,1.0861422048108142,-0.029154511263498235,-0.9289065066169765,-2.4732330637005036,0.9438379204231737,0.5103342285782531,0.12467014379384371,2.5711430753082656,3,right
11.16,0.24608760951976527,1.0890598494228279,-0.030415698220520333,-0.9168928410453381,-2.387412087283895,0.9421478695753476,0.4892180097878494,0.1686018016173633,2.512397145778527,3,right
11.165,0.2499472505585018,1.0919269120679491,-0.031721866333100604,-0.9041244409451051,-2.302125506885259,0.9403433753813291,0.4681735785575286,0.21264628938686644,2.4531788154502285,3,right
11.165999999999999,0.25361883652958384,1.0947480775089946,-0.03307361782746645,-0.8905968083004125,-2.2174207686202543,0.9384204709345236,0.4472172836919888,0.25676833880435523,2.393512217142948,3,right
11.17,0.2570993068415006,1.0975279947197876,-0.03447148286573091,-0.8763062130316864,-2.1333437897225886,0.9363750113253392,0.4263652231658069,0.3009325506715436,2.333421558843398,3,right
11.17,0.2603856937507974,1.1002712629201246,-0.035915915407904675,-0.8612496970866481,-2.0499389376946944,0.9342026760102359,0.4056332265149261,0.34510344271685706,2.2729311226597115,3,right
11.173,0.26347512696813086,1.1029824174791851,-0.037407288994536506,-0.8454250779812628,-1.967249008275387,0.9318989712127453,0.38503683692218515,0.3892455000687944,2.2120652625208996,3,right
11.174000000000001,0.26636483764245583,1.105665915745011,-0.03894589255207551,-0.8288309517495692,-1.8853152019830743,0.9294592323505741,0.36459129296843,0.4333232284077948,2.15084840050551,3,right
11.175,0.2690521616783939,1.1083261228526233,-0.04053192629547423,-0.8114666952591361,-1.804177098995002,0.9268786264825397,0.344311510178156,0.4773012093555131,2.0893050219653455,3,right
11.179,0.2715345423656012,1.1109672975575038,-0.04216549777290813,-0.7933324678466792,-1.723872632125086,0.9241521547687138,0.32421206277171644,0.5211441568084533,2.0274596701184078,3,right
11.181,0.27380953231742916,1.1135935781390363,-0.04384661807269294,-0.7744292122464905,-1.6444380577816786,0.9212746549500558,0.3043071661936275,0.5648169724494657,1.9653369410672021,3,right
11.182,0.2758747947278457,1.1162089684215473,-0.04557519819592836,-0.7547586548837149,-1.5659079253721184,0.9182408039199383,0.2846106608299143,0.6082847991435886,1.9029614799146213,3,right
11.184000000000001,0.27772810396366193,1.1188173239627965,-0.047351045589636605,-0.7343233057851829,-1.4883150466730732,0.9150451205792883,0.2651359970452589,0.6515130717761939,1.8403579781393808,3,right
11.185,0.2793673455195575,1.121422338461966,-0.04917386083223033,-0.7131264584599042,-1.4116904672714004,0.9116819692331513,0.24589622151420923,0.6944675655641721,1.7775511721091937,3,right
11.189,0.2807905153781677,1.1240275304482223,-0.05104323446605025,-0.6911721899975175,-1.336063441599624,0.9081455637195177,0.22690396478989575,0.7371144419649511,1.7145658425525458,3,right
11.19,0.28199571883099994,1.1266362303236934,-0.05295864398240078,-0.6684653614479215,-1.2614614120430494,0.9044299723410445,0.20817143005433816,0.7794202923074608,1.651426814809288,3,right
11.193,0.2829811688213921,1.129251567842535,-0.054919450981322525,-0.6450116184415209,-1.187909992015091,0.9005291236033018,0.18971038299509854,0.8213521792683649,1.588158959679667,3,right
11.195,0.2837451838668054,1.1318764601092277,-0.05692489854423764,-0.6208173919870306,-1.1154329527836218,0.8964368127493741,0.17153214275374748,0.8628776763160041,1.5247871946909093,3,right
11.198,0.2842861856081635,1.1345136001772238,-0.0589741088666688,-0.5958898993816186,-1.0440522138340846,0.8921467090801279,0.15364757389235528,0.9039649052435106,1.4613364856000315,3,right
11.199000000000002,0.2846026960247727,1.1371654463249705,-0.06106608119948459,-0.5702371451660261,-0.9737878365581262,0.8876523640489267,0.13606707932499862,0.9445825719114844,1.3978318479511778,3,right
11.205,0.28469333434963356,1.1398342120801133,-0.06319969014149342,-0.5438679220551753,-0.9046580210595905,0.8829472201190232,0.11880059416208476,0.9847000003194544,1.3342983485054873,3,right
11.206,0.28455681372205177,1.1425218570547833,-0.06537368431527324,-0.5167918117726746,-0.8366791058728584,0.8780246203712919,0.10185758041613861,1.0242871651240886,1.2707611063612725,3,right
11.208,0.2841919376191258,1.1452300786457656,-0.0675866854455263,-0.48901918571554376,-0.7698655703917222,0.8728778188493743,0.08524702251856954,1.0633147227207735,1.2072452935821254,3,right
11.208,0.2835975961120107,1.147960304642384,-0.06983718784847351,-0.4605612053734298,-0.7042300398102369,0.8674999916287089,0.0689774235978364,1.1017540410037414,1.143776135150493,3,right
11.214,0.28277276199600465,1.150713686771011,-0.0721235583320714,-0.4314298224245531,-0.6397832923802973,0.8618842485952882,0.0530568024703574,1.1395772279184073,1.0803789080642507,3,right
11.214,0.2817164868475096,1.1534910951891626,-0.07444403649824805,-0.40163777842862347,-0.576534268794028,0.8560236459193422,0.03749269129646543,1.1767571589179706,1.0170789393938657,3,right
11.218,0.28042789707029486,1.1562931139277879,-0.0767967354291918,-0.37119860403500143,-0.5144900835024573,0.8499111992084856,0.022292133854687854,1.2132675034346463,0.9539016031178723,3,right
11.219000000000001,0.27890619001152067,1.1591200372712265,-0.07917964273241061,-0.3401266176224446,-0.4536560377853553,0.8435398973241816,0.007461684388631357,1.2490827504741235,0.8908723155545906,3,right
11.222000000000001,0.27715063025226294,1.16197186706091,-0.08159062191796752,-0.3084369232848827,-0.39403563439055417,0.8369027168446703,-0.006992593018224576,1.284178233440002,0.8280165292083005,3,right
11.222999999999999,0.275160546200743,1.1648483109095584,-0.08402741408798398,-0.27614540807581006,-0.335630593564526,0.8299926371567865,-0.021065124583478572,1.3185301542930359,0.7653597248484342,3,right
11.227,0.2729353271339493,1.1677487813161413,-0.0864876399303452,-0.24326873842206595,-0.2784408702994654,0.8228026561583506,-0.03475082652509353,1.3521156071480214,0.7029274016407742,3,right
11.228,0.27047442084436396,1.1706723956776752,-0.08896880201928693,-0.20982435561600085,-0.22246467262560693,0.8153258065520506,-0.04804510436052928,1.3849126014090962,0.6407450651501451,3,right
11.232999999999999,0.26777733205331833,1.1736179772001072,-0.0914682874313805,-0.17583047029329957,-0.1676984807809956,0.8075551727109461,-0.06094385184613748,1.416900084542082,0.5788382130346572,3,right
11.234000000000002,0.26484362175022785,1.1765840567148123,-0.09398337068870476,-0.14130605580205294,-0.11413706709441535,0.7994839080949293,-0.07344344959612417,1.4480579645803116,0.5172323182522057,3,right
11.238,0.26167290760781986,1.1795688754089901,-0.09651121704540762,-0.10627084036704096,-0.06177351642066313,0.7911052531966444,-0.0855407634192621,1.478367132458103,0.4559528096006473,3,right
11.239,0.25826486560957357,1.1825703884780463,-0.09904888613908759,-0.07074529795161208,-0.010599246970829224,0.7824125539945311,-0.09723314241039967,1.5078094842637395,0.3950250494138663,3,right
11.242,0.25461923300830935,1.1855862697063442,-0.10159333603231273,-0.034750637718022365,0.03939596861629943,0.7733992808897898,-0.10851841682098831,1.5363679434513382,0.3344743083328699,3,right
11.243,0.25073581271196904,1.1886139169805636,-0.10414142767136303,0.001691208014368425,0.08822398211215737,0.7640590481031835,-0.1193948956732981,1.5640264827981911,0.27432573755229733,3,right
11.244000000000002,0.246614479164346,1.1916504587381616,-0.10668992978966106,0.03855759741505372,0.13589824859267255,0.7543856335066932,-0.12986136397671438,1.5907701454409906,0.21460433980828908,3,right
11.248,0.24225518576506774,1.194692761349627,-0.10923552428638166,0.07582519449584563,0.18243380553254052,0.7443729988641172,-0.139917079344942,1.6165850640714408,0.1553349408550562,3,right
11.249,0.23765797386197646,1.197737437422283,-0.11177481212086855,0.11346998627648802,0.22784725223979962,0.7340153104537706,-0.1495617678701678,1.6414584776195422,0.0965421626983347,3,right
11.25,0.23282298334026977,1.2007808549967438,-0.11430431977377936,0.1514673018013755,0.272156729670453,0.723306960041691,-0.15879561921417099,1.6653787452009048,0.03825039899058427,3,right
11.252,0.2277504648120822,1.2038191475997078,-0.11682050631946138,0.18979183271299366,0.31538190017340567,0.7122425861538138,-0.16761928093358763,1.6883353573521367,-0.019516207486219593,3,right
11.252,0.2224407933699018,1.2068482251382362,-0.11931977112437334,0.22841765448668921,0.35754392583758504,0.700817095560459,-0.17603385206703762,1.7103189446257436,-0.07673378541904319,3,right
11.258,0.21689448379639434,1.2098637856785397,-0.12179846214446018,0.2673182470978959,0.39866544362373674,0.6890256848664982,-0.1840408760106408,1.7313212836132306,-0.13337875381090689,3,right
11.259,0.21111220701849126,1.2128613282301253,-0.12425288475875049,0.3064665142283751,0.43877053594648524,0.6768638621185077,-0.19164233270727327,1.751335300462336,-0.18942783924254863,3,right
11.261,0.20509480748104195,1.2158361667144464,-0.12667931106203376,0.34583480072098244,0.4778846962443757,0.6643274683733237,-0.1988406301737396,1.7703550719515309,-0.24485809171295866,3,right
11.262,0.19884332102954264,1.2187834452971096,-0.12907398954386348,0.38539490832775475,0.516034789558838,0.6514126991903197,-0.2056385953888678,1.7883758241821044,-0.2996468992214615,3,right
11.267000000000001,0.19235899283856392,1.2216981551978159,-0.13143315508481068,0.42511810986372006,0.5532490082373396,0.6381161260124608,-0.2120394645643687,1.8053939289453158,-0.35377200125230923,3,right
11.267999999999999,0.18564329488773332,1.224575152988778,-0.13375303919778628,0.46497516187946436,0.5895568228731493,0.6244347174001103,-0.21804687281914475,1.8214068978192441,-0.4072115013209749,3,right
11.270999999999999,0.17869794247446297,1.2274091802815872,-0.1360298804596253,0.5049363159660395,0.6249889285913677,0.6103658600804847,-0.22366484327658415,1.8364133740470938,-0.4599438787394898,3,right
11.272,0.1715249092994532,1.2301948846041075,-0.1382599351388847,0.5449713288062628,0.6595771867881947,0.5959073797745508,-0.22889777560323585,1.8504131222458398,-0.5119479997562668,3,right
11.277000000000001,0.1641264408075239,1.2329268411953707,-0.14043948809346854,0.5850494710868432,0.6933545624278017,0.5810575617620554,-0.2337504340061317,1.863407015991211,-0.5632031282238787,3,right
11.277999999999999,0.15650506571571737,1.2355995754068048,-0.14256486402077656,0.6251395353860671,0.7263550569986659,0.5658151711442694,-0.23822793470490475,1.875397023322121,-0.6136889359462339,3,right
11.280999999999999,0.14866360596688175,1.2382075853929697,-0.1446324390939037,0.6652098431519861,0.7586136372287993,0.5501794727629055,-0.242335732893746,1.886386190204767,-0.6633855128544971,3,right
11.282,0.14060518563082366,1.2407453647957158,-0.14663865297557835,0.7052282508861746,0.7901661596569787,0.5341502507325465,-0.24607960920715152,1.896378621993725,-0.7122733771589552,3,right
11.286,0.13233323945412853,1.2432074251667595,-0.14858002119430672,0.7451621556481568,0.8210492911548548,0.5177278275427981,-0.24946565570233425,1.9053794629244962,-0.7603334856218158,3,right
11.287,0.1238515217776755,1.2455883179369016,-0.15045314785022276,0.7849784999955448,0.8513004254926874,0.500913082685245,-0.2525002613701134,1.913394873669081,-0.8075472440936632,3,right
11.290999999999999,0.11516411639016907,1.24788265582135,-0.1522547385482147,0.8246437764747802,0.8809575960394268,0.4837074707591669,-0.25519009718504987,1.9204320069832947,-0.8538965184539725,3,right
11.292,0.10627544761824188,1.25008513363052,-0.15398161334282293,0.864124031777127,0.9100593846859428,0.4661130390088359,-0.25754210070456873,1.9264989814717,-0.8993636460937043,3,right
11.296,0.09719029265554174,1.2521905485119431,-0.15563071936735579,0.9033848706742266,0.9386448270783849,0.4481324442440962,-0.25956346022580024,1.931604853493194,-0.9439314480755744,3,right
11.297,0.08791379487330811,1.2541938196712408,-0.15719914275774538,0.9423914598470865,0.9667533142469548,0.42976896909480305,-0.26126159850788233,1.9357595872274842,-0.9875832421051096,3,right
11.300999999999998,0.07845147765759711,1.2560900076089894,-0.15868411951754965,0.9811085317218496,0.9944244907137766,0.4110265375485816,-0.262644156066496,1.9389740229199028,-1.0303028564430678,3,right
11.300999999999998,0.06880925818546539,1.257874332873977,-0.1600830451314835,1.0195003884250495,1.0216981491620687,0.39190972972026056,-0.26371897404645694,1.9412598433192467,-1.0720746448872165,3,right
11.306,0.05899346048793355,1.2595421942954126,-0.16139348298289813,1.0575309059703357,1.0486141217474483,0.3724237958002347,-0.26449407667725783,1.942629538320603,-1.1128835029488373,3,right
11.307,0.04901082715361535,1.2610891866510063,-0.16261317185364016,1.095163538787814,1.0752121681309508,0.352574669127925,-0.2649776533155498,1.943096367822419,-1.1527148853466413,3,right
11.31,0.038868529093681055,1.2625111177688588,-0.16374003285886934,1.1323613247062143,1.1015318603121949,0.3323689783354294,-0.2651780400776686,1.942674322804411,-1.1915548249380654,3,right
11.311,0.028574172899069734,1.2638040251220852,-0.16477217604727176,1.1690868904970573,1.1276124643401044,0.3118140585053992,-0.26510370108199083,1.9413780846770115,-1.2293899531437769,3,right
11.312000000000001,0.018135805457079157,1.2649641920099357,-0.16570790665640056,1.2053024580888492,1.1534928189776796,0.2909179612861348,-0.264763209407777,1.9392229831841377,-1.2662075216115407,3,right
11.315999999999999,0.007561915636290381,1.2659881634069194,-0.16654573077945742,1.2409698515580863,1.1792112113965145,0.2696894639058704,-0.2641652280342204,1.9362249535591396,-1.3019954243103988,3,right
11.317,-0.003138567019201051,1.2668727615153943,-0.1672843600118672,1.2760505050024868,1.2048052499760622,0.24813807702721652,-0.26331849111033895,1.932400493864954,-1.3367422189363598,3,right
11.318,-0.013956276524211936,1.2676151009959866,-0.167922714507189,1.3105054714335465,1.2303117344224828,0.22627405137509327,-0.2622317858178749,1.9277666232133397,-1.3704371468147412,3,right
11.32,-0.024881417453035858,1.2682126037899073,-0.16845992386565628,1.344295432989636,1.255766524123436,0.2041083830372516,-0.26091393493075316,1.9223408411350364,-1.403070151033708,3,right
11.321,-0.03590377447413975,1.2686630133971912,-0.16889532544307295,1.3773807130674305,1.2812044069184292,0.18165281727564303,-0.2593737800862266,1.9161410881366316,-1.4346318928474295,3,right
11.327,-0.04701272411486715,1.2689644084110008,-0.16922845990289126,1.4097212911333574,1.3066589711660797,0.15891985065271869,-0.25762016576460484,1.9091857074308596,-1.465113766445632,3,right
11.328,-0.0581972483585089,1.2691152149980174,-0.16945906406396752,1.441276820809142,1.3321624832874936,0.13592273130915697,-0.25566192397380083,1.9014934078247874,-1.4945079121832687,3,right
11.33,-0.06944594963751753,1.2691142178757728,-0.16958706133725493,1.4720066515252492,1.357745771701316,0.1126754572885983,-0.2535078596342887,1.8930832277481129,-1.5228072283609615,3,right
11.331,-0.0807470668905774,1.2689605692172579,-0.16961255028477912,1.5018698538681785,1.383438117364042,0.08919277283745254,-0.2511667366594548,1.8839745004016382,-1.5500053816437576,3,right
11.335,-0.09208849259160583,1.2686537948437389,-0.16953579201688712,1.5308252487121767,1.4092671509889243,0.06549016261374507,-0.24864726472573578,1.8741868200038612,-1.5760968162026359,3,right
11.335999999999999,-0.10345779095701284,1.2681937970681392,-0.16935719724949722,1.5588314402235586,1.4352587570170303,0.04158384373824986,-0.24595808672637337,1.8637400091115641,-1.6010767616600383,3,right
11.34,-0.11484221779680384,1.2675808536383781,-0.169077313868512,1.585846852823335,1.461436984414318,0.017490755620483467,-0.24310776690208025,1.8526540869882753,-1.624941239917551,3,right
11.341,-0.12622874261053946,1.266815612402355,-0.16869681574169815,1.6118297721912398,1.4878239643689861,-0.006771452508496501,-0.2401047796413974,1.840949238992529,-1.647687070940677,3,right
11.345,-0.13760407349741713,1.265899081551424,-0.16821649323701043,1.636738390391524,1.5144398349638173,-0.03118443642512828,-0.2369574989430363,1.8286457869559594,-1.6693118775724562,3,right
11.345,-0.14895468527751685,1.2648326155571485,-0.1676372455235732,1.6605308551980322,1.541302672898762,-0.05572917417339333,-0.23367418853203584,1.8157641605194204,-1.6898140894444755,3,right
11.349,-0.16026685099999066,1.2636178971538001,-0.16696007439896837,1.6831653236931106,1.5684284323396125,-0.08038598582553352,-0.23026299262112507,1.8023248693935525,-1.7091929460506148,3,right
11.35,-0.17152667683357162,1.2622569159031258,-0.16618607920770886,1.7046000202118192,1.5958308909692673,-0.10513455581352918,-0.22673192730826888,1.7883484765084947,-1.7274484990456394,3,right
11.356,-0.18272014021807745,1.2607519439886516,-0.16531645241119364,1.7247932986997019,1.623521603318787,-0.12995395790180592,-0.22308887260098115,1.7738555720157811,-1.7445816138275425,3,right
11.357000000000001,-0.19383313107003264,1.2591055099216488,-0.16435247551200535,1.743703709549049,1.6515098614561967,-0.1548226828719592,-0.219341565057624,1.7588667481038602,-1.7605939704593017,3,right
11.36,-0.20485149574705813,1.2573203708178229,-0.16329551525858757,1.7612900709751407,1.6798026631117817,-0.17971866899054756,-0.2154975910355661,1.7434025745871289,-1.7754880639824966,3,right
11.360999999999999,-0.21576108337618094,1.2553994838535272,-0.16214702026423883,1.7775115449903889,1.7084046873194425,-0.20461933533120757,-0.2115643805357508,1.727483575226892,-1.7892672041720137,3,right
11.366,-0.2265477940544243,1.253345977459923,-0.16090851828593727,1.792327718030615,1.7373182776545295,-0.2295016180224843,-0.20754920163292595,1.7111302047412333,-1.8019355147778378,3,right
11.367,-0.23719762835672403,1.2511631227746962,-0.15958161439429297,1.805698686283896,1.7665434331494425,-0.25434200949284796,-0.2034591554805083,1.6943628264594175,-1.8134979322967284,3,right
11.37,-0.2476967375494022,1.248854305841317,-0.15816799015077856,1.8175851457684926,1.7960778069691663,-0.2791166007843809,-0.1993011718787993,1.6772016905751321,-1.8239602043133705,3,right
11.372,-0.25803147390610287,1.2464230010167447,-0.1566694037506926,1.8279484872023357,1.8259167129298062,-0.303801127006563,-0.1950820053950328,1.6596669129516437,-1.833328887447405,3,right
11.374,-0.26818844054647767,1.2438727460113248,-0.1550876909554718,1.8367508957023968,1.8560531399440696,-0.3283710160014654,-0.19080823202352026,1.6417784544307341,-1.8416113449395648,3,right
11.375,-0.27815454025267183,1.2412071189359641,-0.15342476657554815,1.8439554553480095,1.8864777744785346,-0.3528014402914701,-0.18648624637396313,1.6235561005961667,-1.8488157439069899,3,right
11.379000000000001,-0.2879170227613804,1.238429717673,-0.15168262628761264,1.8495262586378285,1.9171790311084032,-0.37706737238037463,-0.18212225937417417,1.6050194419601789,-1.8549510522804071,3,right
11.380999999999998,-0.2974635300953357,1.235544141818363,-0.1498633486447701,1.8534285208656325,1.9481430912562976,-0.40114364347841175,-0.1777222964650331,1.5861878546346384,-1.860027035361564,3,right
11.382,-0.3067821395831965,1.2325539773692626,-0.1479690972106384,1.8556286994355935,1.9793539502024742,-0.42500500572131156,-0.1732921962504968,1.5670804817170012,-1.8640542518080567,3,right
11.384,-0.31586140425968967,1.2294627842739345,-0.1460021227869858,1.8560946181329427,2.010793472454621,-0.448626197953062,-0.16883760955710417,1.5477162157144606,-1.8670440487784439,3,right
11.385,-0.3246903902965542,1.226274086924313,-0.14396476571149278,1.854795596361165,2.0424414555661583,-0.47198201514147814,-0.16436399886557054,1.5281136822346821,-1.8690085560386775,3,right
11.386,-0.33325871104843435,1.222991367634223,-0.1418594581926854,1.851702583170294,2.0742757023482734,-0.4950473813597486,-0.15987663809184705,1.5082912250012483,-1.8699606789560177,3,right
11.388,-0.3415565572969531,1.2196180630920812,-0.1396887266335153,1.8467882949874874,2.106272100699615,-0.5177974255898209,-0.15538061270320724,1.4882668921570579,-1.8699140903748086,3,right
11.389000000000001,-0.3495747233494486,1.2161575637204656,-0.13745519387209207,1.840027354320849,2.138404708978658,-0.5402075583848112,-0.15088082015652157,1.4680584237994063,-1.8688832213797864,3,right
11.392999999999999,-0.35730462872548674,1.21261321580745,-0.13516158122299227,1.8313964257939042,2.1706458441223195,-0.5622535467501705,-0.14638197064583933,1.4476832406898414,-1.8668832509496844,3,right
11.394,-0.3647383352051524,1.2089883261716445,-0.13281071013616588,1.8208743467713224,2.2029661704368313,-0.5839115852790544,-0.14188858814637276,1.427158434081307,-1.863930094501032,3,right
11.399000000000001,-0.37186855906596405,1.205286168989229,-0.13040550324242214,1.8084422514663197,2.235334788286763,-0.6051583627942804,-0.1374050117419669,1.4065007566045609,-1.860040391319219,3,right
11.4,-0.3786886784425626,1.2015099942778769,-0.12794898456500975,1.7940836883232127,2.2677193226303727,-0.6259711244248293,-0.13293539722314074,1.3857266141553672,-1.855231490871114,3,right
11.402999999999999,-0.38519273587586955,1.1976630374261266,-0.12544427874144964,1.7777847306448653,2.3000860114940602,-0.6463277291790591,-0.12848371894280067,1.364852058723541,-1.8495214379907903,3,right
11.405,-0.3913754362305772,1.1937485290951728,-0.12289460918099276,1.7595340804292727,2.3323997944788406,-0.6662067030756185,-0.12405377191675544,1.3438927821045348,-1.8429289569272211,3,right
11.408,-0.39723214023753795,1.1897697048145048,-0.12030329514572827,1.7393231653740078,2.3646244013918007,-0.685587287891801,-0.11964917415620098,1.3228641104339232,-1.8354734342401686,3,right
11.409,-0.4027588539697774,1.1857298136456824,-0.11767374777341158,1.7171462290016777,2.3967224410954384,-0.7044494855877744,-0.11527336921939454,1.301780999484852,-1.8271749005279025,3,right
11.413,-0.407952214605571,1.1816321253922224,-0.11500946506524476,1.6930004138539487,2.428655490667637,-0.7227740984637453,-0.11092962896980027,1.280658030668275,-1.8180540109678558,3,right
11.415,-0.4128094728876443,1.1774799359707668,-0.11231402586175321,1.666885837696066,2.460384184964773,-0.7405427651056931,-0.10662105652806013,1.2595094076756022,-1.8081320246488388,3,right
11.417,-0.4173284727616847,1.1732765707071187,-0.10959108284149996,1.638805662668149,2.4918683066800758,-0.7577379921738175,-0.10235058940522693,1.238348953703219,-1.797430782671017,3,right
11.418,-0.42150762875991055,1.1690253854615535,-0.1068443546043097,1.6087661573139034,2.5230668769888913,-0.7743431820863026,-0.09812100280478746,1.2171901091982358,-1.7859726849874968,3,right
11.423,-0.42534590176415243,1.1647297656092972,-0.10407761693448352,1.576776751411733,2.553938246871916,-0.7903426566494003,-0.09393491308110494,1.1960459300647335,-1.7737806659590665,3,right
11.424000000000001,-0.42884277381788527,1.1603931229972746,-0.10129469336905839,1.5428500835275998,2.5844401892067532,-0.8057216766832012,-0.08979478134201871,1.174929086269753,-1.7608781685913932,3,right
11.427999999999999,-0.4319982226504861,1.156018891063668,-0.09849944521578019,1.5070020412033567,2.614529991717331,-0.8204664576907564,-0.08570291718345634,1.1538518607882704,-1.7472891174218137,3,right
11.429,-0.4348126965337749,1.151610518342615,-0.09569576117632228,1.469251793688683,2.644164550869772,-0.8345641816164833,-0.08166148254403799,1.1328261488264417,-1.7330378900207435,3,right
11.433,-0.43728709001984595,1.1471714605858194,-0.0928875467359584,1.4296218171191952,2.6733004668022486,-0.8480030047380029,-0.07767249566778449,1.1118634572624828,-1.7181492870706876,3,right
11.433,-0.43942272102021024,1.1427051717226764,-0.09007871348240747,1.3881379120377917,2.7018941393751716,-0.8607720617337437,-0.07373783516317892,1.0909749042446601,-1.7026485009838734,3,right
11.437999999999999,-0.44122130958998196,1.1382150938611708,-0.08727316851192471,1.3448292131508333,2.7299018654267524,-0.8728614659667786,-0.06985924414697617,1.0701712188860166,-1.686561083017614,3,right
11.439,-0.4426849586885645,1.1337046465144156,-0.084474804067881,1.2997281912053689,2.757279937317541,-0.8842623060234851,-0.0660383344613051,1.049462740995636,-1.6699129088446887,3,right
11.443,-0.4438161371085089,1.129177215229858,-0.08168748753752252,1.2528706468682982,2.7839847428459903,-0.8949666385436837,-0.062276590952763874,1.028859420786461,-1.6527301425342642,3,right
11.445,-0.44461766469939873,1.1246361398020106,-0.07891505191114742,1.204295696483126,2.8099728666154125,-0.904967477376969,-0.058575375802369954,1.0083708184999236,-1.6350391988971975,3,right
11.449000000000002,-0.4450926999616633,1.120084702258442,-0.0761612867876054,1.1540457495748213,2.835201192930876,-0.914258779097964,-0.05493593289496473,0.9880061039104628,-1.6168667042049936,3,right
11.45,-0.4452447300439399,1.1155261148057591,-0.07342992998925735,1.1021664779682587,2.859627010302677,-0.9228354249112374,-0.05135939221471102,0.967774055786013,-1.5982394555753634,3,right
11.45,-0.44507756314366487,1.1109635079030251,-0.07072465982722562,1.0487067763807865,2.8832081176309403,-0.9306931989745963,-0.04784677424965713,0.9476830615837555,-1.5791843798292413,3,right
11.452,-0.4445953232738382,1.1063999186247,-0.068049088037688,0.9937187143446684,2.905902932143736,-0.9378287631674409,-0.044398994386386184,0.927741117773487,-1.5597284929079553,3,right
11.453,-0.443802447312886,1.101838279503786,-0.06540675339517009,0.93725747941325,2.9276705990388208,-0.9442396284098491,-0.041016867278082306,0.9079558310686341,-1.5398988606527169,3,right
11.453,-0.4427036842133433,1.0972814080704398,-0.0628011159973214,0.879381312114071,2.948471102176848,-0.9499241230412472,-0.03770111117336628,0.8883344206424654,-1.5197225612339993,3,right
