time,gFx,gFy,gFz,ax,ay,az,wx,wy,wz,subject_number,foot
0.948,0.3611698088481016,0.6783796299728397,0.28771041548205195,-0.008538780302291226,-0.29441624828909585,0.27688591906170773,-0.14305780405633378,-0.044944578945553045,0.34172298098929693,2,left
0.9490000000000001,0.3592159586293658,0.6774302451120601,0.28607204841002215,0.02225596460261674,-0.3423740741077702,0.29053671942862125,-0.12425476855191925,-0.04484954389368983,0.32506137676412944,2,left
0.953,0.3571897321873523,0.6765950010614418,0.28440642094592217,0.05263278291115476,-0.3904401568040955,0.3037590274522648,-0.10523061338739288,-0.044560712200563964,0.308153027034787,2,left
0.9540000000000001,0.3550934139819985,0.6758731176851634,0.2827144334744927,0.08256866637819187,-0.43857993614626734,0.31654959090357615,-0.0859912937160514,-0.04407720142200363,0.29100356422361096,2,left
0.958,0.35292928079322905,0.6752637338236623,0.28099697662747186,0.11204150286363904,-0.48675901946150146,0.3289059514283836,-0.06654296406302916,-0.04339839399274178,0.2736188298948795,2,left
0.958,0.3506995989017127,0.6747659091660078,0.2792549325034932,0.1410300837078442,-0.5349432158802419,0.34082643603691265,-0.046891977609069706,-0.04252393851115578,0.25600487324781923,2,left
0.963,0.3484066214141244,0.6743786261355385,0.2774891758720586,0.16951411003724326,-0.5830985688280285,0.3523101471434935,-0.027044885123635752,-0.04145375026282111,0.2381679492181413,2,left
0.965,0.34605258571034625,0.6741007917834735,0.27570057534572334,0.19747419808488886,-0.6311913869033572,0.363356951191962,-0.007008433491501576,-0.04018801098092826,0.2201145161381733,2,left
0.968,0.3436397109907451,0.6739312396887942,0.2738899945093553,0.2248918836090898,-0.6791882732798775,0.3739674659009962,0.013210436223610199,-0.038727167841050576,0.20185123290499998,2,left
0.9690000000000001,0.3411701959046444,0.6738687318660168,0.272058292998754,0.2517496254919461,-0.7270561537711956,0.3841430461623788,0.03360459123534824,-0.03707193168718914,0.18338495560538645,2,left
0.972,0.33864621624568364,0.6739119606857233,0.2702063275226443,0.2780308085980625,-0.7747623036963665,0.39388576862392016,0.054166710068553024,-0.0352232744854594,0.16472273354563455,2,left
0.972,0.3360699227054769,0.6740595508159494,0.26833495282286324,0.30371974597216495,-0.8222743736838867,0.4031984149875267,0.0748892862286463,-0.03318242600122464,0.14587180463392288,2,left
0.976,0.3334434386840658,0.6743100611949455,0.2664450225690337,0.32880168045274116,-0.8695604145516288,0.41208445405165045,0.09576463256516067,-0.030950869694923163,0.12683959006209633,2,left
0.977,0.3307688581636009,0.6746619870461088,0.264537390186643,0.353262785777169,-0.9165889013996956,0.4205480225261147,0.11678488638846264,-0.028530337831281238,0.10763368823330882,2,left
0.982,0.3280482436589937,0.6751137619441457,0.2626129096193203,0.3770901672520989,-0.9633287570526142,0.4285939046460747,0.13794201539918305,-0.025922805796052106,0.08826186788138213,2,left
0.983,0.3252836242646147,0.6756637599394301,0.26067243602483586,0.40027186206111337,-1.0097493749866426,0.43622751061065135,0.15922782449030712,-0.023130485613874215,0.0687320603272223,2,left
0.9890000000000001,0.32247699381874206,0.6763102977458068,0.2587168264002148,0.42279683927990813,-1.0558206418772211,0.44345485387055966,0.1806339634822925,-0.0201558186602993,0.0490523508171371,2,left
0.99,0.3196303092071264,0.6770516369953659,0.25674694012752597,0.44465499966741656,-1.1015129599007756,0.4502825272878592,0.20215193581963584,-0.017001467579814532,0.029230968918886848,2,left
0.99,0.3167454888235332,0.6778859865621669,0.25476363943079117,0.4658371752994498,-1.1467972689241615,0.4567176781897679,0.22377310809597412,-0.0136703075177033,0.009276278108174659,2,left
0.991,0.31382441119956644,0.6788115049562071,0.252767789735172,0.48633512910953824,-1.1916450687140325,0.4627679823373148,0.2454887199840861,-0.010165416946857315,-0.010803235038959644,2,left
0.992,0.31086891381224685,0.6798263027887703,0.2507602599204965,0.5061415543997484,-1.2360284412973377,0.4684416168284637,0.2672898939857768,-0.0064900684666877005,-0.03099897147545731,2,left
0.997,0.3078807920779087,0.6809284453095494,0.24874192246318788,0.525250074382307,-1.27992007360297,0.47374723195420726,0.2891676445786272,-0.0026477198542245416,-0.05130222971959516,2,left
0.998,0.3048617985419768,0.6821159550143124,0.24671365346493465,0.5436552418109022,-1.3232932805133477,0.4786939220250336,0.31111288662792985,0.0013579945267957869,-0.07170421516724894,2,left
0.9990000000000001,0.30181364227276786,0.6833868143200276,0.24467633257113475,0.5613525387223552,-1.3661220284004818,0.4832911952117479,0.3331164430940787,0.0055232719500961725,-0.09219604870659835,2,left
1.001,0.29873798846398164,0.6847389683029963,0.24263084278448968,0.5783383761263919,-1.4083809589552525,0.4875489425819207,0.35516905209824234,0.00984414919530743,-0.11276877469358067,2,left
1.002,0.2956364582467118,0.6861703274949094,0.24057807017943736,0.5946100931534984,-1.4500454126411573,0.49147740676121204,0.37726137340934485,0.014316510072199237,-0.1334133683466832,2,left
1.0070000000000001,0.292510628708749,0.6876787707305286,0.23851890352442817,0.6101659549878549,-1.4910914508378095,0.4950871507861612,0.3993839944155427,0.018936092612650546,-0.154120742619923,2,left
1.008,0.2893620331171155,0.6892621480375262,0.23645423382282726,0.6250051490912562,-1.531495876002252,0.49838902757571535,0.42152743564353096,0.023698495942763322,-0.17488175461309444,2,left
1.011,0.2861921613383011,0.6909182835549167,0.23438495378742963,0.63912777954761,-1.5712362496504142,0.501394150198813,0.4436821558891227,0.02859918684795834,-0.19568721157857102,2,left
1.012,0.2830024604483147,0.6926449784632913,0.232311957265813,0.6525348595365051,-1.6102909082236958,0.504113862976084,0.46583855702263344,0.033633506044314386,-0.21652787658412917,2,left
1.0170000000000001,0.2797943355218701,0.6944400139081293,0.2302361386335902,0.6652283019784798,-1.648638976956694,0.506559713425175,0.487986988532663,0.03879667416982223,-0.23739447389141455,2,left
1.018,0.2765691505884399,0.6963011538968753,0.22815839217085823,0.6772109083925637,-1.6862603818601944,0.5087434250583585,0.510117751871898,0.04408379750962167,-0.2582776941097997,2,left
1.022,0.2733282297428071,0.6982261481511971,0.2260796114354175,0.6884863560046112,-1.7231358599315731,0.5106768710402612,0.5322211046685646,0.04948987346967369,-0.2791681991854829,2,left
1.023,0.2700728583978271,0.7002127348968868,0.22400068864559275,0.6990591831428972,-1.7592469677027303,0.5123720487127666,0.5542872648671361,0.055009795813689547,-0.30005662728575194,2,left
1.026,0.26680428466651024,0.7022586435745949,0.22192251408397526,0.708934772955408,-1.7945760882335926,0.5138410549933878,0.5763064148618503,0.06063835967849444,-0.32093359763838486,2,left
1.026,0.2635237208594727,0.7043615974560913,0.21984597552907018,0.7181193354812254,-1.8291064366570773,0.5150960626526911,0.5982687056865137,0.06637026638334516,-0.34178971538618064,2,left
1.032,0.2602323450825836,0.7065193161541184,0.21777195771571534,0.7266198881063906,-1.862822064379214,0.5161492974756681,0.6201642613239604,0.0722001280490476,-0.36261557651660575,2,left
1.033,0.2569313029178006,0.7087295180179125,0.2157013418195826,0.7344442344326301,-1.8957078620358816,0.5170130163112995,0.6419831831984,0.07812247204303219,-0.38340177292651084,2,left
1.036,0.2536217091676452,0.7109899224095902,0.21363500495688936,0.7416009415853453,-1.927749561305325,0.5176994860139456,0.6637155549137246,0.08413174526684172,-0.4041388976818117,2,left
1.037,0.2503046496422218,0.7132982518591797,0.21157381968746625,0.7480993159853001,-1.958933735673271,0.5182209632796128,0.6853514473006553,0.09022231830276771,-0.42481755053194103,2,left
1.041,0.24698118296809177,0.7156522340987976,0.2095186535077879,0.7539493776065029,-1.9892478002450869,0.5185896753796052,0.706880923835385,0.09638848943663628,-0.4454283437387632,2,left
1.042,0.24365234239941982,0.7180496039790614,0.20747036832101676,0.7591618327408647,-2.0186800106969987,0.5188178017935595,0.7282940464921274,0.10262448857399492,-0.46596190827950534,2,left
1.045,0.24031913761337875,0.7204881052731713,0.20542981987304149,0.7637480452883184,-2.047219461455929,0.5189174567433871,0.7495808820917066,0.10892448106718405,-0.48640890048308766,2,left
1.045,0.2369825564746823,0.7229654923762788,0.20339785714518757,0.7677200065892328,-2.0748560831950114,0.5189006726292095,0.7707315092080133,0.11528257147099477,-0.5067600091590433,2,left
1.05,0.23364356675737497,0.7254795319092433,0.20137532169508293,0.7710903038141165,-2.101580639729304,0.5187793843679682,0.7917360256938196,0.12169280724481481,-0.527005963277994,2,left
1.05,0.23030311781434518,0.7280280042365137,0.19936304693844922,0.7738720869238129,-2.127384724393676,0.5185654146350211,0.8125845568870844,0.12814918241934808,-0.5471375402624001,2,left
1.055,0.22696214218674737,0.7306087049082248,0.19736185736749193,0.7760790342116265,-2.152260755982232,0.5182704600087031,0.8332672645584858,0.1346456412461601,-0.5671455749460297,2,left
1.055,0.22362155714680013,0.733219446036857,0.19537256770547146,0.7777253164370865,-2.1762019743260357,0.5179060780175282,0.8537743566303745,0.14117608184512484,-0.58702096923138,2,left
1.056,0.22028226616762914,0.7358580576184076,0.1933959820003751,0.7788255595593727,-2.1992024355832354,0.5174836750894425,0.8740960975462503,0.14773435984835157,-0.6067547023294232,2,left
1.061,0.2169451603134588,0.7385223888069977,0.1914328926625497,0.7793948060767707,-2.2212570073130498,0.5170144954023074,0.8942228188982396,0.15431429200934926,-0.6263378412055312,2,left
1.062,0.21361111954482231,0.7412103091507363,0.18948407945327572,0.7794484749769192,-2.2423613634023685,0.5165096106345896,0.9141449297689116,0.1609096597296541,-0.6457615507105203,2,left
1.065,0.21028101393738174,0.743919709795296,0.18755030843510692,0.7790023203475535,-2.2625119788923467,0.5159799106069395,0.9338529263938697,0.1675142124718553,-0.6650171030198814,2,left
1.0659999999999998,0.20695570481631848,0.7466485046598097,0.18563233089773268,0.7780723889284814,-2.2817061246561927,0.5154360947645618,0.9533374010221539,0.1741216710579523,-0.6840958862639924,2,left
1.0659999999999998,0.20363604580860847,0.7493946315882007,0.183730882272206,0.7766749773026506,-2.299941861708409,0.5148886643770152,0.9725890500015326,0.1807257308686498,-0.7029894123761894,2,left
1.071,0.20032288381559318,0.7521560534778992,0.18184668104394952,0.7748265896552868,-2.3172180348295557,0.5143479152913661,0.9915986811452827,0.18732006496255107,-0.721689324213989,2,left
1.072,0.1970170599108385,0.7549307593859274,0.17998042767373193,0.7725438967961367,-2.3335342652813056,0.5138239311152208,1.0103572204364102,0.19389832713421662,-0.7401874020082575,2,left
1.0759999999999998,0.1937194101711138,0.7577167656096647,0.17813280353399533,0.769843696719904,-2.348890942552035,0.513326576779313,1.0288557181245976,0.20045415493004662,-0.7584755691945791,2,left
1.077,0.19043076644892942,0.7605121167373294,0.17630446986381296,0.7667428767461196,-2.363289215163887,0.5128654924699859,1.047085354270466,0.20698117264091725,-0.7765458976805312,2,left
1.079,0.18715195709395718,0.7633148866615859,0.1744960667407082,0.7632583772319194,-2.376730980588183,0.5124500879300847,1.0650374437910217,0.2134729942904549,-0.7943906126019846,2,left
1.08,0.18388380762811304,0.7661231795482661,0.17270821206363768,0.7594071568500125,-2.3892188743132947,0.5120895371268513,1.0827034410594125,0.21992322663776745,-0.8120020966209522,2,left
1.084,0.18062714137426947,0.7689351307507506,0.17094150054026314,0.7552061594229673,-2.4007562581063517,0.5117927732855173,1.100074944111338,0.22632547221336935,-0.8293728938168775,2,left
1.085,0.17738278003212463,0.7717489076594368,0.1691965026733899,0.7506722823038432,-2.4113472075073927,0.5115684842874216,1.1171436985096723,0.23267333240693602,-0.8464957132226115,2,left
1.089,0.17415154418948525,0.7745627104753672,0.1674737637444627,0.7458223462921376,-2.4209964985918546,0.5114251084316362,1.133901600918029,0.2389604106254035,-0.8633634320556547,2,left
1.09,0.17093425375536742,0.7773747728969188,0.1657738027945745,0.740673067073021,-2.4297095940345437,0.5113708305592659,1.1503407024331536,0.24518031553979147,-0.8799690986945508,2,left
1.093,0.16773172830232008,0.7801833627076222,0.16409711160509124,0.7352410281668683,-2.4374926285055305,0.5114135785397963,1.16645321172516,0.2513266644389719,-0.896305935449604,2,left
1.094,0.16454478730763158,0.7829867822520078,0.16244415368182366,0.7295426553751896,-2.444352393425692,0.5115610201190954,1.182231498033736,0.25739308670843025,-0.9123673411763639,2,left
1.1,0.16137425028618038,0.7857833687863909,0.16081536325004944,0.723594192708207,-2.4502963211069515,0.511820560128931,1.1976680940675255,0.26337322745187397,-0.9281468937795662,2,left
1.101,0.15822093681149932,0.7885714946938156,0.1592111442717974,0.7174116797785051,-2.455332468299588,0.512199338058141,1.212755698852958,0.2692607512733309,-0.943638352654445,2,left
1.103,0.15508566642557797,0.7913495675565848,0.15763186949974925,0.71101093064442,-2.459469499166334,0.5127042259858995,1.227487180577837,0.27504934623715177,-0.9588356611115443,2,left
1.104,0.15196925844209894,0.7941160300846881,0.15607787958350422,0.7044075140861153,-2.462716667700361,0.5133418268778353,1.2418555794740145,0.280732728023082,-0.9737329488303462,2,left
1.11,0.14887253165267933,0.7968693599030968,0.1545494822441835,0.6976167352966165,-2.4650837996016297,0.5141184732461098,1.2558541107824803,0.2863046442933023,-0.9883245343862036,2,left
1.11,0.14579630395039042,0.7996080692047773,0.1530469515327059,0.6906536189694499,-2.466581273623517,0.5150402261749172,1.2694761678431716,0.29175887928805455,-1.0026049278942253,2,left
1.114,0.14274139188710924,0.8023307042794598,0.15157052718621705,0.6835328937639502,-2.4672200023990665,0.5161128747132515,1.2827153253507633,0.29708925866616537,-1.0165688338128946,2,left
1.114,0.13970861017979028,0.8050358449319144,0.15012041409616045,0.6762689781287612,-2.467011412753687,0.5173419356371863,1.2955653428166405,0.30228965460646107,-1.0302111539493297,2,left
1.1179999999999999,0.1366987711761371,0.8077221038085984,0.1486967818988735,0.6688759674635553,-2.4659674255086204,0.5187326535843263,1.3080201682761703,0.3073539911857291,-1.0435269907071956,2,left
1.1179999999999999,0.13371268428378608,0.810388125657071,0.14729976469384817,0.6613676225985508,-2.464100434777037,0.5202900015635243,1.3200739422792924,0.3122762500485256,-1.056511650617373,2,left
1.123,0.13075115536065668,0.8130325865470266,0.14592946088627265,0.6537573595709879,-2.461423286752198,0.5220186818434063,1.3317210022013313,0.31705047638375544,-1.069160648190565,2,left
1.124,0.12781498605953845,0.8156541930837384,0.1445859331424519,0.6460582406773551,-2.457949257984693,0.5239231272237096,1.342955886894812,0.3216707852146018,-1.0814697101127144,2,left
1.125,0.12490497311838719,0.8182516816427002,0.14326920844297614,0.6382829667798247,-2.453692033143434,0.5260075026939188,1.353773341626996,0.32613136796818243,-1.093434779716328,2,left
1.128,0.12202190758862826,0.8208238176494869,0.1419792782182186,0.6304438708450653,-2.4486656822527326,0.5282757074841745,1.3641683231118404,0.3304264992192599,-1.1050520215035353,2,left
1.129,0.11916657399550218,0.8233693949250237,0.14071609854934905,0.6225529126933397,-2.4428846373955158,0.5307313775139352,1.3741360043689792,0.3345505434620981,-1.1163178254089026,2,left
1.133,0.1163397494257398,0.825887235114847,0.13947959041436914,0.6146216749314309,-2.4363636688945087,0.5333778882337461,1.3836717792160445,0.3384979618038923,-1.1272288105758668,2,left
1.1340000000000001,0.11354220253841558,0.8283761872189347,0.13826963995664274,0.6066613600220181,-2.429117861101177,0.5362183578027827,1.3927712663342848,0.3422633185443476,-1.137781828575957,2,left
1.1340000000000001,0.11077469249611548,0.8308351272348633,0.1370860987560887,0.5986827884046453,-2.4211625881363243,0.5392556504495924,1.4014303129211165,0.34584128764528466,-1.1479739660857926,2,left
1.138,0.10803796781690907,0.8332629579224038,0.1359287840894692,0.5906963975625736,-2.4125134900443013,0.542492379810792,1.409644997956997,0.3492266591015991,-1.1578025470531932,2,left
1.138,0.10533276515240479,0.8356586086919126,0.13479747917456927,0.582712241950459,-2.4031864497005175,0.5459309120962484,1.4174116351127477,0.3524143452243812,-1.1672651343827172,2,left
1.1440000000000001,0.10265980800105898,0.8380210356112328,0.133691933404361,0.5747399937350718,-2.3931975705936344,0.5495733690256188,1.4247267753221968,0.3553993868464625,-1.176359531169893,2,left
1.145,0.1000198053665054,0.8403492215184027,0.13261186259072344,0.5667889443219921,-2.38256315548166,0.5534216305349092,1.431587209043731,0.3581769594601042,-1.1850837815123798,2,left
1.147,0.09741345036755752,0.8426421762231835,0.13155694924914293,0.5588680066453628,-2.371299685895185,0.5574773372629362,1.4379899682330575,0.36074237929597325,-1.1934361709252344,2,left
1.148,0.09484141880216222,0.8448989367795284,0.1305268429637916,0.550985718197819,-2.3594238024590943,0.561741892828158,1.4439323280481893,0.3630911093519723,-1.2014152263864035,2,left
1.155,0.09230436766438352,0.8471185678118349,0.1295211608766842,0.5431502447777725,-2.3469522860022507,0.5662164659069336,1.4494118083063525,0.3652187653798909,-1.209019716037504,2,left
1.155,0.08980293361119451,0.8493001618791863,0.12853948834424958,0.5353693849313139,-2.3339020394228203,0.5709019921248659,1.454426174711201,0.3671211218372389,-1.2162486485638797,2,left
1.157,0.08733773137378213,0.8514428398644809,0.12758137979751563,0.527650575066107,-2.320290070275163,0.5757991757734794,1.4589734398674081,0.36879411781100074,-1.2231012722768542,2,left
1.158,0.08490935210759928,0.8535457513794716,0.12664635982836503,0.520000895214783,-2.3061334740424955,0.5809084913650906,1.4630518640983705,0.3702338629194122,-1.2295770739200231,2,left
1.162,0.08251836167801058,0.8556080751807958,0.12573392450804088,0.5124270754254976,-2.291449418057878,0.5862301850393324,1.4666599560814222,0.37143664319721625,-1.2356757772203524,2,left
1.165,0.08016529888353162,0.8576290195948039,0.12484354293051611,0.5049355027574928,-2.276255126034454,0.5917642758354023,1.4697964733136213,0.3723989269691962,-1.241397341203765,2,left
1.166,0.07785067362473287,0.8596078229508267,0.12397465896381975,0.497532228859702,-2.2605678631643134,0.5975105568447109,1.4724604224198223,0.3731173707161136,-1.2467419582938215,2,left
1.171,0.07557496503204543,0.8615437540247671,0.12312669318490517,0.4902229781106554,-2.24440492174383,0.6034685962592218,1.4746510593133932,0.37358882493649914,-1.2517100522110103,2,left
1.172,0.07333861956825168,0.8634361124981927,0.1222990449679771,0.4830131562981757,-2.227783607281866,0.6096377383313765,1.4763678892185894,0.3738103400070531,-1.2563022756890883,2,left
1.177,0.0711420491214696,0.865284229441791,0.12149109469321227,0.4759078598176107,-2.2107212250458117,0.6160171042621143,1.4776106665622317,0.3737791720437131,-1.2605195080238245,2,left
1.178,0.06898562910374281,0.8670874678355142,0.12070220604059304,0.4689118853676161,-2.193235066999066,0.6226055930340997,1.4783793947409865,0.37349278876473613,-1.2643628524684216,2,left
1.179,0.06686969656935281,0.8688452231410443,0.11993172832930445,0.4620297401227877,-2.1753423990822505,0.6294018822078777,1.4786743257691717,0.372948875356427,-1.2678336334888087,2,left
1.18,0.06479454836448968,0.8705569239446908,0.1191789988565454,0.4552656523627411,-2.1570604487891747,0.6364044286992824,1.4784959598106657,0.3721453403414164,-1.2709333938909213,2,left
1.1840000000000002,0.062760439316415,0.8722220326891181,0.11844334518280929,0.44862358253755236,-2.138406392987356,0.6436114695570211,1.4778450445971243,0.37108032144866154,-1.2736638918310146,2,left
1.1840000000000002,0.06076758046814484,0.8738400465100502,0.11772408730599808,0.4421072347497969,-2.119397345931732,0.6510210227599561,1.4767225747333539,0.36975219148360344,-1.2760270977189827,2,left
1.19,0.05881613736526035,0.8754104981902534,0.11702053966581955,0.4357200686337644,-2.100050347419089,0.6586308880541952,1.4751297908893344,0.3681595641961669,-1.2780251910235927,2,left
1.1909999999999998,0.05690622840368985,0.8769329572385531,0.11633201292493991,0.42946531161277685,-2.08038235102964,0.6664386478506924,1.4730681788770177,0.3663013001435406,-1.2796605569874817,2,left
1.194,0.05503792324924686,0.8784070310967139,0.11565781548535106,0.423345971515897,-2.0604102124011994,0.6744416682046387,1.470539468608683,0.36417651254391975,-1.28093578325871,2,left
1.195,0.053211241340469666,0.8798323664718244,0.1149972547147773,0.41736484953568576,-2.0401506774803972,0.6826370998984986,1.4675456329322794,0.36178457311663276,-1.281853656444617,2,left
1.195,0.05142615048701943,0.8812086507864414,0.11434963787420732,0.4115245535090474,-2.019620370694477,0.691021879651117,1.4640888863406318,0.359125117893069,-1.2824171585910789,2,left
1.199,0.049682565576650704,0.8825356137347076,0.11371427274925859,0.40582751149082225,-1.9988357830118908,0.6995927314710866,1.4601716835640621,0.3561980529308439,-1.2826294635812239,2,left
1.2,0.04798034740203412,0.883813028932865,0.1130904679922148,0.40027598552635824,-1.977813259986849,0.7083461681491487,1.4557967180798366,0.35300355977068276,-1.282493933432213,2,left
1.2,0.04631930161577761,0.8850407156553405,0.11247753318141161,0.39487208541480046,-1.9565689901121894,0.7172784928418018,1.4509669205845408,0.3495421004235209,-1.2820141144596595,2,left
1.205,0.044699177823858155,0.8862185406457916,0.11187477860708289,0.38961778219142584,-1.9351189939319713,0.7263858006748509,1.44568545746014,0.3458144217257663,-1.2811937332862713,2,left
1.206,0.04311966883415058,0.8873464199844059,0.11128151479875568,0.38451492112159236,-1.9134791142367424,0.7356639803201321,1.439955729237978,0.34182155899209,-1.280036692684716,2,left
1.209,0.04158041008037258,0.8884243209853645,0.1106970518135239,0.3795652341141893,-1.8916650074338148,0.7451087155422971,1.4337813690496366,0.3375648389455581,-1.27854706725174,2,left
1.21,0.04008097923918495,0.8894522640969046,0.11012069830517013,0.3747703515267331,-1.869692136056507,0.7547154867370207,1.427166241049501,0.33304588191440054,-1.27672909891119,2,left
1.213,0.038620896052238556,0.8904303247785371,0.10955176039524561,0.37013181334745243,-1.84757576235023,0.7644795724872738,1.4201144387925742,0.32826660328394713,-1.274587192242624,2,left
1.214,0.037199622358431605,0.8913586353321253,0.10898954037228009,0.3656510797401471,-1.8253309428727753,0.7743960511647849,1.4126302835498097,0.32322921419150813,-1.27212590963124,2,left
1.218,0.035816562336014296,0.8922373866658677,0.10843333525252036,0.36132954093805003,-1.8029725240457242,0.7844598026042783,1.4047183225419715,0.3179362214512198,-1.26934996623391,2,left
1.219,0.034471062951067964,0.8930668299739967,0.10788243524084767,0.3571685264733704,-1.7805151385934708,0.7946655098785276,1.396383327071771,0.31239042669513123,-1.2662642247551759,2,left
1.224,0.03316241460901062,0.8938472783189864,0.1073361221322661,0.353169313729648,-1.75797320280599,0.8050076612027007,1.3876302905327915,0.3065949247160661,-1.2628736900261477,2,left
1.224,0.03188985200762302,0.8945791081053707,0.10679366769368977,0.3493331358045082,-1.7353609145611515,0.8154805519968955,1.3784644262724794,0.30055310099706084,-1.2591835033783392,2,left
1.228,0.030652555191346346,0.8952627604351604,0.1062543320632759,0.34566118867086604,-1.7126922520420953,0.8260782871361713,1.368891165285271,0.2942686284114535,-1.2551989368035865,2,left
1.228,0.02944965080694629,0.8958987423360879,0.10571736220075797,0.3421546376250939,-1.6899809730849435,0.8367947834177774,1.358916153710721,0.2877454630769819,-1.2509253868903218,2,left
1.2329999999999999,0.028280213561006427,0.8964876278568416,0.10518199041899373,0.3388146230111344,-1.667240615091921,0.8476237722756479,1.3485452501103106,0.28098783934654276,-1.2463683685256124,2,left
1.234,0.027143267879914133,0.8970300590279834,0.10464743302475302,0.33564226521001306,-1.6444844954447915,0.8585588027725982,1.337784522495449,0.27400026391756627,-1.2415335083515298,2,left
1.238,0.026037789772193846,0.8975267466916274,0.10411288909337442,0.3326386688846794,-1.6217257123533937,0.8695932449009902,1.3266402450780248,0.2667875090412764,-1.2364265379635841,2,left
1.238,0.024962708890872074,0.8979784712059887,0.10357753939617444,0.32980492647058485,-1.5989771460739832,0.8807202932229656,1.3151188947137264,0.25935460481243294,-1.2310532868381456,2,left
1.242,0.02391691078994396,0.8983860830336584,0.10304054549264105,0.3271421209028851,-1.5762514604320332,0.8919329708816457,1.3032271470072323,0.2517068305194933,-1.2254196749749748,2,left
1.2429999999999999,0.02289923936381404,0.8987505032260963,0.10250104899235571,0.3246513275716414,-1.553561104584141,0.9032241340149797,1.2909718720472707,0.24384970503448333,-1.2195317052402035,2,left
1.248,0.02190849945170898,0.8990727238207774,0.10195817098480796,0.32233361549688333,-1.5309183149537198,0.9145864766041932,1.2783601297384672,0.235788976221237,-1.2133954553943433,2,left
1.249,0.02094345958140594,0.89935380816985,0.10141101162979924,0.3201900477158844,-1.508335117275215,0.9260125357890339,1.2653991646958316,0.22753060934004585,-1.2070170697891534,2,left
1.256,0.020002854820353678,0.8995948912188724,0.10085864989680705,0.3182216808754984,-1.485823328681692,0.9374946976822311,1.2520964006666908,0.2190807744261594,-1.20040275071646,2,left
1.2570000000000001,0.019085389698943165,0.8997971797518262,0.10030014343779292,0.31642956402290007,-1.4633945597707687,0.9490252037157987,1.2384594344438584,0.21044583261899358,-1.1935587493913205,2,left
1.2570000000000001,0.018189741169649394,0.8999619526161776,0.09973452857518687,0.3148147365885748,-1.4410602165840496,0.9605961575519857,1.2244960292328193,0.20163232141833554,-1.1864913565512138,2,left
1.258,0.017314561564853215,0.9000905609403136,0.09916082038595868,0.313378225555905,-1.4188315024354106,0.9721995325918462,1.2102141074347315,0.19264693884328488,-1.1792068926522787,2,left
1.262,0.01645848151375416,0.9001844283546546,0.0985780128632737,0.312121041812207,-1.3967194195237287,0.9838271801145322,1.1956217428060878,0.18349652646913947,-1.1717116976429445,2,left
1.263,0.015620112775894377,0.900245051226751,0.0979850791383605,0.31104417567658155,-1.3747347702659227,0.9954708380805335,1.1807271519788187,0.17418805135419077,-1.1640121203119427,2,left
1.265,0.014798050949025067,0.9002739989196237,0.09738097174689496,0.3101485916004537,-1.3528881582864665,1.0071221406321822,1.165538685443106,0.1647285870542457,-1.156114507293417,2,left
1.268,0.013990878013482663,0.9002729140808836,0.09676462292685424,0.3094352220371929,-1.3311899889998813,1.0187726283248055,1.150064818309195,0.15512529425764227,-1.1480251919667013,2,left
1.2690000000000001,0.013197164677905122,0.9002435129677756,0.09613494493708663,0.30890496047772087,-1.3096504697230709,1.0304137591219587,1.134314141283032,0.1453854017594178,-1.1397504835741035,2,left
1.2690000000000001,0.012415472487264975,0.9001875858112026,0.09549083038597576,0.30855865366123014,-1.288279609267964,1.0420369201595292,1.1182953521703023,0.1355161883065092,-1.1312966567931104,2,left
1.272,0.01164435565069244,0.9001069972200396,0.09483115255920273,0.3083970930291235,-1.2670872170313594,1.0536334401402045,1.1020172480077155,0.1255249655100282,-1.1226699418434163,2,left
1.273,0.010882362551250815,0.9000036866244102,0.0941547657374464,0.3084210055960463,-1.2460829017181352,1.0651946019618281,1.0854887178001875,0.11541906183391701,-1.1138765151222967,2,left
1.2790000000000001,0.01012803690781926,0.8998796687516815,0.09346050549848413,0.308631044470877,-1.225276069900473,1.07671165503981,1.0687187358179207,0.10520580763164765,-1.104922490344051,2,left
1.2790000000000001,0.009379918563308182,0.899737034121247,0.09274718900302988,0.30902777920260777,-1.2046759245502532,1.0881758269269903,1.0517163554066393,0.0948925212022793,-1.0958139101587459,2,left
1.2819999999999998,0.00863654387688352,0.8995779495344812,0.09201361527148931,0.3096116860213414,-1.1842914635635096,1.0995783340921916,1.0344907032635162,0.0844864958368576,-1.08655673822501,2,left
1.2830000000000001,0.007896445707144852,0.8994046585259671,0.09125856546941652,0.3103831379867046,-1.1641314782303906,1.110910391861859,1.0170509741306362,0.07399498782583187,-1.0771568517111765,2,left
1.288,0.00715815298847694,0.8992194817322291,0.09048080322980223,0.31134239504481503,-1.1442045515914694,1.1221632235577101,0.9994064258571714,0.06342520539787833,-1.0676200341986104,2,left
1.2890000000000001,0.006420189919761618,0.8990248171254758,0.08967907504887876,0.31248959399548376,-1.1245190566218606,1.1333280688631293,0.9815663747808042,0.05278429856025152,-1.0579519689606478,2,left
1.2919999999999998,0.005681074798790013,0.898823140053399,0.08885211079937301,0.3138247383718668,-1.1050831541852497,1.144396191450839,0.9635401913783169,0.04207934981054007,-1.048158232590153,2,left
1.2919999999999998,0.004939318545303564,0.8986170030229478,0.08799862441078762,0.315347688235324,-1.0859047907006072,1.1553588859041601,0.9453372961346819,0.031317365689477836,-1.0382442889483083,2,left
1.298,0.004193422961832412,0.8984090351663234,0.08711731476875707,0.3170581498887797,-1.0669916954650542,1.1662074839639134,0.9269671555794213,0.020505269144257415,-1.028215483406876,2,left
1.2990000000000002,0.003441878785621501,0.8982019413313133,0.0862068668834065,0.31895566551242066,-1.0483513775770636,1.1769333601327394,0.9084392784384736,0.00964989267160859,-1.0180770373558095,2,left
1.3019999999999998,0.0026831635872612333,0.8979985007457318,0.0852659533706356,0.3210396027261058,-1.0299911224049167,1.1875279366683118,0.8897632118492925,-0.0012420277902597332,-1.007834042947744,2,left
1.3030000000000002,0.0019157395727407546,0.8978015652159569,0.08429323628276779,0.3233091440834,-1.0119179875461028,1.197982687996589,0.8709485375864299,-0.012163858251899631,-0.9974914580505693,2,left
1.306,0.0011380513462137295,0.8976140568306307,0.08328736931724987,0.32576327650268205,-0.9941387982241245,1.208289144575901,0.8520048682443947,-0.02310907137621639,-0.9870541013789698,2,left
1.306,0.0003485236914056535,0.8974389651529049,0.0822470004236606,0.32840078064131173,-0.976660142069983,1.2184388962422859,0.8329418433241593,-0.03407125052668817,-0.9765266477755161,2,left
1.311,-0.00045444056937847006,0.8972793438996792,0.08117077481977295,0.33122022021937325,-0.9594883632364368,1.2284235950660913,0.8137691251692823,-0.04504409319157455,-0.9659136236116098,2,left
1.3119999999999998,-0.00127246257886844,0.8971383071242702,0.08005733841680297,0.3342199313000424,-0.9426295557939757,1.238234957749435,0.79449639469725,-0.05602141381554279,-0.9552194022783042,2,left
1.317,-0.0021071892513529833,0.8970190249375821,0.07890534164333968,0.3373980115341516,-0.9260895563583087,1.247864767593656,0.7751333468712935,-0.0669971460701897,-0.9444481997367711,2,left
1.317,-0.0029602948228710873,0.8969247188187711,0.07771344364856729,0.34075230937704853,-0.909873935900052,1.2573048760654315,0.755689685857626,-0.07796534459496775,-0.9336040700979334,2,left
1.3230000000000002,-0.003833482085961012,0.8968586565776361,0.07648031685815249,0.3442804132863615,-0.8939879906881969,1.2665472039897179,0.7361751198127522,-0.08892018624003743,-0.9226909012005513,2,left
1.324,-0.004728483249649658,0.8968241470375728,0.07520465184856187,0.3479796409097967,-0.8784367323198561,1.275583742397168,0.7165993552452502,-0.0998559708425633,-0.911712410156827,2,left
1.3259999999999998,-0.005647060365247239,0.8968245345099704,0.07388516249722384,0.35184702827259834,-0.8632248767897152,1.2844065530531263,0.6969720908961862,-0.11076712156794984,-0.9006721388343858,2,left
1.327,-0.006591005259171464,0.8968631931279452,0.072520591358981,0.3558793189748013,-0.8483568325535655,1.2930077686947317,0.677303011082126,-0.12164818484747518,-0.8895734492432897,2,left
1.334,-0.00756213891657484,0.8969435210998374,0.07110971521496923,0.3600729534088963,-0.8338366875412524,1.3013795930020748,0.6576017784445265,-0.13249382994372652,-0.878419518796553,2,left
1.334,-0.008562310265739054,0.8970689349327271,0.06965135073731218,0.3644240580090108,-0.8196681950753496,1.3095143003287337,0.6378780260491441,-0.14329884817516994,-0.8672133354124515,2,left
1.335,-0.009593394324243547,0.8972428636649076,0.06814436021149925,0.3689284345431818,-0.8058547586528568,1.3174042352163842,0.6181413488048911,-0.15405815183537958,-0.8559576924454805,2,left
1.3359999999999999,-0.010657289682258483,0.897468743134374,0.06658765726102311,0.3735815494607593,-0.7923994155482152,1.3250418117175164,0.5984012943010408,-0.16476677286373728,-0.844655183526311,2,left
1.3359999999999999,-0.011755915312342026,0.8977500102993452,0.06498021252787842,0.3783785233146124,-0.7793048192331933,1.3324195125464864,0.5786673533948355,-0.1754198613627973,-0.8333081975595248,2,left
1.337,-0.012891206705952014,0.8980900976189267,0.06332105927353299,0.38331412031416023,-0.7665732207914401,1.3395298880628062,0.5589489510110797,-0.18601268407876723,-0.8219189142214232,2,left
1.341,-0.014065111344037045,0.8984924274972902,0.06160929887121885,0.38838273813031,-0.7542064498327462,1.3463655550617366,0.5392554374857234,-0.19654062294002314,-0.8104893002064119,2,left
1.3419999999999999,-0.015279583514773683,0.8989604067910867,0.059844106159126935,0.3935783981097099,-0.7422058955943176,1.35291919533088,0.5195960805522465,-0.20699917370991808,-0.7990211063017554,2,left
1.345,-0.016536578498049504,0.8994974213761917,0.05802473461683098,0.39889473602021003,-0.7305724887361765,1.3591835539463193,0.49998005794012834,-0.21738394478858233,-0.787515865276719,2,left
1.345,-0.01783804614342296,0.9001068307661949,0.05615052131838465,0.40432499338517014,-0.7193066840126429,1.3651514373091822,0.48041645052884935,-0.22769065619394946,-0.7759748905532678,2,left
1.351,-0.019185923875149506,0.9007919627712102,0.054220891609094296,0.4098620094287086,-0.7084084438216687,1.3708157109383152,0.4609142360009689,-0.2379151387520432,-0.7643992756253805,2,left
1.3519999999999999,-0.020582129164749923,0.901556108183173,0.05223536344954164,0.4154982136471496,-0.6978772225986073,1.376169297037051,0.44148228293794706,-0.248053333526349,-0.7527898941939295,2,left
1.355,-0.022028551518991708,0.9024025154745361,0.05019355136996833,0.42122561902225386,-0.6877119520220532,1.381205171851196,0.4221293453025284,-0.2581012915158694,-0.7411474009839761,2,left
1.3559999999999999,-0.023527044039017047,0.9033343854995627,0.04809516998224409,0.42703581589212164,-0.6779110270004438,1.385916362834494,0.4028640572516827,-0.26805517365122666,-0.7294722332112289,2,left
1.3619999999999999,-0.02507941461409344,0.9043548661873889,0.0459400370056814,0.432919966495944,-0.6684722924091682,1.390295945636932,0.38369492822429746,-0.27791125111792886,-0.717764612664314,2,left
1.3619999999999999,-0.026687416820062017,0.9054670472122244,0.043728075775106054,0.43886880020903585,-0.6593930305489749,1.3943370409303404,0.36463033824804675,-0.287665906035656,-0.7060245483694154,2,left
1.365,-0.028352740596981025,0.9066739546211955,0.04145931721358343,0.4448726094848235,-0.6506699492975218,1.3980328110848035,0.345678533410109,-0.2973156325221528,-0.694251839803745,2,left
1.3659999999999999,-0.030077002782309122,0.9079785453976559,0.03913390126784192,0.4509212465206701,-0.6422991709269447,1.4013764567084495,0.32684762143668505,-0.3068570381700346,-0.6824460806242091,2,left
1.3719999999999999,-0.031861737575944044,0.9093837019377917,0.03675207782094734,0.4570041206646079,-0.6342762215613568,1.4043612130622127,0.3081455673265664,-0.3162868459645211,-0.6706066628775443,2,left
1.3719999999999999,-0.03370838701248814,0.9108922264199758,0.03431420711344271,0.4631101965802025,-0.6265960212492109,1.4069803463601738,0.2895801889843274,-0.3256018966698115,-0.6587327816581049,2,left
1.375,-0.035618291514252554,0.9125068350489816,0.031820759720613156,0.46922799318690284,-0.6192528746264674,1.409227149965063,0.2711591527990629,-0.3347991517115049,-0.6468234401793813,2,left
1.376,-0.03759268059550281,0.9142301521609679,0.029272316147925997,0.4753455833933261,-0.61224046214751,1.4110949404874913,0.25288996911496175,-0.34387569658214756,-0.6348774552252405,2,left
1.379,-0.039632663784864824,0.9160647041800738,0.026669566116693435,0.4814505946409963,-0.6055518318617337,1.412577053796417,0.23477998754039944,-0.35282874479665965,-0.6228934629467732,2,left
1.38,-0.041739221828978885,0.9180129134224966,0.024013307616998436,0.4875302102760842,-0.5991793917146957,1.4136668409472886,0.21683639204264707,-0.36165564242405845,-0.6108699249705334,2,left
1.386,-0.043913198235723275,0.9200770917477246,0.021304445805215757,0.4935711717666955,-0.5931149023536705,1.4143576640332127,0.19906619577573026,-0.370353873221544,-0.5988051347838506,2,left
1.3869999999999998,-0.046155291208963806,0.9222594340589965,0.01854399181929129,0.49955978178321964,-0.587349470418377,1.4146428919633949,0.1814762355894285,-0.37892106439666345,-0.5866972243627829,2,left
1.39,-0.048466046019022824,0.9245620116573497,0.015733061576772827,0.5054819081591739,-0.5818735422985551,1.4145158961719648,0.16407316616788237,-0.3873549930229041,-0.5745441710081697,2,left
1.391,-0.05084584784475277,0.9269867654570647,0.012872874609087051,0.5113229887498688,-0.5766768983409494,1.4139700462591613,0.14686345374677495,-0.3956535931336992,-0.5623438043551171,2,left
1.395,-0.05329491511468141,0.9295354990743379,0.00996475297202449,0.5170680372060669,-0.5717486474891175,1.4129987055656767,0.1298533693585697,-0.40381496351945234,-0.550093813521133,2,left
1.395,-0.055813293365425856,0.9322098718043388,0.007010120258980934,0.5227016496796172,-0.567077222340311,1.4115952266797873,0.11304898155582496,-0.41183737625180467,-0.5377917543579912,2,left
1.399,-0.058400849624647935,0.9350113915051357,0.00401050073205114,0.5282080124778123,-0.562650374604475,1.4097529468756806,0.09645614856315944,-0.4197192859589798,-0.525435056772274,2,left
1.4,-0.06105726731455331,0.9379414074111411,0.0009675185772027785,0.5335709106829392,-0.5584551709511856,1.4074651834801826,0.08008050983799514,-0.4274593398444886,-0.5130210320894759,2,left
1.401,-0.0637820416641189,0.9410011029014165,-0.0021171027167712015,0.5387737377531726,-0.5544779892310778,1.4047252291638337,0.06392747716568789,-0.43505638828527604,-0.500546880486814,2,left
1.4040000000000001,-0.06657447561629934,0.9441914882478124,-0.00524154086085865,0.5437995061234789,-0.5507045150853548,1.4015263471793786,0.04800222567607136,-0.4425094955645465,-0.488009698610462,2,left
1.4040000000000001,-0.06943367621794451,0.947513393366925,-0.008403875159439933,0.5486308588391869,-0.5471197390893064,1.397861766711323,0.03230968531395744,-0.44981795013829584,-0.4754064875431711,2,left
1.405,-0.0723585514803154,0.9509674606011078,-0.011602086806967534,0.5532500822803645,-0.5437079548134043,1.3937246787542616,0.016854533151881155,-0.4569812739899715,-0.4627341612376583,2,left
1.411,-0.07534780769359391,0.9545541375591011,-0.014834059101119873,0.5576391200490348,-0.540452758317797,1.3891082330782274,0.00164118667322404,-0.4639992309077077,-0.44998955544022945,2,left
1.412,-0.07839994716933574,0.9582736700566181,-0.018097577587914842,0.5617795880762967,-0.5373370494649002,1.3840055366961088,-0.013326201990375791,-0.47087183367397,-0.43716943707850503,2,left
1.413,-0.08151326637431704,0.9621260952079328,-0.02139033015789495,0.5656527909798739,-0.5343430351982514,1.378409653991479,-0.028043750911715914,-0.47759935018818717,-0.42427051407683875,2,left
1.4140000000000001,-0.08468585441253713,0.9661112347266098,-0.024709907116462062,0.5692397396875404,-0.5314522348045766,1.372313608521923,-0.04250785235451912,-0.4841823085425304,-0.4112894455628095,2,left
1.419,-0.08791559181016147,0.9702286884965844,-0.028053801254941408,0.5725211703382783,-0.5286454871500812,1.365710386483199,-0.05671517593670916,-0.4906215010705843,-0.39822285242795147,2,left
1.42,-0.09120014955820226,0.9744778284754718,-0.03141940795196491,0.5754775644722535,-0.5259029598823237,1.3585929418181366,-0.07066267101274452,-0.49691798738823756,-0.385067328205659,2,left
1.423,-0.09453698836712311,0.9788577929903167,-0.03480402533701784,0.5780891705198711,-0.523204160589326,1.3509542029527462,-0.08434756831655466,-0.5030730964457054,-0.37181945022896884,2,left
1.4240000000000002,-0.09792335808628595,0.983367481481111,-0.03820485454895098,0.5803360265992964,-0.5205279499078144,1.3427870811405571,-0.09776738090588581,-0.5090884276091839,-0.358475791030675,2,left
1.429,-0.10135629724079921,0.9880055497392982,-0.041619000121559835,0.5821979846308916,-0.5178525565726704,1.3340844803947212,-0.11091990444811808,-0.514965850790228,-0.3450329299479764,2,left
1.43,-0.10483263263959364,0.9927704056777055,-0.045043470526443065,0.5836547357760269,-0.5151555943997901,1.3248393089859216,-0.12380321688686123,-0.520707505640538,-0.3314874648935931,2,left
1.4340000000000002,-0.10834897901111368,0.9976602056546632,-0.048475178901248694,0.5846858372066779,-0.5124140811946194,1.3150444924826103,-0.13641567752787614,-0.5263157998294398,-0.31783602425500984,2,left
1.4340000000000002,-0.11190173862690218,1.002672851358804,-0.05191094398930008,0.5852707402111141,-0.50960445957863,1.3046929883085605,-0.14875592558210166,-0.5317934064209463,-0.304075278883223,2,left
1.4380000000000002,-0.1154871008797692,1.0078059872442946,-0.05534749131435641,0.5853888196398208,-0.5067026197259393,1.2937778017911579,-0.16082287820279317,-0.5371432603669015,-0.2902019541320704,2,left
1.439,-0.1191010417939121,1.0130569984917195,-0.058781454612415775,0.5850194046945688,-0.5036839240021486,1.2822920036722771,-0.1726157280530026,-0.5423685541323217,-0.27621284190891987,2,left
1.444,-0.12273932345985414,1.0184230094598368,-0.062209377540949684,0.5841418110622716,-0.5005232334972746,1.2702287490519928,-0.18413394043884762,-0.5474727324686779,-0.26210481269717917,2,left
1.444,-0.1263974934058886,1.0239008825897133,-0.06562771568376485,0.5827353743939223,-0.49719493644438717,1.2575812977337528,-0.1953772500432334,-0.5524594863504947,-0.2478748275107652,2,left
1.4480000000000002,-0.130070883937444,1.029487217724471,-0.06903283886657467,0.580779485127506,-0.4936729785152251,1.2443430359380063,-0.20634565729390358,-0.5573327460902825,-0.23351994974033904,2,left
1.449,-0.13375461149440707,1.0351783518122062,-0.07242103379474497,0.57825362465232,-0.4899308949836567,1.230507499349611,-0.2170394243989088,-0.5620966736464752,-0.21903735685077225,2,left
1.453,-0.13744357609265997,1.0409703589655093,-0.07578850701966423,0.5751374028106201,-0.4859418447473664,1.2160683974626796,-0.22745907108179123,-0.5667556541387075,-0.20442435188895855,2,left
1.453,-0.14113246092914528,1.0468590508597562,-0.0791313882318733,0.571410596730927,-0.48167864619759354,1.2010196391848182,-0.23760537004799542,-0.5713142865844401,-0.18967837476072708,2,left
1.4569999999999999,-0.14481573223903266,1.0528399774638444,-0.08244573386762162,0.5670531909856948,-0.47711381492611543,1.1853553596609971,-0.2474793422132271,-0.5757773738706263,-0.17479701323524685,2,left
1.4580000000000002,-0.14848763949899565,1.0589084281089933,-0.0857275310041683,0.5620454190643457,-0.4722196032579562,1.1690699482755613,-0.25708225172369414,-0.5801499119738179,-0.15977801363493788,2,left
1.463,-0.15214221607348208,1.0650594329123586,-0.08897270151139106,0.55636780615092,-0.46696804159751604,1.1521580777891385,-0.2664156007973795,-0.5844370784418116,-0.14461929116852226,2,left
1.464,-0.15577328040324698,1.0712877645826195,-0.09217710642415862,0.5500012131937838,-0.4613309815749468,1.1346147345654327,-0.27548112441471423,-0.588644220149671,-0.12931893986446016,2,left
1.4669999999999999,-0.15937443783897023,1.0775879406443036,-0.09533655050034925,0.5429268822529647,-0.45528014097865394,1.1164352498411065,-0.2842807848862405,-0.5927768403426956,-0.11387524206162095,2,left
1.4680000000000002,-0.16293908322598047,1.0839542261253035,-0.098446786932098,0.5351264831087647,-0.44878715045877854,1.0976153319901605,-0.292816766317069,-0.5968405849838712,-0.0982866774276246,2,left
1.469,-0.166460404342403,1.0903806367548685,-0.10150352218368552,0.5265821611133191,-0.4418236019854037,1.0781510997323998,-0.3010914689521107,-0.6008412284491399,-0.08255193154481588,2,left
1.473,-0.16993138627896803,1.0968609427156557,-0.1045024209397298,0.5172765862398434,-0.4343610990277626,1.0580391162128528,-0.3091075033221975,-0.6047846586604781,-0.0666699042293015,2,left
1.474,-0.1733448168321404,1.1033886729866345,-0.10743911115924827,0.5071930031577273,-0.4263713083380515,1.0372764237726466,-0.3168676840753929,-0.6086768617726023,-0.050639717817998336,2,left
1.474,-0.1766932929735256,1.109957120307974,-0.11030918923994089,0.4963152819354167,-0.41782601307557793,1.0158605790418584,-0.32437502341210084,-0.6125239065029134,-0.03446072558828774,2,left
1.4769999999999999,-0.17996922846003136,1.1165593467950172,-0.11310822530179336,0.4846279688463446,-0.4086971669241385,0.9937896878784945,-0.331632724104939,-0.616331928147262,-0.0181325203485689,2,left
1.4780000000000002,-0.1831648626564238,1.1231881902252618,-0.11583176860117463,0.47211633687543114,-0.3989569489354084,0.9710624397803843,-0.3386441721186643,-0.6201071122979326,-0.0016549431676462353,2,left
1.483,-0.1862722706466179,1.1298362710197682,-0.1184753530851676,0.45876643574547865,-0.388577818976052,0.9476781415830465,-0.34541292885172503,-0.6238556782749151,0.014971907803528127,2,left
1.484,-0.18928337470742398,1.1364959999384177,-0.1210345030903313,0.44456514140495734,-0.3775325737359893,0.9236367503592147,-0.35194272302029495,-0.6275838622814148,0.0317476684646637,2,left
1.4880000000000002,-0.19218995721040674,1.143159586507109,-0.12350473918368975,0.4295002049412097,-0.3657944032697784,0.898938905454733,-0.3582374422049406,-0.6312979002944591,0.04867169990082825,2,left
1.4880000000000002,-0.19498367500542382,1.149819048193235,-0.12588158414174563,0.4135603008806945,-0.3533369480412378,0.8735859595936447,-0.3643011240793732,-0.635004010701383,0.06574307956679536,2,left
1.492,-0.19765607531996363,1.1564662203407958,-0.12816056907038087,0.39673507483544584,-0.3401343564395224,0.8475800089834092,-0.37013794734005334,-0.6387083766929181,0.08296059256923402,2,left
1.493,-0.20019861317842957,1.1630927668669573,-0.13033723968663202,0.3790151904524478,-0.32616134273287467,0.8209239223493012,-0.3757522223547388,-0.6424171284235661,0.10032272309535625,2,left
1.499,-0.20260267030764403,1.1696901917108227,-0.13240716280803086,0.36039237562010973,-0.3113932454242085,0.7936213688251643,-0.3811483815474049,-0.6461363249499184,0.1178276460370619,2,left
1.5,-0.2048595754564172,1.1762498510185744,-0.1343659331155354,0.3408594678834879,-0.2958060859705436,0.7656768446258173,-0.38633096953631363,-0.6498719359575755,0.1354732188600384,2,left
1.5019999999999998,-0.20696062602418294,1.1827629660503407,-0.13620918026216566,0.3204104590173317,-0.2793766278260975,0.7370956984245444,-0.3913046330413703,-0.6536298232873349,0.15325697376768874,2,left
1.5030000000000001,-0.20889711086846588,1.1892206368010483,-0.13793257638987377,0.29904053870344,-0.2620824357665577,0.7078841553572469,-0.3960741105762775,-0.6574157222713425,0.17117611021016935,2,left
1.507,-0.21066033414281737,1.195613856335519,-0.13953184409799343,0.27674613725620295,-0.24390193544970648,0.6780493395729899,-0.4006442219403866,-0.6612352228899534,0.1892274877892244,2,left
1.508,-0.21224164000485668,1.201933525843383,-0.14100276488480307,0.2535249673375726,-0.22481447316515307,0.6475992952488521,-0.40501985752454384,-0.6650937507601089,0.20740761960989784,2,left
1.511,-0.21363243802695595,1.208170470419626,-0.14234118806390816,0.2293760646000662,-0.2048003757234445,0.6165430059851772,-0.409205967444643,-0.6689965479661183,0.22571266613059351,2,left
1.5119999999999998,-0.214824229138005,1.214315455571742,-0.14354304014272892,0.20429982719375028,-0.1838410104322833,0.5848904124955359,-0.41320755051602387,-0.6729486537438288,0.24413842956333304,2,left
1.516,-0.21580863192253633,1.2203592044467966,-0.1446043346436948,0.17829805407049626,-0.1619188451049763,0.5526524285039437,-0.4170296430812976,-0.67695488502928,0.262680348876429,2,left
1.517,-0.21657740910484627,1.2262924157636155,-0.1455211823491574,0.15137398201613422,-0.1390175080435794,0.5198409547601401,-0.4206773077036348,-0.6810198168830647,0.2813334954521507,2,left
1.5230000000000001,-0.21712249405311287,1.232105782427972,-0.14628980195506713,0.12353232133847168,-0.11512184793648972,0.486468891082021,-0.4241556217370229,-0.6851477628017608,0.3000925694523044,2,left
1.524,-0.21743601715224384,1.2377900108034283,-0.14690653112276741,0.09477929013648827,-0.09021799360747357,0.4525501463326413,-0.42746966578448337,-0.6893427549279527,0.318951896944984,2,left
1.527,-0.21751033191209673,1.2433358406080495,-0.14736783792090832,0.06512264707337088,-0.06429341355030806,0.41809964623755597,-0.43062451205473873,-0.6936085241705275,0.33790542784606586,2,left
1.527,-0.2173380406962575,1.2487340654050931,-0.14767033264865545,0.034571722573420685,-0.03733697518036064,0.38313333894665974,-0.4336252126273329,-0.6979484802471161,0.35694673472932537,2,left
1.5330000000000001,-0.21691201997085366,1.2539755536493329,-0.14781078002647188,0.003137448360249287,-0.00933900373153745,0.3476681982431193,-0.4364767876357355,-0.7023656916607347,0.37606901255934005,2,left
1.534,-0.21622544497690077,1.2590512702365835,-0.14778611173461434,-0.029167614748911632,0.019708659275897857,0.31172222430046415,-0.43918421337750396,-0.7068628656228912,0.3952650794016138,2,left
1.536,-0.21527181372156243,1.263952298484228,-0.14759343927628965,-0.0623292508805283,0.049812598074094355,0.27531444188742477,-0.4417524103665045,-0.7114423279600484,0.4145273781509004,2,left
1.537,-0.2140449701730062,1.268669862456087,-0.14723006714374398,-0.09633156506398564,0.0809777652734213,0.23846489591867412,-0.4441862313736102,-0.7161060031626475,0.43384797925039303,2,left
1.538,-0.2125391265396033,1.273195349543538,-0.14669350626869637,-0.13115696120548415,0.11320742515877324,0.2011946442482511,-0.44649044955920625,-0.7208553949558912,0.45321858425128486,2,left
1.5430000000000001,-0.21074888450933718,1.277520333213307,-0.14598148773796576,-0.16678612217184288,0.14650309774286396,0.16352574760111846,-0.4486697468322772,-0.7256915678938096,0.47263052999385186,2,left
1.544,-0.20866925531855926,1.2816365958198703,-0.1450919767491064,-0.20319799207930558,0.18086450369615095,0.1254812565939629,-0.45072870253861935,-0.7306151303562829,0.49207479325991843,2,left
1.544,-0.20629567853635722,1.2855361513754944,-0.14402318677492526,-0.24036976087208164,0.21628951042661287,0.08708519607973968,-0.452671782523025,-0.7356262191091794,0.5115419958700834,2,left
1.547,-0.2036240395081663,1.2892112681894614,-0.1427735939019123,-0.278276851254754,0.2527740798566091,0.04836254756160748,-0.45450332857807735,-0.7407244854659161,0.5310224102677448,2,left
1.548,-0.20065068548891296,1.2926544913099145,-0.14134195129473792,-0.3168929080322047,0.29031221859763534,0.009339230705423179,-0.4562275482854805,-0.7459090830645906,0.55050596564576,2,left
1.551,-0.19737244059683476,1.2958586647025185,-0.13972730370290354,-0.35618978992561456,0.32889593107631304,-0.02995791530564295,-0.45784850525551674,-0.7511786572750776,0.5699822546716462,2,left
1.5519999999999998,-0.19378661981682807,1.2988169530835594,-0.1379290018619125,-0.396137563958106,0.3685151758970419,-0.06950115034403262,-0.4593701097699006,-0.7565313362507339,0.5894405408672597,2,left
1.556,-0.18989104235423956,1.3015228633076121,-0.1359467165590857,-0.43670450251835713,0.40915782557924196,-0.1092618518933908,-0.46079610983299246,-0.7619647236396037,0.6088697666989035,2,left
1.557,-0.18568404467783167,1.3039702652042187,-0.13378045205929293,-0.4778570832150128,0.45080962978000283,-0.1492105336996533,-0.46213008263603655,-0.7674758929702581,0.628258562433791,2,left
1.56,-0.1811644936039755,1.3061534117808173,-0.13143055855033403,-0.5195599916365826,0.4934541821159298,-0.1893168646311661,-0.46337542643880225,-0.7730613837276387,0.6475952558187392,2,left
1.561,-0.1763317997732987,1.3080669587778615,-0.12889774328626527,-0.5617761271332923,0.5370728907009129,-0.22954968786199498,-0.464535352872733,-0.7787171991345103,0.6668678826368829,2,left
1.567,-0.1711859318551305,1.309705983674236,-0.126183080176031,-0.6044666117390322,0.5816449525194363,-0.26987704049312217,-0.4656128796694427,-0.7844388056543459,0.6860641981980824,2,left
1.568,-0.1657274317729081,1.311066004369791,-0.12328801766938477,-0.6475908023531247,0.627147331757895,-0.31026617372667703,-0.466610823818144,-0.7902211342316809,0.7051716898185493,2,left
1.57,-0.15995743116289204,1.3121429978867256,-0.12021438489439455,-0.6911063063031028,0.6735547422191804,-0.350683573708711,-0.46753179515534615,-0.7960585832861755,0.7241775903450287,2,left
1.57,-0.15387766915819093,1.3129334195109585,-0.11696439605958152,-0.7349690004110493,0.7208396339485258,-0.3910949831562951,-0.46837819038992584,-0.8019450234768085,0.7430688927786566,2,left
1.5759999999999998,-0.1474905114392309,1.3134342228108102,-0.11354065315688042,-0.7791330536872929,0.7689721842012763,-0.43146542388489595,-0.4691521875664412,-0.8078738042528056,0.7618323660533561,2,left
1.577,-0.14079897031564953,1.3136428808829508,-0.10994614703485599,-0.8235509537763699,0.8179202928858391,-0.4717592203520641,-0.4698557409693415,-0.8138377622080556,0.7804545720233428,2,left
1.58,-0.13380672540305305,1.3135574089587474,-0.10618425697651726,-0.8681735372811623,0.8676495826175845,-0.5119400243334511,-0.4704905764705079,-0.8198292312559092,0.798921883713981,2,left
1.58,-0.12651814423402352,1.3131763881825413,-0.10225874899618485,-0.9129500240919799,0.9181234035219048,-0.5519708408470515,-0.4710581873223535,-0.8258400546413805,0.8172205048898639,2,left
1.584,-0.11893830190807571,1.3124989900298285,-0.09817377312764394,-0.9578280558480815,0.9693028429269684,-0.5918140554413455,-0.4715598303985068,-0.8318615988078644,0.8353364909935851,2,left
1.585,-0.11107299867542789,1.3115250005684578,-0.0939338599619365,-1.002753738659715,1.0211467400889507,-0.6314314629626904,-0.4719965228839064,-0.8378847691355661,0.8532557715082235,2,left
1.59,-0.10292877423404195,1.3102548436338013,-0.08954391658566398,-1.047671690219194,1.0736117060946546,-0.6707842979168785,-0.4723690394159399,-0.8439000275688903,0.8709641737960789,2,left
1.591,-0.0945129175687085,1.3086896019722725,-0.08500922191111823,-1.0925250914298188,1.1266521490884593,-0.7098332665392378,-0.47267790967806933,-0.8498974121500692,0.8884474484656703,2,left
1.594,-0.08583347138558634,1.306831035458866,-0.08033542124004665,-1.1372557426815793,1.1802203049724345,-0.7485385806870021,-0.47292341644720093,-0.8558665584763119,0.9056912963184424,2,left
1.595,-0.0768992305339583,1.3046815955833788,-0.07552851978914703,-1.181804124902557,1.2342662737302414,-0.7868599936669162,-0.473105594095869,-0.8617967230977347,0.9226813969260237,2,left
1.6,-0.06771973418339979,1.3022444355239677,-0.07059487483522814,-1.2261094655147522,1.2887380615270898,-0.8247568381101679,-0.47322422755012344,-0.8676768088732778,0.9394034388882273,2,left
1.601,-0.058305251905465275,1.2995234152977846,-0.0655411861341216,-1.2701098094227072,1.3435816287395261,-0.8621880660057494,-0.4732788517038244,-0.8734953923017326,0.9558431518213031,2,left
1.605,-0.048666764165138,1.296523101696169,-0.06037448434630903,-1.3137420951627705,1.3987409440702077,-0.8991122910022494,-0.4732687512987154,-0.8792407528061793,0.9719863400696968,2,left
1.6059999999999999,-0.038815937959419816,1.293248762932379,-0.055102117337175884,-1.356942236340144,1.4541580449040228,-0.9354878330868542,-0.473192961323697,-0.8849009037564116,0.9878189178562036,2,left
1.6059999999999999,-0.02876509838364575,1.2897063581005064,-0.04973173435708091,-1.3996452084799829,1.5097731040629898,-0.9712727657489961,-0.4730502680661634,-0.890463624665322,1.0033269450849114,2,left
1.611,-0.01852719688594468,1.2859025216768423,-0.04427126822128026,-1.4417851414177503,1.5655245031182676,-1.0064249657346374,-0.47283921099231296,-0.8959164938014341,1.0184966627328769,2,left
1.6119999999999999,-0.00811577701126425,1.2818445434192949,-0.03872891570270306,-1.483295417287265,1.6213489123537623,-1.0409021654728188,-0.4725580855889191,-0.9012469206530985,1.0333145270431867,2,left
1.6130000000000002,0.0024550615745684776,1.2775403440898052,-0.033113116399135424,-1.5241087738358232,1.6771813771534398,-1.0746620081405291,-0.4722049472192322,-0.9064421780280172,1.0477672422308038,2,left
1.614,0.013170700178961115,1.272998447397411,-0.02743253032927965,-1.5641574122044304,1.7329554100035591,-1.1076621051251592,-0.4717776160012483,-0.9114894337650191,1.0618417916892278,2,left
1.615,0.024016038970749155,1.2682279485058021,-0.021696014499370607,-1.603373107981738,1.7886030869783132,-1.1398600955279836,-0.4712736827075338,-0.9163757820733738,1.0755254677405106,2,left
1.619,0.03497553559978121,1.2632384794399654,-0.01591259870217222,-1.6416873246659074,1.84405514790032,-1.171213707463931,-0.47069051568558656,-0.921088274514538,1.0888058999701156,2,left
1.62,0.046033244753650344,1.2580401717250091,-0.010091460825845161,-1.6790313292561545,1.899241099948519,-1.2016808211157008,-0.4700252687975009,-0.9256139506408102,1.101671082187026,2,left
1.624,0.05717285913028806,1.2526436165509862,-0.004241901919543183,-1.715336310020952,1.954089324808595,-1.2312195336118552,-0.4692748903774824,-0.9299398683048984,1.1141093980483876,2,left
1.625,0.06837775248386607,1.247059822707929,0.0016266788011340514,-1.7505334965528152,2.0085271895250814,-1.259788225818867,-0.46843613320553207,-0.9340531336539132,1.1261096453868076,2,left
1.629,0.07963102541278308,1.241300172514728,0.007504808894860708,-1.784554282216797,2.062481161213515,-1.287345631134557,-0.467505565495382,-0.9379409308207597,1.137661059277245,2,left
1.631,0.09091555441994616,1.235376375977956,0.013382967533117374,-1.8173303490968422,2.1158769257900594,-1.3138509063676866,-0.46647958289451896,-0.9415905513253262,1.148753333879199,2,left
1.6369999999999998,0.10221404454745966,1.2293004234489147,0.019251610246588138,-1.848793795540963,2.1686395108748187,-1.3392637047856886,-0.46535442149388057,-0.9449894231972598,1.159376643088648,2,left
1.6380000000000001,0.11350908562427865,1.2230845370864496,0.0251011936310211,-1.8788772664028206,2.220693413023677,-1.3635442514096123,-0.46412617184454125,-0.9481251398314687,1.1695216600328984,2,left
1.639,0.12478321190263607,1.2167411214706534,0.030922200077204292,-1.907514086073727,2.2719627294418956,-1.3866534206323415,-0.4627907939784344,-0.9509854885868106,1.1791795754401901,2,left
1.639,0.13601896462229401,1.2102827137411711,0.036705162567938585,-1.9346383943953054,2.32237129433088,-1.4085528162329999,-0.4613441334298687,-0.9535584791377025,1.1883421149145545,2,left
1.6440000000000001,0.14719895685337456,1.2037219336458045,0.042440689532465534,-1.9601852855390878,2.371842820017487,-1.4292048538572122,-0.45978193825430125,-0.955832371587634,1.19700155514505,2,left
1.645,0.1583059398483176,1.1970714338759694,0.04811948968219532,-1.984090949935175,2.4203010430129877,-1.4485728460295277,-0.45809987704052424,-0.9577957043527773,1.2051507390771015,2,left
1.6480000000000001,0.16932287008804092,1.1903438510385291,0.053732396693105006,-2.0062928193277396,2.4676698751463433,-1.466621089760832,-0.4562935579120982,-0.9594373218230575,1.2127830900722516,2,left
1.649,0.18023297622452192,1.18355175757685,0.05927039356384471,-2.026729715030621,2.513873559913735,-1.48331495681,-0.4543585485135352,-0.9607464018071916,1.21989262508118,2,left
1.653,0.19101982517911678,1.1767076149161928,0.0647246364632598,-2.04534199945156,2.5588368341834045,-1.4986209866553466,-0.45229039697639084,-0.9617124827673131,1.226473966853392,2,left
1.653,0.20166738673189757,1.169823728077481,0.07008647787940234,-2.0620717309487118,2.602485095391707,-1.5125069822276591,-0.4500846538600665,-0.9623254908478752,1.232522355205485,2,left
1.6569999999999998,0.21216009601769098,1.1629122019831888,0.07534748889084125,-2.076862822078027,2.644744574362958,-1.5249421084526804,-0.44773689506175296,-0.9625757667025686,1.2380336573684068,2,left
1.6580000000000001,0.22248291342059612,1.1559848996680941,0.08049948039929261,-2.0896612012848377,2.685542513882069,-1.53589699364696,-0.4452427456895649,-0.9624540921220099,1.2430043774326036,2,left
1.665,0.23262138142617783,1.1490534026018395,0.08553452318628736,-2.1004149780875894,2.7248073531452164,-1.545343833806886,-0.4425979048925198,-0.9619517164639388,1.2474316649084214,2,left
1.665,0.2425616780487334,1.142128973325651,0.09044496667954677,-2.109074611796099,2.762468918209771,-1.5532564998265637,-0.4397981716406089,-0.9610603828866241,1.2513133224175854,2,left
1.6669999999999998,0.2522906665009277,1.1352225205990387,0.09522345633368379,-2.115593083800985,2.7984586185605522,-1.559610647675947,-0.43683947144778357,-0.9597723543851105,1.2546478125300358,2,left
1.6680000000000001,0.2617959408147665,1.1283445672430046,0.09986294954736492,-2.1199260734650607,2.832709649905039,-1.5643838315663092,-0.43371788403025163,-0.9580804396288453,1.2574342637588267,2,left
1.673,0.2710658671595344,1.121505220852577,0.10435673006065434,-2.122032137641467,2.8651572033055936,-1.5675556201257275,-0.4304296718491386,-0.9559780185682202,1.2596724757149318,2,left
1.673,0.2800896206449703,1.1147141475267341,0.10869842080348505,-2.1218728938371734,2.895738680751935,-1.5691077156027904,-0.42697130927164423,-0.9534590676270046,1.2613629233756742,2,left
1.673,0.2888572174474414,1.1079805487286742,0.11288199519524791,-2.1194132070342024,2.9243939172721176,-1.5690240761121925,-0.4233395116983158,-0.9505181840275098,1.2625067603351463,2,left
1.6769999999999998,0.2973595421294792,1.1013131413616548,0.11690178692243049,-2.11462137987101,2.9510654092999604,-1.5672910407099137,-0.41953126378911604,-0.9471506086447254,1.2631058208568564,2,left
1.6780000000000002,0.3055883700297276,1.0947201411335539,0.12075249824162837,-2.1074693443622454,2.9756985471358495,-1.5638974559741217,-0.4155438461349397,-0.943352246933901,1.2631626205938244,2,left
1.6780000000000002,0.3135363846045316,1.0882092492723325,0.12442920686516745,-2.0979328505966537,2.99824184595609,-1.5588348007708304,-0.4113748601067786,-0.9391196877437971,1.2626803559235555,2,left
1.683,0.3211971896064416,1.081787642640376,0.12792737149316144,-2.08599164632849,3.0186471679446294,-1.552097304771711,-0.4070222508286951,-0.9344502199760422,1.2616629018903116,2,left
1.683,0.3285653159689925,1.0754619672901604,0.13124283607134213,-2.071629642888745,3.0368699299908006,-1.543682057393588,-0.40248432826314484,-0.9293418470796732,1.2601148087548477,2,left
1.6880000000000002,0.3356362232432872,1.0692383355065498,0.13437183287638801,-2.0548350655674974,3.0528692947669263,-1.5335891058167825,-0.39775978639666804,-0.9237932993686965,1.2580412971502404,2,left
1.6880000000000002,0.34240629543229534,1.063122326382531,0.13731098454735868,-2.0356005881295207,3.066608344869185,-1.5218215418415655,-0.3928477205134406,-0.9178040441492498,1.2554482518408907,2,left
1.692,0.3488728311069236,1.0571189899706712,0.14005730518683004,-2.0139234514218574,3.0780542400739876,-1.5083855775585415,-0.38774764254364763,-0.9113742936416885,1.2523422140802685,2,left
1.693,0.3550340277632548,1.051232855036277,0.1426082006498893,-1.9898055660251,3.08717835775576,-1.493290609803977,-0.3824594944731039,-0.9045050106816552,1.2487303725614527,2,left
1.6969999999999998,0.3608889604883752,1.045467940399155,0.14496146812732882,-1.963253598893113,3.0939564165055193,-1.476549273366284,-0.3769836598000097,-0.8971979121829263,1.2446205529530336,2,left
1.6969999999999998,0.3664375551323948,1.0398277697813194,0.1471152951142449,-1.934279043918934,3.0983685829830696,-1.4581774829050775,-0.37132097302419054,-0.8894554703435682,1.240021206011469,2,left
1.702,0.3716805563210601,1.0343153899815798,0.14906825783822797,-1.9028982763575788,3.1003995620289713,-1.438194463539474,-0.36547272715362994,-0.8812809115756729,1.234941394259536,2,left
1.702,0.37661949076904677,1.0289333920892643,0.1508193192042723,-1.8691325910295016,3.1000386700557163,-1.4166227700575664,-0.3594406792125673,-0.872678213137687,1.2293907772190902,2,left
1.7069999999999999,0.38125662645266983,1.0236839353466731,0.1523678262990597,-1.8330082242215087,3.0972798917307505,-1.3934882946943465,-0.3532270537348949,-0.8636520974470986,1.2233795951849362,2,left
1.7069999999999999,0.3855949282634502,1.0185687731873267,0.15371350748644313,-1.7945563591950215,3.092121919957154,-1.3688202634207136,-0.34683454422605864,-0.8542080240500071,1.216918651525243,2,left
1.7109999999999999,0.3896380107908716,1.0135892809201577,0.15485646911577225,-1.753813115204748,3.0845681791509314,-1.3426512206816543,-0.34026631257613843,-0.8443521792228744,1.2100192934925746,2,left
1.712,0.39339008888028026,1.0087464844966494,0.15579719184896265,-1.7108195199240523,3.0746268318069827,-1.3150170025172017,-0.3335259864062637,-0.8340914631805381,1.2026933915282962,2,left
1.7169999999999999,0.39685592658834357,1.004041089786253,0.15653652658664974,-1.6656214651666386,3.0623107683389423,-1.2859566979953734,-0.32661765433000695,-0.8234334748633696,1.1949533170418158,2,left
1.7169999999999999,0.4000407851209541,0.9994735117955966,0.15707568993921264,-1.6182696457875927,3.047637580171209,-1.2555125988819955,-0.31954585911089467,-0.8123864942752809,1.186811918644868,2,left
1.7209999999999999,0.40295037029470493,0.9950439032992566,0.15741625915116425,-1.568819481640375,3.0306295160546317,-1.2237301374681053,-0.31231558869668086,-0.8009594623431163,1.1782824968198218,2,left
1.722,0.4055907800228061,0.9907521824018986,0.15756016636024905,-1.517331022460026,3.0113134215705117,-1.1906578124715443,-0.3049322651105474,-0.7891619582668331,1.1693787769998054,2,left
1.7269999999999999,0.4079684522975705,0.9865980586192906,0.1575096920708221,-1.4638688355366765,2.989720661780811,-1.1563471029253805,-0.2974017311789264,-0.777004174328754,1.1601148810372859,2,left
1.7269999999999999,0.4100901141254683,0.9825810571440639,0.15726745775056883,-1.4085018760374377,2.965887026975772,-1.1208523699619637,-0.289730235075186,-0.7644968881290842,1.150505297036634,2,left
1.732,0.4119627318613227,0.9787005410458821,0.15683641751011013,-1.351303339828895,2.9398526214635217,-1.0842307463977139,-0.2819244126579816,-0.7516514322138258,1.1405648475251253,2,left
1.732,0.41359346337659375,0.9749557312400909,0.15621984887589277,-1.2923504986467718,2.9116617353397074,-1.0465420140201955,-0.27399126758265235,-0.738479661060184,1.1303086559357933,2,left
1.736,0.4149896124745534,0.9713457241405872,0.1554213426984301,-1.2317245174538667,2.8813626991687893,-1.007848468475636,-0.2659381491636397,-0.7249939153835631,1.1197521113745648,2,left
1.7369999999999999,0.4161585859286619,0.9678695069905475,0.15444479224050886,-1.1695102538221118,2.849007721502281,-0.9682147716518068,-0.25777272796551914,-0.7112069837292729,1.1089108316431524,2,left
1.7409999999999999,0.4171078534701826,0.9645259709345122,0.15329438146696622,-1.105796039169577,2.8146527091530706,-0.9277077914481402,-0.249502969156014,-0.6971320613908937,1.0978006245481422,2,left
1.742,0.41784491098654125,0.9613139219420613,0.15197457252480157,-1.0406734416784331,2.7783570701388896,-0.8863964288220565,-0.24113710393473875,-0.6827827070951372,1.0864374478252041,2,left
1.743,0.4183772471198566,0.9582320897109768,0.15049009237455793,-0.974237010715347,2.7401834992021,-0.844351431997795,-0.2326835998563905,-0.6681727986100103,1.0748373685453554,2,left
1.745,0.41871231339938775,0.9552791346941802,0.14884591851141146,-0.9065840025714634,2.7001977458072384,-0.8016451977215278,-0.2241511311475298,-0.6533164888310488,1.0630165231687876,2,left
1.746,0.41885749801449146,0.9524536534315039,0.147047263696028,-0.8378140878230299,2.658468364957606,-0.7583515597796361,-0.2155485498350961,-0.6382281635008121,1.0509910791116925,2,left
1.7469999999999999,0.41882010331358055,0.9497541823934381,0.1450995596139306,-0.7680290430495634,2.6150664533939496,-0.7145455666719571,-0.20688485799925554,-0.6229224009982521,1.038777198152014,2,left
1.751,0.4186073270775883,0.9471792005307101,0.14300843940748192,-0.6973324340342993,2.570065377741898,-0.6703032533485467,-0.19816918118223262,-0.6074139342350661,1.0263910017000726,2,left
1.7519999999999998,0.41822624756595256,0.9447271307038463,0.140779719069738,-0.6258293000080805,2.5235405033969602,-0.6257014135938552,-0.18941074292843213,-0.5917176146157217,1.0138485378995514,2,left
1.756,0.41768381227326296,0.9423963401754084,0.13841937774584984,-0.5536258460553062,2.475568930703959,-0.5808173779637131,-0.1806188404309827,-0.5758483780172158,1.0011657505237903,2,left
1.757,0.4169868302633141,0.9401851403611258,0.1359335370498107,-0.4808291464066254,2.426229240974337,-0.5357287991606237,-0.17180282125968388,-0.5598212127440473,0.9883584496318424,2,left
1.76,0.416141967869214,0.9380917860218434,0.13332843956167906,-0.40754685890111725,2.3756012526532833,-0.4905134450548089,-0.16297206114521626,-0.5436511294133457,0.975442283948294,2,left
1.7619999999999998,0.4151557474747031,0.9361144740405493,0.13061042671328266,-0.3338869504107684,2.32376578749903,-0.44524899922223293,-0.1541359427943776,-0.5273531327245984,0.9624327149304504,2,left
1.767,0.4140345490314541,0.934251341886642,0.12778591629808486,-0.2599574330183539,2.270804446632758,-0.4000128688702435,-0.14530383571103958,-0.5109421950679676,0.9493449924861261,2,left
1.768,0.41278461392311644,0.9325004658327508,0.12486137985718677,-0.18586611073843332,2.2167993963138426,-0.3548820000211087,-0.13648507699747672,-0.494433231924777,0.9361941323049712,2,left
1.77,0.41141205076004833,0.9308598589620818,0.12184332019966357,-0.11172033657008862,2.161833163291706,-0.3099326998235808,-0.12768895311070358,-0.47784107901338135,0.9229948947659898,2,left
1.771,0.4099228426788599,0.9293274689898275,0.11873824931089486,-0.03762677966925724,2.1059884395823087,-0.2652404658627033,-0.11892468254846854,-0.46118047113330496,0.9097617653836899,2,left
1.776,0.40832285572535065,0.9279011759216845,0.11555266688802811,0.03630879757195363,2.049347896514316,-0.2208798223383753,-0.1102013994395899,-0.44446602266025753,0.8965089367551144,2,left
1.777,0.40661784791387545,0.9265787895843418,0.11229303971787534,0.10998175275174282,1.9919940078872154,-0.17692416298370917,-0.1015281380133853,-0.42771220964439227,0.8832502919698675,2,left
1.78,0.40481347857876643,0.9253580470837531,0.10896578207851675,0.18328876720350434,1.9340088820811323,-0.13344560059495242,-0.09291381792303681,-0.4109333534639773,0.8699993894451508,2,left
1.781,0.4029153176642794,0.9242366102731403,0.10557723730310974,0.2561280404713016,1.8754741029558137,-0.09051482304569647,-0.0843672303978512,-0.39414360598649545,0.8567694491477694,2,left
1.786,0.4009288546372679,0.9232120633399052,0.10213366059829297,0.32839947572734746,1.8164705793741904,-0.048200955659253655,-0.07589702519951899,-0.3773569361890736,0.8435733401650483,2,left
1.787,0.3988595067492806,0.9222819106448611,0.09864120316659437,0.4000048563418617,1.757078403184118,-0.006571429814453161,-0.06751169835764435,-0.36058711819007083,0.8304235695866179,2,left
1.79,0.3967126264211028,0.9214435749645217,0.095105897647074,0.47084801381433894,1.6973767154903188,0.03430814233832433,-0.05921958066001246,-0.343847720643623,0.817332272659095,2,left
1.791,0.3944935075714052,0.920694396295361,0.0915336448628408,0.5408349872736308,1.6374435810471921,0.07437408717228439,-0.05102882687328,-0.3271520974489505,0.8043112041757733,2,left
1.794,0.3922073907578631,0.9200316313776262,0.08793020184748712,0.6098741747523405,1.5773558706020472,0.11356478300997831,-0.04294740567001792,-0.3105133797262822,0.791371731063576,2,left
1.795,0.3898594670390525,0.9194524540859387,0.08430117111292582,0.6778764764388386,1.517189151017419,0.1518207677969832,-0.034983090238302886,-0.29394446901133703,0.7785248261296881,2,left
1.8,0.3874548804971893,0.9189539568153187,0.08065199111710303,0.7447554301077591,1.4570175830004641,0.18908484113846868,-0.02714344955034494,-0.27745803162043,0.7657810629304855,2,left
1.801,0.3849987293877692,0.9185331529653831,0.07698792789235863,0.8104273389271122,1.3969138262669787,0.22530216081110696,-0.01943584026695207,-0.26106649413843036,0.753150611725614,2,left
1.804,0.3824960659054969,0.9181869805928472,0.07331406780416244,0.8748113918371819,1.3369489519673567,0.2604203338601019,-0.011867399254968899,-0.24478203998200254,0.7406432364803351,2,left
1.805,0.3799518945782618,0.9179123072628724,0.06963531142172011,0.9378297766931547,1.27719236220179,0.29438950238826905,-0.004445036695183963,-0.22861660699079472,0.7282682928795496,2,left
1.811,0.3773711693233618,0.9177059360837605,0.06595636849096616,0.9994077863599599,1.2177117164521987,0.3271624241410962,0.0028245702414208635,-0.21258188599951314,0.7160347273172389,2,left
1.8119999999999998,0.3747587892210897,0.9175646128635614,0.06228175400424818,1.0594739179441155,1.1585728647587796,0.3586945479885625,0.009934983169095914,-0.19668932033387443,0.7039510768224304,2,left
1.8119999999999998,0.3721195930728875,0.9174850342958597,0.05861578536060621,1.1179599653434527,1.0998397874696548,0.3889440844011989,0.016880007725471245,-0.18095010612251045,0.6920254698682758,2,left
1.814,0.36945835280982076,0.9174638570740237,0.05496258060872759,1.17480110524783,1.0415745413671043,0.4178720709579694,0.023653698267643297,-0.1653751932250052,0.6802656279844094,2,left
1.814,0.36677976581010824,0.9174977078380668,0.05132605776345794,1.2299359765014712,0.9838372118459356,0.44544243263763744,0.030250362012410215,-0.14997528652539183,0.6686788680782798,2,left
1.815,0.36408844618551545,0.91758319385765,0.04770993518501338,1.2833067523403534,0.9266858705886599,0.4716220361333571,0.03666456261494154,-0.1347608473921371,0.6572721053865093,2,left
1.82,0.3613889151148266,0.9177169143372234,0.044117733004599695,1.3348592047952117,0.8701765380545617,0.49638073714408104,0.04289112319506809,-0.11974209519838248,0.6460518570046274,2,left
1.821,0.3586855903383118,0.9178954721966893,0.0405527755697102,1.3845427607639784,0.8143631502301887,0.5196914198748402,0.04892512882842049,-0.10492900884797174,0.6350242459589299,2,left
1.824,0.3559827749672748,0.9181154861515674,0.03701819486813626,1.4323105496450834,0.7592975293224999,0.5415300284822091,0.05476192852083156,-0.09033132826357997,0.6241950057877069,2,left
1.825,0.3532846457935301,0.9183736029075119,0.033516934873251795,1.4781194426359703,0.7050293582066719,0.5618755904795495,0.060397136683879186,-0.07595855579382116,0.6135694855996215,2,left
1.829,0.35059524130336917,0.9186665092933155,0.03005175673617213,1.5219300838394594,0.6516061584683365,0.580710232168949,0.06582663412889375,-0.06181995749680088,0.6031526555775717,2,left
1.829,0.3479184496130629,0.9189909441742546,0.026625244735706908,1.5637069133150858,0.5990732718821696,0.5980191861625428,0.07104656859618827,-0.04792456425819931,0.5929491128969379,2,left
1.8330000000000002,0.3452579965493344,0.9193437100077579,0.023239812888198413,1.6034181822069251,0.547473845171034,0.6137907910516294,0.07605335483569078,-0.034281172702615714,0.5829630880277017,2,left
1.834,0.3426174340986195,0.9197216839228671,0.01989771211892393,1.6410359600736872,0.4968488178923032,0.6280164832776557,0.08084367425456822,-0.020898345857577074,0.5731984513905216,2,left
1.84,0.3400001294433275,0.9201218282225571,0.016601037903427356,1.6765361345410235,0.4472369133005475,0.6406907812547682,0.08541447414682943,-0.007784413530312268,0.5636587203374628,2,left
1.841,0.3374092547913666,0.9205412002237785,0.013351738296015618,1.7098984033900633,0.3986746320384388,0.6518112617892219,0.08976296651928356,0.005052527641883657,0.5543470664287019,2,left
1.845,0.33484777818682904,0.9209769613649522,0.010151622268902304,1.7411062591902031,0.3511962485105238,0.6613785288365,0.09388662652760826,0.01760461450612244,0.5452663229771637,2,left
1.8459999999999999,0.3323184554648633,0.921426385525063,0.007002368286158598,1.7701469665780745,0.304833809797425,0.6693961746325496,0.09778319053565263,0.029864218110888234,0.5364189928336898,2,left
1.849,0.3298238234822734,0.9218868665121058,0.0039055330306583956,1.797011532278507,0.2596171369710347,0.6758707332310817,0.10145065381046132,0.041823944862355994,0.5278072563859973,2,left
1.85,0.3273661947187615,0.922355924690927,0.0008625601913617788,1.821694667957104,0.2155738286743787,0.6808116264744253,0.10488726786486147,0.05347663815610507,0.5194329797453466,2,left
1.855,0.32494765330493885,0.9228312127306398,-0.002125210793171821,1.8441947459878414,0.17272926683302833,0.6842311024209847,0.10809153745880129,0.0648153805194306,0.511297723095504,2,left
1.855,0.3225700524950474,0.9233105204581129,-0.005056536146665674,1.8645137482128498,0.13110662436822354,0.6861441662479189,0.11106221726997295,0.0758334962985944,0.5034027491792683,2,left
1.859,0.3202350135678614,0.92379177880616,-0.007930259433339274,1.882657207765289,0.09072687478523728,0.6865685036432618,0.11379830824358836,0.08652455492447551,0.49574903189850356,2,left
1.86,0.3179439261127412,0.924273062845013,-0.010745303601933296,1.8986341440199508,0.051608803513950176,0.6855243966973426,0.11629905363051048,0.09688237478917933,0.4883372650043131,2,left
1.8619999999999999,0.315697949642186,0.9247525938855993,-0.013500663475787232,1.9124569907299769,0.01376902088211026,0.6830346322990344,0.11856393472227209,0.10690102776524338,0.48116787085467594,2,left
1.8630000000000002,0.3134980164662191,0.9252287406446525,-0.016195398749156473,1.9241415174018308,-0.022778023394682618,0.6791244030381001,0.12059266629084017,0.11657484439813919,0.47424100921755896,2,left
1.868,0.3113448357625876,0.9257000194664972,-0.018828627533304845,1.9337067439544477,-0.05802002431860721,0.6738212006106803,0.12238519174030889,0.12589841980181257,0.46755658609821554,2,left
1.869,0.3092388987740738,0.9261650936051207,-0.021399520482446463,1.9411748487023068,-0.09194680441953887,0.6671547017208276,0.12394167797702699,0.13486662028603116,0.4611142625700739,2,left
1.8719999999999999,0.30718048505701645,0.9266227715818602,-0.02390729551766294,1.946571069696032,-0.1245502953742184,0.6591566464669121,0.12526251000398742,0.14347459074331778,0.4549134635893158,2,left
1.8730000000000002,0.3051696696951892,0.9270720046474556,-0.026351213154576763,1.9499235994480502,-0.15582451853589077,0.6498607091977281,0.12634828524462902,0.15171776282224264,0.4489533867739439,2,left
1.8780000000000001,0.303206331385929,0.9275118833903357,-0.02873057242719055,1.9512634730648104,-0.18576556447185882,0.6393023618192188,0.12719980760582805,0.1595918638855634,0.44323301113218094,2,left
1.879,0.3012901613078067,0.9279416335412334,-0.031044707389509364,1.9506244498011318,-0.21437157160260029,0.6275187295289154,0.12781808131570874,0.16709292661434721,0.43775110574250387,2,left
1.88,0.2994206726917153,0.9283606110259369,-0.033292984172246125,1.9480428880463732,-0.2416427040322822,0.6145484389514622,0.12820430461897733,0.17421729887278548,0.4325062384184858,2,left
1.883,0.29759721102881864,0.9287682963201765,-0.03547479857124869,1.9435576138777368,-0.2675811286047386,0.6004314588845394,0.12835986343833986,0.1809616533110322,0.4274967844090685,2,left
1.8840000000000001,0.2958189648525181,0.929164288166677,-0.037589574143381876,1.9372097839672697,-0.2921909909554338,0.5852089350587978,0.12828632508336552,0.18732299631864624,0.4227209351688112,2,left
1.8840000000000001,0.2940849770337867,0.9295482967173907,-0.03963676078533677,1.9290427448060392,-0.3154783898586195,0.5689230224680826,0.12798543203974225,0.19329867618551203,0.41817670720316175,2,left
1.8880000000000001,0.29239415653077255,0.9299201361651983,-0.041615833768794706,1.9191018908604272,-0.3374513489053556,0.551616720020753,0.12745909584468,0.1988863904623437,0.41386195097770967,2,left
1.889,0.2907452905289691,0.9302797169375675,-0.04352629319607829,1.9074345236132113,-0.35811978480396794,0.5333337110619109,0.12670939104825413,0.20408419253904106,0.4097743598776966,2,left
1.892,0.28913705690201913,0.9306270375348022,-0.04536766382556281,1.8940897122543896,-0.37749547205820116,0.5141182111572256,0.12573854925982886,0.20889049745805843,0.40591147920472487,2,left
1.893,0.287568036922305,0.9309621760968085,-0.047139495201845204,1.8791181561246801,-0.3955920040342693,0.49401482332829827,0.12454895327805308,0.21330408697883513,0.40227071519826424,2,left
1.8980000000000001,0.2860367281528143,0.9312852817756923,-0.04884136201633175,1.862572048878287,-0.41242475047620364,0.473068400687137,0.12314313130227976,0.21732411390821535,0.39884934407021,2,left
1.899,0.2845415574530292,0.9315965659842466,-0.05047286462304275,1.8445049443267016,-0.4280108115251881,0.45132391641463937,0.12152375122262495,0.22095010571066265,0.3956445210413877,2,left
1.901,0.28308089403141035,0.9318962935867305,-0.05203362964387014,1.8249716239206457,-0.4423689682949028,0.4288263410254256,0.11969361498525456,0.22418196741094543,0.39265328936954175,2,left
1.902,0.28165306247694927,0.9321847740987036,-0.053523310616139214,1.804027965822737,-0.4555196300512674,0.4056205268589467,0.11765565302886603,0.22701998380084193,0.38987258935897207,2,left
1.9069999999999998,0.28025635570200436,0.9324623529662048,-0.05494158865965864,1.7817308155190934,-0.46748477804140026,0.3817510997344981,0.11541291878771896,0.22946482096028048,0.3872992673426056,2,left
1.909,0.2788890477268102,0.9327294030006957,-0.05628817316359418,1.758137857913883,-0.4782879060130837,0.3572623577056057,0.11296858325596339,0.2315175271021996,0.38493008462790373,2,left
1.911,0.2775494062336162,0.9329863160538872,-0.057562802507553225,1.7333074908467778,-0.4879539574625615,0.3321981768472166,0.11032592960741792,0.23317953274928266,0.38276172639861067,2,left
1.912,0.2762357048186409,0.9332334950233468,-0.05876524483407434,1.7072986999693784,-0.49650925964509146,0.3066019240072189,0.10748834786436172,0.23445265024959266,0.3807908105649425,2,left
1.9169999999999998,0.2749462348760356,0.933471346282329,-0.059895298886349715,1.6801709349129617,-0.5039814543793425,0.2805163764520364,0.10445932960832531,0.23533907263700726,0.3790138965554044,2,left
1.9169999999999998,0.2736793170603546,0.9337002726227519,-0.06095279492127417,1.651983986676346,-0.510399425673459,0.2539836483343872,0.10124246272529616,0.2358413718412322,0.3774274940439996,2,left
1.922,0.2724333122887086,0.933920666788676,-0.061937595704111184,1.6227978661592872,-0.5157932241974308,0.22704512390976858,0.09784142617719478,0.23596249625105484,0.3760280716071608,2,left
1.923,0.2712066322545326,0.9341329056617,-0.06284959758327308,1.5926726837636025,-0.5201939886232956,0.199741397426822,0.09425998479092748,0.23570576763339104,0.3748120653052913,2,left
1.9269999999999998,0.2699977494270214,0.934337345142373,-0.06368873163056762,1.5616685299811774,-0.5236338638516758,0.17211221961544473,0.09050198405578262,0.2350748774095729,0.37377588718435206,2,left
1.9280000000000002,0.2688052065014402,0.9345343157554856,-0.06445496481900176,1.5298453568851424,-0.5261459161402122,0.14419645069534945,0.08657134491940813,0.23407388228923415,0.37291593369346576,2,left
1.932,0.2676276252464789,0.9347241189937365,-0.06514830120399559,1.4972628604378035,-0.5277640451466054,0.11603201982672048,0.08247205857208992,0.23270719926106276,0.37222859401503744,2,left
1.933,0.26646371467151575,0.9349070244038051,-0.06576878307523977,1.4639803635263953,-0.5285228928962181,0.08765589092367966,0.07820818120854414,0.23097959993861703,0.3717102583044074,2,left
1.936,0.2653122784185639,0.9350832674099554,-0.06631649204969858,1.4300566996353599,-0.5284577496815284,0.05910403475044841,0.07378382875594017,0.22889620425833965,0.37135732583655734,2,left
1.9369999999999998,0.2641722212784257,0.9352530478603486,-0.06679155007711114,1.3955500970616839,-0.5276044568981559,0.030411407219377008,0.06920317155638664,0.22646247352585347,0.3711662130578887,2,left
1.942,0.2630425547406067,0.9354165292671129,-0.06719412032819123,1.3605180635778036,-0.5259993068197185,0.0016119338094014478,0.06447042899164067,0.2236842028055871,0.3711333615415753,2,left
1.942,0.2619224015093656,0.9355738386925014,-0.06752440793531092,1.325017271444751,-0.523678939311407,-0.027261499977018662,0.05958986403733919,0.2205675126477573,0.37125524584546893,2,left
1.946,0.26081099894774196,0.9357250672151974,-0.0677826605576277,1.2891034426765382,-0.520680235479907,-0.05617705220083436,0.054565777741565305,0.21711884015864294,0.371528381265727,2,left
1.9469999999999998,0.2597077014391865,0.9358702709018119,-0.06796916874720108,1.2528312344552648,-0.5170402082551356,-0.08510392219987616,0.04940250366194016,0.21334492948366499,0.37194933144840814,2,left
1.9469999999999998,0.2586119816773587,0.9360094722106735,-0.06808426609817311,1.216254124595081,-0.5127958898972039,-0.1140123425117344,0.044104402366671784,0.2092528218880417,0.37251471576525214,2,left
1.95,0.25752343091142116,0.9361426617570279,-0.06812832916542322,1.1794242971056654,-0.5079842165796901,-0.14287356517132851,0.038675856144394685,0.20484984568340148,0.3732212163289195,2,left
1.9509999999999998,0.2564417581888192,0.9362698003655011,-0.06810177714142399,1.1423925286733845,-0.5026419109965415,-0.1716598429598614,0.03312126402741965,0.20014360618323612,0.3740655845547643,2,left
1.952,0.2553667886466436,0.9363908213355878,-0.06800507128149418,1.1052080782608116,-0.49680536537473746,-0.2003444069222964,0.027445037160960334,0.195141975752937,0.37504464723310793,2,left
1.955,0.2542984609104273,0.936505632847078,-0.06783871406875176,1.0679185827930935,-0.4905105280712928,-0.22890144188174577,0.021651594510714266,0.18985308395469583,0.37615531210776043,2,left
1.956,0.2532368236742083,0.9366141204250233,-0.06760324811191831,1.0305699611305275,-0.4837927961335798,-0.25730606126756095,0.015745358892850784,0.18428530777376728,0.37739457296320866,2,left
1.96,0.2521820315524666,0.9367161493746232,-0.06729925477541518,0.9932063271428858,-0.47668691476397446,-0.28553428183313384,0.009730753310109266,0.17844726191174298,0.3787595142232773,2,left
1.9609999999999999,0.25113434030267323,0.9368115670966379,-0.06692735255308895,0.9558699119321721,-0.4692268838304376,-0.31356299842766894,0.0036121975773740953,0.17234778913166054,0.3802473150644462,2,left
1.966,0.25009410151771594,0.9369002052024327,-0.06648819521028314,0.9186009950966123,-0.4614458714038058,-0.34136995890347366,-0.002605894780231157,0.16599595063897202,0.3818552530473782,2,left
1.9669999999999999,0.24906175688663826,0.9369818813595159,-0.06598246972949547,0.881437844928637,-0.4533761343014539,-0.3689337392398093,-0.008919119373999147,0.15940101648161994,0.38358070727057303,2,left
1.97,0.2480378321227811,0.9370564008113639,-0.06541089410144708,0.844416667439682,-0.4450489456159687,-0.3962337189637734,-0.015323083560611257,0.15257245595171756,0.3854211610504144,2,left
1.9709999999999999,0.2470229306602386,0.9371235575283092,-0.06477421500683314,0.8075715641048266,-0.43649452920655035,-0.42325005694804896,-0.02181340883128061,0.1455199279706067,0.387374204132225,2,left
1.975,0.24601772722089982,0.9371831349596388,-0.06407320543569987,0.7709344982205872,-0.4277420011300282,-0.4499636676646613,-0.028385732999192333,0.13825327143836785,0.3894375344372801,2,left
1.976,0.24502296135408103,0.937234906371573,-0.06330866229288326,0.7345352697695913,-0.4188193179876317,-0.4763561979731228,-0.03503571220362856,0.13078249552818663,0.3916089593510612,2,left
1.98,0.24403943104794612,0.937278634770926,-0.06248140403951215,0.6984014986863476,-0.4097532321630073,-0.5024100045205373,-0.041759022749413725,0.12311776990533801,0.3938863965583561,2,left
1.9809999999999999,0.24306798650566214,0.9373140724290774,-0.06159226842069955,0.6625586164189357,-0.4005692539263955,-0.5281081318303642,-0.048551362800551286,0.11526941484993466,0.39626787443112804,2,left
1.985,0.2421095241700467,0.9373409600344389,-0.06064211032717718,0.6270298656821034,-0.391291620379395,-0.5534342911556236,-0.05540845394714629,0.10724789126199949,0.3987515319753873,2,left
1.985,0.24116498106964288,0.9373590255124243,-0.0596317998341659,0.5918363082980277,-0.3819432712143239,-0.5783728401713519,-0.06232604266491866,0.09906379052686624,0.401335618343603,2,left
1.99,0.24023532954757146,0.9373679825590099,-0.058562220454640795,0.5569968410218203,-0.3725458312618459,-0.6029087635800958,-0.06929990168681066,0.09072782421838424,0.40401849191949285,2,left
1.99,0.2393215724230696,0.9373675289370815,-0.05743426763720544,0.5225282192497595,-0.3631195998002602,-0.6270276547031668,-0.076325831306378,0.08225081361690634,0.4067986189823222,2,left
1.995,0.23842473862520266,0.9373573445840632,-0.05624884753264711,0.488445088509186,-0.35368354659964624,-0.6507156981292657,-0.08339966063282772,0.07364367901857277,0.40967457195813184,2,left
1.996,0.2375458793286546,0.937337089575635,-0.055006876047598345,0.45476002363001733,-0.3442553146739094,-0.6739596534909311,-0.09051724881772795,0.06491742881196681,0.4126450272655981,2,left
1.999,0.23668606461172245,0.9373064019855116,-0.053709278196259695,0.4214835754988891,-0.3348512297136913,-0.6967468404380692,-0.09767448627356418,0.056083148297813676,0.4157087627645095,2,left
2.0,0.2358463806461459,0.9372648956773988,-0.05235698775106234,0.3886243252980419,-0.32548631617307383,-0.7190651248765861,-0.10486729590445439,0.047151988227020464,0.4188646548151189,2,left
2.005,0.23502792741764972,0.9372121580637567,-0.05095094718189547,0.3561889461322069,-0.3161743199830284,-0.740902906538869,-0.11209163436946101,0.038135153032012814,0.4221116749569011,2,left
2.006,0.2342318169657854,0.9371477478665726,-0.04949210786242462,0.32418227194791455,-0.3069277378646268,-0.7622491079515501,-0.11934349339905188,0.029043888726013597,0.42544888621551535,2,left
2.009,0.2334591721222679,0.9370711929168901,-0.04798143051171239,0.29260737365084466,-0.29775785321514053,-0.7830931648646458,-0.12661890118536426,0.019889470444631165,0.4288754390470369,2,left
2.01,0.232711125718926,0.9369819880316198,-0.046419885830557804,0.26146564232805025,-0.2886747785403049,-0.8034250182047777,-0.13391392386701725,0.010683189603878245,0.432390566928782,2,left
2.015,0.23198882023109038,0.9368795930069949,-0.044808455285813134,0.23075687948311552,-0.27968750440620843,-0.8232351076137784,-0.14122466712196213,0.001436340666012369,0.4359935816119375,2,left
2.016,0.2312934078216773,0.9367634307655412,-0.04314813199453151,0.20047939419354446,-0.2708039548844882,-0.8425143666325372,-0.1485472778452555,-0.007839792408176477,0.43968386807958143,2,left
2.016,0.2306260507536213,0.9366328856883392,-0.04143992166407782,0.1706301071009178,-0.2620310494647555,-0.8612542195884737,-0.15587794582268735,-0.017133949784804616,0.44346087930455547,2,left
2.02,0.229987922137959,0.9364873021625711,-0.039684843550234425,0.14120466098087683,-0.25337477125922764,-0.8794465801989481,-0.16321290527456775,-0.026434909136933783,0.44732413093002454,2,left
2.021,0.22938020698094763,0.9363259833771908,-0.03788393139934896,0.11219753681762913,-0.2448402405787089,-0.8970838516784857,-0.17054843618068397,-0.035731498543585004,0.4512731959676867,2,left
2.021,0.228804103490321,0.9361481904010226,-0.03603823434524575,0.08360217282642025,-0.2364317916163571,-0.9141589277349162,-0.17788086536347192,-0.04501260882950306,0.45530769955822875,2,left
2.024,0.22826082459559874,0.9359531415779354,-0.03414881773803685,0.05541108304503097,-0.22815304922987728,-0.9306651936150454,-0.18520656734313093,-0.05426720535488338,0.459427313810749,2,left
2.025,0.22775159962553718,0.9357400122791403,-0.03221676388772164,0.027615972940158516,-0.22000700355926037,-0.9465965265817949,-0.1925219649857468,-0.06348433928174403,0.46363175273249113,2,left
2.029,0.22727767607257132,0.9355079350612245,-0.030243172711439788,0.0002078509581996768,-0.21199608156056787,-0.9619472956043605,-0.19982352996547953,-0.07265315834358123,0.4679207672604782,2,left
2.03,0.22684032136671142,0.9352560002827344,-0.028229162281012455,-0.02682286422528721,-0.20412221528276212,-0.9767123602642113,-0.2071077830618528,-0.08176291714487074,0.4722941404068809,2,left
2.0340000000000003,0.22644082457998665,0.9349832572291831,-0.026175869274313313,-0.05348624083730879,-0.1963869068641858,-0.9908870689226849,-0.2143712943131532,-0.09080298701687024,0.47675168253019773,2,left
2.035,0.22608049798507168,0.9346887157877508,-0.02408444933596547,-0.07979273559910847,-0.1887912902256816,-1.0044672561942671,-0.22161068304690634,-0.09976286545603892,0.4812932267445681,2,left
2.039,0.2257606783966581,0.9343713487009113,-0.021956077348044667,-0.10575309985545725,-0.18133618943773577,-1.017449239767961,-0.2288226178083487,-0.10863218517122147,0.48591862447978024,2,left
2.04,0.22548272822957427,0.934030094415271,-0.01979194760193466,-0.13137829031818266,-0.17402217373942658,-1.029829816617456,-0.2360038162077541,-0.11740072276554356,0.49062774120478125,2,left
2.043,0.2252480362122531,0.9336638605298198,-0.017593273853272726,-0.1566793844995307,-0.16684960918735928,-1.0416062586391026,-0.2431510447074044,-0.12605840707873572,0.49542045232773313,2,left
2.044,0.22505801769652664,0.9332715278372415,-0.015361289237355448,-0.18166750090996148,-0.15981870691317254,-1.0527763077549792,-0.250261118368915,-0.1345953272153429,0.5002966392859034,2,left
2.05,0.22491411450341028,0.9328519549433315,-0.013097246023537894,-0.20635372409401628,-0.15292956796860566,-1.0633381705166114,-0.25733090058153835,-0.14300174028398754,0.5052561858389181,2,left
2.05,0.22481779424059609,0.9324039834431106,-0.010802415192527504,-0.23074903457696438,-0.14618222473752202,-1.0732905122431684,-0.2643573027919703,-0.15126807887253615,0.5102989745791444,2,left
2.053,0.22477054902501362,0.931926443627025,-0.008478085827806882,-0.25486424379403644,-0.13957667889469177,-1.0826324507262244,-0.27133728425607795,-0.15938495828367263,0.5154248836732112,2,left
2.0540000000000003,0.2247738935471436,0.9314181606853355,-0.006125564320308555,-0.2787099340731858,-0.13311293589154252,-1.091363549531418,-0.2782678518328523,-0.16734318355500727,0.520633783848914,2,left
2.0580000000000003,0.22482936242451382,0.9308779613724354,-0.0037461733931550886,-0.3022964037414817,-0.1267910359494949,-1.099483810925603,-0.28514605984076347,-0.17513375628744787,0.5259255356419927,2,left
2.059,0.22493850681044078,0.9303046810845043,-0.0013412509598230659,-0.3256336174244343,-0.12061108154190732,-1.106993668456326,-0.29196900999656455,-0.18274788130513125,0.5312999869175038,2,left
2.063,0.22510289025083474,0.9296971712933081,0.001087851166139361,-0.34873116160677553,-0.11457326134606116,-1.1138939792087086,-0.29873385145644626,-0.1901769731697573,0.536756970680753,2,left
2.064,0.22532408381466787,0.9290543072676685,0.0035397686888082903,-0.3715982055224748,-0.10867787064702547,-1.1201860157630703,-0.3054377809792964,-0.1974126625716867,0.5422963031929902,2,left
2.068,0.22560366055710296,0.9283749960045501,0.006013126353728313,-0.3942434674410523,-0.10292532817564842,-1.1258714578748594,-0.31207804323165816,-0.20444680261965786,0.547917782407303,2,left
2.068,0.22594318940306607,0.9276581842848569,0.008506539560403818,-0.41667518641656254,-0.09731618936333086,-1.1309523838967217,-0.3186519312538149,-0.21127147505044608,0.5536211867403881,2,left
2.073,0.22634422856026348,0.926902866764426,0.011018616053349417,-0.438901099564957,-0.09185115599664735,-1.135431261960787,-0.32515678710625384,-0.217878996379234,0.5594062741961106,2,left
2.073,0.22680831858173886,0.9261080940087858,0.013547957689775165,-0.46092842493489905,-0.08653108225528985,-1.139310940937508,-0.3315900027155787,-0.2242619240108836,0.5652727818570016,2,left
2.0780000000000003,0.22733697519781795,0.9252729803826394,0.016093162287385762,-0.4827638500364868,-0.08135697711722269,-1.1425946411856538,-0.3379490209387505,-0.2304130623316982,0.5712204257600765,2,left
2.079,0.22793168202828087,0.924396711712253,0.01865282555728539,-0.5044135260917486,-0.07633000311535032,-1.1452859451063324,-0.34423133686433793,-0.23632546880064045,0.5772489011735931,2,left
2.083,0.22859388327147306,0.9234785526503189,0.021225543126445902,-0.5258830680702055,-0.07145147143041747,-1.147388787512191,-0.350434499361249,-0.24199246004812025,0.5833578832802461,2,left
2.084,0.22932497644855201,0.9225178536880452,0.023809912653617683,-0.5471775605722397,-0.06672283330528012,-1.1489074458212396,-0.3565561128451869,-0.24740761793876448,0.5895470282157445,2,left
2.085,0.23012630526042432,0.9215140577757821,0.026404536041656962,-0.568301569622476,-0.06214566776610887,-1.1498465300830327,-0.362593839160824,-0.2525647954620318,0.5958159743097461,2,left
2.089,0.2309991526010455,0.9204667065257767,0.029008021746260004,-0.5892591604348631,-0.057721665636513375,-1.1502109728432641,-0.3685453994374422,-0.25745812226279463,0.6021643433195725,2,left
2.09,0.23194473376867664,0.9193754459767897,0.03161898717588535,-0.6100539210740252,-0.053452609908377635,-1.1500060188637424,-0.3744085758155741,-0.2620820096743233,0.6085917415041379,2,left
2.09,0.23296418991772883,0.9182400319051164,0.03423606117335668,-0.630688991253906,-0.04934035292048582,-1.1492372147760581,-0.3801812130139619,-0.26643115520723265,0.6150977604879648,2,left
2.093,0.23405858178955585,0.9170603346735283,0.03685788656879797,-0.6511670942847391,-0.045386791492795134,-1.1479103988589907,-0.3858612197459263,-0.27050054649822813,0.6216819779221647,2,left
2.093,0.23522888375586826,0.9158363436170034,0.03948312279413984,-0.6714905694958493,-0.04159384155151205,-1.1460316911910753,-0.3914465700019826,-0.2742854647319241,0.6283439579608469,2,left
2.099,0.23647597820939814,0.9145681709688624,0.042110448550782,-0.6916614031443906,-0.03796341339372423,-1.1436074843651225,-0.3969353042152828,-0.27778148754821674,0.6350832515716462,2,left
2.1,0.23780065033981507,0.9132560553308238,0.04473856452969527,-0.7116812570491846,-0.0344973880444596,-1.1406444348364968,-0.4023255303261972,-0.2809844914468917,0.6418993966992833,2,left
2.102,0.23920358333480365,0.9119003646848612,0.04736619619855335,-0.7315514948714326,-0.031197594772651382,-1.137149454912364,-0.4076154247620756,-0.2838906537003308,0.6487919183012918,2,left
2.103,0.2406853540476544,0.9105015989360609,0.049992096681120105,-0.751273206100252,-0.02806578975558376,-1.1331297053749638,-0.41280323334795205,-0.286496453784351,0.6557603282752751,2,left
2.1069999999999998,0.24224642917406441,0.9090603919673184,0.05261504974543917,-0.7708472278005519,-0.02510363588186529,-1.1285925887304047,-0.41788727216367455,-0.2887986743363699,0.6628041252972711,2,left
2.1069999999999998,0.243887161980104,0.9075775131797349,0.05523387288827598,-0.7902741641803321,-0.02231268368345424,-1.1235457430729598,-0.4228659283626508,-0.29079440164923753,0.6699227945910241,2,left
2.112,0.2456077896202502,0.9060538684872943,0.057847420465629205,-0.8095544040340606,-0.019694353387742725,-1.1179970365533314,-0.4277376609671117,-0.2924810257082143,0.6771158076481812,2,left
2.112,0.2474084310826323,0.9044905007328461,0.06045458678576047,-0.8286881361183647,-0.01724991808119339,-1.111954562437867,-0.4325010016544921,-0.29385623977770237,0.6843826219196478,2,left
2.1180000000000003,0.24928908580227352,0.9028885894957638,0.06305430905828718,-0.8476753625158423,-0.014980487976514106,-1.1054266347442443,-0.4371545555492296,-0.29491803954345713,0.6917226804985496,2,left
2.1180000000000003,0.2512496329920285,0.9012494502679634,0.0656455700808661,-0.8665159100423846,-0.012886995775851597,-1.0984217844377029,-0.44169700203397205,-0.29566472181512027,0.6991354118154653,2,left
2.122,0.2532898317517525,0.8995745329811261,0.06822740054273209,-0.8852094397529712,-0.010970183122984183,-1.0909487561704843,-0.44612709559387553,-0.29609488279302015,0.7066202293668045,2,left
2.123,0.2554093220250719,0.8978654198725401,0.0707988808332411,-0.9037554546004863,-0.0092305881379962,-1.083016505545742,-0.4504436667073575,-0.2962074159022857,0.714176531497412,2,left
2.128,0.2576076264738496,0.8961238226803593,0.07335914226519093,-0.9221533053016783,-0.007668534028421595,-1.0746341968858206,-0.45464562279635273,-0.29600150919641643,0.7218037012586969,2,left
2.128,0.2598841533265773,0.8943515791633255,0.0759073676520487,-0.9404021944639619,-0.006284118771351409,-1.0658112014834544,-0.458731949248795,-0.29547664233154186,0.7295011063637846,2,left
2.1319999999999997,0.26223820022802136,0.8925506489489256,0.07844279120723979,-0.9585011790263421,-0.005077205861508395,-1.0565570963131163,-0.4627017105257231,-0.29463258311169155,0.7372680992613982,2,left
2.133,0.26466895907881033,0.8907231087303445,0.08096469776078581,-0.976449171067307,-0.004047416120801651,-1.0468816631784599,-0.46655405136508027,-0.29346938360448316,0.7451040173503777,2,left
2.137,0.2671755218106678,0.8888711468557349,0.08347242131554858,-0.9942449370321125,-0.0031941205653838985,-1.0367948882705258,-0.4702881980939428,-0.29198737582572065,0.7530081833569495,2,left
2.138,0.26975688699953276,0.886997057380148,0.08596534298849777,-1.0118870954314527,-0.002516434326743444,-1.0263069621101524,-0.4739034600605817,-0.29018716699047753,0.760979905897057,2,left
2.141,0.2724119671794095,0.8851032336770854,0.08844288839610286,-1.0293741130630694,-0.002013211623871157,-1.0154282798468142,-0.47739923119742156,-0.2880696343273246,0.7690184802462607,2,left
2.141,0.2751395966904616,0.8831921617286665,0.09090452454799045,-1.0467042998074227,-0.001683041784049266,-1.0041694418849367,-0.4807749917256219,-0.2856359194514454,0.777123189339913,2,left
2.147,0.2779385398805587,0.881266413226662,0.09334975631658364,-1.063875802048101,-0.0015242463103126865,-0.9925412548075778,-0.4840303100116666,-0.28288742229147107,0.7852933050265085,2,left
2.148,0.28080749948079226,0.8793286386174348,0.09577812255870433,-1.0808865947671986,-0.001534876994134217,-0.9805547325662486,-0.4871648445860015,-0.2798257945639527,0.7935280895972985,2,left
2.151,0.28374512499057236,0.8773815602101948,0.09818919197611162,-1.0977344723654476,-0.0017127150723814924,-0.9682210979045534,-0.4901783463267748,-0.27645293280169325,0.8018267976029949,2,left
2.151,0.28675002093707064,0.875427965441258,0.10058255880586103,-1.114417038256422,-0.002055271428085326,-0.9555517839822676,-0.4930706607781709,-0.27277097100730774,0.8101886779063,2,left
2.1519999999999997,0.28982075491246073,0.8734707003540452,0.10295783842452963,-1.1309316932836833,-0.002559787835045194,-0.9425584361654438,-0.495841730512695,-0.26878227312137143,0.8186129758070726,2,left
2.156,0.2929558653242404,0.8715126633258603,0.10531466294589045,-1.1472756230092596,-0.0032232392467773843,-0.9292529139471385,-0.4984915974131999,-0.26448942555967286,0.8270989350148519,2,left
2.157,0.2961538688090473,0.869556799051295,0.10765267690191492,-1.1634457839213739,-0.004042337130783937,-0.9156472929623912,-0.5010204047833178,-0.25989523000715176,0.8356457993059173,2,left
2.157,0.29941326727024203,0.8676060927716731,0.10997153311303524,-1.1794388886557734,-0.005013533814066549,-0.9017538670485667,-0.5034283992543953,-0.2550026965363281,0.8442528138143484,2,left
2.161,0.3027325545160321,0.8656635647195072,0.11227088885652609,-1.1952513905590687,-0.006133027628672332,-0.8875851502433553,-0.5057159324899053,-0.24981503705110752,0.8529192259690046,2,left
2.161,0.30611022249439,0.8637322647325117,0.11455040242817514,-1.2108794683441877,-0.007396768326836966,-0.8731538785075914,-0.5078834626945968,-0.24433565904277016,0.8616442861009777,2,left
2.168,0.3095447671367915,0.8618152669792715,0.11680973017822129,-1.2263190118221012,-0.008800462058133895,-0.8584730109013043,-0.5099315559353038,-0.23856815964409683,0.8704272477462375,2,left
2.169,0.31303469383440446,0.8599156647202942,0.11904852409854266,-1.2415656094588987,-0.010339575379056994,-0.843555729998545,-0.511860887279984,-0.23251631996673536,0.8792673676683691,2,left
2.1719999999999997,0.3165785225800392,0.858036565008343,0.12126643003244955,-1.256614538084565,-0.012009338085545886,-0.8284154414300496,-0.5136722417612168,-0.2261840997060747,0.8881639056264632,2,left
2.1719999999999997,0.3201747928185043,0.8561810832193992,0.12346308655851636,-1.271460754844714,-0.013804744836957926,-0.8130657725000099,-0.5153665151700443,-0.219575631997067,0.8971161239133884,2,left
2.176,0.32382206805636626,0.8543523373028734,0.1256381245712268,-1.2860988914390676,-0.015720555575898073,-0.7975205698341233,-0.5169447146856998,-0.21269521850361994,0.9061232866898407,2,left
2.177,0.327518940287192,0.8525534416475281,0.12779116755425898,-1.3005232506898998,-0.017751294748692588,-0.7817938960154607,-0.5184079593464305,-0.20554732472337797,0.9151846591397252,2,left
2.18,0.3312640342877533,0.8507875004811468,0.12992183251838627,-1.3147278054830869,-0.019891249331653035,-0.7659000251640846,-0.5197574803662811,-0.1981365754889172,0.9242995064725859,2,left
2.181,0.33505601183199485,0.8490576007607628,0.13202973155020606,-1.3287062001238008,-0.02213446566862238,-0.7498534374157924,-0.520994621302378,-0.1904677506455981,0.9334670927989559,2,left
2.186,0.3388935758519205,0.8473668045648314,0.13411447388749254,-1.342451754148267,-0.02447474512562469,-0.7336688122548337,-0.5221208380769164,-0.1825457808855518,0.9426866799046608,2,left
2.187,0.342775474551198,0.8457181410595,0.13617566840615414,-1.3559574686323859,-0.026905638568753075,-0.717361020654978,-0.5231376988577342,-0.17437574371652126,0.9519575259502531,2,left
2.19,0.34670050545431963,0.8441145981650834,0.1382129263800508,-1.3692160350373532,-0.02942043967172667,-0.7009451159828635,-0.5240468838010249,-0.1659628595435376,0.9612788841219171,2,left
2.191,0.3506675193564249,0.8425591140868285,0.14022586436354875,-1.382219846631755,-0.03201217705982584,-0.684436323617168,-0.5248501846594332,-0.15731248784068438,0.9706500012603256,2,left
2.195,0.35467542412842334,0.841054568893073,0.14221410705021328,-1.3949610125289187,-0.03467360529717435,-0.6678500292367843,-0.525549504258454,-0.1484301233894913,0.9800701164940787,2,left
2.1959999999999997,0.35872318832830385,0.8396037763260872,0.14417728997975196,-1.4074313743775935,-0.037397194724577906,-0.6512017657308741,-0.526146855843754,-0.13932139255980022,0.9895384599045034,2,left
2.2,0.3628098445689789,0.8382094760216716,0.14611506199669427,-1.4196225257432973,-0.04017512015534881,-0.6345071986834092,-0.5266443623017245,-0.129992049608266,0.9990542512487305,2,left
2.201,0.36693449259089495,0.8368743262987793,0.14802708740343448,-1.4315258342169164,-0.042999248436746046,-0.6177821103845856,-0.5270442552552815,-0.12044797296898672,1.00861669876811,2,left
2.204,0.37109630198131227,0.8356008976634014,0.14991304778944703,-1.4431324662863636,-0.045861124884838095,-0.6010423823213177,-0.5273488740366309,-0.11069516151010937,1.0182249981091638,2,left
2.205,0.3752945144718024,0.8343916671523659,0.1517726435477568,-1.454433415006299,-0.048751958600751245,-0.5843039760988875,-0.5275606645384346,-0.10073973072962253,1.0278783313844084,2,left
2.209,0.3795284457332907,0.8332490136218934,0.15360559510223648,-1.4654195305000837,-0.051662606676398,-0.5675829127457365,-0.5276821779445318,-0.09058790886293164,1.0375758664005188,2,left
2.21,0.38379748657808666,0.8321752140607106,0.1554116438656691,-1.4760815533273006,-0.054583557297888205,-0.5508952503533455,-0.5277160693410942,-0.08024603287421268,1.0473167560814312,2,left
2.215,0.38810110347592597,0.8311724409749256,0.1571905529369022,-1.4864101507492766,-0.05750491175490768,-0.5342570600031532,-0.5276650962088304,-0.06972054430295842,1.0571001381141163,2,left
2.2159999999999997,0.39243883829964465,0.830242760849112,0.15894210753863736,-1.4963959559241524,-0.06041636536440533,-0.5176843999325106,-0.5275321167965937,-0.05901798493656737,1.0669251348448792,2,left
2.22,0.3968103072355523,0.8293881336390406,0.16066611520428872,-1.5060296100621078,-0.0633071873169587,-0.5011932878917688,-0.5273200883768242,-0.04814499228949163,1.0767908534403816,2,left
2.221,0.4012151988197217,0.8286104132110478,0.16236240573851413,-1.5153018075703921,-0.06616619945418778,-0.48479967164473703,-0.5270320653846505,-0.03710829491999072,1.0866963862587828,2,left
2.221,0.40565327108876426,0.8279113486183931,0.16403083099169036,-1.5242033442168277,-0.06898175398555802,-0.46851939756493644,-0.526671197445192,-0.02591470770693516,1.0966408112524524,2,left
2.225,0.4101243478577815,0.827292586079603,0.16567126450295672,-1.5327251682209238,-0.07174171022756623,-0.45236817735041696,-0.5262407272950107,-0.014571127259672467,1.1066231921549006,2,left
2.225,0.414628314155253,0.8267556714926487,0.1672836010792036,-1.5408584335881057,-0.07443341082177893,-0.4363615532307268,-0.5257439886018088,-0.003084527582439936,1.116642578273612,2,left
2.226,0.4191651108543038,0.8263020533002334,0.16886775638199816,-1.5485945539348407,-0.07704365856048769,-0.4205148626709216,-0.5251844036833074,0.008538043977547313,1.126698003834641,2,left
2.23,0.4237347285498141,0.8259330855033323,0.17042366659529298,-1.5559252544587574,-0.07955869532215333,-0.40484320392841233,-0.5245654811244039,0.020289470520693232,1.136788486893856,2,left
2.23,0.4283372007482977,0.8256500305738992,0.17195128825451916,-1.562842620299332,-0.0819641842450458,-0.38936140346832404,-0.5238908132911907,0.03216256915728555,1.1469130278436166,2,left
2.234,0.43297259645769187,0.8254540619620184,0.1734505983267557,-1.5693391406002357,-0.08424519559482965,-0.3740839856125239,-0.5231640737402321,0.04415009437480144,1.1570706075437673,2,left
2.235,0.4376410122791536,0.8253462658630927,0.17492159463078147,-1.5754077481758717,-0.08638619640800291,-0.35902514444743794,-0.5223890145213324,0.0562447412439975,1.1672601851059337,2,left
2.239,0.4423425641145005,0.8253276419082555,0.17636429667501258,-1.5810418548019547,-0.08837104391806731,-0.3441987179462135,-0.5215694633718619,0.0684391484978765,1.1774806953601993,2,left
2.239,0.44707737861893215,0.8253991024540726,0.1777787469740046,-1.5862353821487787,-0.09018298277094934,-0.3296181642613681,-0.520709320800565,0.08072590151795231,1.1877310460333486,2,left
2.2430000000000003,0.45184558455204293,0.8255614701718408,0.17916501288138814,-1.5909827883745962,-0.09180464603578761,-0.31529654014469727,-0.5198125570586268,0.09309753526254179,1.1980101146679374,2,left
2.244,0.4566473042071004,0.8258154736702983,0.18052318895261085,-1.5952790903952785,-0.09321806001675281,-0.3012464814518756,-0.5188832089956572,0.1055465371720989,1.2083167453115577,2,left
2.25,0.461482645124973,0.8261617409271094,0.18185339983011273,-1.5991198818451646,-0.09440465287106746,-0.2874801856898939,-0.5179253767981276,0.11806535008687152,1.2186497450057348,2,left
2.25,0.4663516923230687,0.8266007903565883,0.18315580362748188,-1.6025013467427285,-0.09534526703784581,-0.274009396566218,-0.5169432206076927,0.13064637521240538,1.2290078801039843,2,left
2.254,0.47125450128754315,0.8271330194067613,0.18443059577336213,-1.6054202688733952,-0.09602017548177415,-0.26084539049933214,-0.5159409570167383,0.14328197516864113,1.2393898724486365,2,left
2.255,0.4761910919818313,0.827758690660023,0.1856780132552353,-1.607874036900531,-0.09640910175499887,-0.2479989650511471,-0.5149228554384094,0.15596447715855188,1.2497943954361086,2,left
2.259,0.48116144410905254,0.8284779155101589,0.1868983391755302,-1.6098606452143165,-0.09649124387988205,-0.23548042924259757,-0.51389323434831,0.168686176292446,1.2602200700003778,2,left
2.26,0.4861654938249086,0.8292906356025116,0.18809190749950186,-1.6113786905268792,-0.09624530205451975,-0.22329959571463648,-0.5128564573950006,0.18143933910421828,1.2706654605444772,2,left
2.263,0.49120313202852695,0.8301966023443204,0.1892591078409856,-1.6124273642207356,-0.09564951018209528,-0.21146577469774364,-0.5118169293763813,0.1942162072959654,1.2811290708499017,2,left
2.2640000000000002,0.49627420426378815,0.8311953549042176,0.1904003901052064,-1.613006440456241,-0.09468167122425782,-0.19998776975400748,-0.5107790920790101,0.20700900174749576,1.29160933999387,2,left
2.2680000000000002,0.501378512155873,0.8322861972090566,0.19151626879317193,-1.6131162600424096,-0.09331919637777285,-0.188873875256808,-0.5097474199773877,0.219809926827353,1.3021046383044463,2,left
2.269,0.5065158162079242,0.8334681745025352,0.19260732677385736,-1.612757710074116,-0.09153914807268498,-0.178131875574124,-0.5087264157902336,0.23261117504204123,1.3126132633835779,2,left
2.274,0.5116858397085912,0.8347400500500135,0.19367421835091017,-1.6119321993373414,-0.08931828678916434,-0.16776904592250974,-0.5077206058907792,0.24540493206018504,1.3231334362281522,2,left
2.275,0.5168882734598484,0.8361002825615785,0.19471767148992644,-1.6106416294827866,-0.08663312168907296,-0.15779215485982992,-0.5067345355681261,0.2581833821483818,1.3336632974792204,2,left
2.278,0.52212278102296,0.8375470048703213,0.19573848912709027,-1.608888361966815,-0.08345996505708761,-0.14820746838591012,-0.5057727641367455,0.2709387140555038,1.3442009038295712,2,left
2.279,0.527389004191042,0.8390780043551794,0.19673754954252853,-1.6066751807573707,-0.07977499054494852,-0.13902075562134764,-0.5048398598912388,0.28366312738218563,1.3547442246198733,2,left
2.2840000000000003,0.5326865684219768,0.8406907055442286,0.19771580583956075,-1.6040052508011582,-0.07555429521106921,-0.1302372960358353,-0.5039403949035359,0.29634883947219043,1.36529113865363,2,left
2.285,0.5380150879992646,0.8423821552777666,0.19867428461097514,-1.6008820722470596,-0.07077396534634044,-0.1218618881984763,-0.5030789396597805,0.30898809286227963,1.3758394312612159,2,left
2.2880000000000003,0.5433741707235955,0.8441490107513522,0.19961408389046587,-1.5973094304194357,-0.06541014607549098,-0.11389886002371048,-0.502260057534229,0.321573163327124,1.386386791643278,2,left
2.289,0.5487634219698643,0.8459875306954114,0.20053637048601314,-1.5932913415336505,-0.05943911472182874,-0.10635208048762994,-0.5014882990979562,0.33409636853298286,1.3969308105118583,2,left
2.29,0.5541824479764473,0.847893569877724,0.20144237677899143,-1.5888319941448528,-0.05283735792157824,-0.09922497279063289,-0.5007681962620804,0.34655007720024905,1.407468977987927,2,left
2.292,0.5596308582690328,0.8498625770430264,0.20233339705474243,-1.583935686460117,-0.04558165237981216,-0.09252052890725795,-0.5001042562586215,0.35892671847051066,1.4179986816065875,2,left
2.293,0.5651082671524232,0.8518895963442409,0.20321078341563814,-1.5786067603445417,-0.03764914869551858,-0.08624132528378181,-0.4995009554640566,0.37121879106010774,1.4285172042215328,2,left
2.294,0.5706142942228745,0.8539692722761997,0.20407594132072004,-1.5728495341138378,-0.029017456848652666,-0.08038953911875212,-0.49896273306896594,0.38341887189545654,1.4390217216599943,2,left
2.298,0.5761485638646217,0.8560958580750336,0.20493032479529183,-1.5666682369064562,-0.019664731477431422,-0.07496696448138684,-0.49849398459405553,0.39551962412948616,1.4495093000868084,2,left
2.299,0.5817107037061613,0.8582632274733034,0.20577543135655607,-1.560066946725293,-0.009569755534899064,-0.06997502770544596,-0.49809905525119397,0.40751380455178476,1.459976893095883,2,left
2.303,0.5873003420318035,0.8604648896059306,0.2066127967034731,-1.5530495329745726,0.0012879782553350666,-0.0654148018240242,-0.49778223314792847,0.4193942704274858,1.4704213385592289,2,left
2.3040000000000003,0.5929171041729441,0.8626940067657659,0.2074439892188418,-1.5456196036145138,0.01292818826364199,-0.06128701999339989,-0.497547742334142,0.4311539857996425,1.4808393552636814,2,left
2.3080000000000003,0.5985606079344308,0.8649434146276046,0.20827060433424147,-1.537780456914826,0.025369727168246356,-0.05759208789160143,-0.49739973568972656,0.4427860272895298,1.4912275393653733,2,left
2.309,0.6042304581366795,0.8672056445032896,0.2090942588179806,-1.5295350377868828,0.03863050754966127,-0.05433009507859299,-0.49734228765237154,0.45428358942898917,1.501582360691959,2,left
2.312,0.6099262403699708,0.8694729471602277,0.20991658505927085,-1.520885898673238,0.05272742989916448,-0.05150082530622192,-0.4973793867848024,0.46563998955858327,1.5119001589225045,2,left
2.313,0.6156475140630935,0.871737317730628,0.21073922543250398,-1.5118351649719675,0.06767631307709576,-0.04910376576731393,-0.4975149281810534,0.47684867232496175,1.5221771396748873,2,left
2.3169999999999997,0.6213938049675345,0.8739905212564321,0.21156382682836622,-1.5023845049721583,0.08349182725910646,-0.0471381152745444,-0.49775270571161756,0.48790321381045315,1.5324093705304385,2,left
2.3169999999999997,0.6271645971548847,0.8762241184508666,0.21239203542741497,-1.4925351042757002,0.10018742941089201,-0.045602791360957205,-0.49809640410758976,0.4987973253274928,1.5425927770254606,2,left
2.322,0.6329593246206502,0.8784294913069535,0.21322549176413794,-1.4822876446793858,0.1177753013343832,-0.04449643629524299,-0.49854959088419903,0.5095248569100724,1.5527231386391362,2,left
2.323,0.638777362583477,0.8805978682413144,0.21406582609390445,-1.4716422874901693,0.13626629033085877,-0.04381742200612806,-0.4991157081044226,0.5200798005339544,1.5627960848072118,2,left
2.3280000000000003,0.6446180185677974,0.8827203485232935,0.21491465404650983,-1.4605986612452941,0.15566985252896776,-0.043563853911460136,-0.4997980639836754,0.530456293096934,1.5728070909907044,2,left
2.3280000000000003,0.6504805233620389,0.8847879258005285,0.21577357253561558,-1.449155853807849,0.17599399892821005,-0.043733573648809365,-0.5005998243368853,0.540648619189953,1.5827514748287226,2,left
2.335,0.6563640219523749,0.8867915105891984,0.21664415588924751,-1.4373124088071716,0.1972452442110153,-0.04432416070562981,-0.5015240038695871,0.5506512136893745,1.5926243924043273,2,left
2.335,0.6622675645396652,0.8887219516470595,0.2175279521661697,-1.4250663263923717,0.21942855837917835,-0.045332932948248396,-0.5025734573150017,0.5604586642002152,1.6024208346521804,2,left
2.3369999999999997,0.6681900977510702,0.8905700561871157,0.21842647962412576,-1.412415068266099,0.24254732127305165,-0.04675694605016353,-0.5037508704194121,0.5700657133796023,1.6121356239365439,2,left
2.3369999999999997,0.6741304561571612,0.8923266089179501,0.21934122330855363,-1.3993555669645272,0.26660328003455425,-0.04859299182134433,-0.5050587507784953,0.5794672611691796,1.6217634108279755,2,left
2.342,0.6800873542023331,0.8939823899130518,0.22027363173389192,-1.3858842393483728,0.29159650957773076,-0.050837595441422065,-0.5064994185276307,0.5886583669646238,1.6312986711068544,2,left
2.342,0.6860593786527867,0.895528191315886,0.22122511363383973,-1.3719970042685925,0.3175253761332792,-0.05348701160085758,-0.5080749968895747,0.5976342517498612,1.640735703021633,2,left
2.346,0.6920449816625842,0.896954832882072,0.22219703476279512,-1.3576893043692404,0.3443865039361533,-0.056537219555351785,-0.5097874025832619,0.6063903002229787,1.650068624829462,2,left
2.347,0.6980424745548519,0.8982531763506821,0.2231907147383977,-1.3429561319887726,0.372174745128035,-0.05998391709993926,-0.5116383360978771,0.6149220629402258,1.6592913726465675,2,left
2.351,0.7040500224124442,0.8994141386308309,0.22420742392267268,-1.3277920591198982,0.40088315294915683,-0.06382251347036746,-0.5136292718367275,0.6232252585038808,1.6683976986354758,2,left
2.351,0.7100656395690411,0.9004287037940839,0.22524838034412298,-1.3121912713868615,0.4305029582966274,-0.06804812118051443,-0.5157614481358387,0.6312957758191264,1.6773811695558896,2,left
2.356,0.7160871860857864,0.901287933880487,0.2263147466652738,-1.2961476059978214,0.4610235497290735,-0.07265554680573692,-0.5180358571717837,0.6391296764360592,1.6862351657014654,2,left
2.3569999999999998,0.7221123652885388,0.9019829785495124,0.22740762720243538,-1.2796545936287507,0.49243245700005167,-0.07763928072316537,-0.5204532348195954,0.6467231969504209,1.6949528802233034,2,left
2.358,0.7281387224272307,0.9025050836299575,0.2285280650096046,-1.2627055041940263,0.5247153382052956,-0.08299348582107369,-0.5230140506047138,0.6540727513605921,1.7035273188025764,2,left
