time,gFx,gFy,gFz,ax,ay,az,wx,wy,wz,subject_number,foot
5.504,-0.873647613887464,0.7305724383825326,-0.03000030416018217,3.252422117045275,3.3507252535516376,1.0495555273150208,0.31819846456747813,-0.36730091781809604,-2.8001095932224334,1,right
5.507000000000001,-0.8802099655506768,0.7203091358667992,-0.0317911341293042,3.1972861802221186,3.394321588209301,1.0532075422655718,0.3239794576448991,-0.3679859894568719,-2.7925515974826296,1,right
5.507999999999999,-0.8865472027419345,0.7099378219867092,-0.033547889425098704,3.1409130824733675,3.435991367879536,1.0563391776800155,0.3297718471629782,-0.368582866717559,-2.783743192075488,1,right
5.5120000000000005,-0.8926532374148127,0.6994683257906913,-0.03526738323865791,3.0833279420230695,3.4756625249126434,1.0589413192138357,0.33557637428610354,-0.36909751725995493,-2.7736661388157757,1,right
5.513,-0.8985221757855109,0.6889106802856892,-0.0369464873053861,3.0245566837256113,3.5132640245438065,1.0610054065073644,0.3413938579397883,-0.3695362424447058,-2.7623029060417963,1,right
5.513999999999999,-0.9041483282140894,0.6782751028135106,-0.03858213932301345,2.964626041537146,3.548726000801461,1.0625234753491615,0.3472251935287103,-0.3699056725055755,-2.749636705270704,1,right
5.517,-0.9095262196950198,0.6675719744611486,-0.04017135064850187,2.903563560644288,3.58197989168871,1.0634881990321594,0.35307135122868527,-0.37021276032999245,-2.7356515270468726,1,right
5.518,-0.9146506009663585,0.6568118186143465,-0.04171121424517443,2.8413975997714247,3.612958571297817,1.0638929280921765,0.35893337386928825,-0.3704647738491483,-2.7203321759506447,1,right
5.521,-0.919516460219887,0.6460052787914129,-0.043198912800356294,2.7781573337706003,3.6415964779803742,1.0637317281066232,0.3648123744238759,-0.37066928703872387,-2.7036643047310243,1,right
5.522,-0.9241190353712104,0.6351630959044251,-0.044631726892072,2.7138727563646174,3.66782973850533,1.0629994155017388,0.3707095331238076,-0.3708341695311425,-2.6856344475221197,1,right
5.527,-0.9284538268354153,0.624296085084055,-0.04600704306658999,2.6485746828648375,3.6915962882937357,1.0616915913695097,0.3766260942137077,-0.3709675748400886,-2.666230052099292,1,right
5.528,-0.9325166107538081,0.6134151121871002,-0.047322361687889766,2.582294752682067,3.7128359878123414,1.0598046732937925,0.3825633623646588,-0.3710779271978975,-2.6454395111270963,1,right
5.531000000000001,-0.9363034526204436,0.6025310701004649,-0.048575304419902834,2.5150654314459304,3.7314907352012683,1.0573359251835293,0.3885226987622724,-0.3711739070063073,-2.6232521923471928,1,right
5.532,-0.9398107212474425,0.591654854970696,-0.04976362121369053,2.4469200125452084,3.747504575203902,1.0542834851092904,0.39450551688663343,-0.37126443490097394,-2.599658467650466,1,right
5.537000000000001,-0.9430351029800267,0.5807973425179068,-0.050885196717513875,2.3778926178988096,3.760823804459898,1.0506463911377195,0.40051327800117964,-0.37135865443008514,-2.5746497409735962,1,right
5.537999999999999,-0.9459736160347462,0.5699693646220161,-0.05193805610095647,2.3080181977643157,3.77139707321477,1.046424605156785,0.4065474863676383,-0.371465913347369,-2.5482184749563235,1,right
5.542000000000001,-0.9486236247987451,0.5591816863843257,-0.05292037034671489,2.2373325293884077,3.7791754834919504,1.0416190346830625,0.41260968420420974,-0.3715957435197756,-2.5203582162916174,1,right
5.542999999999999,-0.9509828538976202,0.548444983863494,-0.053830461084397214,2.1658722143009506,3.7841126837654677,1.0362315526406072,0.4187014464042602,-0.37175783945012353,-2.491063619696879,1,right
5.547000000000001,-0.9530494018131485,0.5377698226658838,-0.05466680501863545,2.0936746740520893,3.786164960163518,1.0302650150992825,0.4248243750328626,-0.3719620354150394,-2.4603304704302427,1,right
5.547999999999999,-0.9548217538109329,0.5271666375438231,-0.05542803795871562,2.0207781441893657,3.785291324225174,1.0237232769587499,0.4309800936186014,-0.3722182812185849,-2.4281557052719256,1,right
5.551,-0.956298793926359,0.5166457131271013,-0.05611295841162019,1.947221666269657,3.781453597224318,1.0166112055626457,0.4371702412581481,-0.3725366165620572,-2.394537431886459,1,right
5.5520000000000005,-0.957479815758356,0.5062171658843283,-0.0567205306689161,1.8730450776986096,3.7746164910666096,1.0089346922258147,0.4433964665511973,-0.3729271440305715,-2.359474946477513,1,right
5.556,-0.9583645318328972,0.4958909273798799,-0.057249887302714,1.798288999188242,3.7647476857568916,1.0007006616558172,0.44966042138345375,-0.37340000069718293,-2.3229687496428717,1,right
5.556,-0.9589530813184722,0.4856767288584337,-0.057700330984780786,1.722994819621494,3.751817903425938,0.9919170792482916,0.45596375457545363,-0.37396532834548507,-2.285020560332992,1,right
5.561,-0.9592460359018101,0.4755840871558969,-0.058071335554646136,1.6472046781107186,3.735800978896831,0.9825929562341364,0.46230810541511225,-0.3746332423118273,-2.2456333278124103,1,right
5.562,-0.9592444036637952,0.4656222919072239,-0.058362546285404195,1.570961443035457,3.7166739267625544,0.9727383526548711,0.46869509709199486,-0.37541379894853244,-2.204811241519141,1,right
5.566,-0.9589496308339949,0.4558003939996741,-0.05857377932626656,1.4943086878432796,3.6944170049376024,0.9623643781409656,0.4751263300514226,-0.37631696170975953,-2.1625597387130435,1,right
5.567,-0.9583636013472299,0.4461271952041044,-0.058705020333089476,1.4172906633960667,3.669013774637542,0.9514831904663725,0.4816033752866427,-0.3773525658619533,-2.1188855098000308,1,right
5.571000000000001,-0.9574886341726905,0.4366112389075338,-0.05875642232378206,1.3399522666427917,3.6404511567315425,0.940107991850977,0.48812776758741416,-0.3785302818211432,-2.0737965012148525,1,right
5.572,-0.9563274784292501,0.4272608018679247,-0.05872830280908924,1.262339005398704,3.6087194844038892,0.9282530229811904,0.4947009987634874,-0.3798595771197073,-2.027301915741095,1,right
5.572,-0.9548833063339741,0.4180838869155511,-0.0586211402523711,1.1844969590097505,3.573812552051491,0.915933554717454,0.5013245108606013,-0.3813496770692119,-1.9794122101988583,1,right
5.5760000000000005,-0.9531597040471794,0.40908821653238003,-0.058435569908445055,1.1064727346801657,3.535727660335297,0.9031658774560081,0.507999689381818,-0.3830095245044067,-1.930139090706101,1,right
5.577000000000001,-0.9511606604772057,0.4002812272480332,-0.058172379085211535,1.0283134192403653,3.494465657294456,0.8899672881109029,0.5147278565182697,-0.38484773956641183,-1.8794955062188285,1,right
5.58,-0.9488905541087417,0.39167006479198063,-0.05783250187053334,0.9500665261316252,3.4500309754229352,0.8763560746808946,0.5215102643885963,-0.38687258080165887,-1.8274956413308796,1,right
5.581,-0.9463541379333534,0.38326157993486215,-0.057417013373840836,0.871779937496779,3.40243166459123,0.8623514983764861,0.5283480882914433,-0.389091908535568,-1.7741549090305135,1,right
5.582000000000001,-0.9435565225758036,0.3750623249453016,-0.05692712353733218,0.7935018418321588,3.3516794206468963,0.8479737733406321,0.5352424199844232,-0.3915131509079392,-1.7194899436038373,1,right
5.585,-0.9405031577107543,0.3670785505872346,-0.056364170570403486,0.715280668675232,3.297789609446892,0.83324404410254,0.5421942610080405,-0.39414327263950355,-1.6635185935916375,1,right
5.585,-0.9371998118687475,0.35931620357718225,-0.055729614066530486,0.6371650223686502,3.2407812860258485,0.8181843609623651,0.5492045160742253,-0.39698874653602734,-1.606259914646418,1,right
5.5889999999999995,-0.9336525507570789,0.3517809244040528,-0.055025027882190575,0.559203616375077,3.1806772086351307,0.8028176534440356,0.5562739865392852,-0.40005552773693803,-1.5477341621326468,1,right
5.59,-0.9298677142592503,0.34447804539753507,-0.05425209287504643,0.4814452085978399,3.117503847450166,0.787167701845335,0.563403363981245,-0.40334903071604333,-1.4879627833094606,1,right
5.593999999999999,-0.9258518923095383,0.3374125889308027,-0.05341258959424196,0.40393853759638554,3.051291387774368,0.7712591068539293,0.5705932239017173,-0.4068741090425291,-1.4269684089313786,1,right
5.595,-0.9216118998677065,0.33058926566319546,-0.05250839099504555,0.3267322594726768,2.982073727567033,0.7551172571852446,0.5778440195726127,-0.4106350379110583,-1.3647748440989487,1,right
5.6,-0.9171547512472232,0.32401247276495027,-0.05154145523416514,0.2498748852052606,2.909888469113816,0.7387682951972919,0.5851560760481718,-0.4146354994504433,-1.3014070581876658,1,right
5.601,-0.9124876340752746,0.31768629211262683,-0.05051381860362333,0.17341471820845356,2.834776904649632,0.7222390804367896,0.592529584362976,-0.41887857082102625,-1.2368911736799915,1,right
5.605,-0.9076178831774414,0.31161448849273554,-0.04942758867692424,0.09739979189495748,2.7567839957352294,0.7055571510702721,0.5999645959367649,-0.42336671511158047,-1.1712544537218612,1,right
5.606,-0.9025529546779458,0.3058005078945163,-0.048284937758888063,0.021877807021217735,2.675958346180146,0.6887506831532735,0.6074610172070681,-0.4281017750472316,-1.1045252882217023,1,right
5.611000000000001,-0.8973004005859886,0.30024747600520074,-0.04708809673736185,-0.053103931404021344,2.592352168296376,0.6718484476901633,0.6150186045108338,-0.43308496952059317,-1.0367331783066795,1,right
5.611000000000001,-0.8918678441035921,0.29495819704053156,-0.04583934942453649,-0.12749857786623217,2.5060212422588,0.6548797654367717,0.6226369592364108,-0.4383168929590125,-0.967908718947676,1,right
5.615,-0.8862629558468909,0.2899351530512336,-0.04454102745020723,-0.20125981096354348,2.4170248683403006,0.6378744593975848,0.6303155232674219,-0.4437975175415342,-0.8980835795613754,1,right
5.6160000000000005,-0.8804934311269028,0.2851805038441014,-0.04319550573732136,-0.27434189911240525,2.325425811781495,0.620862804969019,0.6380535747402348,-0.4495261982798962,-0.8272904823947634,1,right
5.621,-0.8745669683915621,0.28069608764459747,-0.041805198559947535,-0.3466997675540953,2.2312902400472203,0.6038754776800915,0.6458502241369177,-0.4555016809785893,-0.7555631784944036,1,right
5.621,-0.8684912488902671,0.2764834226067246,-0.040372556160277275,-0.4182890668738655,2.134687652214239,0.5869434984816998,0.653704410735736,-0.46172211308972266,-0.6829364210599678,1,right
5.625,-0.862273917586067,0.2725437092477396,-0.03890006188367744,-0.4890662432425756,2.0356908002271634,0.5700981765357076,0.6616148994414164,-0.46818505747915007,-0.6094459359787238,1,right
5.626,-0.8559225653091855,0.26887783385386377,-0.037390229774569614,-0.5589886105885843,1.9343756017523273,0.5533710494551027,0.6695802780175751,-0.4748875091210177,-0.5351283893350023,1,right
5.629,-0.8494447121197063,0.2654863728708806,-0.03584560255953286,-0.6280144249054608,1.8308210443522444,0.5367938209466538,0.6775989547438703,-0.48182591473859904,-0.46002135168608316,1,right
5.63,-0.8428477918280053,0.2623695982599422,-0.03426874993125865,-0.6961029608987485,1.725109080696428,0.5203982958077419,0.6856691565205991,-0.48899619540997674,-0.38416325889346115,1,right
5.6339999999999995,-0.8361391376085595,0.2595274837634508,-0.03266226704116511,-0.76321459117256,1.6173245145176922,0.504216312229382,0.6937889274436194,-0.4963937721578176,-0.3075933692960767,1,right
5.635,-0.8293259686348873,0.2569597119897866,-0.03102877310876426,-0.8293108681542077,1.5075548770166207,0.488279671357882,0.7019561278726292,-0.5040135945431642,-0.2303517170098334,1,right
5.638999999999999,-0.8224153776614584,0.25466568219467955,-0.029370910060967526,-0.8943546089523853,1.3958902934107085,0.472620064068106,0.7101684340066968,-0.5118501722093958,-0.15247906126201494,1,right
5.64,-0.8154143194850918,0.25264451862419707,-0.027691341126620958,-0.9583099833416103,1.2824233393187265,0.457268994901926,0.7184233379346732,-0.5198976089509898,-0.07401683229942187,1,right
5.64,-0.8083296002334739,0.2508950792954178,-0.02599274933057437,-1.021142605062727,1.1672488866651656,0.44225770312614693,0.7267181480447003,-0.5281496382124309,0.004992924454834507,1,right
5.645,-0.8011678674464908,0.24941596510836753,-0.02427783585026303,-1.0828196266262438,1.0504639387841748,0.4276170808649878,0.735049989630755,-0.5365996585510635,0.08450760369050613,1,right
5.645,-0.7939356009304663,0.24820552918994077,-0.022549318211619793,-1.1433098378021571,0.9321674543972399,0.4133775882630859,0.7434158055806989,-0.5452407679704665,0.16448409327391572,1,right
5.649,-0.7866391043721592,0.24726188637731028,-0.020809928312899316,-1.202583767976695,0.8124601601339443,0.3995691656359683,0.7518123571139598,-0.554065796701427,0.2448788245543822,1,right
5.65,-0.7792844976963362,0.2465829227678543,-0.01906241027420953,-1.2606137923051222,0.6914443516186203,0.38622114270418817,0.7602362245834922,-0.5630673383803396,0.32564782001524584,1,right
5.65,-0.7718777101400816,0.24616630528870592,-0.01730951811309158,-1.3173742403464899,0.5692236849317901,0.373362145699437,0.768683808366042,-0.5722377796498392,0.4067467384991508,1,right
5.655,-0.7644244740053282,0.2460094912607802,-0.01555401324283177,-1.3728415036309933,0.44590296347402375,0.3610200043759067,0.7771513298648303,-0.5815693282070036,0.4881309182384423,1,right
5.655,-0.7569303190403478,0.24610973794658342,-0.013798661782992567,-1.4269941373671629,0.32158792704651645,0.3492216616524574,0.7856348326488456,-0.5910540393249676,0.5697554179226118,1,right
5.659,-0.7494005673895989,0.24646411207942642,-0.012046231662643748,-1.479812952732338,0.1963850481687963,0.3379930879215881,0.7941301837530065,-0.6006838408742768,0.651575056035668,1,right
5.66,-0.7418403290448854,0.24706949937495465,-0.01029948949064468,-1.5312810984178986,0.0704013374280401,0.3273592008189668,0.8026330751635093,-0.6104505568707713,0.733544448697134,1,right
5.664,-0.7342544977370579,0.24792261402469298,-0.008561197170623817,-1.5813841313368011,-0.05625584213881066,0.31734379055787154,0.8111390255127252,-0.6203459295772282,0.8156180462410567,1,right
5.664,-0.726647747225759,0.24902000816692993,-0.006834108252503024,-1.6301100766451249,-0.18347895198957828,0.30796945079634214,0.8196433820080387,-0.6303616401864096,0.8977501687679778,1,right
5.669,-0.7190245279675997,0.25035808132497084,-0.00512096403268791,-1.6774494772254471,-0.311160446709708,0.2992575150065436,0.8281413226190475,-0.6404893281135547,0.9798950409052442,1,right
5.67,-0.7113890641634727,0.25193308979755863,-0.0034244894351114228,-1.723395432775954,-0.4391929346970781,0.2912279983176184,0.8366278585475481,-0.6507206089267271,1.0620068260113351,1,right
5.672999999999999,-0.7037453511995221,0.25374115598071406,-0.0017473887203646346,-1.7679436286452452,-0.5674693312640083,0.2838995448051448,0.8450978370047257,-0.6610470909437689,1.1440396600600509,1,right
5.6739999999999995,-0.6960971535034481,0.2557782775952376,-9.234107743333474e-05,-1.8110923545488105,-0.6958830045230291,0.2772893802022156,0.853545944319955,-0.6714603905249393,1.2259476854404454,1,right
5.678999999999999,-0.6884480028401008,0.2580403367919945,0.0015380038475322408,-1.8528425132991595,-0.8243279144239856,0.2714132700091127,0.861966709405573,-0.6819521460906116,1.307685084908289,1,right
5.678999999999999,-0.6808011970700409,0.26052310910875737,0.003141030435536974,-1.8931976196775766,-0.9526987453107492,0.2662854829805596,0.8703545076019508,-0.6925140308936745,1.3892061159246185,1,right
5.683,-0.6731597993940645,0.26322227225672223,0.004714161548250578,-1.932163789571454,-1.0808910323662084,0.26191875997159864,0.878703564927118,-0.7031377645765354,1.47046514561658,1,right
5.684,-0.665526638105655,0.26613341472101015,0.006254862912173178,-1.9697497194971547,-1.2088012823142975,0.25832428812524183,0.887007962755121,-0.7138151235428482,1.5514166865952745,1,right
5.688,-0.657904306870783,0.26925204416648074,0.007760647398565163,-2.005966656624339,-1.3363270887476155,0.25551168038719263,0.8952616429471955,-0.7245379501742866,1.632015433864694,1,right
5.689,-0.6502951655509841,0.2725735956460229,0.009229079166408263,-2.040828359413722,-1.463367242448674,0.253488960335118,0.903458413459728,-0.7352981609228684,1.712216303055086,1,right
5.693,-0.6427013415826404,0.27609343961226085,0.010657777637591601,-2.0743510489762556,-1.5898218370720059,0.2522625523121657,0.911591954452848,-0.7460877533094831,1.7919744702132059,1,right
5.694,-0.6351247319231106,0.2798068897360041,0.012044421275992812,-2.106553351257802,-1.7155923705532616,0.25183727685666446,0.9196558249233473,-0.756898811859411,1.8712454133808907,1,right
5.699,-0.6275670055726515,0.2837092105359606,0.013386751144791044,-2.1374562301494935,-1.8405818426100369,0.2522163514222089,0.9276434698854624,-0.7677235130057269,1.9499849561922606,1,right
5.699,-0.6200296066796438,0.2877956248235345,0.014682574218622704,-2.167082911620111,-1.9646948486974831,0.2534013963846181,0.9355482281228703,-0.778554128991567,2.028149313718571,1,right
5.702999999999999,-0.6125137582346727,0.2920613209638541,0.01592976642973174,-2.195458798963038,-2.087837670779801,0.2553924463345523,0.9433633405350477,-0.7893830308022991,2.1056951407883493,1,right
5.704,-0.6050204663558222,0.29650145995072413,0.017126275431497785,-2.222611379246612,-2.2099183652764696,0.25818796665688,0.951081959100929,-0.8002026901586791,2.182579583008915,1,right
5.707000000000001,-0.5975505251631438,0.30111118229074896,0.018270123068292395,-2.2485701210530475,-2.3308468485395566,0.2617848754001999,0.9586971564681934,-0.8110056806117221,2.2587603305784287,1,right
5.707999999999999,-0.5901045222351089,0.30588561469166564,0.019359407545613726,-2.2733663635874946,-2.4505349802156684,0.26617857044223475,0.9662019361044658,-0.821784677828209,2.334195674299285,1,right
5.707999999999999,-0.5826828446346798,0.31081987655135557,0.020392305298586634,-2.297033197235307,-2.5688966448430466,0.27136296195912035,0.9735892428171995,-0.8325324592424478,2.408844561983966,1,right
5.712000000000001,-0.5752856854886823,0.315909086244468,0.021367072561755494,-2.319605335642157,-2.685847832031018,0.27733051020891375,0.9808519733769206,-0.8432419032980517,2.482666652765914,1,right
5.712000000000001,-0.5679130511017836,0.3211483672018463,0.022282046649430974,-2.3411189793882965,-2.801306715565451,0.2840722686419287,0.987982987049989,-0.8539059884552405,2.5556223675023904,1,right
5.7170000000000005,-0.5605647685846514,0.3265328537761599,0.023135646962899048,-2.3616116713250377,-2.9151937317800503,0.2915779323527757,0.9949751159759281,-0.8645177920523471,2.6276729346718115,1,right
5.718999999999999,-0.5532404939742068,0.33205769688767267,0.0239263757471062,-2.3811221438350576,-3.02743165738747,0.299835891780819,1.001821175395813,-0.8750704890619186,2.69878043184224,1,right
5.718999999999999,-0.5459397208221859,0.3377180694474136,0.024652818622800426,-2.3996901592585695,-3.137945686250883,0.3088332910159252,1.0085139737521858,-0.88555735077203,2.7689078229205295,1,right
5.722,-0.5386617892255238,0.343509171560226,0.0253136449194331,-2.4173563464947034,-3.246663503295772,0.31855608907486477,1.0150463226805702,-0.8959717434232823,2.8380189913890277,1,right
5.723,-0.5314058952671719,0.349426235514776,0.025907607832465106,-2.434162037768076,-3.3535153530479396,0.3289891219638264,1.0214110469122364,-0.9063071268317843,2.9060787697340222,1,right
5.726,-0.5241711008299914,0.3554645305700525,0.026433544428922286,-2.450149108564367,-3.458434100987845,0.3401161638966868,1.0276009941074287,-0.916557053028231,2.9730529652673185,1,right
5.727,-0.5169563437415856,0.3616193675498126,0.026890375524246328,-2.4653598219658956,-3.5613552871825416,0.35191998703446264,1.0336090446378028,-0.9267151649429816,3.0389083825394043,1,right
5.733,-0.5097604482039805,0.36788610325958165,0.027277105448591337,-2.4798366776322576,-3.6622171723602146,0.36438241966546997,1.0394281213363454,-0.9367751951668133,3.1036128425396483,1,right
5.734,-0.5025821354571118,0.3742601447443568,0.02759282171390924,-2.4936222654720437,-3.760960776728592,0.3774844028581185,1.0450511992325406,-0.9467309648167839,3.167135198875861,1,right
5.739,-0.49542003461916884,0.38073695340769786,0.02783669458745228,-2.506759124049424,-3.8575299118327497,0.391206045620212,1.0504713152900282,-0.9565763825363702,3.22944535112233,1,right
5.74,-0.48827269364104503,0.3873120490147792,0.02800797657308446,-2.5192896037672754,-3.95187120574194,0.40552667860051356,1.055681578163454,-0.9663054436587705,3.2905142555221474,1,right
5.7410000000000005,-0.4811385903068342,0.39398101360425075,0.02810600179913903,-2.531255734866554,-4.043934121848981,0.42042490637017293,1.0606751779906534,-0.975912229561955,3.3503139332262406,1,right
5.7410000000000005,-0.47401614320823837,0.4007394953360537,0.02813018531088174,-2.5426991002797354,-4.133670971559515,0.4358786583233887,1.0654453962357207,-0.9853909072437376,3.408817476248048,1,right
5.746,-0.4669037226196956,0.40758321230335737,0.02808002226664297,-2.55366071337441,-4.221036921142048,0.4518652382383989,1.0699856155979206,-0.9947357291448032,3.4659990513092134,1,right
5.746,-0.4597996612035686,0.4145079563360212,0.027955087038909178,-2.564180900621508,-4.305989993003121,0.4683613725415526,1.07428933000077,-1.0039410332472782,3.5218339017480282,1,right
5.751,-0.45270226447871065,0.4215095968210289,0.027755032224041763,-2.5742991892211013,-4.3884910616453325,0.4853432573188052,1.078350154674981,-1.0130012434760578,3.576298347658635,1,right
5.752000000000001,-0.4456098209890164,0.4285840845624632,0.027479587565411516,-2.584054199717372,-4.4685038445590815,0.5027866041205158,1.0821618363482917,-1.0219108704297266,3.629369784425203,1,right
5.756,-0.4385206121115301,0.43572745569908017,0.027128558794849555,-2.593483543633045,-4.545994888292,0.5206666846068821,1.0857182635545386,-1.0306645124675033,3.681026679811424,1,right
5.757000000000001,-0.4314329214479211,0.4429358356907973,0.02670182639711823,-2.6026237261524403,-4.620933549933005,0.5389583740827457,1.0890134770736184,-1.039256857178225,3.7312485697617404,1,right
5.761,-0.4243450437493374,0.4502054433771435,0.026199344301027022,-2.6115100538812506,-4.69329197424074,0.5576361939718247,1.092041680513278,-1.0476826832569555,3.780016053066722,1,right
5.7620000000000005,-0.4172552933320752,0.45753259510252603,0.025621138499075508,-2.620176547710202,-4.763045066638974,0.5766743532816845,1.0947972510429371,-1.055936862814351,3.8273107850409414,1,right
5.767,-0.4101620119495032,0.4649137088959326,0.024967305596435244,-2.6286558608089443,-4.830170462294155,0.5960467891119373,1.097274750288997,-1.064014364143459,3.8731154703575816,1,right
5.767,-0.40306357609426013,0.47234530868624747,0.02423801128964054,-2.6369792017757616,-4.894648491482936,0.6157272062592746,1.0994689354003204,-1.071910254968141,3.917413855179831,1,right
5.771,-0.3959584037136194,0.47982402852885014,0.023433488774494304,-2.6451762629680737,-4.9564621414500225,0.6356891159739644,1.1013747702917895,-1.079619706196822,3.9601907187248977,1,right
5.772,-0.38884496032993854,0.487346616814781,0.02255403708132906,-2.6532751540381563,-5.015597014949104,0.6559058739234106,1.102987437073048,-1.08713799620476,4.001431864392185,1,right
5.776,-0.3817217645670196,0.49490994043082137,0.021600019334172937,-2.6613023406980525,-5.072041285652088,0.6763507174192537,1.1043023476556408,-1.094460515644293,4.041124110560936,1,right
5.777,-0.3745873930896671,0.502510988839916,0.02057186092850274,-2.6692825887372833,-5.125785650604167,0.6969968019652999,1.105315155465568,-1.1015827726659093,4.079255281048634,1,right
5.778,-0.3674404849671821,0.510146878056944,0.019470047620726873,-2.677238913316679,-5.176823279894567,0.7178172371842995,1.1060217670697412,-1.1085003982234989,4.115814195019694,1,right
5.781000000000001,-0.3602797454783684,0.5178148544975814,0.018295123522039602,-2.6851925335614526,-5.225149763705122,0.7387851221822485,1.106418353458604,-1.1152091510205064,4.150790656019923,1,right
5.781000000000001,-0.3531039493910383,0.5255122986722393,0.017047688989591445,-2.6931628324764763,-5.27076305689104,0.7598735804094666,1.1065013607916834,-1.1217049217692094,4.184175439917336,1,right
5.785,-0.3459119437658945,0.5332367286893015,0.01572839840896136,-2.7011673221818073,-5.313663421262057,0.7810557940573464,1.1062675205296437,-1.1279837366436907,4.215960281722789,1,right
5.7860000000000005,-0.3387026503400226,0.5409858035318711,0.014337957864112395,-2.7092216143421135,-5.353853365832364,0.8023050379257974,1.1057138589408986,-1.1340417599225552,4.246137861368944,1,right
5.787000000000001,-0.3314750675384121,0.5487573260797322,0.012877122694148355,-2.717339395439859,-5.391337585494176,0.8235947125090308,1.1048377059830108,-1.1398752958400438,4.274701788543461,1,right
5.79,-0.3242282721590068,0.556549245852842,0.011346694939587015,-2.725532406417853,-5.4261228986700125,0.8448983759432995,1.1036367035582035,-1.145480789663571,4.301646586667707,1,right
5.79,-0.31696142078812634,0.5643596614472697,0.00974752068435991,-2.7338104263412486,-5.458218184383006,0.8661897745647015,1.1021088131413863,-1.150854828015083,4.3269676761076745,1,right
5.795,-0.3096737510180769,0.5721868226245801,0.008080487304151831,-2.7421812599531115,-5.487634318982473,0.8874428720129951,1.1002523227781742,-1.1559941384529853,4.3506613566991295,1,right
5.796,-0.3023645825450921,0.5800291320097357,0.006346520637692245,-2.7506507291222437,-5.514384112646293,0.9086318769217112,1.0980658534494454,-1.1608955883307388,4.372724789664407,1,right
5.801,-0.2950333182251357,0.5878851463511353,0.004546582103733383,-2.7592226682070575,-5.538482245752319,0.929731269255671,1.0955483647980424,-1.1655561829475527,4.39315597899357,1,right
5.801,-0.2876794451628261,0.5957535772958465,0.0026816657899401326,-2.767898923359564,-5.55994520520335,0.950715825356907,1.0926991602122837,-1.1699730630059322,4.411953752358009,1,right
5.805,-0.28030253590604454,0.6036332916324558,0.0007527955400702386,-2.776679355793813,-5.578791220782537,0.9715606417598053,1.0895178912600008,-1.1741435013901542,4.42911774161984,1,right
5.806,-0.27290224981633854,0.6115233109548522,-0.0012389779351246585,-2.7855618490434058,-5.595040201608494,0.9922411578360235,1.0860045614658662,-1.1780648992790548,4.444648362995805,1,right
5.81,-0.2654783346839517,0.619422810703836,-0.003292579897678675,-2.7945423202330177,-5.608713672751811,1.0127331773294184,1.0821595294238293,-1.1817347816058101,4.458546796929677,1,right
5.81,-0.25803062865526477,0.627331118549762,-0.005406914346429273,-2.8036147353891447,-5.619834712067138,1.033012888840809,1.077983511235518,-1.1851507918766877,4.470814967722467,1,right
5.816,-0.2505590625370412,0.6352477120881495,-0.007580866678503493,-2.812771128815574,-5.6284278872875815,1.053056885321934,1.0734775822645177,-1.188310686360025,4.4814555229650574,1,right
5.817,-0.24306366253443198,0.6431722158300934,-0.009813306220971893,-2.822001626559376,-5.634519193420741,1.072842182637419,1.068643178195479,-1.1912123276559752,4.490471812813196,1,right
5.82,-0.2355445534688441,0.6511043974797799,-0.012103088603968162,-2.831294473993462,-5.6381359904783706,1.092346237252963,1.0634820953860655,-1.1938536776568256,4.497867869140093,1,right
5.821000000000001,-0.22800196250948232,0.6590441635037475,-0.014449057946191536,-2.8406360675419786,-5.639306941564432,1.111546963107274,1.0579964904987935,-1.1962327899069665,4.503648384597198,1,right
5.8260000000000005,-0.22043622344069386,0.6669915540109858,-0.016850048826175273,-2.850010990575045,-5.6380619513390755,1.1304227477245443,1.0521888793988854,-1.1983478013708357,4.507818691609067,1,right
5.8260000000000005,-0.2128477814772697,0.6749467369765647,-0.019304888016801237,-2.859402053499491,-5.634432104869009,1.1489524676234477,1.0460621353033124,-1.2001969236164287,4.510384741323577,1,right
5.829,-0.20523719863090778,0.6829100018517668,-0.021812395964800148,-2.8687903380723987,-5.628449606867686,1.1671155030777691,1.0396194861652732,-1.2017784334211996,4.511353082534104,1,right
5.83,-0.19760515962232603,0.6908817526111676,-0.02437138800205917,-2.878155245964347,-5.620147721321799,1.1848917522828495,1.0328645112774328,-1.2030906628064282,4.510730840585662,1,right
5.834,-0.18995247832575154,0.698862500292998,-0.026980675281588807,-2.887474551599295,-5.6095607114937245,1.2022616449810282,1.0258011370763251,-1.2041319885053599,4.5085256962723825,1,right
5.835,-0.18228010472604222,0.7068528550930939,-0.029639065436511763,-2.8967244592980217,-5.596723780282799,1.2192061555982212,1.0184336321294223,-1.2049008208696579,4.50474586472913,1,right
5.8389999999999995,-0.1745891323622942,0.7148535180739257,-0.03234536296386114,-2.9058796647519927,-5.581673010921655,1.2357068159426576,1.0107666012854708,-1.2053955922179374,4.4994000743154965,1,right
5.84,-0.16688080622481213,0.7228652725484632,-0.035098369335689814,-2.9149134208543592,-5.56444530797727,1.2517457275156307,1.0028049789678153,-1.2056147446293641,4.4924975454858425,1,right
5.845,-0.15915653106650907,0.7308889751944528,-0.03789688283937524,-2.923797607914617,-5.545078338619952,1.2673055734829037,0.9945540216052446,-1.2055567172084782,4.484047969663045,1,right
5.846,-0.151417880087868,0.73892554694829,-0.04073969814916863,-2.9325028082831626,-5.523610474117069,1.2823696303541336,0.9860192992725019,-1.2052199329663673,4.47406148827158,1,right
5.848,-0.14366660395549102,0.7469759637208078,-0.043625605632369904,-2.940998385411645,-5.500080731502153,1.29692177941635,0.9772066867529804,-1.2046027856780888,4.462548672337533,1,right
5.849,-0.1359046401117118,0.7550412469738498,-0.04655339039535103,-2.949252567374563,-5.474528715363792,1.3109465179661508,0.9681223543137635,-1.2037036271951973,4.449520503201179,1,right
5.849,-0.12813412232298751,0.7631224541975329,-0.0495218310769855,-2.9572325348770536,-5.446994559692741,1.324428970383859,0.9587727584038845,-1.202520755571679,4.434988354740858,1,right
5.854,-0.12035739040138478,0.7712206693299369,-0.05252969839978306,-2.964904513773211,-5.41751886971974,1.337354899091408,0.9491646323446606,-1.201052404145224,4.418963977246071,1,right
5.855,-0.1125770000220365,0.7793369931605366,-0.05557575349105161,-2.972233872001675,-5.38614266371086,1.3497107154084726,0.9393049770017076,-1.1992967315952008,4.401459482930893,1,right
5.856,-0.1047957325544861,0.7874725337560474,-0.05865874598685307,-2.9791852202599602,-5.352907314882289,1.361483490191091,0.9292010514117928,-1.1972518129739347,4.382487333045956,1,right
5.86,-0.09701660482702087,0.7956283969436732,-0.061777411930730886,-2.985722514686012,-5.3178544939522245,1.3726609639037464,0.9188603633369387,-1.194915631707063,4.362060326543031,1,right
5.861000000000001,-0.08924287873928842,0.8038056768833481,-0.06493047147796333,-2.9918091592300264,-5.281026113042845,1.3832315556455261,0.9082906597174695,-1.1922860725579218,4.340191590241919,1,right
5.865,-0.081478070620359,0.8120054467579425,-0.06811662641526946,-2.9974081059829505,-5.242464271439248,1.3931843707780174,0.8974999169949897,-1.1893609155500853,4.316894570445197,1,right
5.8660000000000005,-0.07372596020517781,0.8202287496073933,-0.07133455750621656,-3.002481952778975,-5.202211203345632,1.4025092070325702,0.8864963312756061,-1.1861378308413417,4.292183025942155,1,right
5.87,-0.06599059908493785,0.8284765893282305,-0.07458292167467903,-3.0069930379725354,-5.160309227573196,1.4111965591015274,0.8752883083030475,-1.182614374541548,4.266071022339129,1,right
5.871,-0.05827631847796189,0.8367499218545419,-0.07786034904299477,-3.0109035324058167,-5.11680069904904,1.419237621741993,0.8638844532106981,-1.1787879854659538,4.2385729276493445,1,right
5.872999999999999,-0.05058773616402513,0.8450496465316323,-0.0811654398473738,-3.014175528581263,-5.071727962030539,1.426624291418905,0.8522935600209552,-1.1746559828147292,4.209703409071295,1,right
5.874,-0.04292976242617127,0.8533765976900165,-0.08449676125907686,-3.0167711270519657,-5.025133304904905,1.4333491665123488,0.8405246008597311,-1.1702155647685721,4.179477430880689,1,right
5.879,-0.03530760485102218,0.8617315364240257,-0.08785284414471839,-3.0186525200410843,-4.977058916449035,1.4394055461121968,0.8285867148533554,-1.1654638079893958,4.147910253356995,1,right
5.879,-0.027726771852834557,0.8701151425754984,-0.0912321798024633,-3.019782072299617,-4.927546843420259,1.4447874274212762,0.8164891966746053,-1.1603976680142187,4.115017432661687,1,right
5.882999999999999,-0.020193074807653033,0.8785280069193693,-0.09463321671281981,-3.0201223992098956,-4.876638949344227,1.4494895017863691,0.8042414847040679,-1.1550139805294948,4.080814821581378,1,right
5.8839999999999995,-0.012712628707555497,0.8869706235456626,-0.09805435734304012,-3.019636442140129,-4.824376874361916,1.453507149374431,0.7918531487725653,-1.1493094635122303,4.045318571045212,1,right
5.888999999999999,-0.005291851267566828,0.8954433824319643,-0.10149395504289646,-3.0182875410531627,-4.770801995993608,1.4568364325094778,0.7793338774499059,-1.1432807202233237,4.008545132322039,1,right
5.89,0.0020625395603932934,0.9039465622011101,-0.10495031106702314,-3.0160395043703425,-4.7159553906736935,1.4594740876836374,0.7666934648448018,-1.1369242430376554,3.9705112597991636,1,right
5.893,0.009343529691096714,0.9124803230594373,-0.10842167175486674,-3.0128566760890223,-4.659877795906255,1.4614175162539,0.7539417968803811,-1.1302364180945328,3.9312340142407227,1,right
5.894,0.016543814633389244,0.9210446999113105,-0.11190622589329798,-3.008704000149751,-4.602609572887598,1.4626647738341232,0.7410888370093547,-1.1232135307511661,3.890730766420098,1,right
5.899,0.023655806832824828,0.9296395956461232,-0.11540210227947748,-3.0035470820466084,-4.5441906694382705,1.463214558389866,0.7281446113325458,-1.1158517718209053,3.8490192010171302,1,right
5.9,0.030671644608555013,0.9382647745942407,-0.11890736749343184,-2.99735224767147,-4.484660583083568,1.4630661970416268,0.7151191930841693,-1.1081472445770169,3.8061173206673424,1,right
5.904,0.03758320265266067,0.9469198561479367,-0.12242002388321395,-2.990086599380199,-4.424058324118074,1.4622196315800704,0.7020226864469613,-1.100095972501818,3.762043450046858,1,right
5.904,0.044382104050912724,0.9556043085424448,-0.1259380077641979,-2.981718069265872,-4.362422378486516,1.4606754026948172,0.6888652096599958,-1.0916939077600123,3.7168162398732245,1,right
5.907,0.05105973377629256,0.9643174427913218,-0.1294591878398403,-2.9722154696211813,-4.2997906703099975,1.4584346329163693,0.6756568773817894,-1.0829369403740843,3.6704546706989363,1,right
5.9079999999999995,0.057607253600027615,0.9730584067705146,-0.13298136386222242,-2.961548540569067,-4.2362005238835945,1.455499008268746,0.6624077822710962,-1.0738209080786159,3.622978056371078,1,right
5.912999999999999,0.06401561835766081,0.9818261794490001,-0.1365022655632342,-2.9496879948374723,-4.171688624968349,1.4518707586283937,0.6491279757476135,-1.0643416068293776,3.574406047027217,1,right
5.914,0.07027559349945083,0.9906195652715846,-0.14001955189762685,-2.936605559650856,-4.106290981197795,1.4475526367829314,0.6358274479323877,-1.0544948019527314,3.5247586315397736,1,right
5.915,0.07637777385131898,0.9994371887092832,-0.14353081064324258,-2.922274015707759,-4.04004288141643,1.4425478961813103,0.6225161069561334,-1.044276239973353,3.4740561395448033,1,right
5.917999999999999,0.08231260351702446,1.0082774890020918,-0.14703355840055707,-2.9066672332102894,-3.972978853764889,1.4368602673649686,0.609203758162977,-1.0336816612535482,3.4223192435964065,1,right
5.919,0.08807039684970376,1.017138715128184,-0.15052524102881765,-2.8897602049078888,-3.9051326223240084,1.4304939330675808,0.5959000839256182,-1.0227068136298847,3.3695689622117917,1,right
5.9239999999999995,0.09364136039997997,1.026018921043347,-0.15400323455364479,-2.871529076114148,-3.836537062127566,1.4234535019690346,0.5826146245993266,-1.0113474671782872,3.315826664342082,1,right
5.9239999999999995,0.09901561572404317,1.0349159612424068,-0.1574648465772233,-2.8519511717589636,-3.767224152499078,1.4157439811456813,0.5693567608028076,-0.9995994301413597,3.261114075392565,1,right
5.926,0.1041832229320315,1.043827486696736,-0.16090731821418855,-2.8310050210704603,-3.697224929405743,1.4073707475488262,0.5561356970254492,-0.9874585659970978,3.2054532846862758,1,right
5.9270000000000005,0.1091342048744823,1.0527509412186993,-0.1643278265664204,-2.8086703814418996,-3.626569438852345,1.39833951936687,0.5429604465228032,-0.9749208116363499,3.148866754216575,1,right
5.9270000000000005,0.11385857187781573,1.061683558300553,-0.16772348773943854,-2.7849282635707873,-3.5552866940757806,1.3886563284164628,0.5298398174622359,-0.9619821966152683,3.0913773285315913,1,right
5.932,0.11834634693305159,1.0706223584754806,-0.17109136039112516,-2.7597609594175925,-3.4834046385589756,1.3783274944142478,0.5167824002807854,-0.948638863447866,3.0330082455906817,1,right
5.933,0.12258759122980693,1.0795641472483153,-0.17442844979039288,-2.7331520735629304,-3.4109501155492086,1.367359601453519,0.5037965562173968,-0.9348870889026503,2.973783148430394,1,right
5.937,0.12657242992865397,1.0885055136384385,-0.17773171234992885,-2.7050865580021477,-3.337948844024101,1.3557594767163563,0.4908904069818613,-0.9207233062661593,2.9137260974748345,1,right
5.938,0.1302910780775918,1.0974428293678413,-0.18099806058532733,-2.6755507503049656,-3.2644254008988356,1.3435341713915867,0.4780718255229662,-0.9061441285350577,2.8528615833228157,1,right
5.942,0.13373386659288533,1.1063722487167906,-0.18422436844808135,-2.644532415063715,-3.1904032092665178,1.3306909437670744,0.46534842785856906,-0.8911463724972819,2.791214539841693,1,right
5.943,0.13689126823503225,1.1152897090616303,-0.18740747698683188,-2.612020788549507,-3.115904532462018,1.3172372444630334,0.45272756593053765,-0.8757270836615367,2.7288103573954205,1,right
5.947,0.1397539235150972,1.1241909321065133,-0.19054420030941688,-2.5780066264914656,-3.0409504737381368,1.3031807037712553,0.4402163214477457,-0.8598835619932548,2.665674896032022,1,right
5.9479999999999995,0.142312666467265,1.1330714258220285,-0.19363133184247652,-2.5424822548898893,-2.9655609813414876,1.2885291210633767,0.427821500680592,-0.8436133884139291,2.6018344984534494,1,right
5.9510000000000005,0.14455855022582337,1.1419264871045525,-0.19666565090777988,-2.505441623769926,-2.889754858774133,1.2732904562295517,0.4155496301707995,-0.8269144520195167,2.537316002588603,1,right
5.952000000000001,0.1464828723532397,1.150751205168406,-0.19964392964720892,-2.4668803637780328,-2.8135497800256917,1.2574728231071652,0.4034069533205688,-0.8097849779723931,2.4721467535882087,1,right
5.956,0.14807719988022364,1.1595404656798818,-0.2025629403300846,-2.4267958455191527,-2.7369623095593862,1.2410844848575158,0.3913994278254925,-0.7922235560201141,2.406354615058205,1,right
5.957000000000001,0.14933339403537357,1.1682889556402918,-0.20541946307211997,-2.385187241528194,-2.6600079268342904,1.224133851246707,0.3795327239159901,-0.7742291695930096,2.339967979346357,1,right
5.961,0.1502436346586819,1.1769911690246158,-0.20821029398721633,-2.3420555907650265,-2.5827010551449052,1.206629477785328,0.36781222337239455,-0.755801225431397,2.2730157766949435,1,right
5.962000000000001,0.1508004443087849,1.1856414131809745,-0.2109322537805668,-2.297403865517845,-2.5050550945580796,1.188580066679856,0.356243019279207,-0.7369395836919647,2.2055274830705787,1,right
5.966,0.15099671208667556,1.1942338159909263,-0.21358219677662366,-2.2512370405953677,-2.4270824587262303,1.1699944695471143,0.3448299164844418,-0.7176445884816292,2.137533126480514,1,right
5.966,0.1508257172055714,1.2027623337808007,-0.21615702036250167,-2.2035621646839734,-2.348794615354814,1.1508816918415097,0.3335774327304033,-0.6979170987659281,2.069063291583152,1,right
5.971,0.15028115233566877,1.2112207599633251,-0.21865367481343254,-2.1543884337415147,-2.2702021301010253,1.1312508989432226,0.3224898004226693,-0.6777585195977645,2.00014912239896,1,right
5.972,0.14935714674475242,1.2196027343813798,-0.22106917344631974,-2.1037272662951985,-2.191314713679741,1.1111114238539768,0.3115709690045035,-0.6571708336110768,1.9308223229265151,1,right
5.976,0.14804828924392643,1.2279017533245502,-0.2234006030234051,-2.0515923805065928,-2.112141271951838,1.0904727764455002,0.300824607904382,-0.636156632722763,1.8611151554670629,1,right
5.977,0.14634965093289987,1.2361111801954563,-0.22564513430939012,-1.9979998728625268,-2.0326899587691374,1.0693446542043081,0.2902541100247892,-0.6147191499849559,1.7910604364596732,1,right
5.982,0.14425680772086175,1.2442242568166717,-0.22780003267727292,-1.942968298346373,-1.9529682313493577,1.047736954414967,0.27986259573989714,-0.5928622914940777,1.7206915296854546,1,right
5.983,0.14176586258107135,1.2522341153865648,-0.22986266866540506,-1.8865187519399784,-1.872982907953663,1.025659787722576,0.26965291736509617,-0.5705906680897179,1.6500423369858839,1,right
5.984,0.13887346748270404,1.2601337911059205,-0.2318305284159312,-1.8286749513023297,-1.7927402276385738,1.0031234930137891,0.2596276640525992,-0.5479096262652755,1.5791472871571743,1,right
5.986000000000001,0.13557684491947442,1.2679162355018343,-0.23370122397016097,-1.7694633204669035,-1.7122459118532365,0.98013865355433,0.24978916706271576,-0.5248252775389352,1.5080413239694026,1,right
5.986000000000001,0.13187380890114161,1.2755743304719755,-0.23547250345274617,-1.7089130743955894,-1.6315052276522892,0.9567161143195941,0.24013950536605327,-0.5013445257045246,1.4367598939706119,1,right
5.9910000000000005,0.1277627851945536,1.2831009030647453,-0.2371422612350127,-1.6470563040751922,-1.550523052310831,0.9328670004323549,0.23068051154168276,-0.477475091690514,1.3653389342175444,1,right
5.992999999999999,0.12324283053362325,1.2904887410045833,-0.2387085482072589,-1.5839280610991777,-1.4693039392123424,0.9086027365139334,0.22141377794198244,-0.45322553592642595,1.2938148597863504,1,right
5.992999999999999,0.11831365048741667,1.2977306089711602,-0.24016958229315244,-1.5195664393425403,-1.3878521850327954,0.8839350665624945,0.21234066309644292,-0.42860527814921745,1.2222245508585798,1,right
5.996,0.11297561564435744,1.3048192656457425,-0.24152375931540124,-1.4540126505945143,-1.3061718983285673,0.8588760738645503,0.20346229832726329,-0.40362461458108256,1.1506053391773607,1,right
5.997000000000001,0.10722977570978053,1.3117474815442471,-0.24276966427552435,-1.3873110917496159,-1.2242670695500253,0.8334382005509122,0.19477959455012075,-0.3782947324090331,1.078994993668372,1,right
6.0,0.1010778710860135,1.3185080576618822,-0.2439060830249443,-1.319509402484912,-1.1421416423488695,0.8076342665986261,0.18629324923405177,-0.3526277214955529,1.0074317050200354,1,right
6.001,0.09452234157628932,1.3250938449555407,-0.24493201417759652,-1.250658513087412,-1.059799585961613,0.7814774881856588,0.1780037534949404,-0.32663658324858597,0.935954069017262,1,right
6.005,0.08756633200717735,1.331497764683761,-0.24584668095783985,-1.1808126822400653,-0.977244968433916,0.7549814953252846,0.16991139929767363,-0.3003352365781194,0.8646010684231203,1,right
6.006,0.08021369474631768,1.3377128296083407,-0.24664954248797263,-1.110029524571705,-0.8944820304498572,0.7281603487060749,0.16201628674258484,-0.27373852086565365,0.7934120532029251,1,right
6.01,0.07246898928377762,1.343732166034209,-0.2473403038071006,-1.0383700277732562,-0.8115152595296058,0.7010285556623772,0.15431833141237325,-0.24686219587192576,0.722426718885494,1,right
6.011,0.06433747925789274,1.3495490366157032,-0.24791892373790175,-0.965898559079692,-0.7283494643583449,0.6736010851991996,0.1468172717562516,-0.21972293850735988,0.6516850828566823,1,right
6.016,0.0558251275516032,1.355156863772393,-0.24838561965609973,-0.8926828609145221,-0.6449898490087009,0.6458933819944801,0.1395126764886418,-0.19233833638887396,0.5812274583807684,1,right
6.017,0.04693859033512358,1.3605492534353765,-0.24874086831975842,-0.8187940354910962,-0.5614420868183466,0.617921379300831,0.13240395198030377,-0.16472687810587014,0.5110944261458618,1,right
6.02,0.03768521109733369,1.3657200187226763,-0.24898540222959237,-0.7443065181626782,-0.47771239368387675,0.5897015106680015,0.12549034962034789,-0.13690794011748253,0.44132680313019107,1,right
6.02,0.02807301569517456,1.3706632030729393,-0.2491202015678052,-0.6692980393111128,-0.3938076005314995,0.5612507204064939,0.11877097312814561,-0.10890177020245412,0.37196560858695765,1,right
6.025,0.018110709238616473,1.3753731023663733,-0.24914648255983624,-0.5938495745619833,-0.30973522472454484,0.5325864727120148,0.11224478579471539,-0.08072946738236363,0.30305202694636885,1,right
6.025,0.007807675282896241,1.3798442856013398,-0.2490656838808216,-0.518045283112446,-0.22550354016727284,0.5037267593697263,0.10591061763372075,-0.0524129582383298,0.23462736743451484,1,right
6.03,-0.002826022604092978,1.3840716137494715,-0.24887945311268644,-0.4419724339564328,-0.14112164586396125,0.474690105956608,0.09976717242277558,-0.023974969540784385,0.16673302020992153,1,right
6.031000000000001,-0.013779637260130114,1.3880502565042425,-0.24858963503523246,-0.365721319790664,-0.0565995326917733,0.445495576459619,0.0938130346163059,0.004561002888570754,0.09941040881989807,1,right
6.034,-0.025041733158081173,1.3917757068138672,-0.24819826289363967,-0.28938515838389206,0.028051851854550277,0.4161627762267976,0.08804667611176903,0.03317072916391902,0.03270093878020296,1,right
6.035,-0.03660018176440828,1.3952437933417934,-0.2477075531159022,-0.21305998119103284,0.11282054118855996,0.38671185316792206,0.08246646285157865,0.0618292842532412,-0.03335405791692529,1,right
6.039,-0.04844215877393714,1.3984506912348378,-0.2471199033977254,-0.13684450899333786,0.1976934896713128,0.3571634971209089,0.0770706612436278,0.09051109090890834,-0.09871338255968291,1,right
6.041,-0.06055414520412804,1.4013929317008145,-0.2464378934635101,-0.0608400143455196,0.28265651540708964,0.32753893729972516,0.07185744438384102,0.11918996669308991,-0.16333603393011112,1,right
6.044,-0.07292193430634566,1.4040674108742912,-0.2456642870942634,0.014849829389218977,0.36769424603910345,0.29785993773925545,0.06682489806472161,0.14783917518025042,-0.22718127716367115,1,right
6.045,-0.08553064595670608,1.4064713983046766,-0.24480203346491508,0.09011911263497929,0.4527900677889861,0.2681487906522849,0.06197102655438919,0.17643148141907344,-0.290208717442656,1,right
6.0489999999999995,-0.098364749618682,1.4086025451753899,-0.24385426578331712,0.16485986804790395,0.5379260779840968,0.23842830761354106,0.057293758131127324,0.20493921173614235,-0.35237837870899436,1,right
6.05,-0.11140809617081407,1.410458892118235,-0.24282429571088848,0.23896226302706394,0.6230830413169057,0.20872180848558297,0.05279095036263351,0.23333431785151612,-0.41365078740064276,1,right
6.051,-0.12464395809184932,1.4120388763102028,-0.24171560281090454,0.3123148065074923,0.7082403500808739,0.17905310800123508,0.04846039513794577,0.2615884447156558,-0.4739870603177687,1,right
6.055,-0.13805507690193689,1.4133413374698687,-0.2405318190257558,0.38480457024983844,0.793375988627359,0.14944649991723613,0.04429982349341099,0.2896730004679768,-0.5333489941103127,1,right
6.055,-0.15162371623323942,1.4143655223377296,-0.239276708856327,0.4563174248392789,0.8784665022881369,0.11992673865381588,0.0403069102928301,0.317559226356459,-0.5916991529802944,1,right
6.06,-0.16533171831122523,1.4151110871755443,-0.23795414651163382,0.526738290604164,0.963486971008126,0.0905190183350221,0.03647927880414098,0.34521826501786046,-0.6490009520851869,1,right
6.061,-0.1791605613260267,1.4155780978403472,-0.23656809165315068,0.5959514036623983,1.048410987932835,0.06124894914479891,0.03281450518260455,0.3726212265265285,-0.7052187357380373,1,right
6.062,-0.1930914155424713,1.4157670271624325,-0.23512256530747477,0.6638405969297443,1.1332106431561333,0.032142530940192184,0.029310122852671972,0.39973925217975226,-0.7603178503927511,1,right
6.063,-0.2071051968471866,1.415678749607165,-0.2336216271303788,0.7302895940661,1.2178565126397816,0.0032261241940003383,0.025963626777532035,0.4265435760990501,-0.8142647125790781,1,right
6.064,-0.22118261729099517,1.4153145334148067,-0.2320693546843898,0.7951823109933301,1.3023176519667632,-0.025473581425299877,0.0227724776058055,0.45300558472605384,-0.8670268719487209,1,right
6.068,-0.23530423282494622,1.4146760306012085,-0.2304698249147042,0.8584031577594274,1.3865615943961436,-0.05392960039743235,0.01973410568531381,0.4790968742908284,-0.918573069590782,1,right
6.069,-0.24945048886699722,1.413765265399412,-0.2288270976569342,0.91983733537464,1.4705543528806904,-0.08211468630915816,0.0168459149343032,0.5047893063295672,-0.9688732917714523,1,right
6.074,-0.2636017645842744,1.4125846218345945,-0.22714520080478584,0.9793711255797398,1.5542604260570778,-0.11000136835371468,0.014105286560951232,0.5300550613276214,-1.0178988192494465,1,right
6.075,-0.27773841678717553,1.4111368310312205,-0.22542811672249222,1.0368921733567973,1.6376428084118175,-0.13756198942642114,0.011509582622421796,0.554866690562755,-1.0656222723151985,1,right
6.079,-0.29184082411062756,1.4094249585614704,-0.2236797696065978,1.0922897623587038,1.7206630048641276,-0.16476874589735988,0.00905614941516595,0.5791971662223736,-1.1120176516982547,1,right
6.08,-0.30588943177802136,1.4074523917752877,-0.22190401370004245,1.1454550834282229,1.8032810500061307,-0.19159372914118442,0.006742320688589756,0.60301992986725,-1.1570603754836435,1,right
6.082999999999999,-0.3198647968081621,1.4052228267377034,-0.22010462239459805,1.1962814963715767,1.8854555322398268,-0.21800896890316931,0.004565420674626706,0.6263089393129642,-1.2007273121742603,1,right
6.085,-0.3337476331524234,1.4027402542364946,-0.21828527825890362,1.2446647851454749,1.9671436230492556,-0.24398647857959882,0.0025227669261608816,0.6490387139988972,-1.2429968100324986,1,right
6.0889999999999995,-0.3475188560482466,1.4000089443492199,-0.21644956396859819,1.2905034066100847,2.0483011116450944,-0.2694983024894957,0.0006116729576480957,0.6711843789131585,-1.2838487228304727,1,right
6.09,-0.3611596249053021,1.397033429245668,-0.21460095410014265,1.3336987329937309,2.1288824452176685,-0.2945165652135133,-0.0011705493183244307,0.6927217071402938,-1.323264432134227,1,right
6.093,-0.3746513842725298,1.393818484175696,-0.2127428078142678,1.374155288208098,2.2088407750329426,-0.3190135230745578,-0.00282658736441363,0.7136271610970191,-1.3612268662433216,1,right
6.093999999999999,-0.3879759027580671,1.3903691068608872,-0.21087836255069836,1.411780978145405,2.288128008604542,-0.3429616178333689,-0.004359126007327251,0.7338779325195455,-1.3977205159031056,1,right
6.099,-0.4011153100606453,1.386690495699562,-0.2090107289136523,1.4464873150814335,2.366694868173191,-0.3663335326708698,-0.005770845647187259,0.7534519812643155,-1.4327314469028765,1,right
6.1,-0.4140521324394513,1.3827880272861084,-0.2071428869083478,1.4781896363004374,2.4444909557231633,-0.3891022505276009,-0.007064420692213109,0.772328072982157,-1.4662473096689446,1,right
6.103,-0.42676932698588343,1.3786672337566028,-0.20527768359908094,1.5068073170498255,2.5214648247634104,-0.4112411148689743,-0.008242518223133257,0.7904858157239836,-1.4982573459574122,1,right
6.104,-0.43925031499105394,1.374333780434308,-0.20341783213808518,1.5322639779241396,2.597564059098959,-0.43272389294343294,-0.00930779689138614,0.8079056955342248,-1.5287523927472169,1,right
6.108,-0.4514790145668215,1.3697934441857649,-0.2015659120051167,1.5544876867692303,2.672735358815956,-0.4535248415988647,-0.010262906054832483,0.8245691110861709,-1.5577248834296957,1,right
6.109,-0.4634398725215643,1.3650520928271104,-0.19972437023067405,1.5734111551886711,2.7469246337013726,-0.4736187757208142,-0.011110485154369035,0.8404584074113508,-1.5851688463866112,1,right
6.112,-0.4751178953584102,1.3601156658496547,-0.1978955233629152,1.5889719297253884,2.820077104315868,-0.492981139354152,-0.011853163334509663,0.8555569087729452,-1.6110799010442234,1,right
6.1129999999999995,-0.486498679176514,1.3549901566654527,-0.19608155997429033,1.6011125777822082,2.892137410935635,-0.5115880795679009,-0.012493559310683315,0.869848950731068,-1.6354552514866263,1,right
6.117999999999999,-0.4975684382103532,1.3496815965051423,-0.19428454356945357,1.609780868335543,2.963049730576253,-0.5294165231208927,-0.013034281485689338,0.8833199114455254,-1.6582936777071786,1,right
6.119,-0.5083140317230402,1.3441960400322377,-0.19250641582518765,1.6149299474867975,3.0327579023085547,-0.5464442559838261,-0.013477928311546766,0.89595624221916,-1.6795955245788186,1,right
6.12,-0.5187229889786252,1.3385395526789414,-0.19074900014271737,1.616518508886262,3.10120556107341,-0.5626500057711289,-0.013827088863167476,0.9077454970814174,-1.6993626886514488,1,right
6.124,-0.528783532052411,1.332718199664636,-0.18901400551233455,1.6145109590542894,3.1683362801990236,-0.5780135271337926,-0.014084343536873588,0.9186763608473255,-1.7175986029374013,1,right
6.124,-0.5384845962542986,1.3267380366193346,-0.18730303068383508,1.608877577614461,3.2340937228208566,-0.5925156901620517,-0.014252264756987789,0.9287386748835291,-1.7343082198733972,1,right
6.127999999999999,-0.5478158479060917,1.3206051016869056,-0.18561756861518022,1.599594672443227,3.2984218024007053,-0.6061385718444163,-0.01433341760296663,0.9379234600117449,-1.749497992611192,1,right
6.129,-0.5567676991688317,1.3143254089320908,-0.18395901114955168,1.586644729730194,3.3612648525376496,-0.6188655506271539,-0.014330360322405951,0.9462229363396254,-1.7631758547274736,1,right
6.13,-0.5653313196162612,1.3079049428400138,-0.18232865386171,1.5700165587166306,3.4225678059224824,-0.6306814039128563,-0.014245644724503785,0.9536305400076899,-1.7753511984073873,1,right
6.132000000000001,-0.5734986443055692,1.3013496536936642,-0.1807277010237248,1.5497054297883763,3.482276380597192,-0.6415724073192788,-0.01408181645421937,0.9601409368786874,-1.7860348511453374,1,right
6.132000000000001,-0.5812623781850609,1.2946654536416549,-0.1791572706575618,1.525713202643121,3.540337268642179,-0.651526432690194,-0.013841415147124997,0.9657500331932228,-1.7952390510023841,1,right
6.138,-0.5886159967731343,1.2878582132951757,-0.1776183996528286,1.4980484401605456,3.596698320723536,-0.6605330408324656,-0.01352697446471281,0.9704549832129138,-1.802977420455232,1,right
6.138999999999999,-0.5955537431372958,1.2809337586977618,-0.17611204892711976,1.4667265046741793,3.6513087216140745,-0.6685835659658197,-0.013141022009691404,0.974254193869771,-1.809264938867529,1,right
6.142,-0.6020706213154937,1.2738978685126203,-0.17463910859786946,1.431769635278948,3.704119154831675,-0.6756711906959711,-0.012686079120587038,0.9771473264379099,-1.8141179136099477,1,right
6.142,-0.6081623864598846,1.2667562712925762,-0.17320040312266471,1.3932070058787873,3.7550819562195845,-0.6817910113339763,-0.012164660544751658,0.9791352952411079,-1.8175539498513071,1,right
6.147,-0.6138255321173856,1.259514642732793,-0.17179669635151645,1.351074763884389,3.804151256625435,-0.6869400935849241,-0.011579273988674376,0.9802202634071181,-1.8195919190388379,1,right
6.148,-0.6190572751614476,1.252178602843048,-0.17042869642242994,1.305416049460721,3.851283113830587,-0.6911175186263145,-0.010932419544294919,0.9804056356770553,-1.8202519260815664,1,right
6.152,-0.6238555389440743,1.2447537130098858,-0.16909706042480016,1.2562809952136196,3.8964356338761057,-0.694324419593701,-0.010226588989826542,0.9796960482755668,-1.8195552752467303,1,right
6.153,-0.6282189352502755,1.2372454729502158,-0.16780239875435618,1.203726706194511,3.9395690819262406,-0.6965640084883842,-0.009464264963412133,0.9780973558449144,-1.8175244347751245,1,right
6.157,-0.632146745617519,1.2296593175868944,-0.16654527908374234,1.1478172200922065,3.980645982804707,-0.6978415935191624,-0.008647920007760643,0.9756166154435103,-1.8141830002173156,1,right
6.157,-0.6356389025347476,1.2220006139020811,-0.16532622987153098,1.0886234474707412,4.019631211333403,-0.6981645868873565,-0.007780015483741531,0.9722620676068784,-1.8095556564887796,1,right
6.1610000000000005,-0.638695970960378,1.2142746578467867,-0.16414574333585014,1.0262230919024191,4.05649207259739,-0.6975425030215557,-0.006863000350752582,0.9680431144664668,-1.8036681386381694,1,right
6.162000000000001,-0.641319130500834,1.2064866714096527,-0.16300427783417767,0.9607005498356066,4.091198372254062,-0.69598694726577,-0.0058993098115212705,0.9629702949192012,-1.7965471913191753,1,right
6.166,-0.6435101584789504,1.1986417999780408,-0.16190225961517532,0.8921467900273914,4.12372247699843,-0.6935115950219376,-0.004891363818851682,0.9570552568381621,-1.7882205269527347,1,right
6.167000000000001,-0.6452714140044816,1.190745110158287,-0.16084008393491686,0.8206592123620305,4.154039365290349,-0.6901321613450244,-0.0038415654416878945,0.9503107263122902,-1.7787167825627388,1,right
6.172000000000001,-0.6466058230473913,1.182801588252034,-0.1598181155586775,0.7463414858671533,4.182126668443323,-0.6858663609862782,-0.0027522990877306146,0.9427504739005715,-1.7680654752648393,1,right
6.1739999999999995,-0.6475168644203095,1.1748161396007022,-0.1588366886992436,0.6693033657309934,4.207964702168275,-0.6807338588775578,-0.001625928579716684,0.9343892778837357,-1.756296956384493,1,right
6.176,-0.6480085565078643,1.1667935890001686,-0.15789610645916852,0.5896604891155083,4.2315364886593265,-0.67475621104707,-0.0004647950823507949,0.925242884494125,-1.7434423641770114,1,right
6.1770000000000005,-0.6480854445345545,1.1587386823481585,-0.1569966398327774,0.5075341495521278,4.252827769302221,-0.6679567959542997,0.0007287851232346614,0.915327965102044,-1.7295335751190761,1,right
6.181,-0.647752588126313,1.1506560896217035,-0.15613852629130784,0.423051049699069,4.271827008079595,-0.6603607362294366,0.0019525230207223317,0.9046620703346071,-1.7146031537379864,1,right
6.182,-0.6470155488844506,1.1425504092021015,-0.15532196794932787,0.3363430322316878,4.288525385740773,-0.651994810800176,0.0032041593988858617,0.8932635811008431,-1.6986843009417731,1,right
6.186,-0.6458803776590827,1.1344261734835097,-0.15454712931321918,0.24754678863021265,4.302916784797218,-0.6428873573864157,0.004481467554322992,0.8811516564946117,-1.6818108008102968,1,right
6.187,-0.6443536011995246,1.1262878556331444,-0.15381413463504837,0.15680354562244564,4.314997765398224,-0.6330681653410843,0.005782256153387514,0.8683461786299354,-1.6640169658634725,1,right
6.188,-0.6424422078901205,1.1181398773331577,-0.15312306491245037,0.06425872903263805,4.324767532134774,-0.6225683588131292,0.007104372216297634,0.8548676948872636,-1.6453375811147397,1,right
6.19,-0.640153632348069,1.1099866173266304,-0.15247395457540303,-0.029938395218245074,4.332227891812929,-0.6114202702065645,0.008445704125552218,0.8407373588139698,-1.6258078477458227,1,right
6.191,-0.6374957387303385,1.1018324205766006,-0.1518667878963042,-0.12563510322123828,4.337383202231425,-0.5996573039074395,0.009804184527009529,0.8259768713464098,-1.6054633275309946,1,right
6.196000000000001,-0.6344768026463972,1.0936816077976614,-0.15130149516793603,-0.2226756185626028,4.340240311991577,-0.5873137902486327,0.011177793025888817,0.8106084235929167,-1.584339888841704,1,right
6.197,-0.6311054916170474,1.0855384850619485,-0.15077794871660827,-0.3209015407865119,4.340808491522643,-0.5744248299729852,0.012564558640930331,0.7946546416484093,-1.5624736545293132,1,right
6.1979999999999995,-0.6273908440668421,1.0774073531691517,-0.15029595883932143,-0.4201522931197928,4.339099356307956,-0.5610261309158544,0.013962562013843056,0.7781385334834618,-1.539900951686544,1,right
6.2010000000000005,-0.6233422468751659,1.0692925165122495,-0.14985526975824254,-0.5202655797572122,4.335126784746205,-0.547153841258708,0.01536993737798198,0.7610834378637342,-1.5166582632270291,1,right
6.202000000000001,-0.6189694115424377,1.0611982912204294,-0.14945555567704574,-0.6210778396825437,4.3289068338844094,-0.5328443851661395,0.016784874290234515,0.743512975253981,-1.4927821812202284,1,right
6.205,-0.6142823490739734,1.0531290123874906,-0.14909641701263868,-0.7224246873302465,4.320457655443847,-0.5181343051548942,0.01820561913012819,0.7254510006592431,-1.4683093619169452,1,right
6.206,-0.6092913437483731,1.0450890402263102,-0.14877737685767695,-0.8241413363830228,4.309799413098029,-0.5030601129099346,0.019630476370198706,0.7069215583542799,-1.4432764823987487,1,right
6.211,-0.6040069260037664,1.0370827650560144,-0.14849787770119427,-0.9260630063291787,4.29695420114664,-0.4876581487989803,0.021057809621679306,0.6879488384508147,-1.4177201987827972,1,right
6.211,-0.5984398447259758,1.029114611109195,-0.14825727841585307,-1.028025312070575,4.281945964561218,-0.47196445004334664,0.022486042459589243,0.6685571352507605,-1.39167710591183,1,right
6.2170000000000005,-0.5926010392453305,1.021189039210386,-0.1480548515319861,-1.1298646368730179,4.264800420371983,-0.45601462750185245,0.02391365903131105,0.6487708073322481,-1.3651836984575019,1,right
6.218,-0.5865016113414453,1.0133105484146003,-0.14788978085617896,-1.2314184889515316,4.245544980358992,-0.43984375102363055,0.02533920445275359,0.6286142393140037,-1.3382763333637167,1,right
6.22,-0.5801527975277736,1.005483676712814,-0.14776115952596006,-1.3325258419830683,4.2242086750045456,-0.42348624332483403,0.026761284996200493,0.6081118052424228,-1.310991193555226,1,right
6.222,-0.5735659418531244,0.9977130009184687,-0.14766798859599173,-1.433027459838863,4.200822078657648,-0.40697578234349385,0.028178568073942086,0.587287833544551,-1.2833642528354632,1,right
6.225,-0.566752469421791,0.9900031358495647,-0.14760917622540265,-1.532766205827826,4.175417235855281,-0.39034521202614697,0.029589782021782945,0.5661665734891211,-1.2554312418963904,1,right
6.226,-0.5597238607976129,0.9823587329147531,-0.1475835374987565,-1.6315873367410834,4.148027588739247,-0.37362646149931744,0.03099371568650753,0.5447721630967984,-1.2272276153620585,1,right
6.23,-0.5524916274205308,0.9747844781982857,-0.1475897948805524,-1.7293387819860397,4.118687905501483,-0.3568504725784903,0.032389217821372565,0.5231285984398669,-1.1987885197865844,1,right
6.232,-0.5450672881291267,0.9672850901190833,-0.14762657928325512,-1.825871408096154,4.087434209784926,-0.3400471355668725,0.03377519629367766,0.501259704270733,-1.170148762526386,1,right
6.235,-0.5374623468504125,0.9598653167177399,-0.14769243172387087,-1.9210392688999898,4.054303710961322,-0.32324523329597793,0.03515061710844478,0.4791891059178355,-1.1413427814057235,1,right
6.236000000000001,-0.5296882714880301,0.9525299326064584,-0.1477858055499713,-2.0146998416300304,4.019334735201776,-0.30647239335990956,0.03651450325221316,0.45694020238683963,-1.1124046150939264,1,right
6.239,-0.5217564740118804,0.9452837356026502,-0.1479050692235439,-2.1067142492482573,3.9825666572503393,-0.28975504849512757,0.037865933360928875,0.43453614060434004,-1.0833678741121042,1,right
6.24,-0.5136782917268551,0.9381315430566278,-0.14804850965152505,-2.1969474692615765,3.9440398328055335,-0.2731184050574968,0.03920404021587838,0.41199979074072257,-1.0542657123866657,1,right
6.244,-0.5054649696758349,0.9310781878764114,-0.14821433604418596,-2.2852685292958563,3.9037955314094495,-0.25658641954848577,0.04052800907158192,0.3893537225483177,-1.025130799266583,1,right
6.245,-0.4971276441124668,0.9241285142474223,-0.14840068427229625,-2.3715506896926186,3.8618758697388764,-0.24018178314254734,0.04183707581952729,0.36662018265053503,-0.9959952919210612,1,right
6.249,-0.48867732696459026,0.9172873730418126,-0.14860562168629393,-2.455671613387316,3.8183237451878766,-0.22392591416794005,0.04313052499158625,0.3438210727172866,-0.9668908080340786,1,right
6.25,-0.4801248912021308,0.9105596169133202,-0.1488271523561,-2.5375135233226502,3.7731827696262847,-0.2078389584935472,0.04440768760691535,0.3209779284616897,-0.9378483987121705,1,right
6.255,-0.47148105702430376,0.903950095080562,-0.14906322268725816,-2.616963347644524,3.726497203213795,-0.19193979777461326,0.04566793886610025,0.2981118993927899,-0.9088985215218263,1,right
6.256,-0.46275637878907117,0.8974636478125445,-0.14931172736814174,-2.6939128529220393,3.6783118881446266,-0.17624606551074234,0.04691069569996532,0.27524372927072754,-0.8800710136163978,1,right
6.257000000000001,-0.45396123262129123,0.8911051006385656,-0.14957051560622642,-2.7682587656264026,3.628672182193176,-0.16077417086998635,0.04813541419896198,0.2523937372700046,-0.8513950651298029,1,right
6.261,-0.44510580465222804,0.884879258307198,-0.14983739761726417,-2.839902882096747,3.5776238919266397,-0.14553933023338578,0.04934158698236925,0.22958179996329717,-0.822899193405535,1,right
6.2620000000000005,-0.4362000798596154,0.8787908985229094,-0.1501101513319387,-2.908752167213702,3.525213205446285,-0.13055560641491573,0.05052874058502772,0.20682733429761158,-0.794611218847055,1,right
6.265,-0.4272538314932573,0.8728447655003446,-0.15038652927740276,-2.97471884198977,3.4714866246263196,-0.11583595535749262,0.05169643292073862,0.18414928167527236,-0.7665582429588628,1,right
6.266,-0.4182766110839303,0.8670455633849768,-0.1506642655856325,-3.037720460256372,3.4164908973725954,-0.10139227933172545,0.05284425084803758,0.16156609314548603,-0.7387666287570944,1,right
6.266,-0.4092777390402157,0.8613979495844029,-0.15094108308405038,-3.097679974580701,3.360272951422607,-0.08723548427044409,0.05397180784546026,0.1390957156530264,-0.7112619835118813,1,right
6.269,-0.40026629584177176,0.8559065280472623,-0.15121470042816665,-3.1545257915158165,3.3028798317617865,-0.07337553809814193,0.055078741799653275,0.11675557927893322,-0.684069143740938,1,right
6.269,-0.39125111384371203,0.8505758425287354,-0.15148283923195266,-3.2081918163003516,3.2443586431701408,-0.05982152768991223,0.05616471290962712,0.09456258540838758,-0.6572121623745972,1,right
6.274,-0.38224076971291066,0.845410369886359,-0.15174323114303426,-3.2586174871541616,3.184756498406603,-0.04658171348964994,0.057229401710389344,0.07253309576124958,-0.630714298013332,1,right
6.275,-0.3732435775182706,0.8404145134469323,-0.15199362480136305,-3.305747799328775,3.124120471977786,-0.03366358159279295,0.05827250721913726,0.05068292222111798,-0.6045980061996978,1,right
6.278,-0.36426758249391633,0.8355925964756231,-0.15223179261022354,-3.3495333190666874,3.0624975593231327,-0.02107389325468315,0.05929374520712911,0.02902731739919228,-0.5788849326275934,1,right
6.279,-0.3553205554901611,0.8309488557684892,-0.1524555372408519,-3.3899301876142363,2.999934641245328,-0.008818731786529267,0.06029284660029176,0.007580965869686528,-0.5535959082127666,1,right
6.284,-0.3464099881239762,0.826487435383169,-0.15266269779686495,-3.426900115423346,2.936478453411896,0.003096453198124382,0.061269556011560714,-0.01364202398594207,-0.5287509459495864,1,right
6.2860000000000005,-0.3375430886393531,0.8222123805207213,-0.15285115558590762,-3.4604103666678268,2.8721755607510477,0.014666804222576933,0.062223630407885734,-0.034628127588128874,-0.5043692394802591,1,right
6.289,-0.3287267784877193,0.8181276315751236,-0.15301883947514724,-3.4904337341902045,2.807072336562162,0.025888017106991817,0.06315483791477153,-0.05536441128328112,-0.4804691633038851,1,right
6.289,-0.3199676896379896,0.8142370183741915,-0.15316373083131274,-3.516948504985205,2.7412149461586983,0.036756304883478086,0.06406295676115897,-0.07583853904373973,-0.4570682745540216,1,right
6.292999999999999,-0.311272162624236,0.8105442546415959,-0.15328386805726202,-3.539938416316109,2.674649334858926,0.04726836449946144,0.06494777436738702,-0.0960387788038831,-0.43418331627475043,1,right
6.295,-0.30264624533622614,0.8070529327095878,-0.15337735073718936,-3.5593926025501714,2.607421220137536,0.05742134634157239,0.06580908657891006,-0.11595400849191635,-0.4118302221266305,1,right
6.2989999999999995,-0.2940956925536223,0.8037665185061325,-0.15344234339665258,-3.5753055327892524,2.539576087749048,0.06721282661126608,0.06664669704837894,-0.13557372181613714,-0.39002412245534623,1,right
6.3,-0.2856259662183585,0.8006883468319899,-0.1534770788749334,-3.587676939361665,2.4711591916318865,0.07664078258236597,0.06746041676862716,-0.15488803386368444,-0.3687793516573432,1,right
6.303,-0.27724223643332857,0.7978216169356462,-0.1534798612989129,-3.5965117372311255,2.4022155574000963,0.08570357076969293,0.06825006375903599,-0.17388768656895826,-0.3481094567782697,1,right
6.305,-0.268949383170698,0.7951693883874821,-0.1534490686433569,-3.601819934368512,2.332789989227889,0.0943999080369037,0.06901546290768447,-0.19256405410805172,-0.32802720728161183,1,right
6.308,-0.26075199866961307,0.7927345772490563,-0.15338315486396736,-3.603616533121994,2.2629270799305754,0.10272885567061922,0.06975644597162149,-0.21090914827466004,-0.3085446059265208,1,right
6.309,-0.25265439050057936,0.7905199525287655,-0.1532806515948961,-3.6019214226109155,2.192671224043929,0.11068980644687496,0.07047285173752801,-0.22891562389202907,-0.28967290069548096,1,right
6.313,-0.2446605852737974,0.7885281329116229,-0.15314016940756306,-3.5967592621587325,2.122066633702631,0.11828247471487358,0.07116452634496775,-0.24657678431457825,-0.2714225977141537,1,right
6.313,-0.2367743329716627,0.7867615837489152,-0.15296039863005712,-3.588159355770193,2.0511573571171953,0.12550688952196534,0.07183132377435474,-0.26388658707188284,-0.2538034751074521,1,right
6.317,-0.22899911188904493,0.7852226142928223,-0.15274010972718993,-3.5761555176479503,1.9799872994476422,0.1323633908027254,0.07247310650169535,-0.28083964970672853,-0.23682459773765652,1,right
6.318,-0.22133813416641085,0.7839133751609051,-0.15247815324309927,-3.560785928733849,1.9086002458711886,0.1388526286539397,0.07308974632209174,-0.29743125585796143,-0.22049433277216426,1,right
6.324,-0.21379435190032595,0.7828358560150418,-0.1521734593134907,-3.542092984250237,1.837039886640348,0.14497556571625414,0.07368112534392164,-0.31365736163784863,-0.20482036603027673,1,right
6.325,-0.20637046381471888,0.7819918834392716,-0.15182503676290265,-3.520123132206909,1.7653498439270738,0.15073348268218514,0.07424713715109421,-0.3295146023131623,-0.18980971905186414,1,right
6.3260000000000005,-0.19906892247488903,0.7813831190021717,-0.15143197180872792,-3.4949267028296283,1.6935737002479736,0.15612798694913577,0.07478768810849076,-0.34500029910077695,-0.17546876679059542,1,right
6.327000000000001,-0.19189194202356133,0.781011057491117,-0.15099342639383564,-3.4665577288566127,1.621755028265111,0.1611610244350096,0.07530269874563231,-0.36011246553222054,-0.16180325576068022,1,right
6.327000000000001,-0.18484150641385105,0.7808770253049788,-0.15050863616710689,-3.4350737566399885,1.5499374217565407,0.16583489457296668,0.07579210513132484,-0.37484981264317485,-0.1488183224259599,1,right
6.332999999999999,-0.1779193781089081,0.7809821789873137,-0.1499769081321496,-3.4005356479799427,1.4781645275504804,0.17015226850082293,0.07625586017417847,-0.3892117524402422,-0.1365185116641214,1,right
6.334,-0.1711271072147181,0.7813275038771771,-0.14939761798902892,-3.3630073726102054,1.4064800782168927,0.17411621045955633,0.07669393482381713,-0.40319839945152347,-0.12490779521637066,1,right
6.335,-0.16446604101378992,0.7819138128532533,-0.14877020719800688,-3.3225557915152715,1.3349279252795387,0.17773020230756786,0.0771063191697411,-0.4168105703638645,-0.11398959007687111,1,right
6.337999999999999,-0.15793733387359854,0.7827417451496728,-0.14809417979473807,-3.279250432604685,1.2635520725580618,0.18099817052239678,0.07749302343917448,-0.43004978178802944,-0.10376677678662097,1,right
6.3389999999999995,-0.1515419575120204,0.783811765226388,-0.14736909898388106,-3.233163262697713,1.1923967089733936,0.1839245140995118,0.07785407889515603,-0.4429182461919827,-0.09424171759842281,1,right
6.3420000000000005,-0.1452807116106199,0.7851241616796479,-0.14659458353844348,-3.1843684611169967,1.1215062399965334,0.18651413122287092,0.07818953863605804,-0.4554188660413871,-0.08541627448158627,1,right
6.343,-0.13915423477503336,0.7866790461769754,-0.1457703040378807,-3.132942198827929,1.0509253170748774,0.188772443114874,0.07849947829764432,-0.4675552261853549,-0.07729182693700162,1,right
6.347,-0.13316301584763202,0.7884763523971781,-0.1448959789827766,-3.0789624246159164,0.9806988646474364,0.19070541443341568,0.07878399665870449,-0.4793315845244268,-0.0698692895952252,1,right
6.348,-0.1273074055773972,0.7905158349512392,-0.14397137082315695,-3.022508658432245,0.9108721045146644,0.19231957011670475,0.0790432161512285,-0.49075286099669657,-0.0631491295722266,1,right
6.352,-0.12158762864331525,0.7927970682567502,-0.14299628193446481,-2.9636617917609875,0.8414905773602332,0.1936220086823507,0.07927728327601204,-0.5018246249169556,-0.057131383559460194,1,right
6.353,-0.11600379601184178,0.7953194453392809,-0.14197055057383695,-2.9025038948520483,0.7726001612231095,0.19462041198628385,0.07948636892451028,-0.5125530807026981,-0.05181567462693918,1,right
6.357,-0.11055591759045011,0.7980821765388473,-0.14089404684980314,-2.8391180306583506,0.7042470867194383,0.19532305144616188,0.07967066860768504,-0.5229450520198095,-0.047201228720006747,1,right
6.358,-0.10524391512279595,0.8010842881066278,-0.1397666687408726,-2.773588075308287,0.6364779488150174,0.19573879073302064,0.07983040259251806,-0.5330079643797565,-0.04328689083251638,1,right
6.361000000000001,-0.10006763525955736,0.8043246206850398,-0.13858833820271213,-2.705998544937921,0.5693397149505596,0.19587708493405548,0.07996581594679163,-0.5427498262191157,-0.04007114084114897,1,right
6.362,-0.09502686273260777,0.8078018276735112,-0.1373589974077831,-2.6364344287010333,0.5028797293234806,0.19574797618857037,0.08007717849266643,-0.5521792084913081,-0.03755210898760816,1,right
6.3660000000000005,-0.09012133355680868,0.8115143734935595,-0.1360786051625052,-2.564981027768941,0.43714571313163286,0.19536208579830963,0.08016478466951578,-0.5613052227994645,-0.035727590997445796,1,right
6.367000000000001,-0.08535074818254114,0.8154605317789387,-0.1347471335435653,-2.4917238001261097,0.3721857605862169,0.19473060281259097,0.0802289533064061,-0.5701374980984293,-0.034595062826275495,1,right
6.371,-0.08071478452447212,0.8196383835267086,-0.13336456478682152,-2.4167482109618983,0.3080483305030501,0.19386526908789242,0.08027002730454423,-0.5786861559930061,-0.034151695026133154,1,right
6.372000000000001,-0.076213110797284,0.8240458152517087,-0.13193088845138715,-2.3401395884533556,0.2447822332834617,0.19277836082080788,0.08028837322994362,-0.5869617846586854,-0.03439436672673743,1,right
6.377000000000001,-0.07184539809270149,0.8286805171899756,-0.13044609887183933,-2.26198298472881,0.1824366130983047,0.19148266655258317,0.08028438081649474,-0.594975411410248,-0.035319679228390834,1,right
6.377999999999999,-0.06761133263093409,0.8335399815956478,-0.12891019290580205,-2.182363041797042,0.12106092509094057,0.18999146164277278,0.08025846237955836,-0.6027384739428251,-0.03692396920524097,1,right
6.381,-0.06351062761534353,0.8386215011715323,-0.12732316798125518,-2.10136386222215,0.06070490741755574,0.18831847920892245,0.08021105214013549,-0.6102627902692116,-0.0392033215195917,1,right
6.382000000000001,-0.05954303461533274,0.8439221676680776,-0.12568502044467228,-2.0190688843197786,0.001418547945814211,0.18647787752858447,0.08014260545960292,-0.6175605273764798,-0.0421535816499146,1,right
6.3870000000000005,-0.055708354400777496,0.8494388706804694,-0.12399574420562004,-1.935560761646141,-0.05674795456436257,0.18448420389941064,0.08005359798494134,-0.6246441686242193,-0.04577036773716092,1,right
6.388,-0.0520064471517268,0.8551682966687749,-0.12225532966619951,-1.8509212465473504,-0.11374423497116773,0.18235235495254798,0.07994452470432051,-0.6315264799060443,-0.050049082255913126,1,right
6.391,-0.04843724197064114,0.8611069282214767,-0.1204637629173233,-1.7652310775328104,-0.16951981212263867,0.1800975334140806,0.07981589891597009,-0.6382204746260673,-0.05498492330758427,1,right
6.391,-0.0450007456339806,0.8672510435792407,-0.11862102518151711,-1.6785698702329535,-0.2240241452567328,0.17773520130882292,0.0796682511288261,-0.6447393776949569,-0.060572895478500345,1,right
6.392,-0.041697050535090756,0.8735967164338873,-0.11672709248388732,-1.5910160116983476,-0.2772066965933757,0.17528102960037206,0.0795021279415022,-0.6510965890259802,-0.06680782010628396,1,right
6.396,-0.03852634178405602,0.8801398160162762,-0.11478193553559575,-1.5026465577941814,-0.329017000278601,0.1727508442609759,0.07931809096169935,-0.6573056471644262,-0.07368434474355735,1,right
6.397,-0.03548890343650968,0.8868760074836777,-0.11278551981506314,-1.4135371334413431,-0.37940473783725,0.1701605687644638,0.07911671581249245,-0.6633801935297681,-0.08119695166614366,1,right
6.4,-0.032585123824561926,0.8938007526113838,-0.11073780583250141,-1.3237618355794571,-0.4283198201170959,0.16752616311095916,0.07889859124376246,-0.6693339374730969,-0.08933996537612085,1,right
6.401,-0.029815499964807663,0.9009093107880904,-0.10863874956541772,-1.2333931393584914,-0.4757124748542885,0.16486356007055109,0.07866431835137055,-0.6751806221983999,-0.09810755910821342,1,right
6.402,-0.027180641023287953,0.9081967403124211,-0.10648830305636556,-1.1425018092038972,-0.5215333374576802,0.16218860037454735,0.0784145099034973,-0.6809339915651639,-0.10749376036109141,1,right
6.406000000000001,-0.024681270824575816,0.9156578999844854,-0.10428641516690319,-1.0511568170319117,-0.5657335417563352,0.1595169691614797,0.07814978977352133,-0.6866077577894361,-0.11749245547695675,1,right
6.4079999999999995,-0.022318229401071053,0.9232874509760048,-0.10203303247987557,-0.9594252692563565,-0.6082648082991814,0.1568641354062759,0.07787079247876601,-0.692215570060169,-0.1280973932945912,1,right
6.4110000000000005,-0.020092473588622282,0.9310798589467243,-0.0997281003356455,-0.8673723430862894,-0.6490795293194964,0.15424529501935894,0.07757816282439757,-0.6977709840874052,-0.13930218790281662,1,right
6.4110000000000005,-0.01800507668394772,0.9390293963581607,-0.09737156398299461,-0.7750612319789619,-0.6881308503212946,0.15167531772376758,0.07727255565171597,-0.7032874325986335,-0.15110032052307776,1,right
6.417000000000001,-0.0160572271867652,0.9471301449208234,-0.09496336982870889,-0.6825530999847023,-0.7253727484096935,0.14916869770270944,0.07695463569003792,-0.7087781967994511,-0.16348514055159907,1,right
6.417999999999999,-0.01425022665688511,0.9553759981007834,-0.09250346677992295,-0.5899070447194167,-0.7607601074824075,0.146739508010056,0.07662507751133328,-0.7142563788145236,-0.1764498657932897,1,right
6.42,-0.01258548672640204,0.9637606636092441,-0.08999180768084737,-0.4971800686996565,-0.7942487903944568,0.14440135873642757,0.07628456558673795,-0.7197348751247182,-0.1899875819212753,1,right
6.42,-0.011064525319403608,0.9722776658027045,-0.08742835084247232,-0.4044270587746259,-0.8257957082029764,0.14216735892369747,0.07593379444403174,-0.7252263510162094,-0.2040912411976203,1,right
6.425,-0.009688962142837296,0.9809203479250036,-0.08481306165290267,-0.31170077338910646,-0.8553588865936902,0.1400500822209669,0.07557346892513575,-0.7307432160573253,-0.21875366049247005,1,right
6.4270000000000005,-0.008460513518285766,0.9896818741237077,-0.08214591424954165,-0.21905183741103604,-0.8828975295851625,0.13806153627532114,0.07520430454265269,-0.7362976006188989,-0.233967518640488,1,right
6.43,-0.007380986624064672,0.998555231176307,-0.0794268932401121,-0.1265287442574023,-0.9083720806013621,0.13621313585097705,0.0748270279344438,-0.7419013334539254,-0.24972535317508807,1,right
6.431,-0.006452273211320985,1.0075332298698931,-0.07665599547121459,-0.034177865052180754,-0.9317442809973763,0.13451567967076505,0.07444237741520907,-0.7475659203524022,-0.2660195564825678,1,right
6.435,-0.005676342848496773,1.016608505990406,-0.07383323185117353,0.057956535449733435,-0.9529772261173036,0.13297933097425763,0.07405110362401145,-0.7533025238873318,-0.2828423714198322,1,right
6.436,-0.005055235739682358,1.025773520892337,-0.07095862923709914,0.14983227643829405,-0.9720354189574224,0.1316136017872578,0.07365397026666326,-0.7591219442680109,-0.300185886440959,1,right
6.439,-0.00459105515923868,1.0350205616356305,-0.06803223239790603,0.24140923238897696,-0.9888848215016988,0.13042734089779304,0.07325175495187103,-0.7650346013169034,-0.318042030279398,1,right
6.44,-0.004285959548869805,1.0443417406921365,-0.06505410606785164,0.33264929843294455,-1.003492903790554,0.12942872553422127,0.07284525012001658,-0.7710505175865991,-0.336402566234115,1,right
6.445,-0.004142154330876902,1.0537289952391398,-0.06202433711014829,0.4235163500205493,-1.015828690777567,0.12862525674154537,0.07243526406343517,-0.777179302633599,-0.3552590861094863,1,right
6.445,-0.004161883499132841,1.0631740860721803,-0.05894303681635119,0.5139761971411713,-1.0258628070224451,0.12802375845254518,0.07202262203703691,-0.7834301384659332,-0.3746030038602213,1,right
6.449,-0.004347421054859341,1.0726685961829805,-0.0558103433711301,0.6039965333614189,-1.033567519262163,0.12763038025087495,0.07160816745810542,-0.7898117661819158,-0.3944255489940406,1,right
6.45,-0.004701062355290608,1.0822039290611303,-0.052626424511964184,0.6935468799426576,-1.0389167768956427,0.12745060382383258,0.07119276319409767,-0.7963324738176609,-0.4147177597862608,1,right
6.454,-0.005225115439234796,1.0917713067915604,-0.04939148041040936,0.7825985252976623,-1.0418862504107416,0.12748925310308604,0.07077729293726161,-0.803000085421338,-0.435470476361837,1,right
6.456,-0.0059218923866416326,1.1013617680333314,-0.04610574679608936,0.8711244600449335,-1.042453367775623,0.12775050809223853,0.0703626626648825,-0.8098219513725154,-0.45667433370178834,1,right
6.459,-0.006793700762105395,1.1109661659771244,-0.04276949833567965,0.9590993079178686,-1.040597348809827,0.12823792238072668,0.06994980218396685,-0.8168049399653416,-0.4783197546322813,1,right
6.46,-0.007842835185423409,1.120575166387952,-0.039383052268014376,1.0464992527845522,-1.0362992375435238,0.12895444434417147,0.06953966675917211,-0.8239554302747343,-0.5003969428559675,1,right
6.461,-0.0090715690652586,1.1301792458442603,-0.035946772285334626,1.1333019620324232,-1.02954193256653,0.12990244203194024,0.06913323882052648,-0.8312793063105163,-0.5228958760758252,1,right
6.4639999999999995,-0.01048214652422074,1.1397686902802358,-0.03246107264209482,1.2194865065704938,-1.0203102153617194,0.13108373174332638,0.06873152973615386,-0.8387819523915315,-0.5458062992098113,1,right
6.4639999999999995,-0.012076774536609056,1.1493335939251994,-0.028926422468295413,1.30503327770015,-1.0085907766104407,0.13249961029441015,0.06833558161482689,-0.8464682495401963,-0.5691177176000821,1,right
6.468999999999999,-0.01385761529584823,1.1588638587233768,-0.025343350261949407,1.389923901134466,-0.99437224048326,0.13415089089546742,0.06794646909184704,-0.8543425726250655,-0.5928193900685466,1,right
6.47,-0.015826778826815553,1.1683491943143136,-0.021712448531988577,1.4741411485972784,-0.9776451870860229,0.13603794214516038,0.06756530106309848,-0.8624087880528802,-0.6169003217249031,1,right
6.471,-0.01798631585628552,1.1777791186508981,-0.018034378557922382,1.5576688477069904,-0.9584021735189203,0.13816072890267322,0.06719322235254012,-0.8706702519441449,-0.6413492565302502,1,right
6.474,-0.020338210951953713,1.1871429593264842,-0.014309875223616984,1.6404917910012753,-0.9366377541628532,0.14051885338532888,0.06683141530975358,-0.8791298088001903,-0.6661546696736934,1,right
6.475,-0.022884375937402515,1.1964298556815012,-0.01053975186835706,1.722595644803835,-0.912348500636401,0.14311159525420214,0.06648110133645453,-0.8877897906849008,-0.6913047598311017,1,right
6.479,-0.025626643586694066,1.2056287617616195,-0.0067249050839079385,1.8039668583568398,-0.8855330215646496,0.14593795019666359,0.06614354234090114,-0.896652016944847,-0.7167874413762239,1,right
6.479,-0.02856676159714122,1.2147284501985636,-0.002866319375492924,1.8845925734875573,-0.8561919821301059,0.14899666692976682,0.0658200421191628,-0.9057177944921277,-0.7425903366153996,1,right
6.485,-0.031706386830414796,1.2237175170822505,0.0010349284045659216,1.9644605350450086,-0.8243281233359221,0.15228628263192515,0.06551194766224562,-0.9149879186748067,-0.7687007681180876,1,right
6.486000000000001,-0.03504707980054434,1.2325843878922855,0.004977664949006608,2.043559002340379,-0.7899462809043928,0.15580515681099436,0.06522065038810766,-0.9244626747604019,-0.7951057512163895,1,right
6.4879999999999995,-0.03859029937624946,1.241317324558952,0.00896061681223702,2.121876661822775,-0.7530534037264472,0.15955150361754528,0.06494758729763746,-0.934141840058477,-0.8217919867476677,1,right
6.489,-0.04233739765714595,1.249904433728418,0.012982407240325806,2.19940254121974,-0.7136585717706065,0.163523422612773,0.06469424205371387,-0.9440246867089617,-0.8487458541152373,1,right
6.494,-0.04628961497792922,1.2583336763118804,0.017041553584853913,2.2761259253697355,-0.6717730133526534,0.16771892800114743,0.06446214598251351,-0.9541099851634226,-0.8759534047429558,1,right
6.494,-0.05044807498985061,1.2665928784016516,0.021136465345169518,2.3520362739715446,-0.6274101216600487,0.1721359763385636,0.06425287899628446,-0.964396008387086,-0.9034003560003472,1,right
6.497999999999999,-0.05481377976358825,1.2746697436385988,0.025265442851669505,2.4271231414732957,-0.5805854704179506,0.17677249272739742,0.06406807043686177,-0.9748805368100023,-0.9310720856756596,1,right
6.499,-0.059387604851959534,1.2825518671131382,0.029426676571628087,2.501376099321477,-0.5313168285765361,0.18162639551051563,0.06390939983926158,-0.9855608640563204,-0.9589536270749857,1,right
6.505,-0.06417029424404082,1.2902267508709082,0.0336182470002537,2.574784660787998,-0.4796241738922187,0.1866956194769238,0.06377859761475584,-0.9964338034812164,-0.9870296648262625,1,right
6.506,-0.06916245513031373,1.297681821069441,0.03783812510030489,2.6473382085909782,-0.4255297052682835,0.19197813759236812,0.06367744565290075,-1.0074956955455896,-1.0152845314676118,1,right
6.507999999999999,-0.07436455238099743,1.3049044467936979,0.04208417326968606,2.7190259255225486,-0.3690578537134478,0.19747198126882942,0.06360777784206655,-1.0187424160592007,-1.0437022049000846,1,right
6.5089999999999995,-0.07977690263066141,1.3118819604942202,0.04635414683334063,2.7898367282945284,-0.31023529176989717,0.2031752591874689,0.0635714805080968,-1.0301693853234801,-1.072266306785431,1,right
6.513,-0.08539966788487718,1.3186016799751643,0.050645696058183504,2.8597592048103757,-0.24909094125544792,0.20908617469019578,0.06357049277081067,-1.0417715782057742,-1.100960101970029,1,right
6.513999999999999,-0.09123284862790854,1.3250509318382349,0.05495636867799915,2.9287815550693344,-0.18565597915766774,0.21520304175563532,0.06360680681815191,-1.0535435351773286,-1.1297664990165737,1,right
6.518,-0.09727627649382779,1.3312170762788114,0.059283612908661396,2.9968915359061663,-0.11996384151103309,0.2215242995758775,0.0636824680978846,-1.0654793743478266,-1.1586680519255488,1,right
6.519,-0.10352960663390703,1.3370875331259846,0.06362478095155373,3.064076409767318,-0.052050225081540086,0.22804852575098297,0.06379957542683706,-1.0775728045297972,-1.1876469631288715,1,right
6.523,-0.10999230995331279,1.3426498090158168,0.0679771330218067,3.130322897721776,0.01804691332339083,0.23477444811881537,0.06396028101780275,-1.0898171393667018,-1.216685087838427,1,right
6.524,-0.1166636654031708,1.347891525581432,0.07233784197412307,3.195617136902246,0.09028736010835578,0.24170095523835583,0.06416679042431984,-1.102205312558971,-1.245763939832481,1,right
6.527,-0.12354275250642824,1.352800448524963,0.07670399860275372,3.2599446425696255,0.16462865090176984,0.24882710554523965,0.0644213624036707,-1.1147298942227208,-1.2748646987631798,1,right
6.528,-0.1306284442689371,1.3573645174066036,0.08107261764977913,3.3232902749910602,0.24102607952731453,0.2561521351988343,0.06472630869920945,-1.1273831083892072,-1.3039682190312798,1,right
6.53,-0.13791940058502217,1.3615718759685462,0.085440644489856,3.3856382113191135,0.31943271014246655,0.26367546464075503,0.06508399374646703,-1.1401568515180058,-1.333055040088172,1,right
6.534,-0.14541406220021785,1.365410902821657,0.08980496240661547,3.4469719226568207,0.39979939275757437,0.27139670388528747,0.06549683431339826,-1.1530427116534103,-1.3621053976901962,1,right
6.534,-0.1531106452513695,1.368870242336852,0.0941624003417976,3.507274156490567,0.48207478235485074,0.27931565656275964,0.06596729908848936,-1.16603198771842,-1.39109923544405,1,right
6.539,-0.16100713636736716,1.3719388355800937,0.09850974097801436,3.5665269246698594,0.5662053618324165,0.287432322737474,0.06649790822738724,-1.1791157085765265,-1.4200162161682424,1,right
6.54,-0.16910128828439455,1.3746059511326105,0.10284372902869454,3.624711497027064,0.6521354688782917,0.2957469005119719,0.0670912328630925,-1.192284651735709,-1.4488357329305765,1,right
6.54,-0.1773906159152483,1.3768612156697877,0.10716107965837927,3.681808400311727,0.7398073262553757,0.3042597863779243,0.06774989458171546,-1.2055293617048388,-1.4775369198076704,1,right
6.542000000000001,-0.18587239281350737,1.3786946442172405,0.11145848700927195,3.7377974213632643,0.8291610738509921,0.31297157418082805,0.0684765648653249,-1.218840168040056,-1.5060986624495454,1,right
6.542999999999999,-0.1945436479732756,1.3800966700315487,0.11573263283863088,3.792657613027238,0.9201348002204017,0.3218830525142115,0.06927396450359964,-1.2322072031189302,-1.5344996085320228,1,right
6.546,-0.2034011628908072,1.3810581740560275,0.11998019527552628,3.8463673017328,1.0126645719880236,0.33099520041166786,0.07014486297618075,-1.2456204196804328,-1.5627181781793373,1,right
6.547000000000001,-0.21244146879698445,1.3815705138889647,0.12419785769009738,3.8989040963935344,1.1066844606077233,0.3403091812992898,0.07109207780781793,-1.2590696081689379,-1.5907325744389726,1,right
6.5520000000000005,-0.22166084396763006,1.3816255521857221,0.12838231764090358,3.9502448987061585,1.202126566617506,0.3498263352236988,0.07211847389860675,-1.2725444139206312,-1.6185207938902568,1,right
6.553999999999999,-0.2310553110367436,1.3812156844017551,0.13253029584144202,4.00036591500132,1.298921041654288,0.3595481693818483,0.07322696283182463,-1.2860343542308348,-1.6460606374677411,1,right
6.557,-0.2406206342718827,1.3803338657712685,0.13663854508036788,4.0492426697973745,1.3969961084986922,0.3694763469793599,0.07442050216209271,-1.2995288353408645,-1.6733297215797855,1,right
6.558,-0.2503523168147842,1.378973637404537,0.14070385904384955,4.096850021204575,1.496278079423899,0.3796126744447362,0.07570209468681866,-1.3130171693831048,-1.7003054896021388,1,right
6.562,-0.2602455979359959,1.3771291513740347,0.1447230810117942,4.1431621783236094,1.596691373126461,0.38995908702738247,0.077074787704111,-1.3264885913230333,-1.7269652238255724,1,right
6.563,-0.27029545039246,1.3747951946465482,0.14869311241517713,4.188152720778836,1.6981585305206663,0.40051763280796177,0.07854167226060037,-1.339932275936935,-1.7532860579358622,1,right
6.566,-0.28049657800649025,1.3719672117084458,0.15261092123593772,4.2317946205229315,1.8006002296815007,0.4112904551502067,0.08010588239285571,-1.3533373548640342,-1.7792449901035594,1,right
6.567,-0.290843413599699,1.3686413257261503,0.1564735502038414,4.274060266045927,1.9039353002244994,0.4222797736239141,0.08177059436634557,-1.3666929337717197,-1.80481889676009,1,right
6.572,-0.3013301174144525,1.3648143580846623,0.16027812471101252,4.314921489117833,2.008080737413808,0.43348786342946105,0.08353902591616515,-1.3799881096724607,-1.8299845471357454,1,right
6.574,-0.3119505761415166,1.360483846154338,0.1640218603432514,4.354349594190155,2.1129517162925615,0.4449170333547912,0.08541443549402969,-1.393211988430895,-1.8547186186340858,1,right
6.577000000000001,-0.3226984026542065,1.3556480591503477,0.16770206992713965,4.392315390577658,2.218461606132263,0.45656960229644916,0.0874001215263231,-1.4063537024994401,-1.878997713116175,1,right
6.577999999999999,-0.333566936535264,1.3503060119700057,0.17131617000896723,4.428789227537711,2.324521985500157,0.4684478743768633,0.08949942168828924,-1.4194024289205913,-1.9027983741668912,1,right
6.581,-0.3445492454756882,1.3444574769177087,0.17486168670517965,4.4637410323603985,2.431042658245676,0.4805541126907161,0.09171571219976071,-1.432347407633876,-1.9260971054143188,1,right
6.582000000000001,-0.35563812762155883,1.3381029932510131,0.17833626088774057,4.497140351578417,2.537931670708877,0.49289051171388126,0.0940524071481363,-1.4451779601251897,-1.9488703899719129,1,right
6.587000000000001,-0.36682611494187584,1.3312438745020987,0.18173765269109596,4.528956395401462,2.6450953304553497,0.5054591684090562,0.09651295784464525,-1.457883508455979,-1.971094711071763,1,right
6.587999999999999,-0.3781054776872777,1.3238822135458894,0.18506374535137318,4.559158085475448,2.7524382268434113,0.5182620520628713,0.09910085222027287,-1.4704535947094357,-1.9927465739558345,1,right
6.591,-0.38946823000638536,1.316020885397634,0.1883125484104102,4.58771410606245,2.8598632537304427,0.5313009728899211,0.10181961426806696,-1.4828779008905384,-2.013802529090564,1,right
6.5920000000000005,-0.4009061367814539,1.3076635477279372,0.19148220032942456,4.614592958732686,2.9672716346260177,0.5445775494398271,0.10467280353890161,-1.4951462693164157,-2.034239196768593,1,right
6.596,-0.41241072173592924,1.2988146390840953,0.1945709705522605,4.639763020655252,3.0745629505999847,0.5580931748441154,0.10766401469125443,-1.5072487235078325,-2.0540332931190277,1,right
6.597,-0.42397327685443364,1.2894793748049274,0.19757726103895837,4.663192606569547,3.181635171253886,0.5718489819403707,0.11079687706150179,-1.5191754894657372,-2.0731616573420375,1,right
6.598,-0.4355848731434163,1.2796637406138014,0.20049960726877417,4.68485003451457,3.2883846890640562,0.5858458073118095,0.11407505415965248,-1.5309170169887518,-2.0916012796148906,1,right
6.6,-0.4472363727481761,1.2693744838754033,0.20333667869650365,4.7047036953883,3.394706357404405,0.6000841542811002,0.11750224296140892,-1.5424640005605743,-2.109329328910841,1,right
6.601,-0.45891844242792673,1.2586191025101543,0.2060872786427303,4.722722126404419,3.5004935325562423,0.614564154897951,0.1210821729022798,-1.5538073994621981,-2.126323180174208,1,right
6.606,-0.4706215683775693,1.2474058315781764,0.20875034361595404,4.738874088508504,3.605638120011589,0.6292855309606745,0.12481860454185624,-1.5649384569909244,-2.142560440659949,1,right
6.607,-0.48233607237755266,1.2357436275698377,0.21132494209936772,4.753128647723871,3.7100306253702118,0.6442475541800248,0.12871532790121906,-1.5758487187940304,-2.1580189754478334,1,right
6.608,-0.49405212925427344,1.2236421504600967,0.21381027286383403,4.765455259957913,3.8135602101042916,0.6594490059312593,0.13277616048376947,-1.5865300503496627,-2.1726769321799924,1,right
6.611000000000001,-0.5057597856398913,1.2111117435909895,0.21620566287363777,4.775823858013184,3.916114752418146,0.674888137647602,0.13700494499022525,-1.5969746536269107,-2.186512765068438,1,right
6.612,-0.517448980021265,1.1981634114563815,0.2185105648400597,4.784204939107997,4.017580913403449,0.6905626332459375,0.14140554673898476,-1.6071750829563907,-2.199505258216914,1,right
6.6160000000000005,-0.5291095640531476,1.1848087954924402,0.22072455446088166,4.790569651639789,4.1178442087127305,0.7064695746392909,0.14598185080353285,-1.6171242601420002,-2.2116335482991403,1,right
6.617999999999999,-0.5407313250815678,1.171060148015308,0.22284732736163082,4.794889880700143,4.216789086015762,0.7226054107847965,0.15073775887904522,-1.6268154888438384,-2.222877146633153,1,right
6.621,-0.5523040097855565,1.1569303044771353,0.22487869573045247,4.797138332278669,4.314299008525098,0.7389659303795678,0.15567718589084104,-1.6362424682615773,-2.233215960689019,1,right
6.622000000000001,-0.5638173488053169,1.1424326542330512,0.22681858462231713,4.797288616173972,4.4102565448785676,0.7555462382501609,0.16080405635783906,-1.6453993061468515,-2.2426303150647184,1,right
6.625,-0.5752610821893784,1.1275811100295041,0.22866702790057383,4.795315327624064,4.5045434656626995,0.772340735481973,0.16612230052468818,-1.6542805311724915,-2.251100971962459,1,right
6.626,-0.5866249854657221,1.112390076438134,0.23042416377913724,4.791194127662614,4.597040846856946,0.7893431033355683,0.17163585027677006,-1.6628811046856715,-2.258609151195075,1,right
6.631,-0.597898896121392,1.096874417467289,0.2320902299259143,4.784901822201419,4.687629180474118,0.8065462909975467,0.17734863485281097,-1.6711964318712633,-2.2651365497495135,1,right
6.632000000000001,-0.609072740261147,1.0810494235852695,0.2336655580916824,4.776416439833373,4.776188492667629,0.8239425072141883,0.18326457637038893,-1.6792223723509005,-2.2706653609317056,1,right
6.635,-0.6201365592099215,1.0649307783860635,0.23515056824245076,4.765717308344044,4.862598469571016,0.8415232158567044,0.1893875851801835,-1.6869552502424479,-2.275178293114352,1,right
6.635,-0.6310805358282698,1.048534525121022,0.23654576219909443,4.752785129913734,4.946738591129714,0.8592791354674959,0.19572155506538835,-1.694391863703757,-2.2786585881063295,1,right
6.64,-0.6418950203247356,1.031877033309217,0.23785171682747602,4.737602054985608,5.028488273179233,0.8772002428373761,0.20227035830328952,-1.7015294939837549,-2.281090039159573,1,right
6.641,-0.6525705553713808,1.0149749656235953,0.23906907687263687,4.720151754769107,5.107727018017711,0.8952757806642425,0.20903784060660777,-1.7083659140030751,-2.282457008626355,1,right
6.645,-0.6630979003535696,0.9978452452275336,0.24019854757613923,4.700419492341464,5.184334573714283,0.9134942693441848,0.2160278159628092,-1.7148993964855892,-2.2827444452769283,1,right
6.646,-0.6734680546087746,0.9805050237083983,0.24124088723514853,4.678392192303653,5.258191102387882,0.9318435229464868,0.22324406139020525,-1.7211287216613322,-2.281937901284482,1,right
6.649,-0.6836722795318418,0.9629716497250222,0.24219689984940307,4.654058508940637,5.329177357683812,0.9503106694244265,0.23069031163029136,-1.7270531845604675,-2.280023548881307,1,right
6.65,-0.6937021194477307,0.9452626384567989,0.24306742797163328,4.62740889282918,5.39717487166792,0.9688821751141815,0.23837025379641305,-1.7326726019170489,-2.2769881966869643,1,right
6.654,-0.7035494211763728,0.9273956419133209,0.2438533458462358,4.598435655829925,5.462066151350288,0.9875438735745264,0.246287521999498,-1.7379873187004788,-2.272819305706107,1,right
6.655,-0.7132063522347041,0.9093884201360943,0.2445555528977659,4.567133034393818,5.523734885042108,1.0062809988203454,0.25444569197225225,-1.7429982142916791,-2.267505004990435,1,right
6.659,-0.7226654176361031,0.8912588133002285,0.24517496761193747,4.5334972511063025,5.582066158740823,1.0250782230032784,0.26284827571389185,-1.7477067083201183,-2.261034106956029,1,right
6.66,-0.731919475257879,0.8730247147054636,0.24571252183311942,4.497526574386035,5.636946682729703,1.0439196985930799,0.2714987161781613,-1.752114766176966,-2.253396122344063,1,right
6.665,-0.7409617497544033,0.8547040446327311,0.24616915548600898,4.459221376248194,5.688265028568761,1.0627891051134837,0.28040038202808243,-1.756224904218773,-2.2445812748096077,1,right
6.665,-0.7497858449985749,0.8363147250352906,0.2465458117203715,4.418584188035749,5.735911876644347,1.0816697004865408,0.28955656248158035,-1.760040194675205,-2.234580515119913,1,right
6.666,-0.7583857550405312,0.8178746550319256,0.24684343247685217,4.375619754015358,5.779780274434829,1.1005443770395194,0.2989704622634572,-1.763564270257077,-2.2233855349428504,1,right
6.669,-0.7667558735822093,0.7994016871701413,0.24706295447405993,4.3303350827278635,5.8197659056395405,1.1193957222285396,0.3086451966329791,-1.766801328377959,-2.2109887802160655,1,right
6.67,-0.7748910019776555,0.7809136044263458,0.24720530561783285,4.282739495976645,5.8557673703076585,1.1382060841331427,0.31858378637260026,-1.769756134753956,-2.1973834641078223,1,right
6.6739999999999995,-0.7827863557779989,0.7624280979095106,0.24727140183043123,4.232844675330428,5.8876864760928065,1.1569576417759833,0.3287891525771587,-1.7724340260633287,-2.18256357959032,1,right
6.675,-0.7904375698460857,0.7439627452382556,0.24726214428924426,4.180664705970115,5.91542854028058,1.1756324801697116,0.33926411113055693,-1.7748409114288874,-2.1665239116295885,1,right
6.676,-0.7978407020705277,0.7255349895654716,0.24717841705408708,4.126216117500721,5.938902699887622,1.194212669232787,0.3500113668421711,-1.7769832726331325,-2.1492600489687463,1,right
6.678999999999999,-0.8049922357131669,0.707162119224883,0.24702108505316986,4.069517920979623,5.958022222912221,1.2126803443473901,0.36103350726292416,-1.778868163057412,-2.1307683954646937,1,right
6.68,-0.8118890804288659,0.6888612479743368,0.2467909923872537,4.010591641203943,5.972704811467242,1.2310177855721665,0.3723329962111231,-1.7805032053520267,-2.1110461809321444,1,right
6.684,-0.8185285720029422,0.6706492958167826,0.24648896089596511,3.9494613434951726,5.9828728898511345,1.2492074932824782,0.38391216703893766,-1.7818965878434565,-2.0900914714454,1,right
6.685,-0.8249084708563923,0.6525429703898278,0.2461157889175783,3.8861536545760162,5.988453874807158,1.2672322593789176,0.3957732156711914,-1.783057059684134,-2.0679031790447393,1,right
6.688,-0.8310269593689037,0.6345587489237599,0.24567225017386318,3.820697777329863,5.989380427545399,1.2850752339646783,0.40791819344892893,-1.783993924749484,-2.044481070790757,1,right
6.689,-0.8368826380649528,0.6167128607746606,0.24515909272475342,3.753125499267337,5.98559068755664,1.3027199875439992,0.42034899981102863,-1.7847170342862484,-2.0198257771064605,1,right
6.694,-0.8424745207007698,0.5990212705435884,0.24457703795676589,3.683471194518105,5.9770284882339695,1.3201505687934292,0.4330673748479393,-1.7852367783154504,-1.993938799343373,1,right
6.695,-0.8478020282811788,0.5814996617952386,0.24392677958727368,3.6117718191599995,5.963643554304643,1.3373515579571325,0.4460748917624336,-1.7855640757927114,-1.966822516504366,1,right
6.699,-0.8528649820277344,0.564163421391369,0.24320898267937507,3.5380668996913864,5.945391681061225,1.3543081159168906,0.4593729492730924,-1.78571036352802,-1.9384801910523954,1,right
6.7,-0.8576635953154386,0.5470276244561019,0.2424242826684717,3.4623985144467766,5.922234895367257,1.371006028986839,0.4729627639970603,-1.7856875838664685,-1.9089159737307755,1,right
6.705,-0.862198464595052,0.5301070199909211,0.24157328440378828,3.3848112677497864,5.894141598398951,1.3874317494823234,0.4868453628494415,-1.785508171130925,-1.878134907317106,1,right
6.706,-0.8664705593200791,0.5134160171558501,0.24065656120900755,3.305352256591809,5.861086690070364,1.403572432111554,0.5010215754975422,-1.7851850368270819,-1.8461429292294387,1,right
6.709,-0.8704812109002462,0.49696867222997176,0.23967465396796442,3.22407102961911,5.823051675075473,1.4194159662379982,0.5154920269089996,-1.7847315536108468,-1.8129468728997602,1,right
6.709,-0.8742321007059224,0.4807786762586489,0.23862807024225094,3.1410195382055623,5.780024750466404,1.43495100406067,0.5302571300336825,-1.7841615380175888,-1.7785544678263887,1,right
6.7139999999999995,-0.8777252471495357,0.4648593433839784,0.23751728342323555,3.0562520793828707,5.7320008746727895,1.4501669847586625,0.545317078660086,-1.7834892319523343,-1.7429743382133807,1,right
6.715,-0.8809629918698925,0.4492235998369869,0.23634273190831115,2.9698252303948895,5.67898181785299,1.465054154645404,0.5606718404877957,-1.782729282939647,-1.7062160001016138,1,right
6.718,-0.8839479850441876,0.433883973547483,0.23510481827172555,2.881797774637569,5.620976193453539,1.4796035833772532,0.5763211504584328,-1.7818967231315783,-1.6682898568927556,1,right
6.718999999999999,-0.8866831698521739,0.41885258430756617,0.2338039083842213,2.7922306187411365,5.557999470838891,1.4938071762601184,0.5922645043883481,-1.781006947071795,-1.6292071931639305,1,right
6.724,-0.8891717661192199,0.4041411344142368,0.23244033044144302,2.7011867005463643,5.490073968839149,1.507657682696847,0.6085011529471707,-1.78007568821373,-1.58898016666751,1,right
6.725,-0.8914172531704156,0.3897608997184874,0.23101437390235158,2.6087308877221638,5.4172288300491775,1.5211487008171698,0.6250300960271677,-1.7791189941903942,-1.5476217984070968,1,right
6.728,-0.8934233519350908,0.375722721022646,0.22952628840714917,2.514929866767349,5.33949997569825,1.534274678330983,0.6418500775492167,-1.7781532008333347,-1.505145960677457,1,right
6.729,-0.8951940063485033,0.36203699579175597,0.2279762828088926,2.419852022135162,5.256930040895144,1.5470309096447445,0.6589595807520279,-1.7771949049380942,-1.4615673629528678,1,right
6.733,-0.8967333641044158,0.34871367017176835,0.22636452448193614,2.3235673052150996,5.169568290039495,1.5594135292797286,0.6763568239983975,-1.776260935805651,-1.4169015355725454,1,right
6.734,-0.8980457568163107,0.33576223132709954,0.22469113905226726,2.226147092902728,5.077470512176223,1.5714195016298378,0.6940397570645815,-1.7753683257502568,-1.371164811505874,1,right
6.734,-0.8991356796461397,0.32319170011914955,0.22295621064709883,2.127664035484496,4.98069889605593,1.583046607095605,0.7120060577563818,-1.7745342800538453,-1.3243743070840388,1,right
6.739,-0.900007770468183,0.3110106241583394,0.22115978271333317,2.028191893561111,4.879321884650408,1.5942934246299558,0.7302531286278394,-1.7737761470082147,-1.276547902918804,1,right
6.74,-0.9006667886596254,0.2992270712864596,0.21930185941724603,1.9278053637297585,4.773414008858838,1.6051593107302127,0.7487780936477727,-1.773111388525347,-1.2277042258888486,1,right
6.742000000000001,-0.9011175936368111,0.28784862357197005,0.2173824076005409,1.82657989309622,4.663055700558688,1.6156443749591087,0.767577794783543,-1.7725575515066596,-1.1778626324639845,1,right
6.742999999999999,-0.9013651232656238,0.2768823719070288,0.21540135923092021,1.7245914844540815,4.548333087301468,1.6257494523233131,0.7866487885407556,-1.7721322400012436,-1.1270431932973548,1,right
6.744,-0.9014143722620551,0.26633491127976777,0.2133586142597531,1.6219164971498112,4.429337774827326,1.6354760732811742,0.8059873425121092,-1.771853088151214,-1.0752666789453436,1,right
6.747999999999999,-0.9012703706851058,0.2562123367805794,0.21125404377885376,1.5186314504190663,4.306166625719067,1.6448264323971282,0.8255894319893912,-1.7717377339226228,-1.0225545465720538,1,right
6.75,-0.900938162624653,0.24652024040230378,0.20908749334388843,1.4148128342083983,4.178921540344256,1.6538033564122983,0.8454507366933961,-1.7718037936207456,-0.9689289274924097,1,right
6.752000000000001,-0.9004227851910227,0.23726370869985317,0.20685878632101495,1.3105369293103655,4.047709242335028,1.6624102720554248,0.8655666376773148,-1.7720688371889834,-0.9144126154051904,1,right
6.752999999999999,-0.8997292479066105,0.22844732136956283,0.20456772713280075,1.205879636869305,3.9126410686838247,1.6706511736703613,0.8859322144598961,-1.7725503642910814,-0.8590290551646134,1,right
6.757000000000001,-0.8988625125871026,0.22007515079393256,0.2022141043163457,1.100916316959686,3.77383276408978,1.6785305906859325,0.906542242445426,-1.773265781176894,-0.802802331936464,1,right
6.757999999999999,-0.8978274737890656,0.21215076258028007,0.19979769334049774,0.9957216359376485,3.631404279179025,1.686053554952889,0.9273911906883023,-1.774232378332499,-0.7457571605822129,1,right
6.763,-0.8966289398924361,0.2046772171024829,0.19731825915677223,0.890369422265239,3.485479572211168,1.6932255679716386,0.9484732200606987,-1.7754673089160757,-0.6879188751120692,1,right
6.763999999999999,-0.8952716148783239,0.19765707203077032,0.19477555848746927,0.7849325305059726,3.3361864138734405,1.7000525680334038,0.9697821818825131,-1.7769875679816443,-0.6293134180454996,1,right
6.769,-0.8937600808554466,0.19109238580628019,0.19216934188723242,0.6794827131896841,3.183656194753613,1.7065408972964293,0.9913116170734801,-1.7788099724934738,-0.5699673295153912,1,right
6.769,-0.8920987813879452,0.18498472199135957,0.18949935564375828,0.5740905002441755,3.0280237350727646,1.7126972688178534,1.0130547558879999,-1.7809511421347535,-0.5099077359497606,1,right
6.773,-0.8902920056884981,0.17933515441166747,0.18676534359908337,0.4688250856909214,2.869427096249302,1.7185287335608688,1.0350045182938823,-1.7834274809149182,-0.4491623381627082,1,right
6.774,-0.8883438737614774,0.17414427300589208,0.1839670489696445,0.3637542213020579,2.708007393856335,1.7240426473958292,1.0571535150568412,-1.7862551595809102,-0.38775939868419157,1,right
6.777,-0.8862583226016874,0.1694121903108945,0.18110421622371248,0.2589441169160378,2.5439086115256293,1.7292466381130016,1.0794940495931844,-1.7894500988385567,-0.32572772815614115,1,right
6.778,-0.8840390935636937,0.16513854852832355,0.17817659304745817,0.1544593471096992,2.3772774153428196,1.734148572463729,1.1020181206537416,-1.7930279533912141,-0.2630966706204744,1,right
6.782,-0.8816897210081911,0.16132252713747408,0.1751839324072239,0.05036276392504974,2.2082629682704895,1.7387565232458666,1.1247174259026402,-1.797004096803838,-0.1998960875226767,1,right
6.784,-0.8792135223058982,0.15796285103531774,0.17212599470410156,-0.053284584650186186,2.037016744128014,1.7430787364484492,1.1475833664550894,-1.8013936072016874,-0.13615634025281034,1,right
6.787000000000001,-0.8766135892416717,0.1550577991967783,0.1690025500185884,-0.15642353074827883,1.863692340649801,1.7471235984696973,1.1706070524388623,-1.8062112538139756,-0.07190827104409524,1,right
6.787999999999999,-0.8738927808187928,0.15260521385521142,0.16581338045189833,-0.258996857532373,1.6884452911367271,1.750899603421614,1.1937793096446656,-1.8114714843739261,-0.007183182047567004,1,right
6.791,-0.8710537174241357,0.1506025102047001,0.1625582825783861,-0.3609493652501605,1.5114328742091494,1.7544153205336075,1.2170906873310663,-1.8171884133878717,0.05798718760022769,1,right
6.792000000000001,-0.8680987762878908,0.1490466866233124,0.1592370700245651,-0.4622279327265129,1.3328139211639165,1.7576793616667743,1.2405314672500944,-1.8233758112872682,0.12357068690099894,1,right
6.796,-0.8650300881601406,0.14793433541035902,0.15584957618215595,-0.5627815745896209,1.1527486204322808,1.7607003489497133,1.2640916739600716,-1.8300470944787637,0.1895347804958142,1,right
6.797000000000001,-0.8618495351275386,0.14726165402143787,0.1523956570473761,-0.6625614945234085,0.9713983186305394,1.7634868825459868,1.287761086492611,-1.8372153163087783,0.25584657873067934,1,right
6.8020000000000005,-0.8585587495016482,0.14702445677548975,0.14887519416254796,-0.7615211348370595,0.7889253176906292,1.7660475085626266,1.3115292513984587,-1.8448931589236304,0.3224728703768571,1,right
6.803,-0.8551591137230261,0.1472181870029082,0.1452880976267954,-0.8596162226404127,0.6054926675537418,1.7683906871083763,1.3353854969839583,-1.853092925823803,0.3893801576068882,1,right
6.803,-0.8516517612379657,0.14783792960357273,0.14163430914183825,-0.9568048129117697,0.42126395390633536,1.7705247605096994,1.359318948166412,-1.8618265345814728,0.4565346919455853,1,right
6.807,-0.8480375783119787,0.14887842398187182,0.13791380506068718,-1.053047328742301,0.23640308043470248,1.772457921691924,1.3833185411636624,-1.8711055090080562,0.5239025094257894,1,right
6.808,-0.8443172067434387,0.15033407731806503,0.134126599407833,-1.1483065990387653,0.05107404507148807,1.7741981827322737,1.4073730374467046,-1.8809409702438527,0.5914494636698684,1,right
6.811,-0.8404910474375455,0.15219897812809996,0.13027274684301765,-1.2425478938243095,-0.1345592899677545,1.7757533436154018,1.4314710367681802,-1.8913436265743047,0.6591412565013408,1,right
6.812,-0.8365592648007645,0.15446691006548138,0.1263523455488007,-1.3357389565777023,-0.32033343292684874,1.7771309613438053,1.4556009892930264,-1.9023237619627849,0.726943466182004,1,right
6.813,-0.8325217919188175,0.15713136592673724,0.1223655400316435,-1.4278500317944671,-0.5060854976576048,1.7783383197751454,1.4797512069003553,-1.9138912233281902,0.7948215734685368,1,right
6.816,-0.8283783364815706,0.16018556182632565,0.11831252383579934,-1.518853885253754,-0.6916534331682576,1.7793824006803143,1.5039098737257717,-1.9260554065972453,0.8627409856829629,1,right
6.817,-0.8241283874130609,0.1636224515040247,0.11419354218001085,-1.6087258151684811,-0.876876243200498,1.780269856393235,1.528065056013418,-1.938825241563085,0.9306670589916795,1,right
6.821000000000001,-0.8197712221590392,0.167434740725543,0.11000889453661448,-1.697443653647255,-1.061594194406539,1.781006984202683,1.5522047113470976,-1.9522091755833613,0.9985651190879702,1,right
6.822,-0.8153059145824536,0.17161490174076205,0.10575893717633532,-1.7849877585901033,-1.2456490133319855,1.78159970251361,1.5763166973298568,-1.9662151561528438,1.0664004804730451,1,right
6.825,-0.8107313434187079,0.17615518777063627,0.10144408569722045,-1.871340996276149,-1.4288840727362608,1.7820535287805357,1.600388779781387,-1.9808506123872094,1.1341384645306638,1,right
6.827000000000001,-0.8060462012451721,0.18104764749967156,0.09706481754380682,-1.9564887148980499,-1.611144567780891,1.782373559215132,1.6244086405225677,-1.9961224354564944,1.2017444165903213,1,right
6.83,-0.8012490039225595,0.18628413955585527,0.09262167450681975,-2.0404187092946544,-1.792277682614057,1.7825644502697218,1.6483638848163948,-2.012036958008454,1.2691837221737938,1,right
6.831,-0.7963381004698444,0.19185634696449075,0.08811526517952166,-2.1231211771299145,-1.9721327478774593,1.7826304018980006,1.6722420485344172,-2.02859993262389,1.3364218226195652,1,right
6.835,-0.7913116833396415,0.19775579156573495,0.08354626733703462,-2.204588666762633,-2.1505613896587565,1.7825751425939151,1.696030605117657,-2.0458165093478335,1.4034242302792712,1,right
6.836,-0.7861677990656625,0.20397384838589827,0.07891543019991225,-2.284816017048133,-2.327417670409598,1.7824019162092528,1.7197169724008075,-2.0636912123423135,1.4701565434798225,1,right
6.84,-0.7809043592565059,0.21050175994979106,0.07422357654344451,-2.3638002893094217,-2.502558222345607,1.7821134705501438,1.7432885193682728,-2.0822279157083012,1.5365844614442905,1,right
6.841,-0.7755191519125187,0.21733065051834155,0.06947160462035122,-2.441540691711863,-2.6758423738405783,1.7817120477523163,1.7667325729103647,-2.1014298185262987,1.6026737993639615,1,right
6.846,-0.7700098530472087,0.22445154023456448,0.06466048987501662,-2.5180384962718296,-2.8471322693226457,1.7811993764346215,1.79003642464767,-2.1212994191669305,1.6683905038131877,1,right
6.847,-0.764374038600939,0.23185535916117198,0.05979128643814035,-2.5932969487262305,-3.0162929831752407,1.780576665630002,1.813187337891278,-2.141838488924797,1.7337006686977938,1,right
6.85,-0.758609196640316,0.23953296119252368,0.05486512839841251,-2.6673211714862486,-3.183192628140353,1.77984460049275,1.8361725548061896,-2.1630480450307545,1.798570551926823,1,right
6.851,-0.7527127398409341,0.24747513782036704,0.04988323085116507,-2.740118059895048,-3.3477024587158675,1.7790033397805918,1.8589793038448275,-2.184928323099707,1.8629665929963308,1,right
6.855,-0.7466820182537605,0.25567263172686316,0.0448468907218419,-2.811696172005663,-3.5096969700326497,1.7780525151098057,1.8815948075171214,-2.2074787490729184,1.9268554316727813,1,right
6.855,-0.7405143323559275,0.26411615017171847,0.039757487355937586,-2.882065612091734,-3.669053992690556,1.776991231981272,1.9040062905631752,-2.2306979107157683,1.990203927962319,1,right
6.86,-0.7342069463842098,0.27279637813516383,0.03461648286180562,-2.951237908100238,-3.8256547840256956,1.7758180725750408,1.9262009885940072,-2.2545835287338116,2.0529791835508417,1,right
6.861000000000001,-0.7277571019431119,0.2817039911756696,0.029425422191920046,-3.019225883251851,-3.97938411627405,1.7745311003106805,1.9481661572653008,-2.2791324275719176,2.115148564898338,1,right
6.865,-0.7211620318699843,0.29082966795940546,0.024185932950706913,-3.086043521991128,-4.13013036208898,1.7731278661703562,1.9698890820485235,-2.3043405059631867,2.1766797281694004,1,right
6.8660000000000005,-0.7144189743298731,0.30016410241602,0.018899724921038738,-3.151705830485247,-4.277785577862248,1.7716054167812636,1.9913570886631424,-2.3302027072962574,2.2375406461801846,1,right
6.869,-0.7075251871058555,0.30969801547365505,0.013568589306359936,-3.216228691866642,-4.422245585289924,1.7699603042537169,2.012557554201741,-2.356712989894677,2.297699637452834,1,right
6.87,-0.7004779620476099,0.3194221663304327,0.008194397689495996,-3.279628716411519,-4.563410051616035,1.7681885977708534,2.033477918822778,-2.383864297419744,2.3571253970290544,1,right
6.872000000000001,-0.6932746396404482,0.3293273632307307,0.0027791007104297056,-3.3419230868429186,-4.701182568977854,1.7662858969255715,2.0541056976035432,-2.411648529818588,2.415787027905088,1,right
6.875,-0.6859126236544056,0.3394044737223735,-0.0026752735337687425,-3.403129398943711,-4.835470733267652,1.7642473467999698,2.0744284919887477,-2.4400565153569516,2.4736540715107975,1,right
6.876,-0.6783893958252614,0.34964443436815645,-0.008166621357959238,-3.463265497661698,-4.966186222916209,1.762067654782186,2.0944340004257223,-2.469077984162134,2.530696536090993,1,right
6.879,-0.67070253051022,0.360038259879938,-0.013692765608389317,-3.522349309050693,-5.093244877807481,1.759741109090166,2.1141100280578304,-2.4987015434949016,2.586884922632438,1,right
6.88,-0.6628497092569022,0.3705770516471099,-0.019251458008011053,-3.5803986692127032,-5.216566777592775,1.7572615988465077,2.1334444955031766,-2.528914654855109,2.6421902484152078,1,right
6.881,-0.6548287352256178,0.38125200564263745,-0.024840381704147596,-3.6374311528871606,-5.336076316986738,1.7546226353231482,2.15242544677605,-2.5597036130043787,2.696584068352205,1,right
6.885,-0.6466375474039806,0.39205441969833715,-0.030457153997191233,-3.693463905154521,-5.451702274685936,1.7518173738492533,2.1710410564076086,-2.591053526990915,2.7500384942781806,1,right
6.886,-0.6382742345453378,0.4029757001404363,-0.03609932922572825,-3.7485134788941736,-5.563377873471108,1.7488386360002113,2.189279635821315,-2.622948303263215,2.8025262123470824,1,right
6.89,-0.629737048754448,0.41400736777172165,-0.04176440177653434,-3.8025956791498046,-5.671040830719012,1.745678931910154,2.207129639017628,-2.6553706309610936,2.8540204986939246,1,right
6.89,-0.6210244186423732,0.4251410631842876,-0.04744980918234001,-3.8557254147280897,-5.774633399469719,1.7423304826749315,2.2245796676213994,-2.688301969474049,2.9044952335146825,1,right
6.894,-0.6121349619769098,0.4363685513876421,-0.0531529352685201,-3.9079165571888974,-5.874102400370005,1.7387852428369663,2.2416184753443544,-2.7217225383585544,2.953924913714939,1,right
6.895,-0.6030674977610687,0.4476817257392521,-0.05887111331273757,-3.9591818073823966,-5.969399244802023,1.7350349229428956,2.2582349719138985,-2.7556113097073767,3.002284664275152,1,right
6.899,-0.5938210576782939,0.4590726111681255,-0.06460162918882473,-4.009532569685725,-6.06047994949472,1.7310710121643658,2.2744182265183626,-2.7899460030654852,3.049550248477491,1,right
6.9,-0.5843948968498693,0.47053336668734597,-0.0703417244758555,-4.058978834089177,-6.147305142903661,1.7268848009717745,2.29015747081761,-2.82470308298851,3.095698077136188,1,right
6.903,-0.5747885038582967,0.482056287199438,-0.07608859952222541,-4.107529066279208,-6.2298400636329,1.7224674038501697,2.3054421015667117,-2.859857759341058,3.1407052169702756,1,right
6.905,-0.565001610000727,0.4936338046086629,-0.08183941646038624,-4.155190105862923,-6.308054551160488,1.7178097820458977,2.3202616828991625,-2.89538399043347,3.184549398254439,1,right
6.909,-0.5550341977490518,0.5052584882660869,-0.08759130217122241,-4.201967072876108,-6.381923029116959,1.7129027663319587,2.334605948314826,-2.9312544890968124,3.2272090218805105,1,right
6.91,-0.5448865084073212,0.5169230447866262,-0.09334135119905032,-4.247863282714297,-6.4514244813538335,1.7077370797793572,2.3484648024164985,-2.9674407317970366,3.26866316595884,1,right
6.912000000000001,-0.5345590489711147,0.5286203172912328,-0.0990866286186689,-4.292880169623798,-6.516542421026769,1.7023033605210494,2.3618283224376393,-3.0039129708903105,3.3088915920854616,1,right
