time,gFx,gFy,gFz,ax,ay,az,wx,wy,wz,subject_number,foot
10.044,0.3034012795439851,1.2027644198755494,-0.11478552538914022,0.3999888234817056,1.2411741648003132,0.6906754054175281,-0.15490375501925435,1.3350246359695648,-0.2399429476083288,2,right
10.045,0.29968120612700067,1.20599004897287,-0.11615832904888862,0.475309133880065,1.2651809112662555,0.6779408173708317,-0.160833573233678,1.3365058750286845,-0.28538830703804763,2,right
10.05,0.29568414678000726,1.2092076421541735,-0.11750078689703755,0.5507594992559556,1.288773570399631,0.6650583995209648,-0.16639060565103933,1.337445391388188,-0.330307026079847,2,right
10.051,0.29140960613617495,1.2124119463618286,-0.11881075022530238,0.626298033189359,1.311984764170804,0.6520240444385735,-0.17157958634651613,1.337857285965326,-0.3746800170028192,2,right
10.054,0.28685746817214536,1.2155975796261416,-0.12008611224845636,0.7018818206921602,1.3348473850999656,0.6388337178714436,-0.1764055158170278,1.3377557614664393,-0.4184884500832152,2,right
10.055,0.2820280096917056,1.2187590462976368,-0.12132481736228111,0.777466904838696,1.3573945313753022,0.625483476584501,-0.1808736514444642,1.3371550947101007,-0.4617137671605686,2,right
10.059,0.27692191232804286,1.2218907529672645,-0.12252487013466358,0.8530082754547065,1.3796594391453234,0.6119694866683751,-0.1849894978598264,1.3360696100208445,-0.50433769575675,2,right
10.061,0.2715402727039603,1.2249870249368942,-0.12368434396797853,0.928459860081731,1.4016754120510972,0.5982880422786244,-0.18875879722215383,1.3345136536932227,-0.5463422638837628,2,right
10.064,0.26588461048402806,1.2280421231253529,-0.12480138943882865,1.0037745174339843,1.4234757480632385,0.5844355847672645,-0.1921875194250861,1.3325015695244948,-0.5877098156644162,2,right
10.065,0.25995687420927954,1.2310502613186067,-0.12587424236997605,1.0789040335646252,1.4450936636876812,0.5704087221677693,-0.1952818522428954,1.33004767541286,-0.6284230278882826,2,right
10.068,0.25375944499192,1.2340056236752037,-0.12690123171432785,1.1537991209580674,1.466562215603555,0.5562042489942322,-0.19804819142682994,1.3271662410167997,-0.6684649276235712,2,right
10.068999999999999,0.247295138323033,1.2369023823768905,-0.12788078734426395,1.2284094207645886,1.4879142197958624,0.5418191663148891,-0.2004931307616321,1.3238714664697722,-0.707818911003716,2,right
10.073,0.24056720437310752,1.2397347152892908,-0.12881144783933765,1.3026835083929578,1.5091821682451283,0.5272507020596982,-0.20262345209113466,1.320177462143248,-0.7464687633056014,2,right
10.074,0.23357932722129593,1.242496823491321,-0.129691868338788,1.3765689026761272,1.5303981432357703,0.5124963315211638,-0.20444611532089507,1.3160982294498362,-0.7843986804344201,2,right
10.08,0.22633562342154315,1.2451829485468202,-0.13052082847887078,1.4500120788242128,1.5515937293445963,0.49755379800707755,-0.2059682484049073,1.3116476426770665,-0.8215932919281798,2,right
10.08,0.218840640197448,1.2477873894145595,-0.13129724039006435,1.5229584853780194,1.572799923170593,0.48242113360331607,-0.20719713732379566,1.3068394318395808,-0.8580376855256308,2,right
10.081,0.2110993533832962,1.2503045189185458,-0.13202015669561395,1.5953525653752487,1.594047040867026,0.4670966800043077,-0.20814021606736377,1.3016871665280543,-0.8937174330031845,2,right
10.085,0.20311716505234337,1.2527287997360566,-0.13268877842036167,1.6671377819402575,1.6153646235368055,0.45157910936823653,-0.20880505664494137,1.2962042407171097,-0.928618616379243,2,right
10.086,0.19489990062069346,1.2550547999082085,-0.1333024626695854,1.738256648506797,1.6367813405521006,0.4358674451535083,-0.2091993591524812,1.2904038584851378,-0.9627278532460763,2,right
10.088,0.1864538050988638,1.2572772079272243,-0.1338607298849169,1.8086507638366305,1.6583248909585933,0.41996108287873624,-0.20933094191818563,1.2842990206062685,-0.9960323203233185,2,right
10.089,0.1777855381347834,1.2593908474897428,-0.13436327047802332,1.8782608517704036,1.6800219036214097,0.40385981067936116,-0.20920773173621127,1.2779025119887835,-1.0285197749299564,2,right
10.089,0.1689021675788823,1.2613906920234748,-0.134809950696645,1.947026805240634,1.7018978376636393,0.3875638294100105,-0.20883775419087147,1.2712268899416652,-1.060178574405544,2,right
10.093,0.15981116145260046,1.263271879119025,-0.13520081764070843,2.0148877338498483,1.7239768852451716,0.37107377197255603,-0.20822912407173164,1.2642844732517764,-1.0909976935762908,2,right
10.093,0.15052037836195564,1.2650297250464937,-0.13553610336823513,2.0817820145393937,1.7462818782335638,0.3543907216178545,-0.20739003587926066,1.2570873320533191,-1.1209667403593262,2,right
10.099,0.1410380565613024,1.266659739581974,-0.13581622799620915,2.147647345276625,1.7688341994255699,0.33751622909205614,-0.20632875441999352,1.2496472784704225,-1.1500759695960656,2,right
10.1,0.13137280203139476,1.2681576413752498,-0.13604180160892754,2.212420801910318,1.7916536984820959,0.320452328566394,-0.20505360548947368,1.2419758580129434,-1.178316295203189,2,right
10.103,0.121533576058981,1.2695193740466626,-0.13621362465620238,2.2760388983863495,1.8147586126407043,0.30320155230253193,-0.20357296664058314,1.234084341704827,-1.2056793007273034,2,right
10.105,0.11152968286926367,1.270741123112534,-0.13633268641794488,2.3384376505127236,1.8381654922704977,0.2857669440049989,-0.20189525803422886,1.2259837189236837,-1.2321572483868968,2,right
10.107999999999999,0.10137075786288217,1.2718193337080026,-0.13640016110668463,2.3995526434598786,1.8618891313349726,0.2681520708116961,-0.20002893336874072,1.2176846909295627,-1.2577430866826855,2,right
10.109,0.09106675694165921,1.2727507289175697,-0.13641740130829189,2.4593191031788986,1.8859425028292538,0.25036103387292563,-0.19798247088374576,1.20919766506028,-1.2824304566549525,2,right
10.113,0.0806279472663312,1.2735323283645006,-0.1363859286843575,2.5176719719167475,1.9103366992589865,0.23239847746886372,-0.19576436443371692,1.2005327495700517,-1.3062136968639215,2,right
10.113,0.07006489958232757,1.2741614665698882,-0.136307422114756,2.574545988003948,1.935080878229063,0.21426959661488496,-0.19338311462585323,1.191699749087613,-1.3290878471666532,2,right
10.118,0.05938848200118688,1.2746358104727478,-0.13618370371929986,2.629875770086263,1.9601822132113056,0.19598014310363793,-0.1908472200164311,1.1827081606694647,-1.3510486513613744,2,right
10.119,0.04860985486204117,1.2749533754125197,-0.13601672344099583,2.683595905967868,1.9856458495612064,0.17753642993228233,-0.18816516835927255,1.1735671704233799,-1.3720925587675519,2,right
10.123,0.0377404660386711,1.2751125388472746,-0.13580854301210327,2.735641046229259,2.011474865854822,0.15894533406282033,-0.18534542789950853,1.1642856506768073,-1.3922167248074115,2,right
10.124,0.026792045829043324,1.2751120511487617,-0.1355613200337729,2.7859460027787044,2.0376702406179388,0.14021429746299485,-0.18239643870536992,1.1548721576643706,-1.411419010651985,2,right
10.128,0.015776600417187942,1.2749510429776678,-0.13527729255898785,2.834445852491419,2.0642308245206764,0.1213513263747861,-0.17932660403032033,1.1453349297082163,-1.4296979819921283,2,right
10.128,0.004706402892857514,1.274629028952028,-0.13495876412597527,2.8810760460858393,2.091153318111718,0.10236498875711483,-0.176144281697448,1.135681885864569,-1.447052906992322,2,right
10.132,-0.00640601902129093,1.2741459075162909,-0.1346080888454077,2.925772522381366,2.1184322551674293,0.08326440984896072,-0.17285777549766362,1.1259206250094687,-1.4634837534824114,2,right
10.133,-0.017547899088907623,1.2735019570611164,-0.13422765600323028,2.9684718280767615,2.1460599917321526,0.06405926579872517,-0.16947532659290318,1.1160584253363073,-1.4789911854397975,2,right
10.139,-0.028706252729362204,1.272697828433429,-0.13381987370057932,3.009111243183029,2.1740267009270084,0.04475977530531647,-0.16600510491521156,1.1061022442374522,-1.4935765588119303,2,right
10.14,-0.03986790111297508,1.2717345340294757,-0.13338715126645104,3.047628912239027,2.2023203736055548,0.02537668921610663,-0.16245520055228355,1.0960587185419302,-1.5072419167263127,2,right
10.142000000000001,-0.05101949880158151,1.2706134337016046,-0.1329318804812362,3.0839639814323547,2.2309268249356458,0.0059212780266110175,-0.15883361510976288,1.0859341650808567,-1.5199899841325633,2,right
10.142000000000001,-0.06214756439682338,1.2693362177547687,-0.1324564159606746,3.1180567417421163,2.259829706987808,-0.013594682773528623,-0.15514825304034796,1.07573458155202,-1.5318241619184447,2,right
10.148,-0.07323851361319243,1.2679048873687109,-0.13196305528425287,3.1498487782140923,2.289010527411386,-0.033158929563915696,-0.15140691293858125,1.0654656476684217,-1.5427485205355314,2,right
10.148,-0.08427869425928759,1.2663217328256693,-0.1314540195314932,3.179283125472563,2.3184486742805905,-0.052758729721989826,-0.14761727884528447,1.0551327266435169,-1.5527677931496287,2,right
10.15,-0.09525442274951938,1.2645893099307406,-0.13093143481732258,3.2063044295665977,2.348121447193456,-0.07238090307287522,-0.14378691168694047,1.0447408671884175,-1.561887368296153,2,right
10.152999999999999,-0.10615202189374215,1.262710415040946,-0.13039731531797727,3.2308591162420237,2.3780040947074763,-0.09201184571666163,-0.1399232410204519,1.0342948062642956,-1.5701132820001327,2,right
10.154,-0.1169578597725391,1.2606880592200662,-0.12985354824252443,3.2528955657235055,2.4080698581964493,-0.11163755628939473,-0.1360335572082782,1.0237989727648658,-1.5774522093358347,2,right
10.157,-0.12765838953465186,1.2585254421352394,-0.129301881166586,3.272364293844499,2.438290022154827,-0.13124366466152226,-0.1321250040673116,1.0132574921809194,-1.5839114554307068,2,right
10.158,-0.13824018999190443,1.2562259262962407,-0.12874391202724894,3.2892181381570262,2.4686339706820744,-0.15081546281459954,-0.1282045719894664,1.0026741922305507,-1.5894989459336877,2,right
10.158,-0.14869000692366774,1.253793012113691,-0.12818108191814775,3.3034124454882487,2.499069249350109,-0.17033793716370074,-0.12427909152282349,0.9920526094249305,-1.5942232169689952,2,right
10.162,-0.1589947950045295,1.2512303141290821,-0.1276146706846909,3.314905256204724,2.529561631362935,-0.18979580132995816,-0.12035522740211624,0.9813959965393532,-1.5980934045939572,2,right
10.163,-0.16914176022852256,1.2485415387158068,-0.12704579521737094,3.3236574816364435,2.560075187212335,-0.20917352863051947,-0.11643947301731054,0.9707073309591615,-1.601119233776956,2,right
10.166,-0.17911840264721704,1.2457304635194528,-0.1264754102731438,3.3296330732628565,2.5905723575636874,-0.22845538402641244,-0.11253814530901632,0.9599893238700424,-1.6033110069090795,2,right
10.167,-0.1889125591932719,1.242800918838685,-0.1259043116187317,3.332799183454066,2.621014029400549,-0.2476254555315871,-0.10865738007947247,0.9492444302620889,-1.604679591860618,2,right
10.171,-0.19851244632492998,1.2397567710557507,-0.1253331412752525,3.333126317792255,2.6513596155155765,-0.26666768513876865,-0.10480312770786962,0.9384748597169269,-1.605236409591119,2,right
10.172,-0.20790670218618904,1.2366019081390474,-0.12476239463595168,3.33058847899045,2.6815671374353145,-0.2855658993174789,-0.10098114925881688,0.9276825879471208,-1.604993421319321,2,right
10.177,-0.21708442792483473,1.233340227169711,-0.12419242921680812,3.325163302417641,2.711593311866212,-0.30430383913926135,-0.09719701297281651,0.9168693690569981,-1.6039631152569245,2,right
10.177999999999999,-0.22603522775033688,1.229975623791475,-0.12362347477499391,3.31683218323115,2.7413936407489556,-0.322865190084779,-0.09345609112768702,0.9060367484939575,-1.6021584929078205,2,right
10.182,-0.23474924725621707,1.2265119834490565,-0.12305564448900794,3.30558039510891,2.7709225050077984,-0.34123361158703885,-0.08976355725996708,0.895186076659261,-1.599593054932112,2,right
10.183,-0.2432172094863159,1.222953174263764,-0.12248894684705791,3.2913972005660237,2.8001332620810486,-0.3593927663645377,-0.0861243837354409,0.8843185231472508,-1.596280786571991,2,right
10.186,-0.25143044819624394,1.219303041392917,-0.12192329786128457,3.2742759528316396,2.8289783473182313,-0.37732634959761563,-0.08254333965804975,0.8734350915818743,-1.592236142634321,2,right
10.187000000000001,-0.25938093775235416,1.2155654027294844,-0.12135853323948813,3.2542141892538026,2.857409379328645,-0.39501811800074915,-0.07902498910659242,0.8625366350193472,-1.5874740320225789,2,right
10.191,-0.2670613191231539,1.211744045818297,-0.1207944202132148,3.2312137161915127,2.8853772693651325,-0.4124519188429162,-0.07557368968877075,0.8516238718857396,-1.5820098018086772,2,right
10.192,-0.2744649214542321,1.2078427258918876,-0.1202306688289578,3.2052806853448086,2.9128323348258194,-0.42961171896751554,-0.07219359140230253,0.8406974024182204,-1.575859220833078,2,right
10.196,-0.28158577877722596,1.2038651649566192,-0.11966694262605107,3.176425661465248,2.9397244169553964,-0.4464816338626296,-0.06888863579300389,0.8297577255786538,-1.569038462819552,2,right
10.197000000000001,-0.28841864148368573,1.1998150518818382,-0.11910286871510702,3.1446636813807207,2.966003002826173,-0.4630459568316799,-0.06566255539993561,0.8188052564081982,-1.561564088988918,2,right
10.2,-0.29495898229438255,1.1956960434562292,-0.11853804731298992,3.1100143042601114,2.9916173516776756,-0.47928918831373457,-0.06251887347791148,0.8078403437915226,-1.5534530301541292,2,right
10.201,-0.3012029965749582,1.1915117663740322,-0.11797206078419362,3.0725016530349705,3.0165166256919314,-0.4951960654018992,-0.059460903987882625,0.7968632885992115,-1.54472256827715,2,right
10.206,-0.30714759699029104,1.187265820099701,-0.11740448220158628,3.0321544468869748,3.0406500252798137,-0.5107515916073403,-0.05649175184593774,0.7858743621768979,-1.5353903174661836,2,right
10.207,-0.3127904026456215,1.182961780532825,-0.1168348833944296,2.9890060247017,3.0639669289519382,-0.5259410669155721,-0.05361431342189535,0.7748738251496251,-1.5254742043899898,2,right
10.21,-0.3181297230176179,1.1786032043550354,-0.11626284241444651,2.9430943593809973,3.086417037845511,-0.540750118180671,-0.05083127727871012,0.763861946509903,-1.5149924480842507,2,right
10.211,-0.3231645371166756,1.1741936338912375,-0.11568795033083586,2.894462062898144,3.107950524976362,-0.5551647299020724,-0.04814512514416981,0.7528390229578913,-1.503963539123212,2,right
10.216000000000001,-0.32789446841989867,1.16973660227292,-0.11510981726902728,2.843156381971894,3.128518189283031,-0.5691712754275537,-0.04555813310732281,0.7418053984443215,-1.4924062181524476,2,right
10.216000000000001,-0.3323197561357034,1.1652356386747234,-0.11452807763447673,2.78922918422763,3.148071614527299,-0.5827565486249167,-0.043072373035848016,0.7307614837777914,-1.480339453898428,2,right
10.217,-0.3364412233092008,1.1606942734132626,-0.11394239450017213,2.732736934706008,3.1665633331129115,-0.5959077960637484,-0.04068971421715889,0.7197077759979401,-1.4677824209876427,2,right
10.22,-0.34026024224604035,1.1561160427162054,-0.11335246317262057,2.67374066257182,3.183946994881479,-0.6086127497474711,-0.03841182522981889,0.7086448771270388,-1.4547544780279624,2,right
10.221,-0.34377869779314046,1.1515044929622287,-0.11275801397983232,2.6123059178682793,3.200177540941625,-0.6208596604346773,-0.03624017604863483,0.6975735120014424,-1.4412751462820106,2,right
10.226,-0.3469989490980381,1.1468631841843024,-0.1121588143408749,2.5485027181971622,3.215211382308462,-0.6326373315312284,-0.03417604038078848,0.6864945450444183,-1.4273640890422643,2,right
10.227,-0.34992379046133143,1.142195692654574,-0.11155467017571465,2.4824054854110305,3.229006581747599,-0.6439351532519152,-0.0322204982271659,0.6754089959307876,-1.413041091694798,2,right
10.228,-0.35255641180176733,1.137505612420592,-0.11094542670120867,2.4140929727800793,3.2415230347311264,-0.6547431362426602,-0.0303744386626488,0.6643180541115709,-1.3983260424329838,2,right
10.231,-0.3549003591853348,1.1327965557090163,-0.11033096864767175,2.3436481833023497,3.2527226440298778,-0.6650519435714993,-0.02863856282944052,0.6532230921668173,-1.383238913581236,2,right
10.232000000000001,-0.3569594958978393,1.128072152144394,-0.10971121992987785,2.2711582796064778,3.2625694838424226,-0.6748529202765959,-0.02701338713781069,0.6421256779547727,-1.3677997434876867,2,right
10.235,-0.3587379646017121,1.1233360467620421,-0.109086142815502,2.1967144855064755,3.2710299518410255,-0.6841381201646477,-0.025499246668957004,0.6310275855255281,-1.3520286189435724,2,right
10.235,-0.3602401511303071,1.118591896836486,-0.10845573664854984,2.1204119790489546,3.2780729088907297,-0.6929003298329995,-0.0240962987749984,0.6199308047672787,-1.3359456580860287,2,right
10.24,-0.3614706504355877,1.1138433675932626,-0.10782003620338802,2.0423497768447465,3.2836698064697845,-0.7011330899436026,-0.02280452687143173,0.608837549753319,-1.3195709937399835,2,right
10.242,-0.3624342351468571,1.1090941269109056,-0.10717910976386118,1.9626306094712636,3.2877948018156453,-0.7088307137754776,-0.021623744417702487,0.5977502657578948,-1.3029247571538882,2,right
10.245,-0.3631358271286465,1.1043478391463246,-0.10653305703628896,1.8813607877266212,3.290424860816725,-0.715988303080841,-0.020553599081859324,0.5866716349090395,-1.2860270620831258,2,right
10.245999999999999,-0.36358047234511154,1.0996081582307307,-0.1058820070092922,1.798650059511489,3.2915398486659146,-0.7226017612685309,-0.01959357708558101,0.5756045804465314,-1.2688979891741006,2,right
10.251,-0.3637733192480427,1.0948787201874095,-0.10522611586381637,1.7146114571098863,3.2911226082876786,-0.7286678039368353,-0.01874300772618297,0.5645522695531277,-1.2515575706012327,2,right
10.252,-0.36371960081044596,1.0901631352195578,-0.10456556501419975,1.6293611346356949,3.2891590265462303,-0.7341839667762772,-0.018001068072528152,0.5535181147272554,-1.2340257749083574,2,right
10.254000000000001,-0.363424620231174,1.0854649795084725,-0.10390055933275201,1.5430181954075246,3.285638088237956,-0.7391486108613469,-0.01736678783208277,0.5425057736653733,-1.216322492005365,2,right
10.255,-0.3628937402393917,1.0807877868525224,-0.10323132558502274,1.4557045090107612,3.2805519178668643,-0.7435609253486024,-0.01683905438667178,0.5315191476222608,-1.1984675182703115,2,right
10.259,-0.362132375834632,1.0761350402682717,-0.10255811108426342,1.3675445178021526,3.2738958091973895,-0.7474209275969824,-0.016416617994800594,0.5205623782175451,-1.1804805417066764,2,right
10.26,-0.36114599021713295,1.0715101636680113,-0.10188118255984664,1.2786650326091569,3.265668242574422,-0.7507294607245898,-0.016098097158718468,0.5096398426568391,-1.1623811271049562,2,right
10.264000000000001,-0.35994009360108997,1.0669165137214733,-0.10120082522383719,1.1891950173734864,3.2558708899959345,-0.7534881886146217,-0.01588198415470492,0.4987561473359362,-1.14418870115734,2,right
10.265,-0.35852024456118686,1.062357372001406,-0.10051734201215543,1.0992653624858666,3.2445086079190957,-0.7556995883815398,-0.015766650725362583,0.48791611979659666,-1.1259225374738402,2,right
10.269,-0.3568920535355262,1.0578359375020587,-0.0998310529715647,1.009008646556957,3.231589417776226,-0.7573669403069836,-0.015750353932998243,0.4771247990025586,-1.1076017414479244,2,right
10.269,-0.3550611880907802,1.0533553196063439,-0.09914229475935081,0.9185588863676927,3.217124474172465,-0.758494315253362,-0.015831242173467756,0.4663874239045156,-1.0892452349194275,2,right
10.273,-0.3530333795452554,1.0489185315618967,-0.09845142021632701,0.8280512747409895,3.20112802073253,-0.7590865595614792,-0.016007361350149726,0.4557094202629335,-1.0708717405823134,2,right
10.275,-0.35081443054077005,1.0445284845104552,-0.0977587979654048,0.7376219060758165,3.183617333559473,-0.7591492774369974,-0.01627666120799716,0.44509638569771603,-1.0524997660846938,2,right
10.279000000000002,-0.3484102231536929,1.040187982100917,-0.09706481198111015,0.647407489284089,3.164612652263912,-0.7586888108289818,-0.01663700182789526,0.434554072933886,-1.0341475877684134,2,right
10.28,-0.34582672713965174,1.0358997157041427,-0.09636986107500951,0.5575450478706727,3.1441370985178256,-0.7577122168022421,-0.01708616028182692,0.42408837121261844,-1.0158332339954568,2,right
10.284,-0.3430700079165514,1.031666260237163,-0.09567435825132867,0.4681716068970113,3.122216582082638,-0.7562272424036677,-0.017621837449614843,0.41370528583715,-0.9975744680084391,2,right
10.285,-0.3401462339124996,1.0274900705974666,-0.09497872990519979,0.37942386656951205,3.098879694257069,-0.7542422970212442,-0.018241664991825095,0.403410915873412,-0.9793887703044554,2,right
10.286,-0.3370616829526955,1.023373478704523,-0.0942834148557597,0.2914378621948332,3.074157588685965,-0.7517664222329649,-0.01894321244144317,0.3932114302760566,-0.9612933206614407,2,right
10.288,-0.33382274742915735,1.0193186911433871,-0.09358886321960282,0.2043486102456219,3.048083849467213,-0.7488092591413884,-0.019723994319170948,0.38311304316186384,-0.943304980243946,2,right
10.289000000000001,-0.33043593805063504,1.0153277874024373,-0.09289553513658703,0.1182897402820465,3.0206943464897567,-0.7453810131881615,-0.020581477145205987,0.3731219892033761,-0.9254402743752183,2,right
10.294,-0.3269078859837621,1.0114027186927017,-0.09220389936474505,0.033393112476653504,2.99202707793177,-0.7414924164414142,-0.02151308625282768,0.3632444998652741,-0.9077153764029571,2,right
10.295,-0.3232453432025537,1.0075453073272658,-0.0915144317666039,-0.05021157950734712,2.9621219998441646,-0.7371546873475527,-0.022516212367353673,0.35348678075522094,-0.8901460927988374,2,right
10.296,-0.3194551808958169,1.0037572466257367,-0.09082761371527878,-0.13239721982605254,2.9310208430913294,-0.7323794880104608,-0.023588217946478578,0.3438549901106053,-0.8727478494724652,2,right
10.302999999999999,-0.3155443858333057,1.000040101296934,-0.09014393045314678,-0.21303969196516315,2.8987669196698707,-0.7271788794239549,-0.024726443284665663,0.33435521839282234,-0.8555356792488834,2,right
10.304,-0.311520054642092,0.9963953082478184,-0.0894638694372678,-0.2920183001116632,2.8654049235771013,-0.7215652757375537,-0.025928212384467558,0.3249934689610738,-0.8385242104591869,2,right
10.304,-0.30738938599112614,0.992824177762145,-0.08878791870822808,-0.3692161765175942,2.830980733150129,-0.7155513989985224,-0.027190838597849775,0.3157756397980305,-0.8217276565943004,2,right
10.306,-0.303159670730514,0.9893278949824107,-0.08811656532498853,-0.44452066450848404,2.795541220040555,-0.7091502354477695,-0.028511630040781173,0.30670750626008125,-0.805159806972504,2,right
10.307,-0.2988382800861947,0.985907521621052,-0.08745029390895494,-0.5178236731315282,2.7591340668320776,-0.7023749937904974,-0.029887894784537905,0.2977947048252852,-0.7888340183718685,2,right
10.308,-0.29443265206752545,0.9825639978311586,-0.08678958532766474,-0.5890220029597938,2.721807593552701,-0.6952390654971875,-0.031316945827342256,0.2890427178125609,-0.7727632075793766,2,right
10.312999999999999,-0.2899502762981852,0.9792981441808114,-0.08613491552581859,-0.6580176432685425,2.6836105929798535,-0.6877559871165609,-0.032796105850124845,0.280456859046074,-0.7569598448091639,2,right
10.314,-0.2853986775235297,0.9761106636907239,-0.08548675448820535,-0.7247180407940316,2.6445921746339343,-0.6799394045810812,-0.034322711760358025,0.2720422604392302,-0.741435947943011,2,right
10.318,-0.2807853980768229,0.9730021439076936,-0.0848455653028869,-0.7890363402791141,2.6048016173531563,-0.6718030394845264,-0.035894119028060036,0.263803859473144,-0.7262030775469412,2,right
10.319,-0.27611797960291623,0.9699730589955227,-0.08421180328693853,-0.8508915970036465,2.564288230340065,-0.6633606573101645,-0.03750770581821344,0.25574638754492857,-0.7112723326185554,2,right
10.322000000000001,-0.2714039443431157,0.9670237718314424,-0.08358591513905798,-0.9102089614911292,2.52310122256775,-0.6546260375871066,-0.039160876923977544,0.24787435916164488,-0.6966543470205301,2,right
10.323,-0.2666507762819096,0.9641545361006792,-0.08296833808975373,-0.9669198365761733,2.481289580431547,-0.6456129459514934,-0.04085106750520356,0.24019206195625356,-0.682359286556545,2,right
10.328,-0.2618659024473514,0.9613654983844303,-0.08235949902850365,-1.0209620070103287,2.438901953529954,-0.6363351080882927,-0.042575746636882156,0.2327035475024317,-0.6683968466467691,2,right
10.329,-0.2570566746431201,0.9586567002371369,-0.08175981359598719,-1.0722797417765257,2.395986548456544,-0.6268061855286445,-0.04433242067226717,0.22541262290565034,-0.6547762505609339,2,right
10.332,-0.2522303518711905,0.9560280802481661,-0.08116968523484241,-1.1208238692749144,2.352591030482868,-0.6170397532768919,-0.04611863642552534,0.21832284314845188,-0.6415062481679489,2,right
10.333,-0.24739408367969234,0.9534794760815629,-0.08058950419352312,-1.1665518255352287,2.308762433010687,-0.6070492792406728,-0.04793198417886137,0.21143750416842266,-0.6285951151619686,2,right
10.339,-0.24255489464161242,0.9510106264865883,-0.0800196464777953,-1.2094276756029918,2.2645470746703418,-0.5968481054367298,-0.049770100519159303,0.20475963664792418,-0.6160506527258036,2,right
10.34,-0.23771967013710077,0.9486211732722437,-0.07946047274502312,-1.2494221082389254,2.2199904839407067,-0.5864494309444102,-0.05163067100926666,0.19829200049522264,-0.6038801875935685,2,right
10.343,-0.23289514357643423,0.9463106632399423,-0.07891232713579878,-1.2865124040628506,2.175137331164916,-0.5758662965781837,-0.053511432699125124,0.1920370799972437,-0.5920905724754973,2,right
10.343,-0.2280878851636178,0.9440785500685608,-0.07837553603503207,-1.3206823772651857,2.130031367834941,-0.5651115712499025,-0.05541017648202348,0.18599707962477463,-0.5806881868089023,2,right
10.347999999999999,-0.22330429226307355,0.9419241961455705,-0.07785040675321374,-1.351922291000889,2.084715373017118,-0.5541979399909581,-0.05732474930131278,0.18017392047153916,-0.5696789378003296,2,right
10.347999999999999,-0.21855058139533173,0.9398468743375741,-0.07733722612078918,-1.380228746572359,2.0392311067898685,-0.5431378936039605,-0.059253056212981874,0.17456923730918164,-0.5590682617250579,2,right
10.353,-0.21383278185500645,0.9378457696931829,-0.07683625899380031,-1.4056045464994344,1.9936192705641222,-0.5319437199130722,-0.06119306230783761,0.1691843762415084,-0.5488611254587538,2,right
10.354000000000001,-0.20915673091953443,0.9359199810710976,-0.07634774667421625,-1.4280585315662282,1.9479194741563606,-0.5206274965816715,-0.06314279448855115,0.16402039294543636,-0.5390620282550236,2,right
10.355,-0.2045280706003813,0.9340685226883297,-0.0758719052516797,-1.4476053919261205,1.9021702094836963,-0.509201085465598,-0.06510034308152009,0.15907805149298718,-0.5296750038517729,2,right
10.357000000000001,-0.19995224587033938,0.9322903255889972,-0.07540892387617402,-1.464265452337827,1.8564088307500504,-0.4976761284698503,-0.06706386325500181,0.15435782375277426,-0.5207036230282399,2,right
10.357999999999999,-0.1954345042718696,0.9305842390420955,-0.0749589629756758,-1.478064431597076,1.8106715409922192,-0.4860640448762519,-0.06903157622352958,0.14985988936658598,-0.5121509966979437,2,right
10.362,-0.19097989677728322,0.9289490318862748,-0.07452215243902559,-1.4890331762200955,1.7649933848544912,-0.47437603010928486,-0.07100177023399669,0.1455841362910425,-0.5040197795559415,2,right
10.363,-0.18659327974420895,0.9273833938524311,-0.07409858979077305,-1.4972073684268226,1.7194082474604329,-0.4626230559070092,-0.07297280133734002,0.14153016189146234,-0.49631217426218854,2,right
10.364,-0.1822793177967322,0.9258859369102626,-0.07368833839020236,-1.5026272090650148,1.6739488591846954,-0.45081587184634764,-0.07494309395147204,0.1376972745750172,-0.4890299361364382,2,right
10.367,-0.17804248746897944,0.9244551966958006,-0.0732914256880842,-1.5053370791156981,1.6286468057987444,-0.4389650080848766,-0.07691114122111731,0.13408449595089073,-0.48217437834132515,2,right
10.367,-0.17388708147016252,0.9230896340788609,-0.07290784157066657,-1.505385188825633,1.5835325428722373,-0.4270807790246154,-0.07887550518021255,0.1306905635057941,-0.4757463775314966,2,right
10.372,-0.16981721344563525,0.9217876369313653,-0.07253753681521286,-1.50282322651194,1.5386354129830029,-0.4151732875162267,-0.08083481672252722,0.12751393378382553,-0.4697463799478726,2,right
10.372,-0.16583682310048112,0.9205475221676339,-0.07218042167869496,-1.4977060160688902,1.4939836646181572,-0.403252429308838,-0.08278777538615495,0.12455278606029176,-0.4641744079373439,2,right
10.378,-0.1619496815345603,0.9193675381366632,-0.07183636463894068,-1.490091186785953,1.4496044722418648,-0.39132789760705844,-0.08473314895751603,0.1218050264997393,-0.45903006687944226,2,right
10.379000000000001,-0.15815939663113715,0.9182458674416405,-0.0715051913032585,-1.480038856071332,1.4055239573350018,-0.37940918768362175,-0.08666977290049697,0.11926829278906503,-0.4543125525027471,2,right
10.380999999999998,-0.15446941834542138,0.9171806302432164,-0.07118668349487442,-1.467611325066417,1.3617672102785048,-0.3675056015134294,-0.08859654961633452,0.11693995923719566,-0.4500206585750197,2,right
10.382,-0.15088304374638728,0.916169888076035,-0.07088057852568107,-1.4528727871293985,1.3183583129529728,-0.35562625239475965,-0.09051244753983029,0.11481714233343719,-0.4461527849522869,2,right
10.386,-0.1474034216728756,0.9152116481786692,-0.070586568668051,-1.43588904915931,1.2753203619279465,-0.3437800695234219,-0.09241650007745704,0.11289670675720115,-0.4427069459733177,2,right
10.388,-0.1440335568748166,0.9143038683112679,-0.07030430084901955,-1.4167272657249261,1.2326754921152134,-0.33197580248568176,-0.09430780439288944,0.1111752718324131,-0.43968077918716086,2,right
10.390999999999998,-0.14077631352361164,0.9134444620166066,-0.07003337660201436,-1.395455685956328,1.190444900761488,-0.3202220256358484,-0.09618552004546115,0.10964921842049805,-0.43707155440262735,2,right
10.390999999999998,-0.13763441799260184,0.9126313042697844,-0.06977335231765905,-1.3721434131504848,1.1486488716568768,-0.30852714232451256,-0.0980488674870161,0.10831469624641861,-0.43487618304981407,2,right
10.395999999999999,-0.1346104608284291,0.9118622374582757,-0.06952373983120826,-1.3468601770359487,1.1073067994366677,-0.29689938894354395,-0.0998971264225856,0.10716763165281322,-0.43309122784496895,2,right
10.397,-0.1317068978552858,0.9111350776338839,-0.06928400736924767,-1.3196761186357118,1.0664372138551685,-0.2853468387540995,-0.10172963404028312,0.10620373577784174,-0.4317129127511962,2,right
10.401,-0.1289260503757735,0.9104476209771543,-0.06905358085710578,-1.2906615876614016,1.0260578039115704,-0.2738774054640648,-0.10354578311576887,0.10541851315289641,-0.4307371332286863,2,right
10.402000000000001,-0.1262701044560798,0.9097976504103406,-0.06883184556878043,-1.2598869523663334,0.9861854417091067,-0.2624988465215425,-0.10534501999659182,0.10480727071687314,-0.4301594667693357,2,right
10.407,-0.12374110931253848,0.9091829422875932,-0.06861814808940199,-1.2274224217794791,0.9468362059301438,-0.25121876609121685,-0.10712684247167234,0.10436512724422496,-0.42997518371178833,2,right
10.408,-0.12134097485197055,0.9086012730838745,-0.06841179855721094,-1.193337880237154,0.9080254048112361,-0.24004461768066299,-0.10889079753114138,0.10408702318453159,-0.4301792583340847,2,right
10.412,-0.11907146845527879,0.9080504260002169,-0.06821207315308546,-1.1577027341241635,0.8697675985036403,-0.2289837063839295,-0.11063647902170423,0.1039677309118184,-0.4307663802222501,2,right
10.413,-0.11693421112635295,0.9075281974030132,-0.06801821680590606,-1.1205857707313012,0.83207662070628,-0.21804319071000594,-0.11236352520264614,0.10400186538234434,-0.4317309659142816,2,right
10.417,-0.11493067315222831,0.90703240301835,-0.06782944608128473,-1.0820550291314277,0.7949655994596996,-0.20723008396409046,-0.11407161620754656,0.10418389520004799,-0.43306717082010876,2,right
10.418,-0.11306216943379192,0.9065608838078276,-0.06764495222290161,-1.0421776829719123,0.7584469769911343,-0.19655125514989807,-0.11576047141671607,0.10450815408929803,-0.43476890141920177,2,right
10.42,-0.1113298546493858,0.9061115114594817,-0.0674639043218357,-1.0010199350769537,0.7225325285024455,-0.18601342936159534,-0.11742984674531645,0.10496885277503383,-0.43682982773858664,2,right
10.421,-0.10973471840757197,0.9056821934374806,-0.06728545259755472,-0.9586469237492383,0.6872333797943413,-0.17562318763431292,-0.11907953185370895,0.10556009125825228,-0.43924339610609653,2,right
10.422,-0.1082775805283543,0.9052708775478884,-0.06710873178090238,-0.9151226406565202,0.6525600236219964,-0.16538696622257357,-0.1207093472947116,0.10627587141243147,-0.4420028421297637,2,right
10.425999999999998,-0.10695908656784159,0.9048755559928959,-0.06693286459263612,-0.8705098601850284,0.6185223346789253,-0.15531105527637706,-0.12231914162713625,0.1071101097138809,-0.445101203774329,2,right
10.425999999999998,-0.1057797036894048,0.9044942688990155,-0.066756965310757,-0.8248700801381125,0.5851295831077241,-0.14540159688510748,-0.12390878853311113,0.10805664985660872,-0.4485313343618835,2,right
10.43,-0.10473971699803654,0.904125107315135,-0.06658014341666038,-0.7782634736552293,0.5523904464380976,-0.13566458245987056,-0.12547818396844623,0.1091092750654282,-0.4522859153696253,2,right
10.431,-0.10383922647537906,0.9037662156867474,-0.06640150730574346,-0.7307488521210781,0.5203130199005502,-0.12610584943840897,-0.1270272433604955,0.11026172003435805,-0.45635746897964535,2,right
10.431,-0.10307814465308031,0.9034157938227942,-0.06622016804495072,-0.6823836383209378,0.4889048252966941,-0.11673107736262041,-0.12855589885972074,0.11150768248046793,-0.46073837038158566,2,right
10.435,-0.10245619514062372,0.9030720983781921,-0.06603524315674593,-0.6332238481760167,0.45817281902428797,-0.10754578349691811,-0.1300640966494656,0.11284083431617901,-0.46542085983893955,2,right
10.436,-0.10197291210454913,0.9027334438807866,-0.06584586040091019,-0.5833240788792117,0.42812340008773964,-0.09855531822158467,-0.1315517943183896,0.11425483244331731,-0.47039705453067315,2,right
10.440999999999999,-0.10162764079224328,0.9023982033414427,-0.06565116151254051,-0.5327375017600335,0.39876241869600876,-0.08976486037039846,-0.133018958299953,0.11574332917248516,-0.47565896018073806,2,right
10.443,-0.10141953918879724,0.902064808497891,-0.06545030584640821,-0.48151585912462275,0.3700951856364988,-0.08117941256463686,-0.13446556138328578,0.11729998227156684,-0.48119848248890834,2,right
10.445,-0.10134758087260574,0.9017317497502801,-0.06524247388174645,-0.4297094648254602,0.34212648238476995,-0.07280379653072003,-0.13589158029971385,0.11891846464741701,-0.4870074383772208,2,right
10.446,-0.10141055909878832,0.9013975758470523,-0.06502687055410725,-0.37736720841556254,0.3148605718657379,-0.06464264837625355,-0.13729699338915763,0.12059247366499432,-0.49307756706711703,2,right
10.45,-0.10160709210017763,0.901060893375704,-0.06480272839435407,-0.32453656274012543,0.28830120978401597,-0.056700413799816315,-0.1386817783505583,0.12231574010839806,-0.49940054100318254,2,right
10.450999999999999,-0.1019356295596253,0.9007203661065795,-0.06456931046430742,-0.27126359481689233,0.2624516564430624,-0.04898134321044308,-0.14004591008042835,0.12408203678844423,-0.5059679766401544,2,right
10.454,-0.10239446017823714,0.900374714230709,-0.06432591308252421,-0.21759297985498655,0.23731468897481417,-0.04148948673336627,-0.1413893586035638,0.12588518680157612,-0.5127714451106147,2,right
10.455,-0.10298172024287902,0.9000227135266625,-0.06407186833241951,-0.16356801826053796,0.2128926139035155,-0.03422868907921027,-0.14271208709989627,0.1277190714450467,-0.5198024827915184,2,right
10.46,-0.10369540308160595,0.8996631944880518,-0.06380654634072933,-0.10923065547616112,0.18918727996948878,-0.02720258425447211,-0.1440140500314035,0.12957763779343365,-0.5270526017884032,2,right
10.462,-0.10453336928629987,0.8992950414424409,-0.06352935731157765,-0.05462150450019663,0.16620009114064085,-0.02041459009177469,-0.14529519137293748,0.13145490594165346,-0.5345133003568066,2,right
10.465,-0.10549335757651933,0.898917191693108,-0.06323975330328391,0.0002201290693930293,0.14393201974155048,-0.013867902579042102,-0.14655544295077008,0.13334497591973038,-0.542176073281072,2,right
10.466,-0.10657299617569978,0.8985286347179363,-0.06293722974004179,0.05525621962248265,0.12238361963204099,-0.007565489967420248,-0.14779472289259635,0.13524203428464607,-0.5500324222313515,2,right
10.469000000000001,-0.10776981457001084,0.8981284114643215,-0.06262132665545905,0.11044999191239095,0.10155503936920399,-0.0015100866384494948,-0.14901293419267544,0.13714036039465033,-0.5580738661202213,2,right
10.469000000000001,-0.10908125552198514,0.8977156137821629,-0.06229162966853924,0.16576588937709838,0.08144603528890547,0.004295813288311051,-0.1502099633957297,0.13903433237144983,-0.5662919514809025,2,right
10.475,-0.1105046872140889,0.8972893840362877,-0.06194777069475877,0.221169540564101,0.06205598444487134,0.009849962625306973,-0.15138567940316153,0.1409184327557126,-0.5746782628896409,2,right
10.475999999999999,-0.11203741539844503,0.896848914936211,-0.06158942839557729,0.2766277238173804,0.04338389734551728,0.015150368082049847,-0.1525399324050874,0.14278725386132943,-0.5832244334553258,2,right
10.479000000000001,-0.11367669542662742,0.8963934496170748,-0.06121632837124621,0.3321083303853235,0.025428430430753515,0.02019529754189038,-0.15367255294162777,0.14463550283386084,-0.5919221553999404,2,right
10.48,-0.11541974403018039,0.8959222820013478,-0.06082824310640332,0.3875803261086816,0.008187898233060226,0.024983287666454697,-0.15478335109682997,0.14645800641857123,-0.600763190753915,2,right
10.485999999999999,-0.11726375072185684,0.8954347574661141,-0.06042499168483955,0.44301371184781413,-0.008339714830809515,0.029513151842966684,-0.15587211582853916,0.14824971544340657,-0.6097393821909186,2,right
10.487,-0.1192058886912638,0.8949302738350927,-0.060006439296249485,0.49837948280853267,-0.02415674308908402,0.03378398848894604,-0.15693861443747115,0.15000570902221455,-0.6188426640270543,2,right
10.489,-0.12124332507745282,0.894408282707403,-0.059572496561110105,0.5536495869258367,-0.03926582871471631,0.03779518972803396,-0.15798259217784708,0.15172119848218854,-0.6280650733931091,2,right
10.489,-0.12337323051755428,0.8938682911270364,-0.05912311869796602,0.6087968824647232,-0.05366991134310096,0.041546450449957785,-0.15900377200773488,0.15339153101321143,-0.637398761505221,2,right
10.49,-0.12559278789344533,0.8933098635880643,-0.05865830455072167,0.663795094997062,-0.0673722182532082,0.045037777766902154,-0.1600018544697047,0.15501219302548352,-0.6468360048090948,2,right
10.494000000000002,-0.12789920021615858,0.8927326243579122,-0.058178095486108444,0.7186187739132531,-0.08037625515554606,0.048269500877809166,-0.16097651768818846,0.1565788131954852,-0.6563692156895692,2,right
10.495,-0.13028969759370415,0.8921362600822712,-0.05768257416678202,0.7732432486270335,-0.09268579762833648,0.05124228135138399,-0.1619274174740212,0.15808716518641291,-0.6659909525213272,2,right
10.498,-0.13276154323391848,0.8915205226125723,-0.05717186320332483,0.8276445846313755,-0.10430488324127625,0.053957123837836206,-0.16285418753404748,0.1595331700402747,-0.6756939289874402,2,right
10.5,-0.1353120384512459,0.890885231976284,-0.056646123687629855,0.8817995395609565,-0.11523780439089845,0.0564153871845734,-0.16375643978776228,0.1609128982448933,-0.6854710226763846,2,right
10.5,-0.1379385266694931,0.8902302794004071,-0.05610555361065491,0.9356855194063312,-0.12548910180281003,0.058618795759976264,-0.16463376479371708,0.16222257148014074,-0.6953152829851555,2,right
10.504000000000001,-0.14063839643320356,0.8895556303017417,-0.05555038617067096,0.9892805350066792,-0.1350635585339547,0.06056945048202476,-0.16548573228835284,0.1634585640475508,-0.7052199383563352,2,right
10.505999999999998,-0.14340908346135792,0.8888613271594378,-0.054980887986335006,1.0425631589375126,-0.1439661942393334,0.06226983887746451,-0.1663118918398502,0.16461740398726374,-0.7151784028771891,2,right
10.508,-0.1462480718047047,0.8881474921739632,-0.05439735724117893,1.095512482918738,-0.15220225953240396,0.0637228436668154,-0.16711177361951754,0.1656957738860587,-0.7251842822690553,2,right
10.509,-0.1491528941999355,0.8874143296028545,-0.0538001217949289,1.1481080758852507,-0.15977723038657946,0.06493174967641839,-0.16788488929316203,0.16669051138001625,-0.7352313792954644,2,right
10.513,-0.15212113174349182,0.8866621276622885,-0.05318953729517956,1.2003299428711263,-0.1666968025900629,0.06590024904834295,-0.16863073303481715,0.16759860935513382,-0.7453136986175875,2,right
10.514000000000001,-0.15515041303202376,0.8858912598922789,-0.052565985310890795,1.2521584848594727,-0.17296688627768952,0.06663244475233601,-0.1693487826651228,0.16841721584898414,-0.7554254511257404,2,right
10.519,-0.15823841293486182,0.8851021858931994,-0.05192987149420193,1.3035744597489938,-0.1785936005615504,0.06713285240329342,-0.17003850091657802,0.16914363365626855,-0.7655610577757952,2,right
10.52,-0.16138285117483162,0.8842954513490854,-0.05128162376783159,1.3545589445872417,-0.1835832682802877,0.06740640038704496,-0.170699336827808,0.16977531964086742,-0.7757151529594488,2,right
10.523,-0.16458149089658347,0.8834716872593483,-0.050621690537709076,1.4050932992194067,-0.1879424108850871,0.06745842829656598,-0.17133072726890675,0.1703098837567335,-0.7858825874373878,2,right
10.524000000000001,-0.16783213739844627,0.8826316083071574,-0.04995053894354077,1.455159131500308,-0.19167774347854546,0.06729468368006397,-0.17193209859983558,0.17074508777970973,-0.7960584308644519,2,right
10.53,-0.17113263719874836,0.8817760103036355,-0.049268653174195265,1.504738264216008,-0.19479617002076155,0.06692131710173715,-0.17250286846377494,0.1710788437520807,-0.8062379739359575,2,right
10.530999999999999,-0.1744808776046028,0.8809057666650533,-0.04857653287779229,1.5538127038601854,-0.19730477871518654,0.0663448755153672,-0.17304244771724173,0.17130921214138903,-0.8164167301843764,2,right
10.533,-0.17787478695242082,0.8800218239045122,-0.04787469168372584,1.6023646114090508,-0.19921083758498048,0.06557229395028878,-0.17355024249869874,0.17143439971476182,-0.8265904374555939,2,right
10.533,-0.18131233569338034,0.8791251961484102,-0.04716365583078561,1.6503762752371975,-0.20052179024884784,0.06461088550867748,-0.1740256564372946,0.1714527571297025,-0.8367550590939793,2,right
10.539000000000001,-0.18479153849853866,0.8782169587216425,-0.04644396286879931,1.697830086315323,-0.20124525190357453,0.0634683296725151,-0.1744680930032829,0.17136277624200547,-0.8469067848655006,2,right
10.54,-0.18831045755069317,0.8772982408851986,-0.04571616037401654,1.7447085158292612,-0.20138900551875819,0.06215265891802854,-0.17487695800157804,0.17116308713114955,-0.8570420316481006,2,right
10.543,-0.19186720716813468,0.8763702178564489,-0.0449808045941582,1.7909940953582115,-0.20096099824751384,0.060672243634857174,-0.17525166220981217,0.17085245484322026,-0.8671574439185261,2,right
10.543,-0.19545995986681333,0.8754341022967317,-0.04423845892716713,1.8366693997484496,-0.19996933805525074,0.059035775346683556,-0.17559162416216306,0.17042977585109895,-0.8772498940647682,2,right
10.548,-0.19908695391373513,0.8744911355118424,-0.04348969215072986,1.8817170328171524,-0.19842229056694935,0.057252248229565934,-0.17589627308012604,0.16989407423134276,-0.8873164825532183,2,right
10.549000000000001,-0.20274650235890188,0.8735425786734017,-0.04273507635984949,1.926119616019266,-0.1963282761317272,0.05533093892373854,-0.17616505195130538,0.16924449755686047,-0.8973545379795956,2,right
10.552,-0.20643700345793628,0.8725897044225766,-0.0419751846243833,1.969859780208589,-0.19369586710186246,0.0532813846341978,-0.17639742075720044,0.168480312504168,-0.9073616170326304,2,right
10.552999999999999,-0.21015695231459214,0.8716337892508033,-0.04121058843025721,2.0129201606224467,-0.19053378532184878,0.05111335951497089,-0.17659285985086046,0.16760090017368298,-0.917335504399416,2,right
10.557,-0.21390495348446628,0.8706761070573753,-0.04044185500431618,2.055283395217474,-0.18685089982148517,0.04883684933156775,-0.1767508734851789,0.16660575112119036,-0.927274212641264,2,right
10.558,-0.21767973420040468,0.8697179242558647,-0.03966954463565939,2.096932126482125,-0.1826562247054567,0.046462024395749736,-0.17687099348747604,0.16549446010654179,-0.9371759820562685,2,right
10.558,-0.22148015783874286,0.8687604967354596,-0.03889420809316614,2.1378490068495712,-0.17795891723034132,0.04399921076640837,-0.1769527830508195,0.16426672060661596,-0.9470392804820381,2,right
10.562000000000001,-0.22530523725255613,0.8678050688884386,-0.03811638420702379,2.1780167078326507,-0.17276827605848288,0.04145885971003609,-0.17699584056726123,0.16292231921356684,-0.9568628028791551,2,right
10.562999999999999,-0.22915414758695338,0.8668528748183515,-0.03733659764824553,2.2174179330004726,-0.1670937396766992,0.0388515154139892,-0.17699980340296975,0.16146113008034882,-0.9666454704731597,2,right
10.567,-0.23302623810814432,0.8659051417542922,-0.03655535691753021,2.2560354349141907,-0.1609448849663518,0.03618778094549036,-0.1769643515402161,0.15988310953387821,-0.9763864292954066,2,right
10.568,-0.23692104248132842,0.8649630955924197,-0.035773152544722776,2.293852036137292,-0.1543314259098856,0.03347828244909565,-0.17688921105622724,0.15818829090152314,-0.9860850480758176,2,right
10.569,-0.24083828691142137,0.8640279683659635,-0.03499045549946886,2.330850654333882,-0.14726321241600968,0.030733631633991416,-0.1767741574338988,0.1563767795549832,-0.9957409155030978,2,right
10.572000000000001,-0.2447778956360271,0.8631010073591787,-0.034207715819276695,2.367014330967817,-0.1397502292365843,0.027964386896487878,-0.17661901870426536,0.15444874816702578,-1.0053538368804003,2,right
10.573,-0.24873999339170777,0.8621834855559255,-0.03342536147008908,2.402326262216159,-0.1318025949330082,0.025181013952438717,-0.17642367842051138,0.152404432176211,-1.0149238302042976,2,right
10.575999999999999,-0.2527249045915134,0.8612767130917307,-0.032643797467716895,2.4367698302097125,-0.12343056084085048,0.022393847148378634,-0.17618807846319223,0.15024412545440055,-1.0244511216947987,2,right
10.577,-0.2567331490208065,0.8603820493043701,-0.03186340530666463,2.470328633209363,-0.11464450998793801,0.019613052325936336,-0.1759122216762192,0.14796817617151328,-1.0339361408040266,2,right
10.582,-0.26076543392572576,0.8595009148936849,-0.031084542756659558,2.5029865142215786,-0.1054549559337967,0.016848591584545405,-0.17559617433304722,0.1455769828516547,-1.043379514731051,2,right
10.584000000000001,-0.2648226424784512,0.858634803671252,-0.030307544082943214,2.5347275880523146,-0.09587254150487035,0.014110189993300878,-0.17524006843238857,0.14307099061441592,-1.0527820624702442,2,right
10.587,-0.26890581874090225,0.8577852934091608,-0.02953272071890304,2.565536266895686,-0.08590803740029969,0.01140730424399446,-0.17484410382266014,0.14045068759480347,-1.0621447884204098,2,right
10.588,-0.27301614938449026,0.8569540553608319,-0.02876036237560647,2.5953972845511966,-0.07557234064188528,0.008749093237407767,-0.17440855015425685,0.13771660153493306,-1.0714688755818154,2,right
10.592,-0.2771549425464115,0.8561428621110697,-0.027990738526338356,2.6242957193606715,-0.0648764728407297,0.006144390595017254,-0.17393374865862846,0.13486929654028837,-1.0807556783681413,2,right
10.593,-0.28132360430639064,0.8553535935076719,-0.027224100170184624,2.652217015953363,-0.05383157825195718,0.003601679088365878,-0.17342011375302258,0.13190936999301875,-1.090006715060246,2,right
10.595999999999998,-0.285523613343274,0.8545882405238112,-0.026460681767274948,2.679147005884988,-0.04244892158784298,0.0011290669784841851,-0.17286813446964414,0.1288374496144231,-1.099223659928533,2,right
10.597000000000001,-0.28975649437214923,0.853848906989692,-0.02570070325288424,2.7050719272536767,-0.03073988555864972,-0.0012657337421035442,-0.17227837570786755,0.12565419066844113,-1.1084083350506069,2,right
10.600999999999999,-0.2940237909701128,0.8531378092035052,-0.02494437207465948,2.729978443373013,-0.018715968109466186,-0.003575427212075147,-0.17165147930802743,0.12236027329765088,-1.117562701850793,2,right
10.602,-0.29832703837798585,0.8524572734786878,-0.02419188524605277,2.753853660579504,-0.006388779320373711,-0.005793151675794992,-0.17098816494520322,0.11895639998294844,-1.1266888523880039,2,right
10.607000000000001,-0.3026677368229773,0.8518097317069332,-0.023443431452241002,2.776685145248917,0.006229962063672095,-0.007912495576450865,-0.17028923084130496,0.11544329311776717,-1.1357890004183429,2,right
10.607999999999999,-0.307047325851689,0.8511977150197413,-0.022699193265475304,2.7984609400930154,0.01912843250776067,-0.009927511774463686,-0.169555554293661,0.11182169268737527,-1.1448654722587466,2,right
10.612,-0.3114671601055935,0.8506238456245355,-0.02195934951973146,2.8191695798052514,0.03229470800213443,-0.01183272989752718,-0.1687880920182035,0.10809235404347463,-1.153920697477888,2,right
10.613,-0.3159284869239884,0.8500908268850981,-0.021224077868855273,2.838800106120973,0.045716768853710066,-0.013623166828353014,-0.16798788030524586,0.1042560457640106,-1.1629571994404868,2,right
10.616,-0.320432426127806,0.8496014317176701,-0.020493557523529375,2.8573420823546805,0.05938250499104145,-0.015294335335898215,-0.16715603498574694,0.10031354758779036,-1.1719775857311094,2,right
10.617,-0.32497995231864074,0.8491584893849413,-0.01976797214444563,2.874785607473801,0.07327972182052142,-0.016842250855537318,-0.16629375120585885,0.09626564841319796,-1.1809845384834727,2,right
10.62,-0.32957188001325277,0.848764870788723,-0.019047512868604986,2.8911213297653506,0.08739614667235425,-0.018263436423313052,-0.16540230300746261,0.09211314434998716,-1.1899808046412204,2,right
10.620999999999999,-0.33420885191502303,0.8484234723872737,-0.018332381453122163,2.906340460148727,0.10171943587553084,-0.019554925769057763,-0.16448304271230402,0.08785683681282809,-1.1989691861760887,2,right
10.625,-0.33889133058979726,0.8481371988939534,-0.01762279351451719,2.9204347851847245,0.11623718250170294,-0.020714264572824867,-0.1635374001072558,0.08349753064498079,-1.2079525302893452,2,right
10.626,-0.3436195937570905,0.8479089449435999,-0.01691898181300995,2.933396679827682,0.1309369248184826,-0.021739509888706637,-0.16256688143045483,0.07903603226954971,-1.2169337196198502,2,right
10.627,-0.3483937333332498,0.8477415759253061,-0.016221199502114723,2.945219119964463,0.14580615549328718,-0.022629227739743078,-0.16157306816952008,0.07447314791238106,-1.225915662469596,2,right
10.63,-0.3532136582830377,0.8476379081718934,-0.01552972325761748,2.955895694780748,0.1608323315894086,-0.023382488887248268,-0.1605576157037451,0.06980968202480095,-1.2349012830351045,2,right
10.630999999999998,-0.358079101250618,0.847600688702768,-0.014844856211243384,2.965420618991846,0.17600288539650832,-0.02399886277749626,-0.159522251833624,0.06504643608100452,-1.2438935116205716,2,right
10.636,-0.3629896288377047,0.8476325747684387,-0.014166930627589887,2.9737887449719946,0.19130523613822661,-0.02447840966832047,-0.1584687752294667,0.06018420787770916,-1.2528952748211342,2,right
10.637,-0.3679446552734748,0.8477361135157043,-0.01349631028165006,2.980995574812785,0.20672680260004483,-0.024821670937789597,-0.15739905381003313,0.055223791378964084,-1.2619094856871065,2,right
10.637,-0.37294345910329835,0.8479137221335847,-0.012833392522840081,2.9870372723381435,0.2222550167275713,-0.02502965760386911,-0.1563150230505232,0.05016597710181583,-1.2709390338925266,2,right
10.640999999999998,-0.37798520246096545,0.8481676688256329,-0.012178610036080577,2.9919106751002693,0.2378773382788804,-0.02510383721927737,-0.15521868421690008,0.045011553028863366,-1.2799867759338805,2,right
10.642999999999999,-0.38306895249242817,0.8485000548966579,-0.01153243231684947,2.995613306378165,0.2535812706744242,-0.02504611954959982,-0.15411210252347812,0.03976130603345472,-1.2890555253849054,2,right
10.645999999999999,-0.38819370448339785,0.8489127981950486,-0.010895366866988446,2.9981433871973686,0.2693543782214231,-0.024858841578029093,-0.1529974052106652,0.03441602380299693,-1.298148043233415,2,right
10.647,-0.3933584061372644,0.849407618151282,-0.010267960102609646,2.999499848385821,0.2851843048568315,-0.024544752244023565,-0.15187677953971482,0.028976497245573822,-1.3072670283261474,2,right
10.651,-0.39856198231329865,0.8499860226646162,-0.009650797955253355,2.999682342676882,0.3010587944936622,-0.024106997078553627,-0.15075247070131356,0.02344352336479074,-1.3164151079476945,2,right
10.652000000000001,-0.40380335945757123,0.8506492970701303,-0.009044506149543028,2.9986912568668256,0.3169657130225712,-0.02354910276254204,-0.14962677963480636,0.01781790858749233,-1.3255948285596366,2,right
10.655,-0.4090814889468339,0.8513984953680183,-0.008449750156057199,2.9965277240307064,0.33289307201415236,-0.022874961607602797,-0.14850206075484496,0.012100472528728796,-1.334808646726086,2,right
10.655,-0.41439536858865755,0.8522344338286292,-0.007867234841512825,2.993193635797124,0.34882905416751775,-0.022088815957828523,-0.14738071958223506,0.006292052178077631,-1.3440589202519235,2,right
10.66,-0.4197440615692707,0.8531576870001923,-0.007297703862144329,2.9886916546790374,0.3647620405508349,-0.021195242511032126,-0.14626521027575307,0.0003935064911616504,-1.3533478995601058,2,right
10.662,-0.42512671221831183,0.8541685860427648,-0.006741938862036224,2.9830252264544246,0.38068063967955107,-0.02019913655751523,-0.14515803306170694,-0.00559427863005949,-1.3626777193345152,2,right
10.668,-0.4305425580730607,0.8552672192007079,-0.006200758537017509,2.9761985925872105,0.39657371847805817,-0.019105696134114773,-0.1440617315580246,-0.011670384984908501,-1.3720503904549344,2,right
10.67,-0.43599093787428284,0.8564534341203169,-0.005675017605628253,2.9682168026755393,0.41243043517054595,-0.017920406090971393,-0.14297888998967143,-0.01783385636646342,-1.3814677922508314,2,right
10.671,-0.4414712953042761,0.8577268416338767,-0.005165605701439923,2.959085726911122,0.428240274146749,-0.016649022068169227,-0.14191213029222088,-0.024083692516083683,-1.3909316651007613,2,right
10.671,-0.44698317847109276,0.8590868205787279,-0.004673446171176529,2.948812068530058,0.4439930828482206,-0.015297554379117716,-0.14086410910043531,-0.03041884275744225,-1.4004436034043175,2,right
10.677999999999999,-0.4525262353338702,0.8605325232065103,-0.004199494728637359,2.9374033762322145,0.45967911072066436,-0.013872251797282862,-0.13983751461875116,-0.036838199327767635,-1.4100050489536868,2,right
10.68,-0.4581002054354368,0.8620628807634747,-0.0037447378801129224,2.9248680565429477,0.4752890502777166,-0.012379585242628478,-0.13883506337061002,-0.04334059042424773,-1.4196172847319997,2,right
10.68,-0.46370490844668216,0.8636766088795558,-0.0033101910123658,2.9112153860876684,0.49081408032141466,-0.010826231363898507,-0.1378594968236309,-0.049924772983792186,-1.4292814291658034,2,right
10.681,-0.46934023012778714,0.865372212478651,-0.002896896025031364,2.896455523746494,0.5062459113643912,-0.009219056012659802,-0.13691357788767997,-0.05658942521459188,-1.4389984308591317,2,right
10.687999999999999,-0.47500610637596896,0.8671479900053123,-0.002505918401867421,2.8805995226529992,0.5215768332986198,-0.007565097604831727,-0.13600008728296417,-0.06333313889815262,-1.4487690638367836,2,right
10.687999999999999,-0.48070250605938053,0.8690020368499501,-0.0021383436526360624,2.8636593419978658,0.5367997653552918,-0.0058715503652549935,-0.13512181977535231,-0.07015441148071457,-1.458593923324573,2,right
10.689,-0.4864294133319616,0.8709322479420523,-0.0017952731110386217,2.845647858595054,0.5519083084001423,-0.004145747450697894,-0.13428158027621168,-0.0770516379732003,-1.4684734220944742,2,right
10.689,-0.4921868100840921,0.8729363195603993,-0.0014778191314863429,2.8265788781649697,0.5668967996082476,-0.002395143946564045,-0.1334821798041425,-0.08402310267906109,-1.4784077874027228,2,right
10.693,-0.4979746591060977,0.875011750468412,-0.0011870997757916298,2.8064671462859896,0.5817603695620158,-0.0006272997324523243,-0.13272643130910047,-0.09106697077701544,-1.4883970585313608,2,right
10.694,-0.5037928884233565,0.8771558425094793,-0.0009242331043120291,2.785328358962638,0.5964950018157584,0.0011501377883727324,-0.13201714537454382,-0.09818127982290073,-1.4984410848551426,2,right
10.694,-0.5096413771216733,0.8793657007941531,-0.0006903311817942298,2.7631791727556663,0.6110975949698915,0.002929451100612795,-0.13135712584042578,-0.10536393130168784,-1.5085395241961865,2,right
10.698,-0.5155199428643099,0.881638233605018,-0.0004864938986319672,2.740037214416282,0.6255660272974568,0.004702870134731952,-0.13074916540501508,-0.11261268239792517,-1.5186918411401968,2,right
10.699000000000002,-0.5214283312268932,0.8839701521545331,-0.00031380271180144614,2.715921089963852,0.6398992239652851,0.006462589976006753,-0.13019604124862355,-0.11992513811607187,-1.5288973050769545,2,right
10.703,-0.5273662069115681,0.8863579703385916,-0.00017331441507279695,2.6908503931434775,0.6540972268917457,0.008200788729924852,-0.12970051069539573,-0.12729874381575979,-1.5391549878876238,2,right
10.704,-0.5333331468247502,0.8887980046109458,-6.605503891783626e-05,2.664845713161044,0.6681612670903062,0.00990964552759915,-0.12926530691442667,-0.1347307781902044,-1.5494637612902946,2,right
10.704,-0.539328634938821,0.8912863740650379,6.98604177451578e-06,2.6379286414107304,0.6820938383860475,0.01158135854777075,-0.12889313465862565,-0.14221834670876637,-1.5598222938730764,2,right
10.708,-0.545352058827254,0.8938190007664861,4.486173921102473e-05,2.610121776583551,0.6958987696608443,0.013208162739214643,-0.12858666603990745,-0.14975837554483987,-1.5702290478442058,2,right
10.709000000000001,-0.5514027077373901,0.8963916103385252,4.667258790378522e-05,2.5814487273630196,0.7095812918208516,0.014782346820223526,-0.12834853633946733,-0.15734760601041173,-1.5806822755287864,2,right
10.713,-0.5574797720162904,0.8989997327620799,1.1571753445748074e-05,2.5519341120911987,0.7231480966412522,0.01629626923879282,-0.12818133985207586,-0.16498258951879474,-1.5911800156419078,2,right
10.713,-0.5635823436517778,0.9016387033115872,-6.123031454038009e-05,2.5216035551095426,0.7366073863739,0.017742372969698588,-0.12808762576351929,-0.17265968309718846,-1.601720089368039,2,right
10.718,-0.5697094176662467,0.9043036635131578,-0.00017246160797108016,2.4904836796562413,0.749968913964847,0.019113199131563258,-0.12806989406050664,-0.18037504547086197,-1.6123000962767198,2,right
10.719000000000001,-0.5758598941101923,0.906989561989647,-0.00032278466932112435,2.4586020972353366,0.7632440139207407,0.020401399428241967,-0.128130591472569,-0.18812463374088395,-1.6229174101047066,2,right
10.722999999999999,-0.5820325804357699,0.9096911550487753,-0.0005127930607336662,2.4259873933705403,0.7764456238627806,0.021599747418667752,-0.12827210744568676,-0.19590420067744616,-1.6335691744348426,2,right
10.724,-0.5882261940826179,0.9124030068737132,-0.000743008139534889,2.3926691096544097,0.7895882968066417,0.022701148619077776,-0.12849677014759964,-0.2037092926509358,-1.6442522983020391,2,right
10.728,-0.5944393651750404,0.9151194891930855,-0.0010138760675560536,2.358677722001355,0.8026882042065273,0.023698649441305668,-0.1288068425049785,-0.21153524822300995,-1.6549634517568648,2,right
10.729000000000001,-0.6006706393039385,0.917834780348583,-0.0013257649756705887,2.324044615010851,0.8157631298013095,0.024585444970567232,-0.12920451827287108,-0.219377197420011,-1.665699061417337,2,right
10.732000000000001,-0.6069184804371136,0.9205428637528501,-0.001678962200881302,2.2888020523452046,0.828832454300545,0.025354885585888606,-0.12969191813707126,-0.22723006171113538,-1.6764553060395966,2,right
10.732999999999999,-0.6131812740536251,0.9232375258389116,-0.0020736715125430965,2.252983143024294,0.8419171309480405,0.026000482426027746,-0.13027108585030794,-0.23508855471382667,-1.6872281121382267,2,right
10.738,-0.6194573306178413,0.9259123537315439,-0.002510010261099567,2.216621803537861,0.8550396520005671,0.0265159117034224,-0.1309439844034001,-0.2429471836489103,-1.6980131496870516,2,right
10.74,-0.6257448894906383,0.9285607329935852,-0.0029880064200097953,2.1797527156741836,0.8682240061593138,0.026895017868361085,-0.13171249223278275,-0.25080025156801705,-1.708805827931305,2,right
10.742,-0.6320421233270274,0.9311758458889987,-0.0035075955414443105,2.1424112799623036,0.8814956269917207,0.027131815625217996,-0.13257839946607197,-0.25864186037585957,-1.719601291342102,2,right
10.743,-0.6383471429482276,0.9337506706479632,-0.00406861769786152,2.104633564623431,0.8948813323814364,0.027220490802219298,-0.13354340420760571,-0.26646591466992464,-1.7303944157441953,2,right
10.747,-0.6446580026164579,0.9362779822221676,-0.004670814517119797,2.0664562499256784,0.908409255044333,0.02715540007581699,-0.13460910886617242,-0.2742661264201293,-1.7411798046480034,2,right
10.748,-0.6509727055889885,0.9387503549905659,-0.005313826425699979,2.0279165678349393,0.9221087641487592,0.026931069550338034,-0.1357770165274183,-0.2820360205109534,-1.7519517858169138,2,right
10.753,-0.6572892097831782,0.941160167822389,-0.005997190197405683,1.9890522368534593,0.936010378078549,0.02654219219315136,-0.1370485273737092,-0.28976894116851204,-1.7627044081008585,2,right
10.754000000000001,-0.6636054333428293,0.9434996118255482,-0.006720336876820245,1.949901391936508,0.9501456683777094,0.025983624125153978,-0.13842493515451149,-0.2974580592949621,-1.7734314385671273,2,right
10.757,-0.6699192598587562,0.9457607010040193,-0.007482590120940336,1.9105025093765222,0.9645471549162075,0.025250379765920292,-0.13990742371065007,-0.30509638073254886,-1.7841263599593544,2,right
10.758,-0.6762285429689602,0.9479352859186697,-0.008283164988059557,1.8708943265431495,0.979248192316862,0.024337625832386377,-0.14149706355609948,-0.3126767554794927,-1.7947823685155564,2,right
10.764000000000001,-0.6825311100552819,0.9500150702996166,-0.009121167199242632,1.8311157563668077,0.9942828476840146,0.023240674189453886,-0.143194808521264,-0.32019188787979025,-1.8053923721760174,2,right
10.765,-0.6888247647738858,0.951991630418602,-0.00999559289368193,1.7912057964526655,1.0096857696754264,0.02195497355039675,-0.1450014924590595,-0.327634347792527,-1.8159489892067298,2,right
10.765999999999998,-0.6951072882111737,0.9538564369413078,-0.01090532888760907,1.7512034327113362,1.0254920489597033,0.020476100024438466,-0.14691782600067077,-0.33499658266448384,-1.826444547238921,2,right
10.767000000000001,-0.7013764385325569,0.9556008789579861,-0.01184915343312958,1.711147537392102,1.0417370701025148,0.018799746508338874,-0.14894439332162837,-0.34227093028266575,-1.8368710826799983,2,right
10.767000000000001,-0.7076299490645456,0.9572162898783437,-0.012825737462190961,1.671076761404098,1.058456354925934,0.016921710918287487,-0.15108164886441516,-0.34944963190152195,-1.8472203404260317,2,right
10.775,-0.7138655248140846,0.9586939748219172,-0.013833646282201746,1.6310294208106255,1.0756853973863776,0.014837883257845595,-0.15332991397887397,-0.3565248455210464,-1.8574837738307697,2,right
10.776,-0.7200808374991969,0.9600252390783753,-0.014871341663846785,1.5910433773816082,1.0934594900178927,0.01254423151711244,-0.1556893734685443,-0.36348865923865953,-1.8676525449310641,2,right
10.777000000000001,-0.726273519240342,0.9612014172141722,-0.015937184248994596,1.551155913329779,1.1118135422169775,0.01003678645126997,-0.15816007204612,-0.37033310467914804,-1.8777175249534104,2,right
10.777000000000001,-0.7324411551090743,0.9622139024664171,-0.017029436215453244,1.5114036015593415,1.1307818917869967,0.0073116255538623895,-0.16074191070448665,-0.37705017052297135,-1.8876692951310658,2,right
10.777999999999999,-0.7385812747379186,0.963054176152263,-0.018146264149766677,1.4718221749215978,1.1503981132145498,0.004364857021590797,-0.16343464301011684,-0.38363181615292175,-1.8974981478609412,2,right
10.782,-0.7446913432080084,0.9637138368750389,-0.01928574209177121,1.4324463991753973,1.1706948272922226,0.0011926047745817406,-0.16623787132592094,-0.39006998543878335,-1.9071940882291545,2,right
10.783,-0.7507687514865773,0.9641846293024248,-0.020445854735844465,1.3933099531475637,1.191703515563513,-0.0022090046723294214,-0.16915104297096967,-0.39635662067926947,-1.9167468359338211,2,right
10.786,-0.7568108067540532,0.9644584722720777,-0.021624500797253313,1.3544453174233801,1.2134543410148393,-0.005843853174422863,-0.17217344632482315,-0.4024836767201283,-1.9261458276332903,2,right
10.787,-0.7628147229934075,0.9645274859971109,-0.0228194965471123,1.3158836716947033,1.2359759753010877,-0.009715839713589181,-0.17530420688451817,-0.4084431352668944,-1.93538021974766,2,right
10.790999999999999,-0.7687776122096318,0.9643840181956196,-0.024028579479856923,1.2776548006533497,1.2592954325651189,-0.013828886956275125,-0.17854228328258098,-0.4142270194103286,-1.9444388917409898,2,right
10.792,-0.7746964766225417,0.964020669027279,-0.025249412041163346,1.2397870083181755,1.2834379099137772,-0.01818694562333052,-0.181886463274746,-0.41982740838213006,-1.9533104499111928,2,right
10.797,-0.7805682021375622,0.9634303147679839,-0.026479585351587002,1.2023070406851335,1.3084266346151596,-0.022793996682888017,-0.18533535970637252,-0.42523645255802456,-1.9619832317141033,2,right
10.798,-0.7863895533449592,0.9626061301854619,-0.027716622914885553,1.1652400165905485,1.3342827180841894,-0.027654051378099894,-0.18888740646685845,-0.43044638872482555,-1.9704453106477267,2,right
10.800999999999998,-0.792157170229425,0.9615416095979552,-0.028957984371996346,1.1286093666788841,1.361025016725901,-0.03277114910225999,-0.19254085444165522,-0.4354495556275411,-1.978684501722128,2,right
10.802,-0.7978675666962929,0.9602305866127697,-0.03020106941808735,1.0924367803673851,1.3886699997082639,-0.03814935313455429,-0.19629376747178834,-0.4402384098120482,-1.986688367539847,2,right
10.806,-0.803517130947139,0.9586672525600044,-0.03144322202010821,1.0567421607011638,1.417231623738867,-0.04379274425041046,-0.20014401833108364,-0.44480554177828424,-1.9944442250111272,2,right
10.807,-0.8091021276727608,0.9568461736612888,-0.032681735053899215,1.0215435869935436,1.4467212149223212,-0.04970541222115516,-0.20408928473159083,-0.4491436924583129,-2.0019391527275956,2,right
10.811,-0.814618701979802,0.9547623069983596,-0.03391385543880943,0.9868572851477906,1.4771473577778285,-0.05589144521843809,-0.20812704536798027,-0.4532457700330055,-2.0091599990173634,2,right
10.812000000000001,-0.820062884930717,0.9524110153635418,-0.03513678980677297,0.952697605557731,1.5085157914989857,-0.062354917139643466,-0.21225457601196976,-0.45710486710044157,-2.0160933907037974,2,right
10.817,-0.8254306005528308,0.9497880810788601,-0.036347710714382406,0.9190770084861732,1.5408293135405668,-0.06909987287128339,-0.21646894566810845,-0.46071427820847743,-2.0227257425894662,2,right
10.817,-0.830717674155344,0.9468897188639795,-0.03754376338594416,0.8860060568215207,1.5740876906196928,-0.07613031150815253,-0.220767012802512,-0.4640675177632497,-2.0290432676859758,2,right
10.821,-0.8359198417807262,0.9437125878214773,-0.03872207295170231,0.8534934161144696,1.6082875772215155,-0.08345016754682082,-0.2251454216563999,-0.4671583383246875,-2.035031988209582,2,right
10.822000000000001,-0.8410327606118554,0.9402538025978807,-0.039879752115192305,0.8215458617982336,1.6434224417022405,-0.09106329007284898,-0.229600598656535,-0.4699807492993867,-2.040677747361605,2,right
10.825,-0.8460520201615893,0.9365109437744373,-0.0410139091564777,0.7901682934973089,1.679482500085021,-0.09897341996193225,-0.234128748934905,-0.4725290360404675,-2.0459662219117605,2,right
10.825999999999999,-0.8509731540845782,0.9324820675424442,-0.04212165616741956,0.7593637563313926,1.7164546576469601,-0.10718416511600838,-0.23872585297021628,-0.4747977793632796,-2.0508829356015865,2,right
10.83,-0.8557916524662614,0.9281657147186222,-0.04320011742505136,0.7291334691226918,1.7543224583981312,-0.11569897375620851,-0.24338766337006376,-0.4767818754565947,-2.055413273373041,2,right
10.831,-0.860502974461913,0.9235609191485183,-0.04424643783164724,0.699476859416486,1.7930660425561815,-0.12452110579538238,-0.248109701843215,-0.4784765560258446,-2.059542496370774,2,right
10.832,-0.8651025611796865,0.9186672155281305,-0.04525779137394242,0.6703916052264566,1.8326621121226923,-0.1336536023137924,-0.2528872564663028,-0.47987740824804387,-2.063255757565531,2,right
10.835999999999999,-0.8695858487097405,0.9134846466507897,-0.04623138957090158,0.6418736834179363,1.8730839046700363,-0.14309925316244446,-0.257715379379771,-0.4809803939749242,-2.0665381177894773,2,right
10.837,-0.8739482811839364,0.9080137700586125,-0.04716448988820806,0.6139174246438773,1.9143011754499868,-0.15286056271940587,-0.262588885017727,-0.4817818677622703,-2.0693745620286323,2,right
10.84,-0.8781853237253622,0.9022556640398337,-0.04805440410089967,0.5865155747499783,1.9562801879377614,-0.1629397138253514,-0.26750234892185154,-0.4822785935587237,-2.071750015916398,2,right
10.841,-0.8822924751409892,0.8962119328660791,-0.04889850657917976,0.5596593625670299,1.9989837129275652,-0.1733385299254776,-0.27245010715929996,-0.482467760028759,-2.0736493624264645,2,right
10.842,-0.8862652802307671,0.8898847111211744,-0.049694242452494215,0.5333385739226496,2.0423710362722587,-0.1840584355042158,-0.277426256358582,-0.4823469945121255,-2.075057458773208,2,right
10.845999999999998,-0.8900993416243314,0.883276666954525,-0.05043913558613943,0.5075416312686295,2.0863979752334574,-0.19510041519200522,-0.28242465437752334,-0.48191437562117734,-2.075959153526378,2,right
10.847000000000001,-0.8937903311002481,0.8763910041006777,-0.051130796297263185,0.4822556775341333,2.131016903179118,-0.2064649724497592,-0.28743892161751067,-0.4811684444766292,-2.0763393039454896,2,right
10.850999999999999,-0.8973340003818762,0.8692314625168615,-0.05176692873588203,0.4574666623789808,2.1761767822391174,-0.21815208902949945,-0.2924624429983006,-0.4801082145813871,-2.076182793537942,2,right
10.852,-0.9007261914367436,0.8618023174826424,-0.05234533785169316,0.43315942946029345,2.2218232036596683,-0.23016118611863617,-0.2974883706077391,-0.47873318033120826,-2.075474549843413,2,right
10.855,-0.903962846336647,0.8541083769994656,-0.05286393587058274,0.40931780411479224,2.2678984358304333,-0.24249108755084547,-0.30250962704078116,-0.47704332416004464,-2.074199562445591,2,right
10.856,-0.9070400167632346,0.8461549773465808,-0.05332074822824214,0.3859246812979986,2.314341480088245,-0.2551399851754997,-0.3075189094422272,-0.47503912231702367,-2.0723429012107712,2,right
10.859000000000002,-0.9099538732653624,0.8379479766879,-0.05371391894328832,0.36296211371047427,2.3610881344284382,-0.2681054064201474,-0.31250869426759975,-0.47272154927111615,-2.0698897347512335,2,right
10.86,-0.9127007143871441,0.8294937466659701,-0.05404171544014028,0.34041140004257253,2.408071065256028,-0.2813841840814597,-0.31747124277656846,-0.4700920807386376,-2.06682534910972,2,right
10.864,-0.9152769757834539,0.8207991619605941,-0.05430253284200517,0.3182531732704614,2.455219887310012,-0.2949724283809741,-0.3223986072732981,-0.4671526953278276,-2.063135166659641,2,right
10.865,-0.9176792394165647,0.8118715878339771,-0.05449489775105245,0.2964674889374115,2.50246125189494,-0.3088655013228759,-0.32728263810803754,-0.4639058747938528,-2.058804765213934,2,right
10.87,-0.9199042428857939,0.8027188657307727,-0.05461747153237083,0.27503391335552574,2.549718943554572,-0.3230579933919544,-0.3321149914541878,-0.460354602896684,-2.053819897333733,2,right
10.870999999999999,-0.9219488888907431,0.7933492970425688,-0.054669053130849056,0.25393161166421285,2.5969139853229173,-0.33754370263076006,-0.3368871378749876,-0.45650236285340784,-2.048166509826228,2,right
10.874,-0.9238102547774916,0.7837716251736635,-0.054648581464949164,0.23313943568277629,2.643964752688187,-0.35231561613586126,-0.34159037169382755,-0.4523531333756537,-2.0418307634192328,2,right
10.875,-0.9254856020735093,0.7739950160549524,-0.054555137438841994,0.21263601149550085,2.6907870964052663,-0.36736589401395914,-0.34621582118205885,-0.44791138328194036,-2.0347990525981174,2,right
10.88,-0.9269723858863645,0.7640290372493911,-0.05438794559024259,0.19239982670857048,2.7372944742921015,-0.3826858558394585,-0.3507544595779844,-0.4431820646738846,-2.0270580255888344,2,right
10.880999999999998,-0.9282682640251868,0.7538836357851882,-0.054146375359821614,0.17240931731904005,2.7833980921449797,-0.3982659696559145,-0.3551971169505261,-0.43817060466436253,-2.018594604468804,2,right
10.884,-0.9293711057008404,0.7435691148492495,-0.05382994194664198,0.152642954136915,2.8290070539070324,-0.4140958435645704,-0.35953449292083595,-0.43288289564487353,-2.009396005385434,2,right
10.885,-0.9302789996670755,0.7330961094742978,-0.053438306710886806,0.13307932870215824,2.8740285212233716,-0.43016421994397824,-0.36375717025486987,-0.4273252840785329,-1.9994497588600078,2,right
10.89,-0.9309902616760125,0.7224755613555873,-0.052971277096485206,0.11369723863915127,2.9183678825151027,-0.4464589723454347,-0.3678556293396658,-0.42150455780430857,-1.9887437301525959,2,right
10.890999999999998,-0.931503441135226,0.7117186929350626,-0.05242880606056188,0.09447577239177962,2.961928931703041,-0.4629671051096853,-0.3718202635557669,-0.4154279318373266,-1.977266139661544,2,right
10.894,-0.9318173268719576,0.7008369808916547,-0.05181099100422209,0.07539439328289622,3.0046140567102597,-0.47967475575102986,-0.37564139555790005,-0.40910303264929354,-1.9650055833289366,2,right
10.895,-0.9319309519348441,0.6898421291761238,-0.051118072198738394,0.05643302284243749,3.046324437870644,-0.496567200155612,-0.37930929447566164,-0.40253788091232984,-1.9519510530212516,2,right
10.899000000000001,-0.9318435973942006,0.678746041724205,-0.05035043069774836,0.037572123348930356,3.08696025636837,-0.513628860641286,-0.38281419402310557,-0.39574087272234104,-1.93809195685214,2,right
10.9,-0.9315547951310781,0.6675607949646702,-0.0495085857260446,0.01879277952953114,3.1264209128307234,-0.530843316927026,-0.3861463113933415,-0.3887207594851698,-1.9234181394116234,2,right
10.9,-0.9310643296246106,0.6562986102102462,-0.04859319154251867,7.677936408311293e-05,3.1646052561938687,-0.5481933200603724,-0.38929586661153875,-0.38148662695017976,-1.9079199018630388,2,right
10.904000000000002,-0.9303722387582253,0.6449718259991967,-0.047605033786388515,-0.018593306061030157,3.201411822958087,-0.5656608093518918,-0.39225310190689167,-0.3740478740430845,-1.8915880218663725,2,right
10.905,-0.929478813677592,0.6335928704560179,-0.046545025326161185,-0.037234043703222953,3.236739086945618,-0.5832269323660679,-0.39500830077597654,-0.36641419198136627,-1.8744137732846617,2,right
10.909,-0.9283845977549929,0.6221742337465832,-0.04541420163702608,-0.055861060772040685,3.270485719670593,-0.6008720680184253,-0.39755180661167994,-0.3585955438529205,-1.856388945628462,2,right
10.91,-0.9270903847493153,0.6107284407031935,-0.04421371573347611,-0.07448896813422691,3.302550861092557,-0.6185758527904625,-0.3998740408836977,-0.3506021446701418,-1.837505863191373,2,right
10.911,-0.9255972162854945,0.5992680236914047,-0.04294483267619347,-0.09313128547952053,3.3328343988507934,-0.6363172098814446,-0.4019655208784988,-0.3424444418775449,-1.8177574038272641,2,right
10.913,-0.9239063787919866,0.5878054957893658,-0.04160892365859474,-0.11180036957675747,3.3612372510660475,-0.6540743807692707,-0.40381687700604035,-0.33413309629048066,-1.7971370173174055,2,right
10.914000000000001,-0.9220194000342123,0.5763533243626391,-0.04020745967744423,-0.13050734737519534,3.387661646121363,-0.6718249584599907,-0.4054188696798854,-0.3256789634420071,-1.7756387432732375,2,right
10.919,-0.9199380453788845,0.5649239051466578,-0.03874200482209201,-0.14926205528067452,3.4120113944986725,-0.6895459218984601,-0.4067624057767096,-0.31709307531450337,-1.7532572285180423,2,right
10.92,-0.9176643139066294,0.5535295369714748,-0.03721420927186127,-0.16807298517068373,3.4341921507484794,-0.7072136713597258,-0.4078385546804969,-0.30838662243217424,-1.7299877438882587,2,right
10.924000000000001,-0.915200434449768,0.5421823972549268,-0.035625802139390095,-0.18694723728716034,3.4541116653343136,-0.7248040648335233,-0.40863856391600695,-0.2995709362901816,-1.7058262003926739,2,right
10.925,-0.9125488615882705,0.530894518355739,-0.033978584312249545,-0.20589048006092117,3.4716800264217236,-0.7422924554527425,-0.40915387437535233,-0.290657472095763,-1.6807691646651837,2,right
10.93,-0.9097122716113049,0.5196777648380874,-0.03227442142739869,-0.22490691692177728,3.486809891675309,-0.7596537300165639,-0.4093761351407617,-0.2816577917963492,-1.654813873644271,2,right
10.931,-0.9066935584486456,0.5085438116689429,-0.03051523708248892,-0.243999260148566,3.4994167101208355,-0.7768623486587478,-0.40929721790580564,-0.27258354736938134,-1.6279582484097774,2,right
10.933,-0.9034958295868956,0.4975041233540619,-0.028703006358621778,-0.2631687118135283,3.5094189341227056,-0.793892385711256,-0.4089092309965495,-0.2634464643482462,-1.6002009071049852,2,right
10.934000000000001,-0.900122401996477,0.4865699340151263,-0.02683974970364037,-0.2824149518756663,3.516738221520076,-0.8107175718130304,-0.40820453299325304,-0.2542583255585009,-1.5715411768694416,2,right
10.937999999999999,-0.8965767980971453,0.47575222841428627,-0.024927527203649602,-0.3017361334779306,3.521299627957656,-0.8273113373133064,-0.4071757459523736,-0.24503095503834452,-1.541979104705372,2,right
10.937999999999999,-0.8928627417806915,0.46506172393910733,-0.022968433255459737,-0.32112888550330576,3.5230317894397474,-0.843646857018329,-0.40581576822774207,-0.2357762021171132,-1.5115154671979418,2,right
10.943,-0.8889841544928089,0.45450885356829906,-0.020964591644260226,-0.3405883224450786,3.5218670951284037,-0.8596970963297454,-0.4041177868888708,-0.2265059256254302,-1.480151779007039,2,right
10.945,-0.8849451513564592,0.4441037498466369,-0.018918151025923095,-0.3601080616467879,3.517741850398646,-0.8754348588222894,-0.4020752897334228,-0.21723197821052725,-1.4478903000456476,2,right
10.947000000000001,-0.8807500373005619,0.4338562299069527,-0.016831280810700445,-0.379680247967554,3.510596430155572,-0.8908328353076239,-0.39968207688992186,-0.20796619073017733,-1.414734041257307,2,right
10.948,-0.876403303143402,0.4237757815868507,-0.014706167446415494,-0.39929558592867703,3.500375422409874,-0.9058636544303935,-0.39693227200580944,-0.19872035669863305,-1.3806867689025626,2,right
10.952,-0.871909621571157,0.413871550695854,-0.012545011103873193,-0.4189433793975611,3.4870277620997925,-0.9204999348416371,-0.39382033301496955,-0.1895062167579545,-1.3457530072617305,2,right
10.953,-0.8672738429474314,0.4041523294933824,-0.010350022770798988,-0.4386115788651715,3.4705068551388485,-0.9347143389937358,-0.3903410624778332,-0.18033544314813374,-1.3099380396587426,2,right
10.958,-0.8625009908878889,0.39462654643753803,-0.00812342175954837,-0.45828683637335055,3.4507706926598902,-0.9484796286000192,-0.38648961748615024,-0.17121962414948033,-1.2732479077082661,2,right
10.959000000000001,-0.8575962575343751,0.3853022572581469,-0.005867433628290648,-0.4779545681484085,3.4277819554170046,-0.9617687218010139,-0.38226151912347867,-0.16217024847082387,-1.2356894086857593,2,right
10.964,-0.8525649984653402,0.37618713739568826,-0.0035842885072429292,-0.49759902499746345,3.401508108297747,-0.9745547520781117,-0.3776526614713858,-0.15319868955721264,-1.1972700909175846,2,right
10.965,-0.8474127271830871,0.3672884758320619,-0.0012762198117620793,-0.5172033705240203,3.3719214848889107,-0.986811128954143,-0.37265932015028697,-0.14431618979094607,-1.1579982470857975,2,right
10.967,-0.8421451091218564,0.35861317032163187,0.0010545366855025163,-0.5367497672192546,3.3389993620297247,-0.9985116005189729,-0.3672781603848361,-0.13553384457783826,-1.1178829053983044,2,right
10.968,-0.8367679551242608,0.35016772401500196,0.003405743456710713,-0.5562194704853983,3.3027240242769462,-1.0096303178167945,-0.36150624459303665,-0.12686258640017994,-1.076933818865503,2,right
10.968,-0.8312872143378486,0.341958243455315,0.005775161529297537,-0.5755929306475088,3.2630828181967955,-1.0201419011302708,-0.3553410395157588,-0.11831316907894471,-1.0351614534492581,2,right
10.972999999999999,-0.8257089664844903,0.333990437914685,0.008160550541814915,-0.5948499030097294,3.220068196389133,-1.0300215081950843,-0.34878042291258393,-0.10989615257742047,-0.9925769761405285,2,right
10.972999999999999,-0.8200394134486154,0.32626962002246945,0.010559668593261629,-0.6139695660119329,3.1736777511396235,-1.0392449043767782,-0.3418226898384288,-0.10162188858941792,-0.9491922437266896,2,right
10.977,-0.8142848701216778,0.31880070761938223,0.012970271948254886,-0.6329306473197357,3.1239142376373157,-1.0477885347322349,-0.3344665584956493,-0.0935005069947347,-0.9050197924800294,2,right
10.978,-0.8084517544394475,0.3115882267606527,0.015390114666744786,-0.6517115565674171,3.0707855869418794,-1.0556295973373249,-0.3267111756448429,-0.08554190317558692,-0.8600728287036893,2,right
10.979000000000001,-0.8025465765557733,0.3046363157900787,0.01781694822497907,-0.6702905214692723,3.014304909336829,-1.0627461162901815,-0.3185561215543583,-0.07775572617026025,-0.8143652200104442,2,right
10.982000000000001,-0.7965759271028056,0.2979487304026082,0.020248521198983082,-0.6886457229013568,2.954490488951892,-1.069117012258609,-0.31000141446737944,-0.07015136764067095,-0.7679114872074542,2,right
10.982999999999999,-0.7905464644923065,0.29152884959541797,0.022682579102440308,-0.7067554256681753,2.8913657702715,-1.0747221689771123,-0.301047514564303,-0.06273795163099521,-0.7207267966578974,2,right
10.987,-0.7844649012269485,0.285379682383091,0.02511686449419298,-0.7245981036719005,2.8249593366750267,-1.0795424950671524,-0.2916953273969823,-0.055524325095018895,-0.6728269529882088,2,right
10.988,-0.7783379892219373,0.2795038751329126,0.027549117476938296,-0.7421525593141833,2.755304880888298,-1.0835599810910852,-0.28194620677026355,-0.04851904917038242,-0.6242283920075088,2,right
10.991,-0.7721725041800654,0.27390371936510566,0.029977076693894822,-0.7593980371825301,2.682441167165086,-1.086757751855844,-0.27180195704509386,-0.04173039117844287,-0.5749481737037072,2,right
10.992,-0.7659752291073131,0.26858115986047276,0.032398480900647765,-0.7763143320724578,2.606411985007906,-1.0891201139801758,-0.26126483483633767,-0.035166317329049054,-0.5250039751787132,2,right
10.997,-0.7597529370948116,0.26353780292396267,0.0348110711486592,-0.7928818913958167,2.5272660942280845,-1.090632598736936,-0.2503375500772991,-0.028834486110122945,-0.47441408338317925,2,right
10.998,-0.7535123735221578,0.2587749246640358,0.037212593567079746,-0.809081912024772,2.4450571611358907,-1.0912820001795944,-0.23902326642181287,-0.022742242342562696,-0.42319738750924596,2,right
11.0,-0.7472602378554081,0.2542934791634439,0.039600802679318745,-0.8248964316200046,2.3598436856424105,-1.0910564085597068,-0.22732560095364,-0.01689661188162689,-0.3713733708978516,2,right
11.004000000000001,-0.7410031652234459,0.25009410644290764,0.04197346515440613,-0.8403084144906792,2.2716889190459253,-1.0899452390396696,-0.21524862317178298,-0.011304296946626179,-0.31896210231531746,2,right
11.005,-0.7347477079633535,0.24617714016293515,0.04432836388059269,-0.8553018320326845,2.180660772266749,-1.0879392557025966,-0.20279685321922594,-0.005971672061436052,-0.26598422645211606,2,right
11.009,-0.7285003173331029,0.24254261507135536,0.046663302259814486,-0.8698617377905358,2.0868317142858697,-1.0850305908586473,-0.18997525932150439,-0.0009047805890522401,-0.2124609534949911,2,right
11.01,-0.7222673255997293,0.2391902742734587,0.04897610864295473,-0.8839743371871812,1.9902786605342935,-1.0812127596445942,-0.17678925440041998,0.0038906681558627428,-0.15841404762190964,2,right
11.013,-0.7160549287170505,0.2361195764579827,0.05126464083447141,-0.8976270519647533,1.8910828509717459,-1.0764806699108525,-0.16324469182714058,0.008409301231748127,-0.10386581426769982,2,right
11.014000000000001,-0.7098691697975575,0.2333297032388763,0.05352679057740003,-0.9108085793780605,1.7893297175853546,-1.0708306273875974,-0.149347860277864,0.012646083846771995,-0.04883908600666439,2,right
11.02,-0.7037159235512278,0.23081956676592036,0.05576048789534833,-0.9235089461813336,1.6851087410311163,-1.0642603361189953,-0.13510547765417846,0.016596320601081457,0.006642793103045405,2,right
11.020999999999999,-0.6976008818113074,0.22858781772402118,0.05796370514168645,-0.9357195574474256,1.5785132961333652,-1.0567688941519437,-0.1205246840292233,0.020255656207645856,0.06255598486994844,2,right
11.023,-0.6915295402014265,0.22663285379157713,0.06013446061144177,-0.9474332402573088,1.4696404859501302,-1.0483567844630852,-0.10561303357974243,0.02362007570385406,0.11887617617267186,2,right
11.024000000000001,-0.6855071859313326,0.22495282857229476,0.06227082161904534,-0.9586442822963347,1.3585909641051812,-1.0390258611052177,-0.09037848546313143,0.0266859041652044,0.17557860017564186,2,right
11.029000000000002,-0.6795388866562824,0.22354566096200398,0.06437090702693819,-0.9693484653923197,1.2454687450807507,-1.0287793305515835,-0.07482939359760783,0.02944980593159095,0.23263805971759857,2,right
11.03,-0.6736294803170428,0.2224090448717732,0.06643288930028235,-0.9795430940290962,1.130381002158391,-1.0176217282138729,-0.058974495302684414,0.031908783355843275,0.29002895303467474,2,right
11.033,-0.6677835659039235,0.22154045920651247,0.06845499622699792,-0.9892270188677249,1.0134378526891703,-1.005558890107144,-0.04282289875619876,0.03406017508331975,0.34772530198087426,2,right
11.034,-0.6620054951453135,0.22093717799510443,0.07043551245465052,-0.998400655306111,0.8947521303684683,-0.9925979196322353,-0.026384069254961836,0.035901653880928586,0.4057007828222666,2,right
11.035,-0.65629936517307,0.22059628058209482,0.07237278095832972,-1.0070659971063125,0.7744391441849966,-0.9787471494436275,-0.009667814423772028,0.03743122408527835,0.46392875924442967,2,right
11.039000000000001,-0.6506690122386628,0.2205146618159096,0.07426520449274222,-1.015226625117358,0.6526164237083353,-0.9640160983681203,0.0073157311979000165,0.03864721883274217,0.5223823164256322,2,right
11.04,-0.645118006554992,0.22068904219266455,0.07611124702221159,-1.0228877111199317,0.5294034503742839,-0.9484154233371052,0.02455612160451322,0.03954829728553322,0.5810342945913162,2,right
11.043,-0.6396496483335792,0.2211159779309936,0.07790943507543069,-1.0300560168178265,0.4049213744226534,-0.9319568662926676,0.042042614380659836,0.0401334420147909,0.6398573209038957,2,right
11.044,-0.6342669650650398,0.22179187096654945,0.07965835894649816,-1.0367398880215002,0.27929271763510555,-0.9146531961512809,0.05976418522336409,0.04040195660681152,0.6988238393304566,2,right
11.045,-0.6289727100483061,0.22271297886891434,0.08135667366821532,-1.0429492441770187,0.1526410645032339,-0.8965181465366552,0.07770954194826742,0.040353463505450354,0.7579061385692414,2,right
11.047,-0.6237693621302671,0.22387542469597368,0.0830030997125382,-1.0486955635891666,0.025090748929272093,-0.877566351125376,0.09586713802991045,0.03998790209237476,0.817076378203845,2,right
11.048,-0.6186591265815345,0.22527520681117966,0.08459642340919213,-1.053991864795497,-0.10323345395490004,-0.8578132790768359,0.11422518572699701,0.03930552700593872,0.8763066132544557,2,right
11.054,-0.6136439370002772,0.22690820869807743,0.08613549710400038,-1.0588526844373503,-0.23220662375429613,-0.8372751723862805,0.13277166884416708,0.03830690669853945,0.9355688172958078,2,right
11.055,-0.6087254581090521,0.22877020880760396,0.08761923910022958,-1.0632940517756426,-0.3617039759451671,-0.8159689858629118,0.15149435518241575,0.03699292223140646,0.9948349043117691,2,right
11.057,-0.6039050892985492,0.2308568904607363,0.08904663343705846,-1.067333459888548,-0.49160112804820655,-0.7939123298024006,0.17038080873086972,0.03536476630486398,1.054076749456653,2,right
11.058,-0.5991839687748145,0.23316385180394952,0.09041672955686819,-1.0709898335650725,-0.6217743512108542,-0.7711234152948416,0.18941840165317417,0.033423942521199894,1.11326620889344,2,right
11.064,-0.5945629781752771,0.2356866157849583,0.09172864190156838,-1.0742834939073163,-0.7521008075704416,-0.7476210021069843,0.20859432612224868,0.031172264876369035,1.1723751388791035,2,right
11.065,-0.5900427475297072,0.23842064008956879,0.09298154946668652,-1.07723611965307,-0.8824587737710735,-0.7234243490754133,0.22789560605764062,0.028611857475856768,1.2313754142671662,2,right
11.067,-0.5856236604533464,0.24136132696272136,0.09417469533665815,-1.0798707052292926,-1.0127278510079318,-0.698553166945253,0.24730910882013812,0.025745154469131427,1.2902389465974626,2,right
11.068,-0.5813058594697822,0.24450403282896618,0.09530738622605527,-1.0822115155459782,-1.142789161973136,-0.6730275735869247,0.26682155691870263,0.02257490019622154,1.3489377019428463,2,right
11.073,-0.5770892513707223,0.24784407762843247,0.09637899205639433,-1.084284037538943,-1.272525535077381,-0.6468680515214825,0.28641953978513934,0.019104149539067868,1.4074437186822815,2,right
11.073,-0.572973512530379,0.2513767537924006,0.097388945602634,-1.0861149284691565,-1.4018216763213278,-0.6200954076831291,0.3060895256722474,0.015336268469420825,1.4657291253693507,2,right
11.077,-0.5689580941052231,0.2550973347960633,0.09833674224354638,-1.087731960985391,-1.5305643291901248,-0.5927307353456228,0.32581787373147497,0.011274934784182561,1.523766158864748,2,right
11.078,-0.5650422270645821,0.25900108324272414,0.09922193984401409,-1.0891639649562062,-1.6586424229435095,-0.5647953781374734,0.34559084632634957,0.006924139018230432,1.581527182900769,2,right
11.082,-0.5612249270123094,0.2630832584513383,0.10004415878670979,-1.0904407660765838,-1.7859472096726798,-0.5363108960690608,0.3653946216381608,0.002288185523905681,1.6389847072451766,2,right
11.083,-0.5575049987746817,0.2673391235363879,0.10080308215875289,-1.091593121253924,-1.9123723904935392,-0.5072990334931115,0.38521530662054065,-0.0026283062944912343,1.696111407631106,2,right
11.085999999999999,-0.5538810407447646,0.2717639519842317,0.1014984560878104,-1.092652650777577,-2.0378142312440155,-0.4777816889183278,0.4050389503597138,-0.007820400603688034,1.7528801466188848,2,right
11.087,-0.5503514489865898,0.27635303374136216,0.10213009021243027,-1.0936517672756454,-2.1621716680509384,-0.44778088659439014,0.42485155789727846,-0.013282843635218665,1.8092639955547682,2,right
11.092,-0.5469144211118316,0.2811016808366659,0.1026978582638031,-1.0946236014624395,-2.2853464031294366,-0.41731874978503364,0.44463910457242867,-0.01901006206410514,1.8652362577906396,2,right
11.093,-0.5435679599480082,0.2860052325629423,0.10320169873175508,-1.095601924679693,-2.4072429911749986,-0.3864174756444528,0.46438755094053424,-0.024996161287347326,1.9207704933277,2,right
11.097999999999999,-0.5403098770221243,0.29105906024366945,0.10364161558741289,-1.0966210682344866,-2.5277689167052304,-0.3550993116108966,0.4840828583249659,-0.031234923617900846,1.9758405450460674,2,right
11.099,-0.5371377958879423,0.29625857160985236,0.10401767903853226,-1.0977158395367386,-2.6468346627049546,-0.3233865332299934,0.5037110050589786,-0.037719806410583104,2.03042056668102,2,right
11.102,-0.5340491553292852,0.3015992148091632,0.10433002630003138,-1.0989214350391519,-2.7643537709246275,-0.2913014233190809,0.5232580034743559,-0.04444394013709064,2.084485052705361,2,right
11.102,-0.531041212475876,0.30707648206553206,0.10457886236987927,-1.100273349982615,-2.880242894178115,-0.25886625238262156,0.5427099176592142,-0.05140012644095415,2.138008870184653,2,right
11.103,-0.5281110458696731,0.31268591300286624,0.1047644608065585,-1.1018072849502825,-2.994421840981695,-0.2261032601876491,0.5620528818364249,-0.05858083626855588,2.1909672922136405,2,right
11.107999999999999,-0.5252555585173503,0.3184230976432218,0.10488716450724479,-1.1035590492338725,-3.1068136128716968,-0.19303463840712104,0.5812731189065351,-0.06597820828928512,2.243336031718091,2,right
11.109000000000002,-0.5224714809650705,0.32428367908678174,0.10494738648613557,-1.1055644610161413,-3.217344434733537,-0.15968251423804905,0.6003569585280434,-0.0735840478831656,2.2950912739477136,2,right
11.112,-0.5197553744396719,0.3302633558772801,0.1049456106521233,-1.107859244481145,-3.3259437784573134,-0.1260689349141637,0.6192908542783243,-0.08138982691034073,2.3462097064411993,2,right
11.113,-0.5171036341065821,0.33635788405406464,0.10488239258535932,-1.110478924500156,-3.432544380166707,-0.09221585310114204,0.6380613997454893,-0.08938668436115989,2.396668546065364,2,right
11.114,-0.5145124924914065,0.34256307889228693,0.10475836031101485,-1.1134587205059587,-3.5370822511486226,-0.058145113286075904,0.6566553435718279,-0.09756542792161504,2.4464455631856197,2,right
11.115,-0.5119780231092446,0.34887481633269707,0.10457421506273025,-1.1168334417047179,-3.6394966825421555,-0.02387843934125629,0.6750596035031915,-0.10591653647653256,2.495519103114576,2,right
11.116,-0.5094961443537473,0.35528903409959484,0.10433073201880272,-1.1206373852399103,-3.739730243903038,0.010562576627487795,0.6932612794982154,-0.11443016357347348,2.543868104983672,2,right
11.120999999999999,-0.5070626237096864,0.3618017325021226,0.10402876098555387,-1.1249042379597083,-3.837728775867773,0.04515648416274782,0.7112476659507646,-0.12309614187081687,2.5914721181807967,2,right
11.122,-0.5046730823569688,0.368408974913287,0.10366922699775624,-1.1296669819047138,-3.9334413771988768,0.07988198315235477,0.7290062630784492,-0.13190398859399552,2.6383113164948218,2,right
11.127,-0.5023230002293607,0.37510688792207403,0.1032531308057196,-1.1349578035270411,-4.026820386499065,0.11471793143995232,0.7465247875294663,-0.1408429120243196,2.684366510105901,2,right
11.127,-0.5000077215814148,0.3818916611553279,0.10278154922111873,-1.1408080066530764,-4.1178213588757835,0.1496433514486573,0.7637911822594147,-0.14990181904526068,2.7296191555582423,2,right
11.130999999999998,-0.49772246110475854,0.38875954676888486,0.10225563529645021,-1.1472479292036672,-4.206403037830955,0.1846374359175192,0.7807936257290718,-0.15906932377147562,2.7740513638498756,2,right
11.132,-0.4954623106216594,0.39570685861280025,0.1016766183139568,-1.1543068636870064,-4.292527322644077,0.21967955285080737,0.797520540473431,-0.16833375728622516,2.8176459067716655,2,right
11.136,-0.49322224637020473,0.40272997108148434,0.10104580355790803,-1.1620129814810827,-4.376159231510021,0.2547492497804136,0.8139606010915753,-0.17768317851318693,2.860386221625549,2,right
11.137,-0.4909971368811221,0.40982531766446456,0.10036457183975418,-1.1703932609242627,-4.457266860685914,0.2898262574418529,0.8301027417062088,-0.1871053862489734,2.902256414449589,2,right
11.140999999999998,-0.48878175143194597,0.41698938921793477,0.09963437874125972,-1.1794734192343412,-4.5358213398944525,0.3248904929644865,0.8459361629408715,-0.19658793238294336,2.9432412618750465,2,right
11.142000000000001,-0.4865707690515564,0.4242187319813757,0.09885675353923491,-1.1892778482782567,-4.611796784223809,0.3599220626766679,0.8614503384620421,-0.20611813633113898,2.983326211738223,2,right
11.145,-0.4843587880381194,0.4315099453663016,0.09803329777780496,-1.1998295542166004,-4.6851702427570885,0.39490126462653674,0.8766350211324764,-0.21568310071138894,3.022497382567311,2,right
11.145999999999999,-0.48214033594626826,0.4388596795454662,0.09716568345783,-1.2111501010490573,-4.755921644156939,0.42980859091914764,0.8914802488212451,-0.22526972828679145,3.0607415620619802,2,right
11.15,-0.4799098799948565,0.44626463287117085,0.09625565081488822,-1.2232595580889962,-4.824033739423526,0.4646247299705271,0.9059763499150177,-0.23486474020492704,3.0980462046808017,2,right
11.151,-0.47766183784442906,0.45372154915105656,0.09530500565701773,-1.2361764513975635,-4.889492042036599,0.4993305687791034,0.9201139485741905,-0.24445469556025048,3.1343994284490213,2,right
11.155,-0.47539058869249484,0.46122721480944695,0.09431561623396353,-1.2499177192098483,-4.9522847656848805,0.5339071953147467,0.9338839697764858,-0.2540260123071732,3.1697900110965147,2,right
11.155999999999999,-0.47309048463387976,0.4687784559619765,0.09328940961421804,-1.2644986713879423,-5.012402759778403,0.5683359011253953,0.9472776441896451,-0.2635649895513705,3.2042073856330733,2,right
11.16,-0.4707558622337544,0.47637213543043544,0.0922283675568852,-1.2799329529380414,-5.069839442931813,0.60259818426093,0.9602865129138096,-0.2730578312468346,3.2376416354654185,2,right
11.16,-0.46838105426292576,0.48400514972354325,0.09113452188162104,-1.296232511631096,-5.124590734599014,0.6366757526135827,0.9729024321331289,-0.2824906713261398,3.270083489157605,2,right
11.165,-0.4659604015474754,0.491674426007831,0.09000994935773052,-1.3134075697689236,-5.176654985031833,0.670550527773746,0.9851175777150531,-0.2918496002912919,3.3015243149336446,2,right
11.165999999999999,-0.46348826488661743,0.49937691909124543,0.08885676614942421,-1.3314666001401534,-5.2260329037277025,0.7042046494995701,0.9969244497946639,-0.3011206932924038,3.331956115018391,2,right
11.17,-0.4609590369936146,0.5071096084417848,0.08767712186770066,-1.3504163062128445,-5.2727274865236415,0.7376204808982038,1.0083158773802696,-0.3102900397212642,3.3613715199098646,2,right
11.171,-0.45836715441559234,0.5148694952648856,0.08647319328970371,-1.370261606613137,-5.316743941486107,0.7707806144159547,1.0192850230048125,-0.3193437742945835,3.389763782651026,2,right
11.172,-0.4557071093915856,0.522653599664597,0.08524717780887163,-1.3910056239418307,-5.358089613738563,0.8036678787340099,1.0298253873938357,-0.3282681093410828,3.4171267730547394,2,right
11.175,-0.45297346161553276,0.5304589579138395,0.08400128667147465,-1.4126496779833364,-5.39677390936093,0.8362653466656733,1.039930814024832,-0.3370493675376452,3.4434549716321596,2,right
11.177,-0.4501608498789297,0.5382826198597364,0.08273773804651717,-1.43519328336402,-5.4328082184873665,0.8685563441503434,1.0495954933989549,-0.345674014079054,3.4687434628604814,2,right
11.18,-0.44726400357281554,0.5461216464921862,0.08145874997559402,-1.4586341517195307,-5.466205837721191,0.9005244604386733,1.058813966897467,-0.3541286875258331,3.4929879275344153,2,right
11.181,-0.44427775403223,0.5539731077063871,0.08016653325252343,-1.482968198433293,-5.496981891978087,0.932153559562518,1.067581130188793,-0.3624002290429498,3.516184634143323,2,right
11.182,-0.44119704571084517,0.5618340802912626,0.07886328428094408,-1.5081895539281926,-5.52515325588762,0.9634277931423697,1.0758922362034005,-0.3704757100020555,3.5383304293243647,2,right
11.185,-0.4380169471780172,0.5697016461748124,0.077551177949805,-1.5342905790824324,-5.550738475007836,0.9943316143839023,1.0837428977029797,-0.3783424579715233,3.5594227274613055,2,right
11.186,-0.4347326619333816,0.5775728909550863,0.0762323605544928,-1.5612618835985628,-5.573757687338455,1.0248497927540057,1.0911290894691,-0.3859880811180171,3.579459499495607,2,right
11.189,-0.43133953903609623,0.5854449027439397,0.07490894277972827,-1.5890923457436146,-5.594232545743013,1.0549674286255273,1.0980471501352054,-0.3934004910427624,3.5984392610134215,2,right
11.19,-0.4278330835479343,0.5933147713507594,0.0735829927514873,-1.6177691322944014,-5.612186141750527,1.0846699673790157,1.1044937836844995,-0.40056792407509395,3.616361059669068,2,right
11.195,-0.4242089667906949,0.6011795878334318,0.07225652915695835,-1.6472777182691007,-5.627642930961687,1.1139432128089328,1.1104660606349228,-0.4074789610452146,3.6332244620025578,2,right
11.196,-0.42046303641705135,0.6090364444432428,0.07093151442437189,-1.6776019064423093,-5.64062866014492,1.1427733398807869,1.1159614189310958,-0.4141225455574362,3.649029539705687,2,right
11.199000000000002,-0.4165913262891271,0.6168824349899366,0.06960984795306599,-1.708723846725918,-5.651170296073935,1.1711469069244858,1.1209776645617355,-0.4204880007844676,3.663776855388182,2,right
11.2,-0.4125900661511025,0.6247146556527053,0.06829335938994603,-1.7406240555005459,-5.6592959561512215,1.1990508673479774,1.1255129719197021,-0.4265650448025787,3.6774674478923335,2,right
11.205,-0.40845569107245566,0.6325302062608888,0.06698380195901267,-1.773281434984606,-5.665034840854853,1.2264725809539652,1.1295658839204525,-0.43234380448670423,3.6901028172015344,2,right
11.207,-0.4041848506288128,0.6403261920633669,0.06568284586441277,-1.8066732927303684,-5.668417168038957,1.2533998249411837,1.1331353118933118,-0.4378148279837502,3.701684908985085,2,right
11.21,-0.3997744177784796,0.6480997259981143,0.06439207180427946,-1.840775361338612,-5.6694741091112375,1.2798208046703656,1.1362205352585841,-0.44296909578153965,3.7122160988185966,2,right
11.210999999999999,-0.39522149738401235,0.6558479314643092,0.06311296465139157,-1.8755618184856364,-5.6682377271041124,1.3057241642736506,1.1388212010021461,-0.4477980303899782,3.721699176116297,2,right
11.214,-0.3905234343194698,0.6635679455895882,0.06184690737573026,-1.9110053073585047,-5.664740916649252,1.3310989971847644,1.140937322957775,-0.452293504650138,3.7301373278085177,2,right
11.215,-0.3856778210960753,0.671256922974618,0.06059517529982165,-1.9470769575964288,-5.659017345858616,1.3559348566658458,1.1425692809060732,-0.4564478486860467,3.7375341217946163,2,right
11.22,-0.38068250493271844,0.6789120398861562,0.059358930785090816,-1.9837464068381692,-5.651101400108511,1.3802217664053076,1.1437178194974593,-0.4602538555130365,3.7438934901985887,2,right
11.222000000000001,-0.37553559419361815,0.6865304988586516,0.0581392184439299,-2.020981822977209,-5.641028127716699,1.4039502312596097,1.1443840470053086,-0.4637047853155518,3.749219712451616,2,right
11.224,-0.3702354641148977,0.6941095336543774,0.05693696096004665,-2.0587499272282597,-5.628833187496175,1.4271112482102641,1.1445694339139296,-0.46679436840633426,3.7535173982228063,2,right
11.225,-0.36478076174715607,0.701646414524758,0.05575295558258405,-2.097016018110371,-5.614552798162979,1.4496963176058248,1.14427581134468,-0.46951680687790315,3.7567914702164122,2,right
11.23,-0.3591704100536441,0.7091384537116859,0.05458787134018941,-2.135743996453541,-5.598223689569145,1.471697454757008,1.143505369322139,-0.471866774956233,3.7590471468508215,2,right
11.231,-0.35340361112155466,0.7165830111265918,0.05344224700101304,-2.1748963915372523,-5.579883055725854,1.4931072019514582,1.142260654880873,-0.47383941806548985,3.7602899248316946,2,right
11.232999999999999,-0.3474798484632583,0.7239775001462715,0.052316489783738054,-2.2144343884707784,-5.559568509575843,1.5139186409530272,1.1405445700119528,-0.47543035061163624,3.760525561628655,2,right
11.234000000000002,-0.3413988884024508,0.7313193934681388,0.051210874803682305,-2.254317856926442,-5.537318039468244,1.5341254060487508,1.1383603694470203,-0.4766356524916453,3.759760057862026,2,right
11.239,-0.3351607805572044,0.7386062289733104,0.050125545218427034,-2.294505381338212,-5.513169967283232,1.5537216977050121,1.13571165827633,-0.47745186433398124,3.7579996396031974,2,right
11.24,-0.32876585744676995,0.7458356155535419,0.049060513021741546,-2.334954292679135,-5.487162908148222,1.5727022968926656,1.132602389395089,-0.47787598149797567,3.7552507406077025,2,right
11.241,-0.32221473325660555,0.7530052388684275,0.04801566042674003,-2.3756207019320854,-5.459335731681766,1.5910625801391571,1.129036860767308,-0.4779054469739566,3.7515199845891227,2,right
11.244000000000002,-0.3155083017955184,0.760112867010571,0.04699074177996478,-2.416459535369195,-5.429727524695872,1.608798535363923,1.1250197124882477,-0.4775381435324773,3.746814167804566,2,right
11.245,-0.3086477336804023,0.7671563560613869,0.04598538594838154,-2.4574245717560603,-5.39837755528211,1.625906778551584,1.1205559236214557,-0.4767723855852002,3.7411402423115447,2,right
11.249,-0.30163447279418126,0.7741336555167295,0.04499909911472747,-2.498468481573407,-5.365325238226197,1.6423845712474867,1.1156508087888524,-0.47560691110352227,3.734505300161332,2,right
11.25,-0.2944702320696188,0.7810428135593038,0.04403126791334298,-2.539542868229095,-5.330610101813394,1.6582298385174072,1.110310014497809,-0.474040873732288,3.7269165586256072,2,right
11.25,-0.2871569886472947,0.7878819821599299,0.04308116284733741,-2.58059831101723,-5.294271756302942,1.67344118639776,1.1045395151916555,-0.47207383511945217,3.7183813464584854,2,right
11.254000000000001,-0.2796969784536287,0.7946494219948133,0.04214794193904442,-2.62158440946109,-5.25634986446766,1.688017917519897,1.098345609009533,-0.4697057574583447,3.7089070911748987,2,right
11.255,-0.2720926902556873,0.8013435071647693,0.04123065456917774,-2.662449828796934,-5.216884114467278,1.701960043931214,1.0917349132402692,-0.46693699623803653,3.6985013073235335,2,right
11.258,-0.26434685926448254,0.8079627296996635,0.04032824546178286,-2.7031423465722053,-5.175914195098491,1.715268296747632,1.0847143594537079,-0.46376829319615653,3.6871715857298244,2,right
11.258,-0.25646246036741344,0.8145057038324777,0.03943955878028417,-2.7436089004516973,-5.133479773337439,1.7279441326111484,1.0772911882917129,-0.4602007694673558,3.674925583681804,2,right
11.265,-0.24844270107529884,0.8209711700316705,0.03856334231289536,-2.7837956373489674,-5.089620474061313,1.7399897369925061,1.0694729438998745,-0.45623591891946885,3.6617710160289296,2,right
11.265999999999998,-0.24029101427305224,0.827357998785904,0.03769825173768834,-2.8236479639997913,-5.044375861831479,1.7514080243772183,1.0612674679797616,-0.45187560166827073,3.647715647161359,2,right
11.267999999999999,-0.23201105086416396,0.8336651941407763,0.03684285496578376,-2.863110599093778,-4.997785424616302,1.7622026353713665,1.0526828934404142,-0.4471220377605838,3.632767283834511,2,right
11.269,-0.2236066723965111,0.8398918969920016,0.03599563656545788,-2.9021276270794836,-4.949888559327764,1.7723779307617815,1.0437276376266318,-0.441977801014349,3.616933768801139,2,right
11.273,-0.2150819437513709,0.8460373881431051,0.03515500227219138,-2.940642553757388,-4.9007245590419855,1.781938982563417,1.034410395100504,-0.436445813003141,3.600222975210561,2,right
11.274000000000001,-0.2064411259708202,0.8521010911383365,0.03431928359064268,-2.978598363773975,-4.850332601769875,1.790891562084938,1.024740129951539,-0.4305293371714754,3.5826428017321037,2,right
11.277000000000001,-0.1976886692914448,0.8580825748830057,0.03348674249195275,-3.0159375801288872,-4.79875174064043,1.799242125041761,1.0147260676096843,-0.4242319730661377,3.5642011683573167,2,right
11.277999999999999,-0.1888292064428913,0.863981556063487,0.032655576201489636,-3.0526023258056703,-4.746020895355512,1.8069977937440287,1.004377686134489,-0.41755765066764833,3.5449060128329473,2,right
11.282,-0.1798675462582172,0.8697979013776533,0.03182392206043509,-3.0885343876350184,-4.692178844771418,1.814166336385251,0.9937047069526556,-0.4105106248048759,3.5247652876742017,2,right
11.283,-0.17080866763149738,0.8755316295835107,0.030989862434377038,-3.12367528249767,-4.637264220459177,1.8207561434556123,0.9827170850152237,-0.40309546963471493,3.503786957705327,2,right
11.288,-0.16165771384773175,0.8811829133690575,0.030151429635616317,-3.1579663259721498,-4.581315501092146,1.82677620130225,0.9714249983446874,-0.39531707316766546,3.4819789980721008,2,right
11.289000000000001,-0.15241998729979286,0.8867520810397251,0.02930661082253268,-3.1913487035304557,-4.524371007506327,1.832236062857106,0.9598388369414012,-0.38718063181907914,3.459349392668393,2,right
11.293,-0.14310094459643968,0.8922396180119931,0.02845335283975183,-3.2237635443825137,-4.466468898275738,1.8371458155513094,0.9479691910177346,-0.37869164496478075,3.43590613291654,2,right
11.294,-0.13370619205460585,0.8976461680946448,0.027589566970765162,-3.255151998067783,-4.40764716564219,1.8415160464334004,0.9358268385275589,-0.3698559094787305,3.4116572168389165,2,right
11.296,-0.12424148155862477,0.9029725345348008,0.02671313359152187,-3.2854553138897904,-4.347943631635951,1.8453578045071022,0.9234227319578024,-0.3606795142293666,3.386610648355694,2,right
11.298,-0.11471270675869863,0.908219680805234,0.025821906734944194,-3.3146149232865745,-4.287395944221079,1.8486825603027697,0.910767984348002,-0.35116883451025305,3.3607744367414747,2,right
11.302999999999999,-0.10512589956939059,0.9133887311101966,0.02491371859698819,-3.342572525227094,-4.226041573296481,1.8515021626950943,0.8978738545029915,-0.3413305263796623,3.3341565961711446,2,right
11.302999999999999,-0.09548722691428242,0.9184809705846076,0.023986384030869258,-3.369270174720521,-4.163917806381301,1.8538287929781212,0.8847517313631175,-0.3311715208827472,3.3067651452830185,2,right
11.307,-0.0858029876448647,0.9234978451520188,0.023037705081173247,-3.394650374522062,-4.101061743810764,1.855674916207161,0.8714131174956514,-0.32069901812899265,3.2786081066850685,2,right
11.308,-0.07607960954398726,0.9284409609908828,0.02206547559886458,-3.4186561701155016,-4.037510293266307,1.8570532298157185,0.8578696117013912,-0.3099204812003006,3.249693506361737,2,right
11.309000000000001,-0.06632364631522415,0.9333120835461516,0.021067485957293595,-3.441231248049036,-3.9733001634616154,1.8579766095141488,0.8441328908848243,-0.2988436298821383,3.2200293731063145,2,right
11.312000000000001,-0.056541774462595104,0.9381131360237608,0.02004152787148234,-3.4623200376971863,-3.9084678568040556,1.8584580524753769,0.8302146916146746,-0.28747643424168023,3.1896237384071644,2,right
11.312999999999999,-0.04674078996982988,0.9428461973121374,0.018985399316266287,-3.4818678165176244,-3.8430496608490494,1.8585106178116617,0.8161267919560996,-0.2758271080939933,3.158484637383608,2,right
11.317,-0.03692760468632533,0.9475134992767337,0.017896909541578257,-3.49982081886766,-3.7770816383629784,1.8581473643450865,0.8018809940002176,-0.26390410237846135,3.1266201111954177,2,right
11.319,-0.02710924232612083,0.952117423377188,0.016773884188870953,-3.5161263482977896,-3.7105996158610575,1.857381285773542,0.787489107237051,-0.25171609843441034,3.094038211042248,2,right
11.319,-0.017292833996006982,0.9566604965715765,0.0156141705154606,-3.5307328925200263,-3.643639170747824,1.8562252438344975,0.7729629327624483,-0.239272001146087,3.0607470036975126,2,right
11.322000000000001,-0.007485613185908812,0.9611453864930196,0.014415642733005366,-3.543590238956679,-3.5762356176595755,1.8546919009708303,0.7583142482780861,-0.2265809319227578,3.0267545784851793,2,right
11.322000000000001,0.002305089830072946,0.9655748959003899,0.013176207468549339,-3.5546495880552467,-3.5084239948695446,1.8527936545035952,0.7435547938432309,-0.21365222147893526,2.992069055605909,2,right
11.327,0.01207185422369802,0.9699519564148882,0.011893809366229188,-3.563863662265486,-3.440239051352292,1.850542573813734,0.7286962583365584,-0.2004954023790019,2.9566985957169187,2,right
11.328,0.021807175506548624,0.9742796215620577,0.010566436860574506,-3.5711868098571573,-3.3717152346292605,1.847950341130458,0.7137502665859731,-0.1871202013097944,2.9206514106679253,2,right
11.331,0.03150347310713091,0.9785610591464523,0.009192128158647601,-3.5765751034670696,-3.3028866792533607,1.8450281960212318,0.6987283671240521,-0.1735365310440275,2.883935775293557,2,right
11.332,0.0411530986304656,0.9827995429905896,0.007768977461021716,-3.5799864334017957,-3.2337871957367677,1.8417868835769156,0.6836420205264561,-0.1597544820567824,2.8465600401606364,2,right
11.335999999999999,0.05074834477460482,0.9869984440680841,0.0062951414295584615,-3.5813805957169986,-3.164450259725166,1.8382366062846434,0.6685025882903937,-0.14578431375665804,2.8085326451667942,2,right
11.337,0.060281454850386204,0.9911612210540345,0.0047688458781611235,-3.580719375088758,-3.094909001220777,1.8343869795800667,0.653321322210012,-0.13163644529258453,2.769862133884968,2,right
11.343,0.06974463282234071,0.995291410306716,0.00318839263225988,-3.5779666224866107,-3.0251961936557508,1.8302469910696741,0.6381093542053982,-0.11732144589672858,2.7305571685464236,2,right
11.344000000000001,0.07913005376437884,0.9993926152853901,0.0015521664858250581,-3.5730883276522256,-2.9553442426167917,1.825824963413006,0.6228776865617245,-0.10285002472338077,2.6906265455530782,2,right
11.345999999999998,0.08842987460789216,1.0034684954010702,-0.00014135781373579467,-3.5660526863817426,-2.88538517402133,1.821128520853727,0.6076371825349488,-0.08823302014320485,2.6500792114080545,2,right
11.347000000000001,0.09763624505294635,1.007522754293129,-0.0018936086065093616,-3.556830162603787,-2.815350621545028,1.8161645593876818,0.5923985572803946,-0.0734813884517481,2.608924278951572,2,right
11.352,0.10674131851243514,1.0115591275281433,-0.0037059104187145103,-3.5453935452390763,-2.7452718131000347,1.8109392205552466,0.577172369060478,-0.05860619195066455,2.567171043787485,2,right
11.353,0.11573726296198264,1.0155813697295222,-0.005579477131954041,-3.5317179998213497,-2.6751795561630822,1.8054578688444967,0.5619690106878226,-0.04361858635968304,2.5248290007840026,2,right
11.356,0.1246162715745102,1.01959324116506,-0.00751540522751534,-3.5157811148530675,-2.6051042217522937,1.7997250726909486,0.5467987011600076,-0.028529807516966984,2.481907860530391,2,right
11.357000000000001,0.13337057302671929,1.0235984938406948,-0.009514667115291787,-3.4975629428629667,-2.5350757268514563,1.7937445890588712,0.5316714774422323,-0.013351157325157114,2.4384175656297216,2,right
11.360999999999999,0.1419924413732088,1.0276008571690147,-0.01157810457228002,-3.4770460361261444,-2.4651235150804722,1.7875193515884353,0.5165971863542417,0.001906011099933843,2.394368306706057,2,right
11.360999999999999,0.15047420539133854,1.0316040232982437,-0.013706422335429376,-3.454215477000842,-2.395276535410735,1.7810514622922369,0.5015854765179563,0.017230309121296333,2.349770538002793,2,right
11.366,0.15880825730671616,1.0356116322006483,-0.015900181912976975,-3.429058902829553,-2.3255632187243274,1.7743421867840212,0.48664579032237065,0.03261032915694875,2.3046349924472382,2,right
11.367,0.1669870608170904,1.0396272566271965,-0.018159795692312252,-3.401566525345489,-2.256011452016151,1.7673919530217284,0.47178735586243675,0.04803466218421704,2.2589726960549217,2,right
11.37,0.17500315834386324,1.0436543870365398,-0.020485521426977262,-3.3717311445187845,-2.1866485500383903,1.760200353546284,0.4570191788088269,0.06349191621606715,2.212794981545525,2,right
11.370999999999999,0.18284917745639734,1.0476964166020366,-0.02287745718110809,-3.3395481567701553,-2.117501224187109,1.7527661511968597,0.4423500341656805,0.0789707357936486,2.1661135010408032,2,right
11.375,0.1905178364337386,1.051756626393001,-0.025335536800380934,-3.305015557473019,-2.0485955484312357,1.7450872882826376,0.42778845787366715,0.09445982253933453,2.1189402377133457,2,right
11.376,0.19800194894932646,1.0558381708162574,-0.027859525967427027,-3.268133937658354,-1.9799569220847253,1.737160899190418,0.41334273823698287,0.10994795677085606,2.071287516287949,2,right
11.377,0.20529442788386243,1.0599440633905766,-0.03044901888733366,-3.22890647482984,-1.911610029223319,1.728983326406707,0.39902090725827716,0.12542401995827965,2.023168012467955,2,right
11.380999999999998,0.21238828828785347,1.0640771629122157,-0.033103435636214144,-3.1873389177900795,-1.8435787945480098,1.7205501399322198,0.3848307321550034,0.14087701741156564,1.9745947616671522,2,right
11.382,0.21927664953167111,1.068240160062288,-0.03582202019488214,-3.143439565371954,-1.7758863354980823,1.7118561600660225,0.3707797074361177,0.1562961003675318,1.925581167598477,2,right
11.386,0.22595273670260924,1.0724355645094938,-0.03860383917835824,-3.097219238962447,-1.7085549104174385,1.7028954835358054,0.35687504781330404,0.1716705868639236,1.8761410110973977,2,right
11.387,0.23240988133258988,1.0766656925670204,-0.041447781255954684,-3.0486912488379523,-1.6416058627530938,1.6936615129163173,0.34312368203210053,0.18698998118226606,1.8262884592468962,2,right
11.388,0.23864152155473004,1.080932655460624,-0.0443525572395329,-2.997871355015574,-1.5750595621370624,1.68414698910852,0.3295322476035975,0.2022439918599871,1.7760380746976894,2,right
11.390999999999998,0.24464120178743223,1.085238348256484,-0.04731670080537495,-2.944777724564105,-1.508935344772321,1.674344026347591,0.3161070863967771,0.21742254831595675,1.7254048250416845,2,right
11.392000000000001,0.2504025720455989,1.0895844394893097,-0.05033856980146321,-2.889430888003917,-1.44325145641601,1.6642441490384114,0.30285424105200554,0.2325158161334282,1.6744040920954903,2,right
11.394,0.255919386992934,1.0939723615243564,-0.05341634806650208,-2.8318536967262466,-1.3780250003828136,1.6538383298850694,0.2897794521766471,0.24751421104418,1.6230516809496611,2,right
11.395,0.2611855048682839,1.09840330167345,-0.05654804765479132,-2.7720712821099838,-1.3132718914242354,1.6431170290837527,0.2768881562842456,0.2624084116574422,1.5713638286382456,2,right
11.399000000000001,0.2661948864285026,1.102878194061108,-0.05973151133648006,-2.710111016315444,-1.2490068154693807,1.6320702345162557,0.26418548443921447,0.27718937097694457,1.5193572122821726,2,right
11.4,0.27094159404861273,1.1073977122093337,-0.06296441523477986,-2.64600247458977,-1.185243195039905,1.6206875029141898,0.25167626156948547,0.29184832674915306,1.4670489565589762,2,right
11.404000000000002,0.2754197911109838,1.1119622622865328,-0.06624427147318561,-2.5797773989122885,-1.1219931601531408,1.6089580019630743,0.23936500641009492,0.30637681068546296,1.4144566403504186,2,right
11.405,0.2796237418012926,1.1165719769514342,-0.06956843073501007,-2.51146966280189,-1.059267524528816,1.5968705533145473,0.22725593204122643,0.3207666566007901,1.3615983024186429,2,right
11.409,0.28354781141234126,1.1212267097208348,-0.07293408467717548,-2.441115237102332,-0.9970757669162125,1.5844136764739818,0.21535294698478366,0.3350100075106546,1.3084924459606273,2,right
11.411,0.28718646723996794,1.125926029803288,-0.07633826818040106,-2.3687521565552854,-0.93542601736009,1.57157563352978,0.20365965682413564,0.3490993217284752,1.2551580418898955,2,right
11.415,0.29053428013990634,1.130669217368219,-0.07977786145243544,-2.2944204869649854,-0.8743250482251987,1.5583444746895987,0.19217936631225668,0.36302737800439605,1.2016145306936752,2,right
11.415,0.29358592680082446,1.135455259256537,-0.08324959202866188,-2.218162292752446,-0.8137782698007406,1.544708084587698,0.18091508193407488,0.37678727974654613,1.1478818227129857,2,right
11.419,0.29633619277763107,1.140282845177646,-0.08675003673676054,-2.14002160469145,-0.7537897303076894,1.530654229326503,0.16986951488944435,0.3903724583651916,1.093980296692482,2,right
11.42,0.2987799763220728,1.1451503644711383,-0.09027562371029368,-2.0600443876128733,-0.6943621201334536,1.516170604214349,0.1590450844637678,0.4037766757797771,1.0399307964462825,2,right
11.425,0.30091229304515543,1.1500559035339526,-0.09382263454944871,-1.9782785078583582,-0.6354967801199579,1.501244882160204,0.14844392175391605,0.41699402612837116,0.9857546254854631,2,right
11.425999999999998,0.30272828144656927,1.1549972440244212,-0.09738720673526009,-1.8947737002589748,-0.5771937137328167,1.4858647626849713,0.13806787371771884,0.43001893671852787,0.9314735394524188,2,right
11.43,0.30422320934778596,1.1599718619553843,-0.1009653364076659,-1.8095815344092028,-0.5194516029408821,1.470018021507739,0.12791850751593592,0.4428461682580593,0.877109736206869,2,right
11.431,0.30539248126603386,1.1649769277821227,-0.10455288161712495,-1.722755380001458,-0.46226782763706487,1.4536925606640714,0.11799711511625792,0.455470814403677,0.822685843407919,2,right
11.434000000000001,0.30623164676536196,1.1700093075798643,-0.10814556614976771,-1.6343503709813874,-0.4056384884329328,1.436876459112133,0.10830471812953259,0.4678883006649079,0.7682249034362908,2,right
