time,gFx,gFy,gFz,ax,ay,az,wx,wy,wz,subject_number,foot
7.782,0.36592536664059155,1.0399288432377647,0.12057559106891509,-4.553344249128961,5.545570317964668,-4.188161742564027,-1.5502845663964353,0.11525552250796067,1.6610524074981838,1,left
7.7829999999999995,0.37789249516007534,1.0224333312870664,0.1278164918620283,-4.58187617232124,5.624832376796228,-4.219788629926625,-1.5667840169022424,0.10607398110429961,1.6675571692990616,1,left
7.787000000000001,0.3898550127539524,1.004696801446219,0.13505747640618337,-4.608162247658775,5.701926109886996,-4.249930283788148,-1.5829349928937426,0.09645399295380586,1.6733107330830732,1,left
7.787999999999999,0.40180190608722266,0.9867355419980158,0.14229276047940367,-4.632160157087057,5.776733602145067,-4.278547289969016,-1.5987209609250543,0.08639553185468729,1.6782972109817749,1,left
7.792000000000001,0.41372219454606807,0.9685661002469138,0.14951667043459982,-4.653829315153442,5.84913753910805,-4.305601667947307,-1.6141254328944992,0.07589920900348264,1.682501261954697,1,left
7.792999999999999,0.42560494824539846,0.9502052506712393,0.1567236510906334,-4.673130945149294,5.919021378368637,-4.331056932040958,-1.6291319801968982,0.06496628413516223,1.6859081095753883,1,left
7.797000000000001,0.43743930569376804,0.9316699633401074,0.16390827338036945,-4.690028153192992,5.986269523090475,-4.354878149373306,-1.6437242480540777,0.05359867517678224,1.6885035589005117,1,left
7.7989999999999995,0.44921449110978035,0.9129773727950647,0.1710652417209605,-4.704486000315967,6.05076749782207,-4.377031994699587,-1.6578859700678035,0.041798966384542204,1.6902740124340423,1,left
7.801,0.4609198313896942,0.8941447475690968,0.17818940107056921,-4.71647157260714,6.11240212680923,-4.397486802167474,-1.6716009830382161,0.029570414932842386,1.6912064851963173,1,left
7.8020000000000005,0.4725447727325358,0.8751894604862221,0.18527574363045227,-4.725954049464228,6.171061714999003,-4.416212614079982,-1.6848532420896516,0.01691695592269056,1.6912886189053704,1,left
7.806,0.4840788969357564,0.8561289598555705,0.1923194151406018,-4.73290476999338,6.226636231920129,-4.433181226724343,-1.6976268361444977,0.0038432057755677543,1.6905086952756039,1,left
7.807,0.49551193737869165,0.8369807416446494,0.1993157207040032,-4.737297297591492,6.279017498616854,-4.44836623332552,-1.7099060037844487,-0.009645536022367939,1.6888556484364556,1,left
7.812,0.5068337947106328,0.817762322688168,0.206260130064032,-4.73910748273841,6.3280993778043495,-4.461743064178124,-1.7216751495371962,-0.023543286862079522,1.6863190764712672,1,left
7.814,0.5180345522541155,0.7984912149639971,0.21314828225413496,-4.73831352401891,6.373777967405181,-4.473289024005396,-1.7329188606252175,-0.03784338267699723,1.68288925207409,1,left
7.816,0.5291044911208648,0.7791849009487436,0.2199759895387006,-4.734896027387031,6.415951797617063,-4.482983326588836,-1.743621924211899,-0.05253848137064931,1.67855713231966,1,left
7.817,0.5400341050176531,0.7598608100519305,0.22673924057014272,-4.728838063677906,6.45452203165268,-4.490807126706863,-1.7537693451787777,-0.0676205680464876,1.6733143675392326,1,left
7.822,0.5508141146950124,0.7405362961186305,0.2334342027024367,-4.72012522436477,6.489392670282574,-4.496743549415618,-1.7633463644661587,-0.08308096208097249,1.6671533092924047,1,left
7.822,0.5614354819700783,0.7212286159836533,0.24005722342490207,-4.708745675551303,6.5204707603020395,-4.5007777166997265,-1.7723384779881306,-0.09891032606271073,1.6600670174332994,1,left
7.8229999999999995,0.5718894232466577,0.7019549090536265,0.24660483090529606,-4.694690210181865,6.547666607032626,-4.502896771515454,-1.780731456032855,-0.11509867652452756,1.6520492663210788,1,left
7.825,0.5821674224632264,0.6827321778860879,0.2530737336520026,-4.677952298444558,6.570893990958222,-4.503089899243288,-1.7885113628800413,-0.13163539622180048,1.6430945503196699,1,left
7.8260000000000005,0.5922612434050896,0.6635772697300701,0.25946081932189063,-4.658528136334425,6.590070388584793,-4.501348346561494,-1.7956645762673014,-0.1485092476144183,1.6331980887831365,1,left
7.831,0.6021629413073846,0.6445068589921307,0.2657631527160565,-4.636416692287818,6.605117197308859,-4.497665437729302,-1.8021778064338896,-0.1657083873077813,1.622355830666255,1,left
7.832000000000001,0.6118648736686558,0.6255374305913546,0.2719779730171417,-4.611619751548467,6.615959962603997,-4.492036588175797,-1.8080381146459175,-0.18322038138389718,1.610564458799595,1,left
7.832999999999999,0.6213597102075196,0.6066852641628768,0.278102690326455,-4.58414195748102,6.622528603187159,-4.48445931512832,-1.8132329312038553,-0.20103222165161694,1.5978213938115111,1,left
7.835,0.6306404419127504,0.587966419063516,0.2841348815630889,-4.553990848797267,6.62475762835038,-4.474933244921559,-1.8177500729510083,-0.2191303428653928,1.5841247976658892,1,left
7.837000000000001,0.6397003891431307,0.5693967201275921,0.29007228579557087,-4.521176891895394,6.6225863430957315,-4.463460116709979,-1.8215777602997725,-0.23750064096283705,1.5694735767817678,1,left
7.841,0.6485332087363617,0.5509917441158975,0.2959127990823553,-4.485713507941973,6.615959039334989,-4.450043782457369,-1.824704633790566,-0.25612849237222135,1.553867384698224,1,left
7.8420000000000005,0.6571329000986841,0.5327668067964211,0.3016544688936135,-4.447617094561525,6.604825172867448,-4.4346902031587145,-1.827119770196391,-0.2749987744418773,1.5373066242451767,1,left
7.845,0.6654938102662356,0.5147369505929958,0.30729548817629254,-4.406907042039414,6.589139526129489,-4.417407441261457,-1.8288126981839967,-0.29409588704423983,1.5197924491780146,1,left
7.846,0.6736106379489912,0.4969169327373472,0.31283418911301053,-4.363605743936251,6.568862356696772,-4.398205649247601,-1.8297734135405965,-0.3134037754080133,1.5013267652312186,1,left
7.85,0.6814784365857908,0.47932121386051846,0.3182690366151243,-4.317738602004384,6.543959531506972,-4.377097054332596,-1.8299923939730658,-0.3329059542326365,1.481912230543407,1,left
7.851,0.689092616453279,0.4619639469621613,0.3235986215815386,-4.269334025289594,6.514402646757905,-4.354095939231344,-1.829460613484452,-0.3525855331398731,1.4615522554034899,1,left
7.857,0.696448945881105,0.4448589667016063,0.3288216539484033,-4.2184234232936415,6.480169133422714,-4.329218618936218,-1.8281695563305422,-0.3724252435179569,1.440251001264899,1,left
7.858,0.7035435516298516,0.4280197789621073,0.33393695555208996,-4.165041193065975,6.441242348310535,-4.302483413446466,-1.8261112305570966,-0.3924074668142821,1.418013378972122,1,left
7.86,0.7103729184877414,0.41145955064777784,0.33894345283010185,-4.109224700085608,6.397611650587664,-4.273910616382975,-1.8232781811162002,-0.4125142643331347,1.394845046141062,1,left
7.861000000000001,0.7169338881378414,0.39519109968146715,0.3438401693926933,-4.051014252786989,6.349272463660859,-4.243522459416956,-1.819663502558008,-0.432727408595421,1.3707524036320418,1,left
7.8660000000000005,0.7232236573389168,0.37922688518125947,0.3486262185114018,-3.990453070576587,6.296226322310918,-4.211343072435799,-1.8152608512919544,-0.45302841631775825,1.345742591051582,1,left
7.867000000000001,0.7292397754502368,0.363578997802556,0.35330079558731897,-3.927587245179939,6.238480904951198,-4.177398439364061,-1.8100644574092746,-0.47339858306864996,1.3198234812164087,1,left
7.87,0.7349801413156376,0.34825915024125986,0.3578631706788205,-3.862465695152028,6.176050050872194,-4.141716349552336,-1.8040691360564374,-0.4938190196597738,1.2930036735104953,1,left
7.871,0.7404429995085585,0.33327866790070726,0.36231268118204657,-3.7951401133771108,6.1089537623198265,-4.10432634464163,-1.797270298346832,-0.5142706903306592,1.2652924860633088,1,left
7.876,0.745626935929623,0.3186484797296691,0.36664872476338206,-3.7256649073775097,6.037218191241568,-4.065259660805781,-1.7896639617957688,-0.5347344527852335,1.2366999466748225,1,left
7.876,0.7505308727419524,0.304379109242407,0.37087075263920183,-3.6540971322444022,5.960875610521097,-4.024549166269486,-1.7812467602615598,-0.5551911001388581,1.2072367824102648,1,left
7.88,0.7551540626276998,0.2904806657373446,0.37497826328651557,-3.580496415997314,5.879964369508816,-3.982229293994587,-1.7720159533731437,-0.575621404834565,1.1769144077850215,1,left
7.881,0.7594960823533952,0.276962835738695,0.37897079665253275,-3.504924877172856,5.7945288336421825,-3.938335969422461,-1.761969435422391,-0.59600616458724,1.1457449114575768,1,left
7.885,0.7635568256414399,0.26383487469310046,0.38284792891302816,-3.427447034437237,5.7046193079366665,-3.892906533155634,-1.7511057436969073,-0.6163262504144769,1.1137410413458768,1,left
7.885,0.767336495359618,0.2511055989595521,0.38660926781048327,-3.3481297080112555,5.610291944114961,-3.8459796584571317,-1.7394240662268114,-0.6365626568127526,1.0809161880800313,1,left
7.888999999999999,0.7708355950573762,0.2387833781341998,0.39025444858678465,-3.2670419126908072,5.511608631129139,-3.797595263441544,-1.726924248922719,-0.6566965540477142,1.047284366753996,1,left
7.891,0.7740549198915113,0.22687612774801016,0.3937831305143175,-3.184254742240482,5.408636868817585,-3.7477944178273814,-1.7136068021102968,-0.6767093420785419,1.012860197197247,1,left
7.891,0.7769955469929891,0.21539130236413767,0.3971949940228738,-3.0998412449325405,5.301449624425861,-3.696619244116008,-1.699472906519259,-0.6965827048285623,0.9776588834544829,1,left
7.894,0.7796588253393638,0.20433588909362682,0.40048973841342345,-3.0138762899984783,5.190125171708153,-3.644112813058234,-1.6845244188128154,-0.7162986630653487,0.9416961934198412,1,left
7.896,0.7820463652202978,0.1937164015510526,0.40366708013956104,-2.9264364247555146,5.074746912313657,-3.5903190332656005,-1.6687638767107433,-0.735839624601841,0.9049884393090775,1,left
7.901,0.7841600274069483,0.18353887427885895,0.4067267516259949,-2.8375997224323717,4.955403179571172,-3.535282535037179,-1.6521945037020638,-0.7551884313371687,0.867552459181537,1,left
7.902,0.7860019121425057,0.17380885766824503,0.4096685005878658,-2.74744562204783,4.832187026878464,-3.47904854955761,-1.6348202133104779,-0.7743284031040502,0.8294055994607965,1,left
7.903,0.7875743480600298,0.16453141339440824,0.4124920898165282,-2.656054764091695,4.705196006680595,-3.4216627865781,-1.6166456128672924,-0.7932433783788659,0.7905656983485589,1,left
7.904,0.7888798811251266,0.1557111103751933,0.4151972973977023,-2.563508827087353,4.574531948115185,-3.363171314777265,-1.597676006744247,-0.811917751909957,0.7510510700242978,1,left
7.905,0.7899212637093521,0.14735202126234964,0.41778391731776926,-2.469890368777776,4.440300739286313,-3.303620447906522,-1.5779173989963384,-0.8303365093190935,0.7108804895211024,1,left
7.9110000000000005,0.7907014439131821,0.1394577194790818,0.4202517603969118,-2.3752826732728662,4.302612116328635,-3.2430566378617485,-1.5573764953624443,-0.8484852587304209,0.6700731781661861,1,left
7.912000000000001,0.7912235552571252,0.13203127681935145,0.42260065547306425,-2.2797696041591777,4.1615794593076325,-3.1815263747310243,-1.5360607045692645,-0.8663502594804956,0.6286487894725845,1,left
7.914,0.7914909068446779,0.12507526162432164,0.4248304507520172,-2.183435463303241,4.017319594570605,-3.119076093647478,-1.5139781388818325,-0.8839184479622935,0.5866273953666851,1,left
7.915,0.7915069740780942,0.11859173755359409,0.426941015236146,-2.086364855076901,3.869952603153112,-3.055752088273352,-1.4911376138416046,-0.9011774606552959,0.5440294726344012,1,left
7.919,0.7912753899834141,0.11258226297394375,0.42893224014684656,-1.9886425557304572,3.719601634835965,-2.9916004307386346,-1.4675486471309107,-0.9181156543929492,0.5008758894670337,1,left
7.919,0.7907999371795675,0.10704789099332718,0.43080404026359187,-1.8903533876370524,3.566392727438612,-2.9266668978549473,-1.4432214565003474,-0.9347221239179366,0.45718789198614673,1,left
7.9239999999999995,0.7900845405081925,0.10198917017147896,0.4325563551154777,-1.7915820981296309,3.410454630925823,-2.860996903422881,-1.4181669566935178,-0.9509867167748209,0.412987090625132,1,left
7.925,0.7891332603238534,0.09740614594132416,0.43418914998037256,-1.6924132426499203,3.2519186358960446,-2.794635436448582,-1.3923967553013783,-0.9669000455886905,0.3682954462435363,1,left
7.928,0.7879502864283937,0.09329836277784853,0.4357024166716215,-1.5929310719272591,3.090918406011567,-2.7276270050831526,-1.3659231474763278,-0.9824534977774956,0.32313525584869635,1,left
7.928999999999999,0.7865399326195817,0.08966486715124457,0.4370961741169333,-1.493219422903713,2.9275898139228067,-2.660015586096313,-1.3387591094340916,-0.9976392427447771,0.2775291377977512,1,left
7.933,0.7849066318126875,0.08650421129734563,0.4383704687521138,-1.3933616131207687,2.7620707802315816,-2.591844579693774,-1.310918290669393,-1.012450236598484,0.23150001635169187,1,left
7.934,0.783054931682802,0.0838144578300115,0.43952537476215897,-1.2934403382820057,2.5945011150311372,-2.523156769485929,-1.2824150048093923,-1.0268802244405442,0.18507110545176525,1,left
7.938,0.7809894907657712,0.08159318520845915,0.4405609942060358,-1.1935375727054784,2.4250223615540447,-2.4539942874137184,-1.2532642190268826,-1.0409237402707965,0.1382658915872661,1,left
7.939,0.7787150749470872,0.07983749405973772,0.441477457060584,-1.0937344723791222,2.2537776414527624,-2.3843985834359285,-1.2234815419332996,-1.0545761045478206,0.09110811562253875,1,left
7.944,0.7762365542598422,0.0785440143444855,0.4422749212133698,-0.9941112803323123,2.0809115012317903,-2.31441039978069,-1.1930832098696917,-1.0678334194481045,0.0436217534498605,1,left
7.945,0.7735588999048435,0.07770891334458993,0.4429535724260662,-0.894747234036756,1.9065697593448574,-2.244069749562581,-1.1620860715119419,-1.0806925618638858,-0.004169004666200767,1,left
7.949,0.7706871814011106,0.07732790444517088,0.44351362428358343,-0.7957204745501855,1.7308993534655122,-2.173415899565492,-1.1305075707047196,-1.0931511741788738,-0.052239776188374804,1,left
7.949,0.767626563775667,0.07739625667885791,0.4439553181418571,-0.6971079571168274,1.5540481874348318,-2.1024873569902867,-1.0983657274368726,-1.1052076528599335,-0.10056600998658666,1,left
7.952000000000001,0.7643823047071386,0.07790880499616284,0.44427892308677436,-0.598985362939375,1.3761649773857294,-2.0313218599652627,-1.0656791168692497,-1.1168611349016662,-0.1491230117354014,1,left
7.952999999999999,0.7609597515461176,0.07885996122227158,0.4444847359159383,-0.5014270118381484,1.1973990965395251,-1.9599563716165385,-1.0324668463242759,-1.1281114821596743,-0.1978859711670575,1,left
7.957999999999999,0.7573643381452637,0.08024372565868287,0.4445730811541222,-0.4045057755143195,1.0179004181670528,-1.8884270774946763,-0.9987485302028625,-1.1389592636269323,-0.24682999124039803,1,left
7.959,0.753601581443838,0.08205369928946835,0.44454431111299597,-0.30829299113548075,0.8378191562036145,-1.8167693861531906,-0.9645442630820518,-1.1494057358054859,-0.29593011889434157,1,left
7.959,0.7496770777641116,0.0842830965566298,0.4443988060054417,-0.21285837496345741,0.6573057030045579,-1.7450179326740016,-0.92987459176618,-1.159452821502654,-0.34516137634893146,1,left
7.962000000000001,0.7455964987868346,0.08692475867071203,0.44413697412467545,-0.11826993574608577,0.4765104637261502,-1.673206584934426,-0.8947604873522675,-1.1691030874787103,-0.3944987915251929,1,left
7.962999999999999,0.7413655871772941,0.08997116741561849,0.44375925209970424,-0.024593887596715356,0.295583686814743,-1.6013684524099276,-0.8592233180795712,-1.1783597212729124,-0.44391742654780475,1,left
7.9670000000000005,0.7369901518364089,0.09341445939490331,0.4432661052408354,0.06810543791257709,0.11467529008598921,-1.5295358973065745,-0.8232848232110062,-1.1872265073554926,-0.49339240400116435,1,left
7.968999999999999,0.7324760627572543,0.09724644065818931,0.44265802798945747,0.1597656807156468,-0.06606531812494316,-1.4577405478169854,-0.7869670879034885,-1.1957078026531263,-0.5428989310020595,1,left
7.968999999999999,0.727829245475827,0.10145860164309746,0.44193554448384686,0.2503265423655907,-0.24648942299549942,-1.3860133132945835,-0.7502925189651533,-1.203808511474481,-0.5924123212308601,1,left
7.972,0.7230556751124485,0.10604213237181623,0.44109920924861407,0.3397298764937318,-0.4264491913530407,-1.3143844011466337,-0.7132838213962565,-1.2115340598613276,-0.6419080150633035,1,left
7.973,0.718161370004737,0.11098793785123631,0.44014960801214037,0.4279197772046104,-0.6057978604448478,-1.2428833352567776,-0.6759639756094765,-1.218890369389585,-0.691361597945043,1,left
7.977,0.7131523849369004,0.11628665363131337,0.439087358656129,0.5148426621032078,-0.7843899225369901,-1.1715389757536163,-0.6383562152243087,-1.2258838304435864,-0.74074881715114,1,left
7.979,0.708034803977628,0.12192866147091518,0.4379131123040769,0.6004473475382609,-0.962081301867348,-1.1003795399365282,-0.6004840053292868,-1.2325212749857697,-0.7900455970726398,1,left
7.983,0.702814732949666,0.12790410505141747,0.4366275545582288,0.6846851152457545,-1.1387295228711474,-1.0294326241601421,-0.5623710211048695,-1.2388099488429376,-0.8392280531722432,1,left
7.983,0.6974982915642294,0.1342029056751514,0.43523140689463574,0.7675097704640005,-1.3141938699256535,-0.9587252264737026,-0.5240411266990073,-1.2447574835291968,-0.8882725047509007,1,left
7.987,0.6920916052613255,0.1408147778887037,0.4337254282224168,0.8488776917661153,-1.4883355391241744,-0.888283769810961,-0.48551835424664264,-1.250371867624656,-0.9371554866668897,1,left
7.9879999999999995,0.6866007968032664,0.14772924497683998,0.4321104166067919,0.92874787285179,-1.6610177825865375,-0.8181341255268406,-0.4468268829237075,-1.2556614177279655,-0.9858537601486183,1,left
7.992999999999999,0.6810319776722178,0.1549356542797463,0.43038721114794876,1.007081956536194,-1.8321060458097986,-0.7483016370778083,-0.4079910179255575,-1.2606347489998027,-1.034344322841991,1,left
7.994,0.6753912393236022,0.16242319229377714,0.42855669400147683,1.0838442611696686,-2.0014680985591573,-0.678811143643651,-0.36903516925923013,-1.2653007453134475,-1.082604418232718,1,left
7.997000000000001,0.6696846443475919,0.17018089952424137,0.42661979252104826,1.1590017997175763,-2.168974159794852,-0.6096870034891887,-0.3299838302384283,-1.2696685290276648,-1.1306115445834122,1,left
7.997999999999999,0.6639182175918373,0.17819768506821257,0.4245774814996488,1.2325242917252615,-2.3344970171262456,-0.5409531168653673,-0.29086155556971616,-1.273747430396196,-1.1783434635247299,1,left
8.001,0.6580979372990213,0.1864623409151989,0.42243078548217916,1.3043841683885684,-2.497912141279354,-0.47263294825015734,-0.25169293891807165,-1.2775469566272886,-1.2257782084391402,1,left
8.002,0.6522297263121125,0.1949635559628293,0.4201807811197152,1.3745565709457601,-2.6590977960587407,-0.40474954773073285,-0.21250258983966375,-1.2810767606058275,-1.27289409277519,1,left
8.007,0.6463194433983159,0.2036899297533796,0.4178285995336146,1.4430193426019873,-2.8179351442790153,-0.33732557132952873,-0.17331510996951968,-1.2843466092898075,-1.3196697184293367,1,left
8.008,0.6403728747394297,0.21262998594482846,0.4153754286550937,1.5097530141926907,-2.9743083501351197,-0.27038330007796013,-0.13415506835161378,-1.2873663517920808,-1.3660839843315722,1,left
8.012,0.6343957256317935,0.22177218553644165,0.41282251550251287,1.5747407837874723,-3.1281046784741955,-0.2039446576428414,-0.09504697579884808,-1.2901458871575455,-1.4121160953701395,1,left
8.013,0.6283936124338533,0.23110493987344807,0.4101711683561238,1.637968490431072,-3.2792145914250685,-0.13803122631186143,-0.05601525817040192,-1.2926951318451843,-1.4577455717896728,1,left
8.016,0.6223720547933238,0.240616623458898,0.40742275879098144,1.699424582213121,-3.427531842834336,-0.07266426114585571,-0.01708422845400719,-1.2950239869236533,-1.502952259196052,1,left
8.017000000000001,0.616336468178786,0.250295586603327,0.4045787235336857,1.7591000788533304,-3.5729535709506317,-0.007864702107060691,0.021721942459145167,-1.2971423049884252,-1.5477163393001636,1,left
8.022,0.610292156733436,0.2601301679436837,0.40164056611614735,1.8169885289837309,-3.715380389790946,0.05634681602595499,0.06037925641894302,-1.2990598568078329,-1.5920183415316085,1,left
8.023,0.6042443064633177,0.2701087068618554,0.3986098583075994,1.8730859623044913,-3.854716479614843,0.11994995614441958,0.09886392019212153,-1.3007862977047222,-1.6358391556521799,1,left
8.026,0.5981979787694349,0.2802195558303243,0.39548824131243615,1.9273908367847297,-3.990869676924132,0.1829246738826548,0.13715237920853096,-1.3023311337127539,-1.679160045442122,1,left
8.027000000000001,0.5921581043310693,0.2904510927094784,0.39227742672488347,1.9799039810746095,-4.123751564396926,0.2452512154629587,0.17522135255594776,-1.303703687710451,-1.7219626632531386,1,left
8.027000000000001,0.5861294773444663,0.3007917330198219,0.38897919723267527,2.0306285322898705,-4.253277561156182,0.3069101184947468,0.21304786825154234,-1.3049130660319046,-1.7642290647208638,1,left
8.031,0.5801167501184418,0.3112299422115267,0.3855954070622543,2.079569869324798,-4.379367013763644,0.3678822159088179,0.25060929745675653,-1.3059681262171716,-1.8059417226503514,1,left
8.032,0.5741244280291112,0.3217542479498822,0.3821279821579429,2.1267355418444955,-4.501943288320764,0.42814864320575075,0.28788338666251045,-1.3068774464002564,-1.8470835393643694,1,left
8.036,0.5681568648381249,0.33235325242851016,0.37857892008729993,2.1721351951633605,-4.62093386383351,0.48769084909976357,0.32484828752039974,-1.307649296535741,-1.887637857302622,1,left
8.037,0.5622182583786375,0.34301564471766505,0.3749502896653537,2.2157804915174433,-4.736270425913161,0.5464906091586141,0.36148258435557895,-1.3082916115000423,-1.9275884679361561,1,left
8.037,0.5563126466108255,0.35373021315491454,0.37124423029198633,2.2576850287838233,-4.847888957940195,0.604530041176286,0.3977653194683629,-1.3088119660699276,-1.9669196191151022,1,left
8.041,0.5504439040483655,0.36448585778499953,0.36746295099904336,2.297864258000974,-4.955729825733061,0.6617916205343445,0.4336760163306896,-1.309217551780522,-2.0056160209662135,1,left
8.042,0.5446157385605978,0.3752716028492,0.3636087292057269,2.3363354007331636,-5.059737852828171,0.7182581942844962,0.4691947007826409,-1.3095151556646698,-2.043662850454944,1,left
8.046,0.5388316885587126,0.38607660931417875,0.3596839091817333,2.373117366766356,-5.159862385401653,0.7739129935445069,0.5043019203332075,-1.3097111408751578,-2.081045754725015,1,left
8.048,0.5330951205761342,0.39689018742160503,0.3556909002184244,2.408230672312252,-5.2560573469275775,0.8287396442761832,0.5389787616684165,-1.3098114291909844,-2.1177508533266023,1,left
8.049,0.5274092272549338,0.4077018092338015,0.35163217451016454,2.4416973588310285,-5.348281282871304,0.8827221766075946,0.5732068664688154,-1.309821485408539,-2.153764739442417,1,left
8.052999999999999,0.5217770257522012,0.4185011211444437,0.34751026474943997,2.47354091257848,-5.436497395705507,0.9358450328593825,0.6069684456371259,-1.3097463036182713,-2.1890744802190336,1,left
8.052999999999999,0.5162013565815465,0.42927795631569354,0.3433277614383966,2.503786184978491,-5.520673570525119,0.9880930744326244,0.6402462920356455,-1.3095903953671453,-2.2236676163088878,1,left
8.058,0.5106848829050764,0.4400223469951643,0.3390873099163739,2.532459313917018,-5.600782391526052,1.039451587713296,0.6730237918316855,-1.309357779706924,-2.2575321607263676,1,left
8.059,0.5052300902906515,0.45072453665948475,0.3347916071006746,2.559587646049126,-5.676801149601046,1.0899062891459077,0.7052849345479975,-1.3090519751280736,-2.290656597119413,1,left
8.062000000000001,0.4998392869472938,0.4613749919266813,0.3304433979383283,2.5851996602060106,-5.748711841294409,1.1394433296263788,0.7370143219137513,-1.3086759933788497,-2.3230298775559697,1,left
8.062999999999999,0.49451460444774653,0.4719644141763809,0.3260454715689447,2.6093248919844427,-5.816501159345722,1.188049298361654,0.7681971756101897,-1.308232335168905,-2.3546414199225607,1,left
8.068,0.48925799894182215,0.48248375081467043,0.3216006572004579,2.6319938595966232,-5.880160475040854,1.235711226340981,0.7988193440036053,-1.3077229877565457,-2.3854811050301037,1,left
8.068999999999999,0.48407125285724373,0.49292420612048665,0.31711181969980884,2.653237991054096,-5.939685812576843,1.2824165895611253,0.8288673079567573,-1.3071494244185637,-2.415539273519958,1,left
8.073,0.4789559770758651,0.5032772516129901,0.3125818549004782,2.6730895527550826,-5.995077815635364,1.328153312145122,0.8583281858082781,-1.306512605801371,-2.4448067226609864,1,left
8.074,0.47391361356351264,0.5135346358828272,0.3080136846298659,2.6915815795404354,-6.046341706347639,1.372909769491464,0.8871897376080095,-1.3058129831519805,-2.473274703126203,1,left
8.078,0.46894543842343267,0.5236883938328915,0.3034102514626922,2.7087478062792956,-6.093487236821815,1.4166747915878688,0.9154403686945612,-1.3050505034271846,-2.5009349158353467,1,left
8.079,0.46405256533854083,0.5337308552762986,0.2987745132117188,2.7246226010415695,-6.136528633391925,1.4594376666209887,0.9430691326996973,-1.3042246162791036,-2.527779508947426,1,left
8.082,0.4592359493667226,0.5436546528421482,0.2941094371742868,2.739240899910411,-6.175484533735732,1.501188145010614,0.9700657340624387,-1.3033342829150951,-2.553801075085008,1,left
8.083,0.4544963910543525,0.553452729144192,0.28941799416343145,2.752638143484099,-6.210377916996923,1.5419164439940714,0.9964205301340137,-1.302377986829832,-2.578992648869687,1,left
8.087,0.4498345408339503,0.5631183431735612,0.28470315236602073,2.7648502151129883,-6.241236027035335,1.581613252883644,1.0221245329530053,-1.301353746407174,-2.6033477048458424,1,left
8.088,0.4452509036720294,0.5726450758841082,0.27996787108582416,2.7759133809136074,-6.268090288917168,1.6202697391169258,1.0471694107682277,-1.3002591293892727,-2.62686015586742,1,left
8.092,0.44074584393291727,0.5820268349479992,0.27521509444377074,2.7858642315984645,-6.290976218745514,1.6578775552170955,1.0715474893850228,-1.2990912692101566,-2.6495243520200877,1,left
8.093,0.4363195904242287,0.5912578586689643,0.27044774511879427,2.794739626156723,-6.309933326919863,1.6944288467771256,1.0952517534088007,-1.2978468831908518,-2.671335080148725,1,left
8.097999999999999,0.4319722415902644,0.6003327190496489,0.2656687182199709,2.802576637417605,-6.325005014901853,1.7299162615789627,1.118275847457753,-1.2965222925928859,-2.692287564057774,1,left
8.099,0.4277037708208268,0.6092463240181345,0.2608808753816835,2.809412499525198,-6.33623846555308,1.7643329599556965,1.1406140773869766,-1.2951134444954893,-2.7123774654220827,1,left
8.1,0.42351403184554076,0.6179939188271968,0.25608703916259473,2.8152845573502234,-6.343684527099509,1.7976726265017047,1.1622614114254104,-1.2936159353049843,-2.731600885306059,1,left
8.102,0.4194027641880191,0.6265710866469761,0.2512899878075713,2.820230217861375,-6.347397590765896,1.8299294832327035,1.1832134808750077,-1.2920250354227205,-2.7499543659392605,1,left
8.103,0.41536959865769585,0.6349737483766361,0.24649245041244053,2.8242869034538236,-6.347435462226037,1.8610983042371008,1.2034665798807036,-1.2903357144410608,-2.767434892256716,1,left
8.104,0.4114140628582448,0.6431981617040584,0.24169710252149437,2.827492007119111,-6.343859227570902,1.8911744315696266,1.2230176639166503,-1.2885426663932846,-2.7840398928471357,1,left
8.106,0.4075355866918552,0.6512409194452221,0.23690656217974812,2.829882849138927,-6.336733115506876,1.920153791617948,1.2418643468822208,-1.286640334864893,-2.79976724019691,1,left
8.107000000000001,0.40373350783922807,0.6590989471973335,0.23212338645224867,2.8314966348720954,-6.326124358052912,1.9480329108825198,1.260004896838175,-1.2846229379301297,-2.814615250252629,1,left
8.112,0.40000707719504064,0.6667695003433733,0.22735006841445426,2.832370413312266,-6.312103051427877,1.9748089303941103,1.2774382304391505,-1.2824844929085584,-2.8285826813498263,1,left
8.113,0.39635546423855106,0.6742501604502162,0.2225890346098097,2.8325410362905314,-6.294742017788331,2.0004796185074607,1.2941639061166144,-1.2802188409362134,-2.8416687325531185,1,left
8.117,0.3927777623206912,0.6815388311062592,0.21784264296012565,2.8320451183055715,-6.274116667899852,2.0250433820937013,1.3101821160643852,-1.277819671345521,-2.853873041450405,1,left
8.118,0.38927299385190417,0.6886337332469199,0.21311318110308355,2.8309189969839093,-6.250304864701769,2.048499276208436,1.3254936770768084,-1.2752805458478322,-2.8651956814412327,1,left
8.122,0.38584011537733837,0.6955334000174541,0.2084028651230899,2.8291986941708496,-6.223386787715602,2.070847012309242,1.3401000202876325,-1.272594922512044,-2.875637158556929,1,left
8.124,0.3824780225271493,0.7022366712225564,0.20371383863819847,2.8269198776507576,-6.193444798238133,2.092086965093138,1.3540031798556038,-1.2697561795324053,-2.885198407847563,1,left
8.126,0.37918555482995203,0.7087426874114288,0.19904817220541518,2.824117823493514,-6.160563305250857,2.1122201780214165,1.3672057806407691,-1.2667576387781967,-2.8938807893682585,1,left
8.126,0.37596150037762605,0.7150508836448304,0.19440786300762067,2.8208273790222846,-6.124828631968675,2.1312483675960303,1.37971102491345,-1.263592589117558,-2.9016860837948597,1,left
8.133,0.3728046003306132,0.7211609829869305,0.1897948347867358,2.8170829263961354,-6.086328882941985,2.1491739264485528,1.3915226781358352,-1.2602543095072907,-2.9086164876964173,1,left
8.134,0.3697135532547413,0.7270729897609083,0.1852109379898915,2.812918346799515,-6.045153811617921,2.1659999252995568,1.4026450538541255,-1.2567360918400103,-2.914674608489443,1,left
8.136000000000001,0.3666870192820104,0.7327871826036518,0.18065795009998364,2.808366985229227,-6.00139468825824,2.1817301138430794,1.4130829977371648,-1.253031263539538,-2.919863459096355,1,left
8.137,0.36372362408702824,0.7383041073509539,0.17613757613020117,2.8034616158682093,-5.955144168103475,2.1963689206076715,1.4228418707954953,-1.2491332098949295,-2.9241864523280383,1,left
8.141,0.36082196266847955,0.7436245697806346,0.17165144927181375,2.7982344080342303,-5.906496159665252,2.20992145184238,1.431927531812801,-1.2450353961230216,-2.927647395007923,1,left
8.142000000000001,0.35798060292401906,0.7487496282376102,0.16720113169192852,2.792716892690493,-5.855545693021281,2.222393489472858,1.4403463190197368,-1.2407313891488343,-2.930250481852494,1,left
8.145,0.3551980890090981,0.7536805861609794,0.16278811548147035,2.7869399295041295,-5.8023887879803295,2.233791488169674,1.4481050310381887,-1.2362148790926206,-2.932000289120658,1,left
8.147,0.3524729444741323,0.7584189845278155,0.15841382375399912,2.780933674437634,-5.747122321977657,2.2441225715677544,1.4552109071220818,-1.2314797004517768,-2.9329017680419294,1,left
8.151,0.34980367517741595,0.7629665942232294,0.15407961189362018,2.774727547857452,-5.689843897554729,2.2533945276728127,1.4616716067189321,-1.226519852965235,-2.932960238030904,1,left
8.152000000000001,0.34718877197181514,0.7673254083446351,0.14978676894522522,2.7683502031431946,-5.630651709270737,2.261615803487518,1.4674951883744505,-1.2213295221473506,-2.932181379693079,1,left
8.156,0.34462671316188137,0.771497634450829,0.14553651913329727,2.761829495780286,-5.569644409887344,2.268795498887098,1.4726900880006255,-1.2159030994776683,-2.9305712276246076,1,left
8.157,0.34211596672575373,0.7754856867708839,0.14133002348885965,2.7551924529182767,-5.50692097566234,2.274943359771038,1.4772650965258647,-1.2102352022323062,-2.928136163006169,1,left
8.162,0.3396549922939476,0.779292178391118,0.1371683815618528,2.748465243376571,-5.442580570582374,2.280069770514497,1.4812293369439413,-1.2043206929420356,-2.9248829059887345,1,left
8.162,0.33724224287610477,0.7829199134398924,0.13305263320027683,2.741673148078874,-5.3767224093596955,2.2841857457401087,1.484592240776688,-1.1981546984614548,-2.920818507866616,1,left
8.166,0.3348761663287941,0.7863718792900757,0.1289837603847992,2.7348405308973747,-5.309445619012966,2.2873029214278313,1.4873635239836407,-1.1917326286275396,-2.915950343039356,1,left
8.167,0.3325552065624644,0.7896512387975374,0.12496268911305061,2.7279908098873746,-5.240849098847497,2.28943354537761,1.4895531624502945,-1.1850501944580056,-2.910286100804419,1,left
8.167,0.3302778044912683,0.7927613225905461,0.1209902913295444,2.721146428892908,-5.171031378645941,2.290590467036695,1.4911713673652802,-1.1781034257903589,-2.903833777097211,1,left
8.17,0.3280423987344316,0.795705621419935,0.11706738689711843,2.714328829545516,-5.100090475041053,2.290787126699053,1.4922285608952797,-1.1708886882346419,-2.8966016663353877,1,left
8.171,0.3258474260818079,0.7984877785752449,0.11319474560579176,2.7075584238869896,-5.028123746861585,2.290037544073756,1.4927353524646183,-1.1634026993392677,-2.8885983534793978,1,left
8.172,0.3236913217383455,0.8011115823693268,0.10937308921468732,2.7008545682225567,-4.9552277517208365,2.288356306202542,1.492702515764458,-1.1556425439174156,-2.879832706342011,1,left
8.176,0.32157251936423786,0.8035809586926732,0.10560309352238213,2.6942355390197736,-4.881498106937419,2.285758554696255,1.4921409665146916,-1.147605688507832,-2.870313868134631,1,left
8.177,0.31948945093122316,0.8058999636376302,0.10188539046011875,2.687718511459815,-4.807029357051535,2.2822599722648853,1.4910617409800178,-1.1392899949485202,-2.8600512502274147,1,left
8.18,0.3174405464171242,0.8080727761910269,0.09822057019774004,2.6813195408723782,-4.731914848715532,2.2778767685271437,1.4894759752401239,-1.1306937330410267,-2.8490545250980372,1,left
8.18,0.31542423335792086,0.8101036909915976,0.09460918324292288,2.675053547076966,-4.656246612911763,2.2726256650906045,1.4873948852123933,-1.1218155922822257,-2.8373336194417815,1,left
8.185,0.3134389362733399,0.8119971111458576,0.09105174250353312,2.6689343016118645,-4.580115254284052,2.2665238798923952,1.4848297474240528,-1.1126546926397143,-2.8248987074134857,1,left
8.186,0.31148307598129077,0.8137575410936846,0.08754872527521237,2.662974417832457,-4.503609847367161,2.259589110787879,1.4817918805292358,-1.103210594346117,-2.8117602039697793,1,left
8.189,0.30955506881762856,0.8153895795140886,0.08410057511455261,2.657185343860911,-4.426817839497082,2.251839518372282,1.478292627565002,-1.0934833066867964,-2.7979287582779664,1,left
8.19,0.30765332578000537,0.8168979122631488,0.08070770356192015,2.6515773583696833,-4.349824960183637,2.243293708017775,1.4743433389389706,-1.0834732957546487,-2.7834152471558506,1,left
8.196,0.30577625161841654,0.8182873053397453,0.07737049168416155,2.6461595691817466,-4.272715136725808,2.233970711106128,1.4699553561398688,-1.0731814911448563,-2.768230768504779,1,left
8.196,0.30392224389943406,0.8195625978800082,0.07408929141474545,2.64093991467093,-4.19557041584937,2.22388996543471,1.4651399961609588,-1.0626092915616552,-2.7523866346962005,1,left
8.2,0.30208969207354597,0.8207286951876532,0.07086442667779246,2.635925167946281,-4.118470891145822,2.2130712947713356,1.4599085366250315,-1.0517585693083598,-2.735894365870065,1,left
8.201,0.30027697657417146,0.8217905618142751,0.06769619429160464,2.631120943804905,-4.04149463609129,2.201534887531203,1.4542722015983798,-1.0406316736310859,-2.718765683101464,1,left
8.205,0.29848246797354033,0.8227532147107083,0.06458486465450566,2.6265317084383013,-3.9647176424239445,2.189301274547023,1.4482421480799441,-1.0292314328858034,-2.7010125013900312,1,left
8.206,0.29670452621578636,0.8236217164761749,0.06153068222064991,2.622160791877802,-3.8882137636586283,2.17639130590129,1.4418294531506266,-1.0175611554975512,-2.68264692242474,1,left
8.213,0.29494149994167584,0.8244011687351172,0.0585338657775048,2.618010403165319,-3.8120546635177113,2.1628261267876066,1.435045101766607,-1.0056246296798583,-2.6636812270749233,1,left
8.215,0.2931917259127545,0.825096705672673,0.05559460854223736,2.614081648236228,-3.736309769057785,2.148627152365959,1.4278999751793577,-0.9934261218816275,-2.644127867556541,1,left
8.215,0.2914535285363048,0.8257134877591774,0.05271307810150186,2.61037455050183,-3.661046228272565,2.133816041574902,1.4204048399639653,-0.9809703739279628,-2.6239994592209603,1,left
8.216000000000001,0.2897252194874637,0.8262566956923066,0.049889416224985446,2.6068880741194813,-3.5863288719533775,2.118414669861734,1.4125703376362861,-0.9682625988206613,-2.6033087719117924,1,left
8.219,0.2880050974212322,0.8267315245825617,0.047123738584347805,2.603620149939094,-3.512220179589766,2.102445100789912,1.4044069748384378,-0.9553084751633361,-2.582068720833643,1,left
8.222999999999999,0.2862914477638882,0.8271431784031706,0.044416134405603845,2.6005677041153623,-3.438780249094158,2.085929556481211,1.3959251140711169,-0.9421141401753976,-2.5602923568749816,1,left
8.224,0.28458254256997945,0.8274968647199223,0.041766666076700924,2.5977266893756923,-3.366066770136077,2.0688903868484325,1.3871349649502558,-0.9286861812584036,-2.5379928563257117,1,left
8.226,0.28287664042819877,0.8277977897112002,0.03917536872571368,2.5950921189344403,-3.294135000873132,2.0513500375728264,1.3780465759645957,-0.9150316260775716,-2.515183509928463,1,left
8.23,0.28117198639768304,0.8280511534821247,0.036642249779756664,2.592658103044685,-3.2230377478679446,2.033331016778836,1.3686698267098274,-0.9011579311205697,-2.491877711201068,1,left
8.231,0.27946681195635614,0.82826214566777,0.034167288510020766,2.590417888179358,-3.1528253489822373,2.014855860357264,1.3590144205740702,-0.8870729686950232,-2.468088943966195,1,left
8.232999999999999,0.27775933494611965,0.8284359413117159,0.03175043556435874,2.588363898834151,-3.0835456590415635,1.995947095886518,1.3490898778563998,-0.872785012362338,-2.4438307690591836,1,left
8.234,0.27604775950544236,0.8285776970018762,0.02939161248587952,2.5864877819451966,-3.015244038066539,1.9766272051002223,1.338905529338289,-0.8583027209888724,-2.4191168103664102,1,left
8.234,0.27433027598497733,0.8286925472454636,0.027090711213865935,2.584780453915071,-2.947963341868974,1.9569185848481672,1.3284705103971957,-0.8436351219261822,-2.393960740674006,1,left
8.238999999999999,0.2726050608446405,0.8287856010645748,0.024847593562218412,2.5832321501686306,-2.8817439148575357,1.9368435065686782,1.317793755789745,-0.8287915940155404,-2.368376267988113,1,left
8.238999999999999,0.2708702765328235,0.8288619387914739,0.02266209067120661,2.5818324767978953,-2.8166235851180756,1.9164240746510715,1.3068839951922182,-0.8137818509273191,-2.3423771228038412,1,left
8.238999999999999,0.2691240713513221,0.8289266090414593,0.02053400243120199,2.5805704632026076,-2.7526376622286057,1.8956821847169052,1.2957497495151709,-0.798615925013985,-2.315977046469939,1,left
8.243,0.26736457931359725,0.828984625840746,0.01846309688323599,2.5794346142707183,-2.68981893848965,1.8746394832094617,1.284399327969325,-0.7833041516708976,-2.2891897806122534,1,left
8.244,0.26558992001039516,0.8290409658822819,0.016449109610133374,2.578412961006307,-2.6281976940361487,1.8533173293181286,1.2728408258514161,-0.7678571541618165,-2.2620290575413247,1,left
8.248,0.2637981985055495,0.8291005658746187,0.014491743139797252,2.5774931091659106,-2.567801705908434,1.8317367596122598,1.2610821230180203,-0.7522858288655695,-2.234508591568296,1,left
8.249,0.2619875052936188,0.8291683199431433,0.01259066638560038,2.5766622858273993,-2.5086562609454264,1.809918455396463,1.249130883014779,-0.7366013308999186,-2.2066420711522237,1,left
8.254,0.2601559163571967,0.8292490770408161,0.010745514147878662,2.5759073838884436,-2.450784172323085,1.787882712726104,1.2369945528278294,-0.7208150600782737,-2.178443151800785,1,left
8.254,0.25830149336449043,0.8293476383257923,0.00895588669674419,2.575215004491901,-2.3942057995646744,1.7656494150210826,1.2246803632236796,-0.7049386471545409,-2.1499254496453606,1,left
8.258,0.2564222840483127,0.8294687544657985,0.007221349451138801,2.5745714973757092,-2.3389390718529763,1.7432380082152363,1.2121953296432106,-0.6889839403110798,-2.121102535610464,1,left
8.259,0.2545163228068522,0.8296171228340932,0.005541432763163307,2.573962999145087,-2.284999514478252,1.7206674783781235,1.1995462536149586,-0.6729629918444393,-2.0919879300965407,1,left
8.263,0.2525816315637671,0.8297973845681416,0.003915631810507726,2.573375469465022,-2.232400278259447,1.6979563317453472,1.186739724652312,-0.6568880450032913,-2.062595098094239,1,left
8.263,0.25061622091920727,0.8300141214684071,0.002343406593785127,2.57279472517117,-2.181152171779914,1.6751225770930858,1.1737821225987786,-0.6407715209327541,-2.0329374446473856,1,left
8.267999999999999,0.24861809161461387,0.8302718527213429,0.0008241820309525779,2.572206472297388,-2.1312636962827214,1.6521837103920263,1.1606796203849954,-0.624626005679107,-2.0030283105810573,1,left
8.269,0.24658523632420504,0.830575031438769,-0.0006426518612567603,2.5715963360181826,-2.082741083074476,1.6291567016755018,1.1474381871607047,-0.6084642372087461,-1.9728809684103357,1,left
8.273,0.24451564177618676,0.8309280410145977,-0.0020577397085073303,2.5709498885043685,-2.0355883332904448,1.6060579840562659,1.1340635917644888,-0.5922990923951083,-1.9425086183445746,1,left
8.274,0.24240729119737509,0.8313351913078284,-0.0034217604495962606,2.5702526746902232,-1.9898072598776826,1.5829034448260542,1.1205614064936331,-0.5761435739272078,-1.9119243843012945,1,left
8.279,0.2402581670665962,0.8318007146674473,-0.004735426940516172,2.569490235950354,-1.945397531656779,1.5597084185718102,1.1069370111360934,-0.5600107970933884,-1.88114130984312,1,left
8.28,0.23806625415563562,0.8323287618199938,-0.0059994854935154105,2.5686481316843857,-1.9023567193267672,1.5364876822422575,1.0931955972261578,-0.5439139763938771,-1.850172353950539,1,left
8.283,0.23582954283272425,0.832923397643968,-0.007214715352395986,2.5677119588074353,-1.8606803432816819,1.5132554520983315,1.0793421724850234,-0.52786641193576,-1.8190303865426538,1,left
8.283999999999999,0.2335460326036653,0.8335885968574999,-0.008381928106338891,2.5666673691441546,-1.8203619231111814,1.4900253824808727,1.065381565407164,-0.5118814755640623,-1.7877281836575176,1,left
8.289,0.23121373586927332,0.8343282396466998,-0.009501967046702243,2.5655000847238876,-1.7813930286615813,1.466810566328904,1.051318429953022,-0.4959725966827186,-1.7562784222031211,1,left
8.29,0.2288306818830985,0.8351461072614101,-0.010575706474221552,2.564195910974229,-1.7437633325375586,1.4436235373817767,1.0371572503082356,-0.48015324771936374,-1.7246936741895913,1,left
8.292,0.2263949208987696,0.8360458776029399,-0.01160405096687506,2.562740747809941,-1.7074606639286838,1.4204762739984875,1.0229023456693103,-0.46443692918805096,-1.6929864003527084,1,left
8.293,0.2239045285005653,0.8370311208261481,-0.012587934619654823,2.561120598613853,-1.6724710636488158,1.3973802045274986,1.008557875015343,-0.44883715430422527,-1.6611689430784216,1,left
8.296,0.22135761011407165,0.838105294977248,-0.013528320266080964,2.5593215771059676,-1.638778840280229,1.3743462141604772,0.9941278418251263,-0.43336743310653636,-1.6292535185376555,1,left
8.297,0.21875230569693077,0.839271741688492,-0.01442619868836529,2.5573299120965567,-1.606366627318155,1.3513846532034843,0.9796160986986916,-0.4180412560403705,-1.5972522079403473,1,left
8.302,0.21608679461257257,0.8405336819497282,-0.015282587818684693,2.5551319501185685,-1.5752154412151895,1.3285053466992873,0.9650263518420922,-0.40287207695831834,-1.5651769478173354,1,left
8.302999999999999,0.21335930069067383,0.8418942119744766,-0.016098531927198373,2.552714155934145,-1.5453047402287425,1.3057176053346462,0.9503621653739799,-0.3878732954931646,-1.5330395192384472,1,left
8.304,0.21056809747598104,0.8433562991758596,-0.016875100784815737,2.5500631109095013,-1.5166124839783734,1.2830302375666347,0.9356269654256052,-0.3730582387851818,-1.50085153592301,1,left
8.307,0.20771151366366292,0.8449227782654224,-0.01761338878522289,2.5471655092908123,-1.489115193613389,1.2604515628901813,0.920824044072189,-0.3584401426748473,-1.4686244314394896,1,left
8.307,0.20478793871646778,0.8465963474849512,-0.018314514013961763,2.5440081526080967,-1.46278801244419,1.2379894261087552,0.9059565632531784,-0.3440321327046009,-1.436369446123998,1,left
8.308,0.20179582865688572,0.8483795649787426,-0.0189796172583565,2.5405779427843376,-1.437604766803532,1.2156512123614471,0.8910275589052402,-0.32984720540267687,-1.4040976145879562,1,left
8.312999999999999,0.19873371202583137,0.8502748453128846,-0.019609860955270883,2.5368618747213514,-1.4135380268568463,1.1934438625994865,0.8760399454651074,-0.31589821019371883,-1.3718197544443982,1,left
8.314,0.1956001959979551,0.8522844561489032,-0.02020642807391954,2.5328470289381952,-1.3905591671345747,1.1713738892660912,0.8609965207794288,-0.3021978320494865,-1.3395464564490978,1,left
8.317,0.19239397264212063,0.8544105150803326,-0.020770520931489657,2.5285205644861954,-1.3686384266535738,1.1494473920428607,0.8458999713920465,-0.2887585748647088,-1.3072880760119692,1,left
8.317,0.189113825313015,0.856654986641764,-0.021303359941491958,2.5238697121688753,-1.3477449685482965,1.127670073586822,0.8307528781656569,-0.2755927455180401,-1.2750547259860399,1,left
8.322000000000001,0.1857586351559229,0.8590196795012159,-0.021806182297262118,2.5188817680552313,-1.3278469391456773,1.1060472551947431,0.8155577221946392,-0.2627124385787888,-1.2428562706413024,1,left
8.323,0.18232738770212562,0.8615062438486247,-0.022280240594915443,2.513544087273897,-1.3089115264206805,1.0845838923317366,0.800316890965694,-0.2501295216208371,-1.2107023207307996,1,left
8.326,0.17881917952806484,0.8641161689953369,-0.022726801402387243,2.507844078074805,-1.290905017772423,1.063284589961603,0.7850326847227808,-0.23785562110595646,-1.1786022295563665,1,left
8.327,0.17523322494694152,0.8668507812004616,-0.023147143785055245,2.501769196143998,-1.273792857063637,1.0421536176168105,0.7697073229927078,-0.2259021087995417,-1.1465650899415523,1,left
8.333,0.17156886269602167,0.8697112417385426,-0.023542557803079706,2.495306939156216,-1.2575397008690057,1.0211949241464597,0.7543429512275995,-0.2142800886826431,-1.1145997320193708,1,left
8.334,0.16782556257747136,0.87269854521927,-0.023914342999221225,2.4884448415488674,-1.2421094738805687,1.0004121520810574,0.738941647520334,-0.20300038432505962,-1.0827147217426853,1,left
8.337,0.16400293200678664,0.8758135181658085,-0.024263806896826234,2.4811704694999017,-1.2274654234209625,0.9798086515534029,0.7235054293489341,-0.19207352668517924,-1.050918360025214,1,left
8.338,0.16010072242138512,0.8790568178554012,-0.024592263525246627,2.4734714160909994,-1.2135701730177288,0.9593874937153869,0.708036260305776,-0.18150974230320152,-1.0192186824213443,1,left
8.341000000000001,0.15611883550218392,0.8824289314235538,-0.024901031984855868,2.465335296636326,-1.2003857749942808,0.9391514835910062,0.6925360567673756,-0.17131894185536242,-0.9876234592531766,1,left
8.341000000000001,0.15205732916282602,0.8859301752296384,-0.025191435056793287,2.456749744155938,-1.1878737620353834,0.9191031723064138,0.6770066944604147,-0.16151070903779327,-0.9561401960934762,1,left
8.346,0.14791642326531565,0.8895606944767523,-0.02546479785381366,2.447702404971695,-1.1759951976871437,0.8992448686383443,0.6614500148795722,-0.1520942897496879,-0.9247761345134798,1,left
8.347000000000001,0.1436965050276601,0.8933204630731317,-0.025722446498893867,2.438180934402269,-1.1647107257535565,0.8795786498227874,0.6458678315126345,-0.14307858154652364,-0.8935382530048126,1,left
8.351,0.13939813409774293,0.8972092837171679,-0.025965706809137637,2.4281729925325726,-1.1539806185535775,0.8601063715663222,0.6302619358282785,-0.1344721233351794,-0.8624332679850854,1,left
8.352,0.13502204727678493,0.9012267881830076,-0.026195902955535606,2.417666240031583,-1.143764824004513,0.840829677203069,0.6146341029818417,-0.12628308528391904,-0.8314676347970887,1,left
8.357000000000001,0.13056916288499743,0.9053724377792859,-0.026414356065070706,2.406648333991183,-1.1340230114992254,0.821750005940766,0.5989860971943181,-0.1185192589213588,-0.8006475486118587,1,left
8.357999999999999,0.12604058477108657,0.9096455239511609,-0.026622382730150024,2.3951069237572393,-1.1247146165462427,0.8028686001400359,0.5833196767597529,-0.11118804739971246,-0.7699789451462725,1,left
8.361,0.12143760597580086,0.9140451689954792,-0.02682129339078238,2.383029646722718,-1.1157988841433386,0.7841865115714695,0.5676365986361467,-0.10429645589880607,-0.7394675011062317,1,left
8.361,0.11676171206759166,0.91857032685905,-0.02701239055782722,2.3704041240511464,-1.1072349108565076,0.7657046065957172,0.5519386225749173,-0.0978510821485744,-0.7091186342669071,1,left
8.368,0.1120145841743848,0.9232197839906044,-0.027196966851477093,2.3572179562972466,-1.0989816855775105,0.7474235702123508,0.536227514743921,-0.09185810704899396,-0.6789375031019556,1,left
8.369,0.10719810173768499,0.9279921602193001,-0.027376302837202958,2.343458718890021,-1.090998128934289,0.729343908923827,0.5205050507989805,-0.08632328536766914,-0.6489290058740675,1,left
8.37,0.10231434501327051,0.9328859096367932,-0.02755166465118099,2.3291139574419883,-1.0832431313295543,0.7114659523614608,0.5047730183772597,-0.08125193650558633,-0.6190977791364911,1,left
8.371,0.09736559733685386,0.9378993214654033,-0.027724301417704558,2.3141711828466667,-1.0756755895837593,0.6937898536208956,0.4890332190779378,-0.07664893536793854,-0.589448195779733,1,left
8.371,0.09235434716549198,0.9430305209006526,-0.027895442470037977,2.2986178661247463,-1.0682544421594253,0.6763155882551298,0.4732874701614739,-0.07251870345939727,-0.5599843630894793,1,left
8.376,0.08728328990089307,0.9482774699195593,-0.02806629439416967,2.2824414329777203,-1.0609387029444597,0.6590429518737434,0.4575376062908814,-0.06886520036962718,-0.5307101214663674,1,left
8.377,0.08215532949993919,0.9536379680448662,-0.028238037924488618,2.2656292580060184,-1.0536874935726348,0.6419715562975442,0.44178548154625535,-0.06569191577109534,-0.5016290442746779,1,left
8.378,0.0769735798754595,0.9591096530533094,-0.028411824728801955,2.24816865860355,-1.046460074294269,0.6251008242623711,0.4260329717779047,-0.06300186197142468,-0.4727444389562099,1,left
8.381,0.07174136608364909,0.9646900016180435,-0.02858877412101732,2.2300468888218514,-1.0392158735826773,0.608429982886042,0.41028197727127985,-0.060797567018821184,-0.4440593493620663,1,left
8.382,0.06646222528658702,0.970376329881662,-0.028769969732890286,2.211251134004745,-1.0319145169721666,0.5919580565084268,0.39453442567844677,-0.05908106835146542,-0.4155765592188136,1,left
8.385,0.06113990747124479,0.9761657939618628,-0.02895645616871076,2.1917685072756257,-1.024515855795636,0.5756838597348759,0.37879227517086045,-0.05785390698314606,-0.3872985966460442,1,left
8.385,0.05577837589854313,0.9820553903930437,-0.029149235663925206,2.171586048674519,-1.0169799963175785,0.5596059912941342,0.3630575177681918,-0.057117122218807326,-0.35922773964294497,1,left
8.39,0.050381807246139845,0.9880419565064006,-0.02934926476719107,2.150690727230577,-1.009267329448096,0.5437228289270287,0.347332182797975,-0.05687124689508268,-0.331366022462051,1,left
8.391,0.04495459139800517,0.9941221707522135,-0.029557451060185883,2.129069445970636,-1.0013385610510315,0.5280325253031087,0.33161834044085586,-0.05711630314229171,-0.30371524278895656,1,left
8.395,0.03950133082494378,1.0002925529708406,-0.029774649921669807,2.1067090498058234,-0.9931547428244863,0.512533004919049,0.31591810531624404,-0.057851798665784826,-0.2762769696473472,1,left
8.395,0.034026839495463874,1.006549464622029,-0.03000166133555238,2.083596336236168,-0.9846773037314838,0.4972219619331819,0.3002336400631984,-0.05907672354592933,-0.24905255194931664,1,left
8.4,0.028536141256745633,1.012889108985523,-0.03023922673791213,2.059718068811058,-0.9758680819579114,0.4820968588910838,0.2845671588714099,-0.06078954755743989,-0.22204312761153952,1,left
8.401,0.02303446762993875,1.0193075313499205,-0.030488025894357115,2.0350609932813,-0.9666893573741566,0.46715492629767974,0.26892093091718183,-0.06298821801016405,-0.1952496331584799,1,left
8.404,0.017527254971400116,1.0258006192111944,-0.030748673797140486,2.009611856376341,-0.9571038844759929,0.45239316299188087,0.25329728365935705,-0.06567015811483845,-0.1686728137344288,1,left
8.406,0.01202014096138818,1.0323641025066603,-0.031021717571919905,1.9833574271380356,-0.9470749257793352,0.437808337280295,0.23769860595018985,-0.06883226587873176,-0.14231323344678276,1,left
8.41,0.006518960393728896,1.038993553913391,-0.031307633387515445,1.9562845207400938,-0.9365662856424108,0.4233969887870814,0.22212735091622085,-0.07247091353748494,-0.11617128596359395,1,left
8.41,0.0010297402531223184,1.0456843892428394,-0.03160682336832966,1.9283800247200724,-0.9255423444877348,0.40915543097753576,0.20658603856427754,-0.07658194753084682,-0.09024720528904515,1,left
8.415,-0.004441305920097519,1.052431867967702,-0.03191961251644099,1.8996309275484613,-0.9139680933949965,0.39507975431349984,0.19107725806779433,-0.08116068903138075,-0.06454107664112622,1,left
8.416,-0.009887784365970627,1.0592310939220326,-0.03224624565602034,1.8700243494570619,-0.9018091690345975,0.38116582999918724,0.17560366968872604,-0.08620193503658652,-0.039052847356414,1,left
8.42,-0.015303128119836808,1.0660770162187307,-0.03258688441608019,1.8395475754464679,-0.8890318889100916,0.36740931427650547,0.16016800629041425,-0.09169996003623725,-0.01378233774748246,1,left
8.42,-0.020680604676223683,1.0729644304294834,-0.03294160427067016,1.8081880903900347,-0.8756032868762059,0.35380565322942936,0.14477307439685932,-0.09764851826807361,0.011270748160903449,1,left
8.424,-0.02601332426496909,1.0798879800716157,-0.03331039165987419,1.7759336161492512,-0.8614911488974418,0.340350088057445,0.12942175475395268,-0.1040408465763253,0.036106812090031803,1,left
8.426,-0.03129424869640421,1.0868421584429724,-0.033693141220884355,1.7427721506129417,-0.846664049010476,0.3270376607785364,0.11411700234833323,-0.11086966788884024,0.060726351232521535,1,left
8.43,-0.036516200726811575,1.0938213108394101,-0.03408965316689188,1.7086920085701844,-0.8310913854517185,0.3138632203226246,0.09886184583964787,-0.11812719532989611,0.08512994831660584,1,left
8.43,-0.04167187389309316,1.1008196371819783,-0.03449963086109222,1.6736818643242566,-0.8147434169094175,0.300821428976794,0.08365938636212261,-0.12580513698704157,0.10931826208076952,1,left
8.435,-0.04675384276807398,1.1078311950745459,-0.03492267864012962,1.6377307959523224,-0.797591298857652,0.2879067691440525,0.06851279565148456,-0.13389470135156806,0.13329201822946704,1,left
8.436,-0.05175457359363097,1.11484990330673,-0.035358299944452054,1.600828331112934,-0.7796071199274107,0.27511355037776664,0.053425313453416945,-0.1423866034534431,0.15705200094002764,1,left
8.439,-0.05666643525531172,1.1218695458102197,-0.03580589581307706,1.5629644943007466,-0.7607639382677345,0.2624359166542944,0.03840024416988177,-0.15127107171274287,0.18059904499023552,1,left
8.44,-0.061481710568310324,1.1288837760708046,-0.03626476379678262,1.5241298554451492,-0.7410358178475853,0.24986785384670296,0.023440952720973348,-0.16053785552595565,0.2039340285514253,1,left
8.44,-0.0661926078516199,1.1358861219966714,-0.0367340973351549,1.4843155797467764,-0.7203978646467226,0.23740319736280763,0.008550859705978117,-0.17017623358244321,0.22705786657115662,1,left
8.445,-0.07079127277428304,1.142869991244899,-0.037212985629735476,1.4435134786431119,-0.6988262626813979,0.22503563991109915,-0.006266563861988123,-0.18017502286384515,0.24997150445263153,1,left
8.446,-0.07526980046129328,1.1498286770080592,-0.037700414032462666,1.401716061785591,-0.6762983098100993,0.21275873937456502,-0.021007801867363087,-0.1905225882560691,0.2726759116172475,1,left
8.446,-0.07962024784692155,1.1567553642609667,-0.03819526496022438,1.3589165898777813,-0.6527924532717471,0.20056592685332267,-0.035669298174782024,-0.20120685272881522,0.29517207465623346,1,left
8.449,-0.08383464626422953,1.163643136467613,-0.038696319341254566,1.3151091281673177,-0.6282883249236806,0.18845051508236976,-0.05024746139853105,-0.21221530808224734,0.31746098999300215,1,left
8.45,-0.08790501426043902,1.1704849827489547,-0.0392022585928543,1.2702886003513951,-0.6027667761538121,0.1764057075116345,-0.06473866937998131,-0.22353502628566257,0.3395436560974132,1,left
8.454,-0.09182337062558685,1.1772738055094876,-0.03971166712079203,1.2244508426827612,-0.5762099124287343,0.16442460825513244,-0.07913927341511488,-0.23515267143882607,0.36142106531657364,1,left
8.455,-0.09558174761986526,1.1840024285168964,-0.04022303532106409,1.1775926581143201,-0.5486011274190875,0.15250023297115012,-0.09344560227401373,-0.2470545123875666,0.3830941953862084,1,left
8.458,-0.09917220438737716,1.1906636054296826,-0.040734763058295924,1.1297118703475744,-0.5199251366307912,0.14062552065496253,-0.10765396605393322,-0.2592264360261235,0.40456400068604165,1,left
8.459,-0.10258684054913686,1.1972500287724337,-0.041245163592973894,1.0808073776532159,-0.4901680104658108,0.12879334630965097,-0.12176065990732145,-0.27165396131958963,0.425831403302037,1,left
8.463,-0.10581780997337584,1.203754339364172,-0.041752467929698174,1.030879206329255,-0.459317206633115,0.1169965344607502,-0.13576196768587456,-0.2843222540806103,0.44689728395776135,1,left
8.464,-0.10885733472661448,1.2101691362101668,-0.04225482955911062,0.9799285636591326,-0.4273616018274148,0.105227873480597,-0.1496541655414372,-0.29721614253527434,0.467762472876551,1,left
8.468,-0.1116977192146996,1.2164869868706458,-0.04275032956678919,0.9279578902293275,-0.3942915225901736,0.09348013068837387,-0.1634335255242646,-0.310320133713866,0.4884277406355768,1,left
8.469,-0.11433136452758844,1.2227004383208144,-0.04323698208318615,0.8749709114630302,-0.36009877526423767,0.08174606819194305,-0.17709631921886052,-0.32361843070283736,0.5088937890723284,1,left
8.472999999999999,-0.11675078300396015,1.2288020283159558,-0.043712740051325576,0.8209726882235221,-0.32477667495026674,0.07001845943764748,-0.19063882145729144,-0.337094950795009,0.529161242303457,1,left
8.474,-0.11894861303294609,1.2347842972731105,-0.044175501295607975,0.7659696663379707,-0.28832007336994486,0.058290106434314495,-0.20405731414955328,-0.35073334457560956,0.549230637915346,1,left
8.48,-0.1209176341125802,1.2406398006771497,-0.044623114883815325,0.7099697248894311,-0.2507253855377313,0.046553857617738344,-0.2173480902702325,-0.36451701598232056,0.5691024183852041,1,left
8.481,-0.12265078218811291,1.2463611220154087,-0.04505338778042873,0.6529822231219486,-0.21199061513966902,0.034802626321935294,-0.23050745804035744,-0.3784291433780075,0.5887769227909037,1,left
8.482999999999999,-0.12414116529470126,1.2519408862410562,-0.045464091790761274,0.5950180458007687,-0.1721153785145122,0.02302940982346378,-0.24353174534297958,-0.3924527016752799,0.6082543788672203,1,left
8.484,-0.1253820795223889,1.2573717737567611,-0.045852970794700375,0.5360896468668024,-0.13110092712917054,0.011227308925079114,-0.2564173044106579,-0.4065704855524405,0.6275348954655616,1,left
8.488999999999999,-0.1263670253016606,1.2626465348925153,-0.04621774826687411,0.47621109122166033,-0.08895016843719353,-0.0006104519550504641,-0.26916051682264136,-0.4207651338007544,0.6466184554737031,1,left
8.49,-0.12708972397469748,1.2677580048268382,-0.04655613506987786,0.41539809447676634,-0.04566768500574719,-0.01249050422240255,-0.28175779884915725,-0.4350191548432856,0.6655049092514873,1,left
8.492,-0.12754413457747585,1.2726991188797239,-0.046865837481042144,0.3536680604972958,-0.0012597517932656675,-0.024419314107353048,-0.2942056071798144,-0.4493149534658199,0.6841939686378713,1,left
8.493,-0.12772447072562618,1.2774629281013143,-0.04714456537833503,0.2910401165689578,0.04426564854330044,-0.03640316126264335,-0.30650044507272145,-0.46363485880061545,0.7026852015841468,1,left
8.498,-0.12762521749103461,1.2820426150975652,-0.04739004048803801,0.22753514601295727,0.09089881243596419,-0.04844811699120438,-0.31863886896050053,-0.4779611536038904,0.7209780274675864,1,left
8.5,-0.12724114818855392,1.2864315100652428,-0.047600004595373835,0.16317581807184742,0.1386283044154661,-0.06056002213861932,-0.33061749554894926,-0.4922761048680767,0.739071713139204,1,left
8.503,-0.12656734105797843,1.2906231070359424,-0.04777222762783887,0.09798661488640108,0.18744094847408296,-0.07274446468466443,-0.3424330094436621,-0.5065619958099402,0.7569653697587486,1,left
8.504,-0.12559919590323074,1.2946110803366473,-0.04790451552915166,0.03199385538111885,0.23732182191542162,-0.08500675706854262,-0.35408217133947556,-0.5208011592756845,0.7746579504694816,1,left
8.508,-0.12433245080825639,1.2983893012604881,-0.04799471785435736,-0.03477428412646105,0.2882542518282834,-0.09735191328261587,-0.36556182678029364,-0.534976012550142,0.792148248946882,1,left
8.509,-0.12276319906356999,1.301951854919112,-0.04804073503946968,-0.10228775277986576,0.3402198143247931,-0.10978462576965078,-0.3768689153621511,-0.5490690932871726,0.8094348987657118,1,left
8.509,-0.12088790640582694,1.3052930572285897,-0.04804052533003713,-0.17051461169072232,0.39319833668605075,-0.12230924215881425,-0.3880004800102723,-0.5630630957924289,0.8265163733688272,1,left
8.513,-0.11870342861216711,1.3084074719558607,-0.04799211139119241,-0.23942102429046613,0.4471679025615816,-0.13492974187589366,-0.3989536758261668,-0.5769409066195625,0.843390986331402,1,left
8.514,-0.11620702941481696,1.3112899277131118,-0.04789358666423642,-0.30897125072060294,0.5021048603718249,-0.14764971266346702,-0.4097257781345372,-0.5906856387106126,0.8600568917027864,1,left
8.515,-0.11339639861683212,1.3139355347503576,-0.047743121566554095,-0.3791276464121986,0.5579838350069779,-0.1604723270637496,-0.4203141896008928,-0.604280663796859,0.8765120843680947,1,left
8.517000000000001,-0.11026967022467914,1.3163397013907903,-0.04753896963679535,-0.4498506647809694,0.6147777426242165,-0.17340031900080866,-0.43071644642448137,-0.6177096430459887,0.8927544004601627,1,left
8.517999999999999,-0.10682544039362142,1.3184981499821495,-0.04727947371069534,-0.5210988635589403,0.6724578078186335,-0.18643596074976732,-0.44093022363747936,-0.6309565559950273,0.9087815178697513,1,left
8.523,-0.1030627849843213,1.3204069322736443,-0.04696307219325182,-0.5928289140591262,0.7309935821517973,-0.19958104066460194,-0.4509533395408523,-0.644005727808052,0.9245909569012591,1,left
8.524,-0.0989812765255952,1.3220624441563003,-0.04658830546955851,-0.664995612897564,0.7903529633186005,-0.21283684195274963,-0.46078375930676413,-0.6568418548972322,0.9401800811206033,1,left
8.527000000000001,-0.09458100039798259,1.3234614397431317,-0.04615382244864854,-0.7375518961057793,0.8505022147650625,-0.22620412263440626,-0.4704195977768714,-0.6694500289452178,0.9555460984412992,1,left
8.527999999999999,-0.0898625701335865,1.3246010448299201,-0.04565838716107315,-0.8104488557944008,0.9114059858663465,-0.23968309674101823,-0.47985912148529253,-0.6818157593663277,0.9706860624941552,1,left
8.533,-0.08482714185438614,1.32547876985282,-0.045100885258474596,-0.8836357595751387,0.9730273328354428,-0.2532734167910501,-0.489100749934487,-0.6939249942433842,0.9855968743253564,1,left
8.533999999999999,-0.0794764279954506,1.3260925225208053,-0.04448033021848939,-0.9570600729494544,1.0353277405352341,-0.266974157581429,-0.498143056151724,-0.7057641397763791,1.0002752844670746,1,left
8.536,-0.07381271053834235,1.3264406203340289,-0.04379586905752352,-1.030667484873227,1.098267145368823,-0.28078380133338693,-0.5069847665532518,-0.7173200782784667,1.014717895424091,1,left
8.537,-0.06783885398919352,1.3265218031929948,-0.04304678739943524,-1.1044019367075497,1.161803959425063,-0.2947002242317397,-0.5156247601427156,-0.7285801847540391,1.0289211646192586,1,left
8.541,-0.06155831826555831,1.3263352462489044,-0.04223251381579473,-1.1782056547664679,1.2258950960581745,-0.3087206843969585,-0.5240620670697964,-0.739532342092868,1.0428814078399662,1,left
8.542,-0.05497517150480974,1.3258805730418008,-0.04135262341435112,-1.2520191866729913,1.2904959970821699,-0.3228418113297007,-0.5322958665744679,-0.7501649549134831,1.0565948032270824,1,left
8.547,-0.04809410258654121,1.3251578688316334,-0.04040684070073215,-1.325781441735077,1.3555606617625158,-0.33705959686777176,-0.5403254843416909,-0.7604669620881063,1.070057395847179,1,left
8.548,-0.04092043290434588,1.3241676938706455,-0.03939504177251766,-1.3994297355534726,1.421041677789053,-0.3513693876957884,-0.5481503892907804,-0.7704278479805801,1.0832651028881237,1,left
8.551,-0.03346012668160566,1.3229110962243533,-0.03831725590585136,-1.472899839073335,1.4868902544156584,-0.36576587944810096,-0.555770189823099,-0.780037652427813,1.0962137195174344,1,left
8.552,-0.02571979896884889,1.3213896236508322,-0.03717366655089217,-1.5461260322913877,1.5530562579534581,-0.3802431124458077,-0.5631846295511395,-0.7892869794943113,1.1088989254420563,1,left
8.558,-0.017706720442779586,1.3196053340065304,-0.035964611686179856,-1.619041162830053,1.6194882498055985,-0.3947944691089592,-0.5703935825314782,-0.7981670050283932,1.121316292207497,1,left
8.559,-0.00942881825893447,1.317560803659568,-0.03469058343193632,-1.6915767095894745,1.6861335272326297,-0.4094126730852967,-0.5773970480234861,-0.8066694830476693,1.1334612912735087,1,left
8.561,-0.0008946724504665325,1.3152591334510264,-0.033352226807376394,-1.7636628516876465,1.7529381670384707,-0.4240897901370989,-0.5841951447950972,-0.8147867509803428,1.1453293029027465,1,left
8.562000000000001,0.007886492340005477,1.312703951841142,-0.031950337534496345,-1.835228542897968,1.8198470723676814,-0.4388172308279241,-0.5907881049963438,-0.8225117337878215,1.1569156258980688,1,left
8.567,0.016904819698014023,1.3098994149996979,-0.030485858834404182,-1.9062015917924464,1.886804022805383,-0.4535857550512255,-0.5971762676207796,-0.8298379469930497,1.1682154882233557,1,left
8.568999999999999,0.026149838448003095,1.3068502037381573,-0.02895987722111504,-1.9765087477974819,1.953751727971616,-0.4683854784429832,-0.6033600715743167,-0.8367594986378644,1.179224058541931,1,left
8.571,0.03561048319489409,1.303561517320754,-0.027373617344944007,-2.0460757933676654,2.0206318848022278,-0.48320588072064213,-0.6093400483704212,-0.8432710901915517,1.1899364587058607,1,left
8.572000000000001,0.04527511761776111,1.300039064307474,-0.02572843594651601,-2.1148276424813197,2.087385238708519,-0.4980358159907601,-0.615116814470016,-0.8493680164316401,1.2003477772285802,1,left
8.576,0.05513155975352213,1.2962890506452025,-0.024025814959330732,-2.1826884456596005,2.1539516488078405,-0.5128635250678591,-0.6206910632949459,-0.8550461643203778,1.210453083747909,1,left
8.578,0.06516710867043425,1.292318165221304,-0.022267353778875024,-2.2495817017088355,2.2202701574171457,-0.5276766498470317,-0.6260635569987066,-0.860302010917056,1.2202474443629039,1,left
8.578,0.07536857216895959,1.2881335630447797,-0.020454760729262448,-2.3154303763834534,2.286279064001133,-0.5424622497728773,-0.6312351181773369,-0.8651326203973465,1.2297259375061507,1,left
8.581,0.08572229537688675,1.2837428461633975,-0.018589843819125977,-2.3801570281642785,2.3519160037660742,-0.5572068204473413,-0.6362066217582303,-0.8695356402675037,1.238883669889457,1,left
8.582,0.09621419029184627,1.279154042381089,-0.016674500976985415,-2.443683941210554,2.4171180310100553,-0.5718963144000465,-0.6409789872486048,-0.87350929684219,1.2477157921827795,1,left
8.583,0.10682976646487119,1.2743755817995432,-0.014710710035102232,-2.505933264872882,2.481821706941189,-0.5865161639499673,-0.6455531714250108,-0.8770523900212565,1.2562175143062877,1,left
8.585,0.1175541631046612,1.269416271170577,-0.012700518736232359,-2.566827157948315,2.545963190957387,-0.6010513059167747,-0.6499301614892488,-0.8801642873817038,1.2643841203373063,1,left
8.585,0.1283721829360566,1.2642852660250443,-0.010646034992597978,-2.6262879351872,2.6094783339817558,-0.6154862078453592,-0.6541109687044071,-0.8828449175962364,1.2722109830575,1,left
8.59,0.13926832819605597,1.2589920405456962,-0.00854941757355459,-2.6842382142259047,2.6723027728445183,-0.6298048955015004,-0.6580966225241643,-0.8850947631885852,1.279693578164713,1,left
8.591000000000001,0.15022683915447563,1.2535463551761783,-0.006412867328794317,-2.7406010623183685,2.7343720254176542,-0.643990981566807,-0.6618881652279306,-0.8869148526345398,1.2868274981729135,1,left
8.596,0.16123173545021396,1.247958222006181,-0.00423861896601484,-2.7953001429034914,2.7956215866049283,-0.6580276955554278,-0.6654866470738411,-0.8883067518163914,1.2936084660227198,1,left
8.597000000000001,0.1722668603512075,1.242237868037702,-0.002028933339178384,-2.848259862174669,2.85598702536764,-0.6718979149936319,-0.6688931219810539,-0.8892725548372508,1.300032348423991,1,left
8.6,0.18331592782183057,1.2363956965103156,0.00021390980963297153,-2.899405515813229,2.9154040829642693,-0.6855841979029742,-0.6721086437522462,-0.889814874200475,1.306095168950969,1,left
8.601,0.19436257205650442,1.2304422465351006,0.002487618694613361,-2.948663436042737,2.9738087725798352,-0.6990688166273339,-0.6751342628466491,-0.8899368303582061,1.3117931209094418,1,left
8.605,0.20539039895217479,1.2243881513488566,0.0047898959324027745,-2.9959611391561585,3.031137480518234,-0.7123337930436341,-0.6779710237134087,-0.8896420406317995,1.3171225799943758,1,left
8.606,0.2163830388736991,1.2182440955487381,0.00711844458046192,-3.0412274736626363,3.087327069128112,-0.7253609351955195,-0.6806199626945124,-0.8889346075057095,1.3220801167554221,1,left
8.611,0.22732420001970266,1.2120207717052174,0.00947097373393391,-3.084392769195235,3.1423149816299287,-0.7381318753886943,-0.683082106505977,-0.8878191062951881,1.3266625088866608,1,left
8.611,0.23819772170811904,1.205728836781616,0.011845203627902682,-3.1253889863153774,3.1960393490087466,-0.7506281097859848,-0.6853584713054461,-0.8863005721869609,1.3308667533558853,1,left
8.615,0.24898762695238308,1.1993788688100595,0.014238870180412382,-3.164149867343859,3.2484390991340386,-0.7628310395395128,-0.687450062353813,-0.8843844866508559,1.33469007838766,1,left
8.616,0.2596781737773018,1.1929813242829996,0.01664972891069344,-3.20061108834229,3.2994540682643483,-0.7747220134966261,-0.689357874277941,-0.8820767632191919,1.3381299553133115,1,left
8.619,0.2702539048169294,1.1865464967140227,0.019075558178571827,-3.234710412362607,3.3490251150910026,-0.7862823725154445,-0.6910828919410255,-0.8793837326295766,1.341184110299921,1,left
8.62,0.2806996948342459,1.1800844768013594,0.02151416171270679,-3.2663878440758523,3.397094237471282,-0.79749349542504,-0.6926260919266048,-0.8763121273256225,1.3438505359693003,1,left
8.624,0.2910007958955895,1.1736051145939501,0.023963370422786335,-3.295585785884833,3.4436046919974688,-0.8083368466643643,-0.6939884446417074,-0.8728690653089654,1.3461275029168271,1,left
8.625,0.3011428800183188,1.16711798401557,0.026421043520118783,-3.322249195618497,3.4885011165440565,-0.8187940256331001,-0.6951709170440882,-0.8690620333348615,1.3480135711389052,1,left
8.63,0.3111120791858315,1.1606323500504285,0.028885068997345133,-3.3463257458988926,3.531729655931084,-0.8288468177865976,-0.6961744759979932,-0.8648988694425565,1.349507601376711,1,left
8.63,0.32089502268383296,1.154157138836987,0.03135336353774151,-3.367765985264477,3.5732380908370933,-0.8384772475060094,-0.6970000922623655,-0.8603877448105515,1.3506087663827637,1,left
8.636000000000001,0.33047887174855317,1.14770091085779,0.03382387193861456,-3.3865235011262573,3.6129759700905653,-0.8476676327736253,-0.6976487451148935,-0.8555371449258456,1.351316562115729,1,left
8.637,0.3398513515290051,1.1412718373549806,0.0362945661426517,-3.402555084625822,3.650894746463908,-0.8564006416822475,-0.6981214276147854,-0.8503558500552142,1.351630818867756,1,left
8.64,0.34900078035454396,1.1348776800489753,0.038763443972182385,-3.415820897456753,3.6869479160891303,-0.8646593508062305,-0.6984191525066433,-0.8448529150055787,1.3515517123275007,1,left
8.641,0.35791609627157467,1.128525774195273,0.04122852764988011,-3.4262846407032157,3.7210911616092495,-0.8724273054605548,-0.6985429587673049,-0.8390376481595568,1.3510797745808754,1,left
8.645,0.3665868807753173,1.122223014981717,0.043687862167755755,-3.4339137257416876,3.7532824991742735,-0.8796885818729817,-0.6984939187970093,-0.8329195897713254,1.3502159050504232,1,left
8.646,0.3750033796250715,1.1159758472448724,0.04613951354308528,-3.4386794472438686,3.7834824293852205,-0.8864278512929805,-0.6982731462366315,-0.8265084895295721,1.3489613813567636,1,left
8.646,0.38315652061351185,1.1097902584692176,0.04858156698339985,-3.4405571583107544,3.811654092284179,-0.8926304460597104,-0.6978818042966365,-0.8198142835062381,1.3473178700027768,1,left
8.649,0.39103792817197547,1.1036717750246772,0.05101212497542717,-3.4395264474552856,3.8377634261747877,-0.8982824275342299,-0.6973211143108599,-0.8128470708119618,1.3452874366331031,1,left
8.65,0.3986399347185047,1.0976254615925587,0.053429305313192337,-3.435571315620595,3.8617793285117834,-0.9033706552213668,-0.6965923641321398,-0.8056170903911201,1.342872555538761,1,left
8.65,0.40595558867272347,1.091655923721993,0.05583123908763159,-3.428680348672623,3.8836738143203653,-0.9078828553642858,-0.6956969160819214,-0.7981346982757193,1.3400761181572247,1,left
8.654,0.41297865906842346,1.0857673134404313,0.058216068677181716,-3.41884687927535,3.9034221660601927,-0.911807686714961,-0.6946362143375232,-0.7904103454135347,1.3369014404641526,1,left
8.655,0.41970363670181043,1.079963337805905,0.06058194580694441,-3.4060691335706936,3.9210030703828513,-0.9151348017603979,-0.6934117917358577,-0.7824545560723115,1.3333522692335087,1,left
8.658999999999999,0.4261257317772065,1.0742472702406773,0.0629270297755859,-3.390350360816629,3.9363987399975886,-0.91785490272364,-0.6920252759910358,-0.7742779067985558,1.3294327871580467,1,left
8.66,0.43224086805949175,1.0686219644379955,0.0652494859731196,-3.371698945650842,3.9495950203940016,-0.9199597922351656,-0.6904783953228133,-0.7658910059087503,1.3251476168210496,1,left
8.665,0.43804567360082997,1.0630898705925063,0.06754748482300263,-3.350128502943217,3.960581481472144,-0.921442418684208,-0.6887729834923636,-0.7573044734901597,1.3205018235091344,1,left
8.666,0.44353746816301465,1.0576530536716136,0.0698192012787572,-3.3256579551920242,3.9693514941242496,-0.922296916257802,-0.6869109842413984,-0.7485289218877621,1.3155009168548735,1,left
8.669,0.4487142475022085,1.052313213420821,0.0720628149941578,-3.2983115924102453,3.975902291805956,-0.9225186396735833,-0.684894455130196,-0.7395749366532328,1.3101508512969344,1,left
8.67,0.4535746647210658,1.0470717057814325,0.07427651127347248,-3.268119114440125,3.980235017128577,-0.9221041936105887,-0.6827255707696427,-0.7304530579313409,1.3044580253444018,1,left
8.673,0.45811800892539106,1.041929565391504,0.0764584828947717,-3.235115655625691,3.98235475349762,-0.9210514568405037,-0.6804066254419427,-0.7211737622585659,1.2984292796309294,1,left
8.674,0.4623441814501839,1.0368875288369142,0.0786069328790302,-3.199341791764759,3.982270541816352,-0.9193596010599837,-0.6779400351042074,-0.7117474447482399,1.2920718937433662,1,left
8.679,0.46625366994440476,1.031946058316592,0.08072007824535195,-3.160843529253753,3.979995382266891,-0.9170291044228576,-0.675328338768699,-0.7021844016360299,1.2853935818085178,1,left
8.68,0.4698475206260939,1.0271053653844626,0.08279615474894068,-3.1196722763306295,3.975546221174917,-0.9140617597691848,-0.6725741992530728,-0.6924948131591281,1.2784024868207398,1,left
8.684,0.4731273090400842,1.0223654344331232,0.0848334225506778,-3.075884796313224,3.9689439229577954,-0.9104606775463076,-0.6696804032935356,-0.6826887267420908,1.2711071736921158,1,left
8.684,0.4760951096671807,1.0177260455949677,0.08683017272501352,-3.0295431427225443,3.960213227149614,-0.9062302834152068,-0.6666498610134255,-0.6727760404618773,1.2635166210060527,1,left
8.687999999999999,0.4787534647429338,1.0131867967585266,0.08878473448269704,-2.980714576172854,3.9493826904903977,-0.9013763105336452,-0.6634856047393055,-0.6627664867642736,1.2556402114542302,1,left
8.689,0.4811053526457747,1.0087471244305968,0.09069548296767167,-2.9294714629028977,3.9364846140605776,-0.8959057865057615,-0.6601907871562659,-0.6526696164035534,1.247487720935964,1,left
8.693,0.48315415621075813,1.0044063232158846,0.09256084748111423,-2.875891154815266,3.9215549554357128,-0.889827014985975,-0.6567686787937336,-0.642494782576919,1.2390693062981974,1,left
8.693999999999999,0.48490363131766084,1.000163563733292,0.09437931998672956,-2.820055850883814,3.9046332258304037,-0.8831495519232715,-0.6532226648327073,-0.6322511252249907,1.2303954916935171,1,left
8.697000000000001,0.4863578760892033,0.996017908839975,0.09614946375602937,-2.7620524397820625,3.8857623721944345,-0.8758841764301726,-0.6495562412249591,-0.6219475554693558,1.2214771535327937,1,left
8.698,0.48752130101428287,0.9919683280895215,0.09786992201738802,-2.70197232357886,3.86498864421833,-0.8680428562589485,-0.64577301011438,-0.6115927401579696,1.2123255040082868,1,left
8.703,0.4883986002815697,0.9880137104069926,0.09953942647766831,-2.639911222341081,3.8423614461998183,-0.8596387078659123,-0.6418766745502896,-0.6011950864890004,1.2029520731623193,1,left
8.704,0.4889947245717384,0.9841528750171235,0.10115680559141396,-2.57596895947693,3.8179331737170825,-0.8506859510429523,-0.6378710324821846,-0.590762726683536,1.1933686894759266,1,left
8.708,0.48931485551289405,0.9803845807076969,0.10272099246018343,-2.5102492276474644,3.7917590350492283,-0.8411998580938015,-0.6337599700250666,-0.5803035026774244,1.1835874589512134,1,left
8.709,0.48936438195445625,0.976707533545235,0.10423103225186886,-2.4428593350682686,3.7638968572790836,-0.8311966975309352,-0.6295474539841639,-0.5698249508023963,1.1736207426605187,1,left
8.712,0.48914887816434865,0.9731203931820964,0.10568608903737468,-2.3739099320178116,3.7344068770082672,-0.8206936722674099,-0.6252375236481789,-0.5593342864583468,1.1634811327781165,1,left
8.713,0.4886740840097377,0.9696217778953237,0.10708545195461175,-2.3035147173639188,3.7033515156094645,-0.8097088522764254,-0.6208342819630372,-0.5488383889377183,1.1531814273257892,1,left
8.714,0.4879458871463545,0.9662102684796023,0.10842854062655687,-2.2317901249150145,3.670795138935998,-0.798261101689914,-0.6163418863834951,-0.5383437868493332,1.1427346042521893,1,left
8.718,0.4869703072142193,0.962884411102322,0.10971490976935588,-2.158854989954811,3.636803801868258,-0.786370000459496,-0.6117645398028265,-0.5278566447481353,1.1321537956815806,1,left
8.719,0.4857534820178445,0.9596427192298899,0.11094425292456939,-2.0848301990975693,3.6014449803928086,-0.7740557614691425,-0.6071064818573995,-0.5173827514181368,1.1214522629509165,1,left
8.719,0.484301655656268,0.9564836747356729,0.11211640524786902,-2.009838331605879,3.564787298083014,-0.761339145368837,-0.6023719807170215,-0.5069275099694075,1.1106433726646843,1,left
8.725,0.48262116855408793,0.9534057283010838,0.11323134528705335,-1.934003303092008,3.526900256166651,-0.748241376164636,-0.5975653253685458,-0.49649592975082396,1.0997405737803796,1,left
8.726,0.4807184493201547,0.9504072992393916,0.11428919568162552,-1.8574500197381738,3.4878539740413026,-0.734784059831935,-0.5926908183793653,-0.48609262004850023,1.088757375693898,1,left
8.726,0.4786000083309676,0.9474867748977164,0.11529022272597612,-1.7803040461596606,3.4477189429172714,-0.720989106836307,-0.5877527691272022,-0.47572178553987526,1.0777073272938236,1,left
8.727,0.4762724329135433,0.9446425098032718,0.11623483476768003,-1.7026912872497202,3.406565792943469,-0.7068786586778116,-0.5827554874823946,-0.465387223473501,1.0666039969533188,1,left
8.731,0.47374238399260166,0.941872824711749,0.11712357944906833,-1.6247376837866054,3.3644650737042614,-0.69247501842016,-0.5777032779286868,-0.45509232254465354,1.055460953428098,1,left
8.732000000000001,0.4710165940661519,0.9391760056976841,0.11795713982740036,-1.5465689215813874,3.3214870479721297,-0.6778005851651571,-0.5726004341083454,-0.44484006343698235,1.0442917476287659,1,left
8.736,0.46810186637504153,0.9365503034052899,0.11873632942290688,-1.4683101539438699,3.277701498598076,-0.6628777924319321,-0.5674512337772564,-0.434633021000518,1.0331098952356523,1,left
8.737,0.4650050751289809,0.9339939325579177,0.11946208624951127,-1.390085737242927,3.233177548418978,-0.6477290503996272,-0.5622599341554978,-0.42447336803646907,1.0219288601241687,1,left
8.742,0.4617331666416214,0.9315050718078025,0.12013546588633817,-1.3120189793369805,3.1879834930585793,-0.6323766919714382,-0.5570307676587374,-0.4143628806593622,1.010762038568621,1,left
8.743,0.4582931612132974,0.9290818639953035,0.12075763365454793,-1.2342319006500644,3.1421866464964836,-0.616842922617185,-0.5517679379956737,-0.40430294520720744,0.9996227441923892,1,left
8.747,0.45469215558604514,0.9267224168772618,0.12132985597490611,-1.1568450076690258,3.0958531992773866,-0.6011497739509425,-0.5464756166166165,-0.39429456667050694,0.9885241936323839,1,left
8.748,0.45093732578335427,0.9244248043761062,0.12185349099236653,-1.079977078637861,3.0490480892308716,-0.5853190609996766,-0.5411579394981912,-0.384338378611066,0.9774794928857247,1,left
8.752,0.4470359301376544,0.9221870683941732,0.12232997855981896,-1.0037449612259834,3.001834884570338,-0.5693723431183072,-0.5358190042490608,-0.3744346545417079,0.9665016243066734,1,left
8.753,0.44299531230334016,0.9200072212306872,0.12276082967533869,-0.9282633819483652,2.954275679238103,-0.5533308885061651,-0.5304628675214681,-0.36458332073814304,0.955603434221963,1,left
8.756,0.4388229040533783,0.9178832486311765,0.1231476154726974,-0.8536447671169887,2.906431000362358,-0.5372156422794087,-0.5250935427133324,-0.3547839704543924,0.9447976211328263,1,left
8.757,0.4345262276631757,0.9158131134900147,0.12349195587796497,-0.7799990751048542,2.858359727690482,-0.5210471980536387,-0.5197149979455719,-0.34503587951331277,0.9340967244722104,1,left
8.761000000000001,0.4301128976961188,0.9137947602154309,0.12379550806232124,-0.7074336397059519,2.8101190248622085,-0.5048457729906718,-0.5143311542992726,-0.3353380232439236,0.923513113885901,1,left
8.762,0.42559062202048636,0.9118261197523629,0.12405995483527701,-0.6360530243770726,2.7617642823853377,-0.4886311862632216,-0.5089458842972892,-0.32568909473738245,0.9130589790065389,1,left
8.767999999999999,0.42096720190593273,0.9099051152435028,0.12428699312927156,-0.5659588871501259,2.7133490721760207,-0.47242284089108605,-0.5035630106148338,-0.316087524393604,0.9027463196898154,1,left
8.769,0.41625053106809745,0.9080296682953288,0.12447832272708073,-0.49724985600672933,2.6649251135251455,-0.4562397089023379,-0.49818630500359595,-0.30653150073066004,0.8925869366824694,1,left
8.771,0.4114485935512989,0.9061977058044214,0.12463563537958634,-0.4300214145102298,2.616542250352034,-0.4401003197729825,-0.49281948741393017,-0.29701899242923774,0.8825924226920779,1,left
8.772,0.4065694603612722,0.904407167288188,0.12476060445393554,-0.3643657974940074,2.5682484396064806,-0.42402275209856005,-0.4874662252996565,-0.28754777158457034,0.8727741538290437,1,left
8.776,0.4016212847831564,0.9026560126520892,0.12485487524183983,-0.3003718966088859,2.5200897506801243,-0.4080246284512432,-0.48213013309003655,-0.27811543813838363,0.8631432813916154,1,left
8.777000000000001,0.3966122963461566,0.9009422303134624,0.12492005604489609,-0.2381251755367179,2.4721103756882727,-0.3921231133761047,-0.4768147718135144,-0.2687194454635266,0.8537107239652574,1,left
8.78,0.39155079342482446,0.8992638455929537,0.12495771013615423,-0.17770759468172548,2.4243526504835353,-0.3763349144804057,-0.4715236488609725,-0.259357127039371,0.8444871598130548,1,left
8.781,0.38644513449145,0.8976189292837822,0.12496934867296892,-0.1191975451559435,2.376857086263021,-0.36067628656998446,-0.46626021789189737,-0.2500257239826674,0.8354830195587329,1,left
8.782,0.38130372805085844,0.89600560631678,0.12495642460890106,-0.06266979188012295,2.329662411631353,-0.34516303878710003,-0.461027878914989,-0.24072241288633403,0.82670847920827,1,left
8.785,0.3761350213048812,0.8944220644436964,0.12492032762983135,-0.008195425569173664,2.282805624801668,-0.32981054465491455,-0.45582997859041136,-0.23144433324524288,0.8181734535810307,1,left
8.786,0.3709474876109738,0.8928665628576928,0.12486238012558945,0.04415817691093519,2.2363220547138525,-0.3146337546866871,-0.4506698107853671,-0.2221886139216638,0.8098875901976316,1,left
8.787,0.3657496128107504,0.8913374406686794,0.12478383419959596,0.09432738483995054,2.1902454282235535,-0.29964721077270257,-0.44555061738668883,-0.21295239841542465,0.8018602636285702,1,left
8.79,0.3605498805184698,0.8898331251516722,0.12468586971000198,0.14225233990066158,2.144607939612821,-0.28486506131093764,-0.4404755893586421,-0.20373286887742606,0.794100570283994,1,left
8.792,0.3553567564920125,0.8883521396775178,0.1245695933262324,0.18787697740993498,2.099440319577955,-0.2703010762954524,-0.43544786803112323,-0.19452726883991545,0.7866173236208223,1,left
8.797,0.35017867224919424,0.8868931112227071,0.12443603857752598,0.23114904301261163,2.0547719024778726,-0.2559686620225077,-0.43047054660355233,-0.1853329246369811,0.7794190497441834,1,left
8.797,0.3450240081202033,0.8854547773524307,0.1242861668646903,0.2720201050333469,2.01063069153123,-0.24188087532247615,-0.42554667184988987,-0.1761472654887748,0.7725139833808928,1,left
8.801,0.33990107593928715,0.884035992579335,0.12412086939842644,0.31044556261734835,1.9670434218326074,-0.22805043727573793,-0.4206792460103397,-0.16696784222301267,0.7659100642034946,1,left
8.802,0.3348181015814089,0.8826357340135373,0.12394097001563405,0.34638464978421657,1.9240356210594947,-0.2144897463714151,-0.415871228855446,-0.15779234460733513,0.7596149334842034,1,left
8.805,0.32978320754582524,0.8812531062347693,0.12374722881292245,0.379800435512204,1.8816316677433307,-0.20121089106850276,-0.4111255399084471,-0.14861861726613307,0.7536359310589288,1,left
8.807,0.3248043957791924,0.8798873453349417,0.12354034652810253,0.4106598199631904,1.8398548469794394,-0.18822566171969185,-0.40644506081190823,-0.13944467415546521,0.7479800925824277,1,left
8.811,0.31988953091628924,0.8785378220982989,0.12332096959728052,0.43893352695153887,1.7987274034523595,-0.17554556181895356,-0.4018326378248283,-0.13026871156970335,0.7426541470565163,1,left
8.812000000000001,0.31504632409886096,0.8772040443048859,0.12308969581766749,0.4645960927527555,1.7582705916548076,-0.1631818185347637,-0.3972910844365936,-0.1210891196535473,0.7376645146141783,1,left
8.815,0.31028231751566004,0.8758856581595152,0.12284708055246829,0.48762585134054026,1.718504723180308,-0.15114539249168973,-0.39282318408433853,-0.1119044923930515,0.7330173045433395,1,left
8.816,0.3056048697921414,0.8745824488619337,0.12259364341869365,0.5080049161333978,1.6794492109713846,-0.13944698676393716,-0.38843169296046925,-0.10271363605929983,0.7287183135350209,1,left
8.818999999999999,0.30102114234723065,0.8732943403444238,0.12232987539414879,0.5257191583244821,1.6411226104071408,-0.12809705504536167,-0.3841193428973098,-0.09351557607835483,0.7247730241415491,1,left
8.82,0.29653808682489063,0.872021394211664,0.1220562462613395,0.5407581818607957,1.6035426571160274,-0.1171058089613923,-0.3798888443160418,-0.08430956230109396,0.7211866034314864,1,left
8.825,0.29216243369607126,0.8707638079269747,0.12177321227538847,0.5531152951302563,1.5667263014016475,-0.10648322448928203,-0.3757428892273266,-0.07509507264652798,0.7179639018289449,1,left
8.827,0.2879006821102529,0.8695219123016743,0.12148122390995707,0.5627874794074967,1.5306897391715324,-0.0962390474541024,-0.37168415427122975,-0.06587181509217596,0.7151094521259583,1,left
8.829,0.28375909105649755,0.868296168359373,0.12118073351177598,0.5697753541015871,1.4954484392609673,-0.08638279806892868,-0.36771530378429795,-0.05663972798504969,0.7126274686576227,1,left
8.83,0.27974367187412713,0.8670871636605954,0.12087220268690091,0.5740831388411696,1.4610171670461376,-0.07692377448872073,-0.3638389928818865,-0.04739897864677598,0.7105218466307544,1,left
8.836,0.27586018213473706,0.8658956081803545,0.12055610924905998,0.5757186124247968,1.4274100042431082,-0.06787105534849132,-0.3600578705440813,-0.03814996024636065,0.7087961615978773,1,left
8.837,0.2721141209020058,0.8647223298286919,0.12023295357987546,0.5746930686565527,1.3946403647914265,-0.059233501257467604,-0.3563745826938209,-0.028893286914073415,0.7074536690694156,1,left
8.839,0.2685107253652827,0.8635682696912627,0.11990326428164154,0.57102126907935,1.3627210067234696,-0.05101975522209194,-0.3527917752560885,-0.019629787069908127,0.7064973042580522,1,left
8.84,0.2650549688358412,0.8624344770471571,0.11956760304355897,0.5647213926106277,1.3316640399230177,-0.043238241971875174,-0.3493120971873176,-0.010360494940049876,0.7059296819503011,1,left
8.847000000000001,0.2617515600849296,0.8613221041997784,0.11922656868509748,0.555814982077532,1.3014809296789451,-0.0358971661633076,-0.3459382034644344,-0.001086640234758682,0.7057530965014456,1,left
8.847999999999999,0.25860494398370754,0.8602324011392072,0.11888080037667104,0.5443268876410723,1.2721824959423564,-0.029004509438249847,-0.34267275802325237,0.008190364038939534,0.7059695219510967,1,left
8.849,0.2556193033778752,0.8591667100447167,0.11853098006197466,0.5302852070912031,1.243778908197978,-0.022568026314467172,-0.3395184366338126,0.017468935608710844,0.7065806122581736,1,left
8.849,0.25279856210675633,0.8581264596330774,0.11817783411673845,0.5137212229872963,1.216279675863115,-0.016595238887235342,-0.33647792968849355,0.026747338553141806,0.7075877016573281,1,left
8.85,0.25014638906557557,0.8571131593582595,0.11782213427978579,0.49466933661106344,1.1896936341300346,-0.011093430322234109,-0.3335539448572927,0.03602369981434419,0.7089918051437735,1,left
8.855,0.24766620319928467,0.8561283934691859,0.11746469789276921,0.473166998723919,1.1640289253054485,-0.0060696371468887825,-0.33074920955292636,0.04529602568019857,0.7107936190967118,1,left
8.856,0.24536117930191179,0.8551738149339596,0.11710638748756053,0.44925463727483067,1.1392929763796265,-0.0015306404768253576,-0.3280664731607951,0.054562217547845876,0.7129935220505826,1,left
8.857000000000001,0.24323425449141747,0.8542511392403274,0.1167481097611398,0.4229755824879081,1.1154924747775665,0.0025170434538310184,-0.32550850901093187,0.06382008670905447,0.715591575620703,1,left
8.859,0.24128813523206843,0.8533621380829383,0.11639081398009406,0.39437598991324274,1.0926333449235424,0.006067172960038485,-0.32307811608146625,0.07306736813642577,0.7185875255888957,1,left
8.86,0.23952530476645684,0.852508632947863,0.11603548986696502,0.3635047618562976,1.070720727576764,0.00911379039980722,-0.32077812042590476,0.08230173329705316,0.7219808031554262,1,left
8.863,0.237948030808403,0.8516924886010566,0.11568316503477998,0.330413467304013,1.0497589626813046,0.011651231352361024,-0.3186113763168839,0.09152080202022454,0.7257705263647098,1,left
8.863999999999999,0.23655837335682386,0.8509156064792865,0.11533490204706379,0.2951562602978337,1.029751575799882,0.013674133465042829,-0.31658076709942107,0.1007221534457285,0.7299555017133977,1,left
8.869,0.235358192515169,0.8501799179729043,0.11499179518740468,0.2577897966650847,1.0107012680685634,0.015177444977704058,-0.3146892057470615,0.10990333607928687,0.7345342259505846,1,left
8.87,0.2343491562275548,0.8494873775821181,0.11465496702534428,0.21837314901374924,0.9926099096121768,0.01615643293185566,-0.31293963511470346,0.11906187698159239,0.7395048880810232,1,left
8.874,0.2335327478672909,0.8488399559210009,0.11432556486304354,0.1769677198894867,0.9754785363629623,0.01660669107038122,-0.31133502788227424,0.12819529011737935,0.7448653715833663,1,left
8.875,0.23291027363688785,0.8482396325345315,0.11400475714132112,0.13363715298767365,0.9593073502277406,0.016524147432120554,-0.3098783861838296,0.13730108389089676,0.750613256856584,1,left
8.878,0.23248286976019544,0.8476883884841373,0.11369372987839929,0.08844724230736671,0.9440957225516275,0.01590507164412665,-0.3085727409170571,0.1463767678940889,0.7567458239088312,1,left
8.879,0.23225150946628093,0.8471881986480105,0.11339368321277071,0.04146583912837801,0.9298422008290834,0.014746081912880725,-0.30742115072857923,0.15541985889371576,0.7632600553041596,1,left
8.883,0.2322170097814907,0.8467410236734922,0.1131058281216554,-0.007237243312873125,0.9165445186158387,0.013044151714220145,-0.30642670067087985,0.16442788608356637,0.7701526393835824,1,left
8.884,0.23238003816079184,0.8463488015100179,0.112831383386074,-0.05759032757840388,0.9041996085979953,0.010796616180193563,-0.30559250052710873,0.17339839562783185,0.7774199737780987,1,left
8.89,0.23274111900031458,0.8460134384460324,0.11257157287168758,-0.10951997234942214,0.8928036187773501,0.008001178179507256,-0.30492168280046267,0.1823289545216112,0.7850581692323879,1,left
8.891,0.2333006400784388,0.8457367995761057,0.11232762318955716,-0.16295107545254764,0.8823519317347367,0.004655914086667718,-0.3044174003652937,0.1912171537944221,0.7930630537589632,1,left
8.894,0.2340588589730557,0.8455206986365472,0.1121007617897977,-0.217806979735993,0.8728391869359082,0.0007592792333590335,-0.30408282377755386,0.20006061108248183,0.8014301771436564,1,left
8.894,0.23501590949903572,0.8453668871690738,0.11189221552229574,-0.2740095819447228,0.8642593060472195,-0.0036898869659797054,-0.30392113824265715,0.2088569725954073,0.8101548158243651,1,left
8.897,0.23617180820254377,0.845277043003054,0.1117032096729265,-0.33147944474791896,0.8566055212310686,-0.008692356223990281,-0.3039355402393159,0.2176039145028636,0.8192319781660504,1,left
8.898,0.23752646093638427,0.8452527580873254,0.11153496745152777,-0.39013591207617065,0.8498704063937563,-0.014248506936841049,-0.30412923379839796,0.22629914376655988,0.8286564101560095,1,left
8.902000000000001,0.239079669521836,0.8452955257504047,0.11138870986880756,-0.44989722792967274,0.8440459113611055,-0.02035832010006536,-0.30450542643634704,0.23494039844285813,0.838422601544478,1,left
8.902999999999999,0.24083113847754437,0.8454067275189674,0.11126565589512118,-0.5106806588223544,0.8391233989598322,-0.02702137559816429,-0.30506732474321385,0.24352544748111676,0.8485247924566247,1,left
8.908999999999999,0.24278048176691253,0.845587619673131,0.11116702275230472,-0.5724026200302668,0.8350936849853067,-0.03423684888393499,-0.3058181296258623,0.2520520900427434,0.8589569805030033,1,left
8.908999999999999,0.2449272294853901,0.8458393197573014,0.11109402616243072,-0.6349788058157293,0.8319470810389514,-0.0420035080650756,-0.3067610312074377,0.2605181543657766,0.8697129284165026,1,left
8.913,0.24727083438113828,0.8461627932922443,0.11104788037391669,-0.6983243238016698,0.8296734402211161,-0.050319711417206134,-0.30789920338471843,0.2689214961996533,0.8807861722448037,1,left
8.915,0.2498106780791898,0.8465588409455805,0.1110297978081646,-0.7623538336732869,0.8282622056678316,-0.059183405344030764,-0.30923579804551443,0.27725999683465335,0.8921700301282992,1,left
8.918,0.2525460768639302,0.8470280864149351,0.11104098821448277,-0.8269816903866173,0.827702461922384,-0.06859212280694962,-0.31077393894882827,0.28553156075033603,0.9038576116943604,1,left
8.919,0.2554762868732454,0.8475709652598188,0.1110826572767471,-0.8921220920657982,0.8279829891351508,-0.07854298224800585,-0.31251671527409425,0.2937341129128152,0.915841828073849,1,left
8.919,0.2586005085757548,0.848187714881067,0.11115600466538292,-0.9576892327727806,0.8290923200876249,-0.08903268703162562,-0.31446717486157433,0.3018655957790793,0.9281154024171623,1,left
8.922,0.26191789043614705,0.8488783657961207,0.11126222156174616,-1.0235974603349671,0.8310188000389933,-0.10005752543217361,-0.3166283171939189,0.30992396611775747,0.9406708805548826,1,left
8.924,0.26542753170512207,0.849642734317193,0.11140248770375055,-1.089761439163808,0.8337506492777437,-0.11161337118165171,-0.31900308618468126,0.31790719178408244,0.9535006413194509,1,left
8.924,0.2691284842889222,0.8504804167186545,0.11157796801687687,-1.1560963167290426,0.8372760276716172,-0.12369568452215823,-0.3215943628249787,0.32581324855804855,0.966596906174616,1,left
8.927999999999999,0.27301975366678516,0.8513907849643555,0.11178980889961988,-1.2225178900690366,0.8415830994468093,-0.13629951358099834,-0.32440495771274613,0.33364011710316727,0.9799517480333135,1,left
8.927999999999999,0.27710029883955994,0.8523729840442378,0.11203913423335721,-1.2889427674488256,0.8466600958380938,-0.1494194958166039,-0.3274376034744506,0.34138578007445974,0.9935570992749155,1,left
8.932,0.281369031306453,0.8534259309462338,0.11232704119728679,-1.355288521547543,0.8524953738453647,-0.16304985935618949,-0.3306949470867166,0.349048219398393,1.0074047589994561,1,left
8.933,0.2858248130801156,0.8545483152592748,0.11265459598639366,-1.4214738328423797,0.8590774703991009,-0.17718442417583177,-0.3341795421059416,0.3566254137472405,1.0214863995571792,1,left
8.937000000000001,0.2904664537675247,0.8557386013559872,0.11302282954289877,-1.4874186231258069,0.8663951518310034,-0.19181660314639842,-0.3378938408146201,0.36411533623011433,1.0357935723924776,1,left
8.937000000000001,0.2952927067678441,0.8569950320400648,0.11343273341837817,-1.5530441793464775,0.8744374586665455,-0.20693940298446997,-0.34184018629373886,0.37151595232267626,1.0503177132419836,1,left
8.942,0.3003022646690756,0.8583156334720577,0.11388525588852325,-1.6182732679637726,0.8831937457583228,-0.22254542514884523,-0.34602080443125904,0.37882521805729036,1.0650501467272477,1,left
8.942,0.30549375395858597,0.8596982211181773,0.11438129844459549,-1.6830302400052561,0.8926537177811952,-0.23862686672464903,-0.35043779587736046,0.38604107849513025,1.0799820903830866,1,left
8.947000000000001,0.31086572918995153,0.8611404064089594,0.11492171278241342,-1.747241127015405,0.9028074601123085,-0.25517552133847066,-0.35509312795778925,0.39316146650149536,1.095104658163305,1,left
8.948,0.3164166667638507,0.8626396037546623,0.11550729840136659,-1.8108337280828315,0.9136454651211215,-0.272182780149348,-0.3599886265573238,0.40018430184533066,1.1104088634660978,1,left
8.952,0.3221449584837461,0.8641930375440449,0.11613880091407355,-1.8737376881318728,0.9251586538965968,-0.2896396329617771,-0.36512596798605146,0.4071074906436734,1.125885621722004,1,left
8.953,0.3280489050415475,0.8657977487520577,0.11681691115083338,-1.9358845676628487,0.9373383934407027,-0.3075366695082692,-0.3705066708418342,0.41392892517147867,1.1415257525878413,1,left
8.956,0.33412670957893936,0.8674506007987423,0.11754226511783894,-1.9972079041235227,0.9501765093593424,-0.32586408095029246,-0.37613208788302954,0.4206464840569926,1.1573199817905642,1,left
8.957,0.3403764714599443,0.869148284334669,0.11831544483029545,-2.0576432650923255,0.963665294083765,-0.3446116616477274,-0.3820033979262289,0.4272580328825582,1.1732589426654858,1,left
8.962,0.346796180381018,0.8708873206752515,0.1191369799921809,-2.1171282934517297,0.9777975106574308,-0.3637688112482275,-0.38812159778447264,0.43376142521044514,1.1893331774337739,1,left
8.962,0.35338371093635396,0.872664063664955,0.12000735044306647,-2.1756027447277986,0.9925663921251934,-0.38332453714911446,-0.39448749426210583,0.4401545040529963,1.2055331382645742,1,left
8.967,0.36013681774662354,0.8744746998219143,0.12092698925318786,-2.233008516769394,1.0079656365635348,-0.4032674573856399,-0.401101696223143,0.44643510380607937,1.2218491881675295,1,left
8.967,0.3670531312469728,0.876315246693353,0.12189628632791549,-2.2892896719377975,1.023989397792435,-0.42358580400062507,-0.40796460675071944,0.45260105266452344,1.2382716017618487,1,left
8.971,0.3741301542124009,0.8781815494406543,0.12291559237774119,-2.3443924519745987,1.040632271811291,-0.4442674269516317,-0.41507641541591833,0.4586501755378983,1.254790565968446,1,left
8.972000000000001,0.38136525907333263,0.8800692757664456,0.1239852231110639,-2.3982652857126445,1.0578892790031087,-0.4652997986129291,-0.4224370906749746,0.4645802974846773,1.2713961806719978,1,left
8.976,0.38875568604054833,0.8819739093884423,0.12510546350786353,-2.4508587897916114,1.075755842152991,-0.4866700189306008,-0.43004637241457216,0.47038924768249013,1.288078459400077,1,left
8.976,0.39629854201875636,0.8838907423470028,0.12627657203111337,-2.502125762536389,1.094227760328718,-0.5083648212901765,-0.43790376466566416,0.4760748639518397,1.3048273300667943,1,left
8.981,0.40399080024721035,0.8858148664956882,0.12749878463322661,-2.552021171152926,1.1133011786729896,-0.5303705791571817,-0.4460085285069617,0.48163499785031266,1.321632635828632,1,left
8.982000000000001,0.4118293005717039,0.8877411645599802,0.1287723184240318,-2.6005021323925264,1.1329725541586404,-0.5526733135519685,-0.45435967517994796,0.48706752035396805,1.3384841361003696,1,left
8.986,0.41981075023077813,0.8896643011588709,0.13009737489084205,-2.6475278868317766,1.1532386173598903,-0.5752587014211201,-0.46295595943799,0.4923703281422319,1.3553715077791946,1,left
8.987,0.4279317250314917,0.8915787141693159,0.13147414260020615,-2.6930597669113485,1.1740963302944116,-0.598112084968616,-0.47179587314846905,0.4975413504815193,1.372284346710173,1,left
8.988,0.4361886707991796,0.8934786067692125,0.132902799354949,-2.737061158872855,1.1955428403927164,-0.621218482010797,-0.48087763914576753,0.5025785565987066,1.3892121693509778,1,left
8.992,0.44457790500886163,0.8953579404283123,0.13438351381547045,-2.779497458728779,1.2175754306530782,-0.6445625974199811,-0.4901992052944266,0.5074799632484858,1.406144414458133,1,left
8.992,0.45309561852666114,0.8972104290671217,0.1359164466166789,-2.8203360225030236,1.2401914661136524,-0.6681288356922157,-0.49975823870069574,0.5122436420745199,1.4230704445417042,1,left
8.993,0.4617378773988635,0.8990295345888998,0.13750175102369744,-2.859546111509422,1.2633883371339025,-0.6919013145247191,-0.5095521200331818,0.5168677264676689,1.4399795469108114,1,left
8.995,0.4705006246352804,0.9008084639807428,0.1391395731707927,-2.8970988343925583,1.2871634006248878,-0.7158638790180554,-0.5195779379532213,0.5213504178108822,1.4568609342680947,1,left
8.996,0.47937968194397423,0.9025401681712054,0.14083005192293724,-2.932967088184837,1.3115139207283961,-0.7400001159680608,-0.5298324836780705,0.5256899911036934,1.473703744886649,1,left
9.001,0.48837075137555147,0.9042173428449378,0.1425733183957647,-2.96712550009489,1.3364370100878202,-0.7642933678637955,-0.5403122457050449,0.5298847999795958,1.4904970424179826,1,left
9.002,0.49746941683184026,0.9058324314328075,0.1443694951691869,-2.999550370776157,1.3619295722095754,-0.7887267464795304,-0.5510134047253997,0.533933281129173,1.5072298153794694,1,left
9.006,0.5066711453970151,0.9073776304894973,0.1462186952310031,-3.030219619285445,1.387988245056757,-0.8132831460999366,-0.5619318287574044,0.5378339581414481,1.523890976369658,1,left
9.006,0.5159712884570353,0.9088448976441235,0.14812102068887892,-3.059112729829559,1.4146093459466293,-0.8379452564482297,-0.5730630685287076,0.5415854447754981,1.5404693610596547,1,left
9.012,0.5253650825787802,0.910225962279066,0.1500765612915348,-3.086210700393088,1.441788817825171,-0.8626955753874231,-0.5844023531387257,0.5451864476739607,1.5569537270086293,1,left
9.013,0.5348476501223409,0.9115123390623732,0.1520853928030098,-3.1114959933354194,1.4695221769935287,-0.8875164214651957,-0.5959445860324115,0.5486357685296361,1.5733327523512775,1,left
9.015,0.5444139995610555,0.9126953444284074,0.15414757527525316,-3.134952488039938,1.4978044623628457,-0.9123899463731846,-0.6076843413173683,0.5519323057159575,1.5895950344048437,1,left
9.015,0.5540590254862662,0.913766116067816,0.15626315125728,-3.1565654356932153,1.5266301863155336,-0.9372981473917679,-0.6196158604568744,0.5550750553916735,1.6057290882430353,1,left
9.02,0.5637775082787087,0.9147156354487537,0.15843214395996727,-3.1763214162667954,1.5559932872526503,-0.962222879891599,-0.6317330493719643,0.5580631120896479,1.6217233452838544,1,left
9.02,0.5735641134376763,0.9155347533431218,0.16065455536992637,-3.1942082977689323,1.5858870839086168,-0.9871458699633118,-0.644029475986278,0.560895668799246,1.6375661519380438,1,left
9.025,0.5834133905749055,0.916214218270557,0.16293036428483787,-3.2102151978283295,1.61630423151607,-1.0120487272469096,-0.6564983682479435,0.5635720165513329,1.6532457683644668,1,left
9.026,0.5933197721018517,0.9167447076984075,0.16525952423480714,-3.224332447666617,1.6472366799051896,-1.0369129580324041,-0.669132612663285,0.5660915435144659,1.6687503673783433,1,left
9.03,0.6032775716616513,0.917116861754137,0.1676419612620429,-3.236551558510925,1.6786756336233581,-1.061719978703258,-0.6819247533776706,0.5684537336104167,1.6840680335578313,1,left
9.031,0.613280982374459,0.9173213191271485,0.17007757155262584,-3.246865190492515,1.7106115141625187,-1.0864511295941344,-0.6948669918392996,0.5706581646567115,1.6991867625939705,1,left
9.035,0.6233240749736779,0.917348754767664,0.17256621894660226,-3.2552671240720064,1.743033924383074,-1.1110876893343362,-0.7079511870822117,0.572704506043424,1.7140944609285023,1,left
9.036,0.6334007959109218,0.9171899189341279,0.17510773239030578,-3.261752234026281,1.7759316152246165,-1.1356108897481665,-0.7211688566652479,0.5745925159510087,1.7287789457235454,1,left
9.039,0.6435049655000167,0.9168356770973267,0.17770190342537429,-3.2663164660266912,1.809292454795217,-1.1600019313832084,-0.7345111783041253,0.5763220381155032,1.7432279452065311,1,left
9.04,0.6536302761543313,0.9162770501795081,0.18034848381868235,-3.2689568158326856,1.843103399932383,-1.1842419997372617,-0.7479689922341961,0.5778929981469819,1.7574290994332014,1,left
9.045,0.6637702907483973,0.9155052545927361,0.1830471834214381,-3.269671311119478,1.8773504703301693,-1.208312282254346,-0.7615328043418405,0.5793053994066805,1.771369961510823,1,left
9.046,0.6739184411106438,0.9145117415431767,0.18579766831147004,-3.268458995952865,1.9120187253282508,-1.2321939861597957,-0.7751927901028054,0.5805593184477617,1.7850379993231027,1,left
9.05,0.6840680266396935,0.9132882350848457,0.1885995592336414,-3.265319917918774,1.9470922434600537,-1.255868357204043,-0.7889387993661264,0.5816549000242348,1.7984205977975731,1,left
9.051,0.6942122130408722,0.9118267684363048,0.19145243031950768,-3.2602551179095935,1.9825541048582995,-1.279316699384195,-0.8027603620225789,0.5825923516720869,1.811505061755466,1,left
9.055,0.7043440312022424,0.9101197181216935,0.19435580804468913,-3.253266622563795,2.0183863766175163,-1.302520395711971,-0.8166466945755663,0.5833719378837368,1.824278619377419,1,left
9.056000000000001,0.7144563762587449,0.9081598355739886,0.1973091703757817,-3.2443574393498413,2.0545701012142406,-1.325460930095972,-0.8305867075260361,0.5839939739840234,1.8367284262880388,1,left
9.057,0.7245420069188825,0.905940275937123,0.20031194606541936,-3.233531554279826,2.091085288086744,-1.3481199104055976,-0.8445690132914284,0.584458819973074,1.8488415702084156,1,left
9.059,0.7345935451546858,0.9034546238875208,0.20336351406234782,-3.2207939321984194,2.1279109084109287,-1.3704790927318704,-0.8585819342722806,0.5847668746884955,1.8606050760952886,1,left
9.06,0.7446034763814682,0.900696916343184,0.20646320300807744,-3.206150519415297,2.165024892778813,-1.3925204066028463,-0.8726135107868286,0.5849185705513312,1.8720059117141339,1,left
9.06,0.7545641502670711,0.8976616619650789,0.2096102907992462,-3.1896082481344417,2.2024041308907356,-1.4142259804482114,-0.8866515087858755,0.5849143690021805,1.8830309936455514,1,left
9.064,0.7644677823188827,0.8943438574052036,0.21280400420536202,-3.1711750419563285,2.2400244720420646,-1.4355781663499863,-0.9006834273668441,0.5847547566458768,1.8936671937528242,1,left
9.065,0.7743064564176988,0.8907390003119008,0.21604351853752807,-3.1508598218954105,2.277860725517262,-1.4565595633721664,-0.9146965061272948,0.584440242105161,1.903901346143366,1,left
9.068,0.7840721284856574,0.8868430991575119,0.21932795736324398,-3.128672512659177,2.3158866606011443,-1.4771530392234322,-0.9286777323982117,0.5839713535833395,1.913720254655707,1,left
9.068999999999999,0.7937566314640229,0.8826526800052036,0.22265639225763947,-3.104624049101487,2.354075006249113,-1.4973417502628645,-0.9426138483973389,0.5833486371354688,1.9231107009025414,1,left
9.075,0.8033516817329892,0.8781647903768618,0.2260278425735977,-3.078726382791829,2.3923974505249834,-1.5171091599089055,-0.9564913583427929,0.5825726556471647,1.932059452899209,1,left
9.076,0.8128488870439105,0.8733770004200837,0.22944127520582816,-3.050992488636801,2.430824639915598,-1.5364390555106895,-0.9702965355670898,0.5816439885196902,1.940553274305791,1,left
9.079,0.8222397559679102,0.8682874016014531,0.2328956043214217,-3.02143637148475,2.4693261786318725,-1.5553155637397014,-0.9840154296715906,0.5805632320595352,1.9485789343097641,1,left
9.08,0.8315157088048537,0.8628946031771183,0.2363896910312538,-2.990073072639198,2.507870628006289,-1.573723164558516,-0.9976338737612017,0.5793310005702582,1.9561232181748962,1,left
9.084,0.8406680898529378,0.8571977267094816,0.23992234298053414,-2.956918676201415,2.5464255060971754,-1.5916467038221127,-1.011137491798961,0.5779479281439254,1.96317293848075,1,left
9.085,0.8496881809177594,0.8511963989088137,0.24349231384354272,-2.921990315157265,2.584957287610298,-1.6090714045659618,-1.0245117061198876,0.5764146711490427,1.9697149470758286,1,left
9.089,0.8585672159412807,0.8448907430812179,0.24709830271840338,-2.8853061771182626,2.623431404248428,-1.6259828770337261,-1.0377417451431872,0.5747319114114429,1.9757361477660031,1,left
9.09,0.8672963966507428,0.8382813694640632,0.25073895342994873,-2.846885509621628,2.661812245599573,-1.6423671274960407,-1.050812651321574,0.5729003600841549,1.9812235097584454,1,left
9.093,0.8758669091561799,0.8313693647319141,0.2544128537554404,-2.806748624889049,2.700063160674482,-1.65821056591039,-1.063709289366099,0.5709207622018528,1.9861640818798336,1,left
9.094,0.8842699414532004,0.8241562809614993,0.2581185345833392,-2.764916903938799,2.7381464602038807,-1.6735000124706385,-1.0764163547844567,0.568793901915053,1.9905450075860978,1,left
9.097999999999999,0.8924967018076633,0.8166441243511557,0.2618544690003233,-2.7214127999408815,2.7760234198056097,-1.6882227030932537,-1.0889183827702884,0.5665206083987974,1.994353540779443,1,left
9.097999999999999,0.900538438004206,0.8088353439942112,0.2656190712824134,-2.676259840699956,2.8136542841314705,-1.702366293885706,-1.1011997574804961,0.5641017624301398,1.9975770624468148,1,left
9.103,0.9083864574268826,0.8007328210009543,0.2694106957498472,-2.6294826301459087,2.8509982721031055,-1.7159188646409387,-1.1132447217370416,0.5615383036283251,2.0002030981323617,1,left
9.104,0.9160321479097885,0.7923398582441263,0.2732276354399321,-2.581106848707154,2.888013583345625,-1.7288689214001771,-1.1250373871891062,0.5588312383511348,2.0022193362548157,1,left
9.107999999999999,0.9234669992571121,0.7836601709651935,0.2770681205613067,-2.531159252437001,2.9246574059270105,-1.741205398124683,-1.1365617449708634,0.5559816482404497,2.003613647279015,1,left
9.109,0.9306826252951456,0.7746978784236049,0.280930316712077,-2.47966767075876,2.96088592551047,-1.7529176575153607,-1.1478016768894288,0.552990699409671,2.0043741037490945,1,left
9.113,0.9376707862898204,0.7654574967013434,0.2848123228645339,-2.4266610026906856,2.9966543360260007,-1.7639954910173952,-1.158740967176833,0.5498596522652224,2.004489001189107,1,left
9.113999999999999,0.9444234115445876,0.7559439326938275,0.28871216913751235,-2.3721692114073183,3.0319168519663244,-1.774429118045336,-1.1693633148390856,0.5465898719539506,2.00394687987505,1,left
9.117,0.950932621983682,0.7461624792302404,0.29262781439789504,-2.316223316989374,3.066626722411175,-1.7842091844622538,-1.1796523466345898,0.5431828394278368,2.0027365474804677,1,left
9.118,0.9571907525215686,0.7361188111779917,0.2965571437582682,-2.2588553872099677,3.100736246882592,-1.7933267603447716,-1.189591630713292,0.539640163117024,2.0008471025959214,1,left
9.123,0.9631903740206041,0.72581898231108,0.30049796606106377,-2.2000985262007013,3.134196793132428,-1.8017733370639208,-1.1991646909348017,0.5359635911770396,1.9982679590900732,1,left
9.124,0.9689243146543297,0.7152694226849162,0.3044480114461969,-2.1399868608369608,3.166958816961662,-1.8095408237099029,-1.2083550218215038,0.5321550241520353,1.9949888711247317,1,left
9.125,0.9743856805245904,0.704476936265332,0.3084049290854925,-2.0785555246776988,3.198971884169421,-1.816621542886927,-1.21714610399144,0.5282165276728823,1.9909999583580897,1,left
9.128,0.979567875405089,0.6934486985689603,0.3123662851467745,-2.015840639377963,3.2301846947417068,-1.8230082259136442,-1.2255214198534339,0.5241503446849171,1.986291730714939,1,left
9.129,0.9844646194911834,0.6821922540645706,0.3163295610344637,-1.951879293923475,3.2605451094577798,-1.8286940075190992,-1.2334644694070804,0.5199589068234131,1.9808551122540896,1,left
9.13,0.9890699670444034,0.6707155130868449,0.32029215193848937,-1.8867095228156499,3.290000179215928,-1.8336724202235921,-1.2409587860993263,0.5156448447770761,1.9746814639373809,1,left
9.134,0.9933783228339247,0.6590267480264643,0.32425136570637564,-1.8203702847666723,3.318496177447997,-1.8379373886482018,-1.2479879527494104,0.5112109976031532,1.967762605256048,1,left
9.135,0.9973844572812679,0.6471345885563068,0.3282044220417045,-1.7529014430257588,3.3459786359196433,-1.8414832239383536,-1.2545356175649525,0.5066604209821214,1.9600908346988108,1,left
9.137,1.0010835202169102,0.6350480156495927,0.3321484520347894,-1.68434374767138,3.372392384084769,-1.8443046183833514,-1.2605855102706802,0.5019963943995676,1.951658949043931,1,left
9.137,1.0044710531756527,0.6227763541742847,0.3360804980499444,-1.6147388197659467,3.3976815920898638,-1.8463966402553764,-1.2661214583699545,0.497222427242531,1.9424602614553417,1,left
9.141,1.0075430001893457,0.6103292639023972,0.3399975140187407,-1.5441291371792218,3.421789817507091,-1.847754728878136,-1.2711274035578661,0.4923422637972408,1.9324886183608017,1,left
9.142000000000001,1.0102957170700593,0.5977167288322391,0.3438963662062366,-1.4725580218836005,3.4446600558718723,-1.8483746899332514,-1.2755874183032503,0.487359887134859,1.92173841508783,1,left
9.147,1.0127259792058865,0.5849490447811441,0.3477738345227143,-1.400069628521396,3.4662347950975048,-1.8482526910103856,-1.2794857226154857,0.4822795218715224,1.9102046102309898,1,left
9.149,1.0148309879096327,0.5720368052712584,0.35162661445378046,-1.3267089340413816,3.4864560738359383,-1.8473852574050054,-1.2828067010104267,0.47710563578867177,1.8978827387218558,1,left
9.152000000000001,1.0166083753688617,0.5589908858028989,0.3554513196834161,-1.2525217281990766,3.505265543850292,-1.8457692681655486,-1.2855349196882448,0.4718429402993655,1.8847689235707763,1,left
9.152999999999999,1.0180562082525968,0.5458224266787624,0.35924448548625704,-1.1775546047126348,3.522604536460968,-1.8434019523896414,-1.2876551439343475,0.4664963897459924,1.870859886247289,1,left
9.156,1.0191729900418163,0.5325428145900757,0.3630025729603715,-1.1018549528636898,3.538414133123315,-1.8402808857668604,-1.289152355752878,0.4610711795145297,1.8561529556637775,1,left
9.157,1.0199576621657322,0.5191636631895836,0.36672197415344215,-1.025470949330134,3.5526352401907637,-1.8364039873633993,-1.2900117717406039,0.45557274295024053,1.8406460757246974,1,left
9.162,1.0204096040366653,0.5056967928573428,0.3703990181012652,-0.9484515500355754,3.5652086679131068,-1.8317695166418295,-1.2902188612072514,0.450006747059461,1.824337811401401,1,left
9.163,1.0205286320763562,0.49215420982833685,0.3740299777522983,-0.8708464817981122,3.576075213715219,-1.8263760707069863,-1.289759364546554,0.4443790869819041,1.8072273532903158,1,left
9.167,1.0203149978112585,0.478548084815167,0.37761107770431607,-0.7927062335590962,3.585175749796945,-1.8202225817668356,-1.288619311860454,0.43869587921769754,1.7893145206099184,1,left
9.168,1.0197693850840654,0.46489073123705005,0.38113850263888055,-0.7140820469707385,3.5924513150901363,-1.8133083147950118,-1.2867850418370217,0.43296345359317795,1.770599762589658,1,left
9.172,1.0188929063911378,0.4511945831596592,0.3846084063160409,-0.6350259061197272,3.597843211603941,-1.805632865379523,-1.2842432208807393,0.4271883439492884,1.751084158201673,1,left
9.172,1.017687098323171,0.4374721730541629,0.38801692098935986,-0.5555905261624903,3.6012931051843537,-1.797196157739949,-1.28098086249185,0.4213772775362657,1.7307694141838441,1,left
9.176,1.0161539160706567,0.4237361094917373,0.3913601671130536,-0.47582934064635046,3.602743130708803,-1.7879984428932663,-1.2769853468894694,0.41553716309816435,1.709657861300423,1,left
9.177999999999999,1.0142957269607955,0.4099990548956716,0.394634263227293,-0.3957964872895784,3.6021360017311443,-1.7780402969462545,-1.2722444408711318,0.4096750776306418,1.6877524487841766,1,left
9.18,1.0121153030157337,0.39627370347274027,0.39783533591840115,-0.31554679199226154,3.5994151245868293,-1.7673226194902425,-1.2667463178993719,0.4037982517953253,1.6650567369016958,1,left
9.181000000000001,1.0096158125566344,0.3825727594379372,0.4009595297580634,-0.23513575084897428,3.594524716962314,-1.7558466320717756,-1.2604795784038363,0.3979140539739988,1.641574887581223,1,left
9.187000000000001,1.006800810916014,0.3689089156348172,0.40400301713295517,-0.1546195099334527,3.5874099309268246,-1.7436138767106006,-1.253433270285282,0.3920299729457858,1.6173116530400815,1,left
9.187999999999999,1.0036742303544741,0.35529483264196604,0.4069620078854056,-0.07405484262485902,3.578016980418553,-1.7306262144341795,-1.2455969096056407,0.3861535991704605,1.5922723623465151,1,left
9.191,1.0002403692998745,0.34174311844531147,0.4098327586961185,0.006500875755243901,3.566293273171111,-1.7168858237957667,-1.2369605014370049,0.38029260469902876,1.5664629059081705,1,left
9.192,0.9965038810280701,0.3282663087408623,0.4126115821517827,0.08698969622638691,3.552187547059691,-1.7023951993409174,-1.2275145607945401,0.37445472192285695,1.5398897181756217,1,left
9.192,0.9924697618853934,0.31487684791197734,0.4152948554537988,0.16735312758447504,3.535650010839833,-1.687157149985117,-1.2172501334939823,0.36864772171490284,1.5125597593842333,1,left
9.196,0.9881433391332805,0.3015870707104021,0.41787902873492205,0.2475321711698042,3.5166324890939458,-1.671174797287232,-1.2061588167264647,0.362879391706783,1.4844804974538501,1,left
9.196,0.983530258486774,0.28840918466639404,0.4203606329566054,0.32746735889687023,3.495088570438559,-1.654451573722165,-1.194232779186712,0.3571575152553406,1.4556598908652083,1,left
9.197000000000001,0.9786364714101623,0.27535525325069576,0.42273628736659524,0.40709879402160315,3.470973756678715,-1.6369912212714441,-1.1814647806703658,0.3514898513102149,1.4261063727926604,1,left
9.203,0.9734682222199822,0.26243717980800974,0.42500270650540106,0.48636619386942836,3.444245609833462,-1.6187977907691826,-1.1678481910994443,0.34588411520388707,1.3958288364722442,1,left
9.204,0.9680320350368403,0.24966669228565613,0.42715670675757633,0.5652089339985557,3.41486389470448,-1.5998756423178768,-1.1533770089416597,0.34034796034778064,1.3648366217223242,1,left
9.205,0.9623347006203024,0.23705532878831492,0.4291952124491339,0.6435660937250851,3.3827907160120785,-1.5802294468688938,-1.1380458789868986,0.3348889608181514,1.3331395025319226,1,left
9.206,0.9563832631058987,0.22461442399035317,0.4311152614988735,0.7213765031871733,3.347990649870634,-1.5598641889395581,-1.1218501094417357,0.32951459481568013,1.300747675629779,1,left
9.21,0.950185006641389,0.21235509643093012,0.4329140106401281,0.7985787921746228,3.3104308695189806,-1.5387851704124935,-1.1047856883004006,0.32423222898288023,1.2676717499451324,1,left
9.211,0.9437474418992514,0.20028823670859228,0.43458874023942456,0.8751114409488621,3.270081265213535,-1.5169980153607872,-1.0868492989481422,0.3190491035636542,1.233922736869186,1,left
