time,gFx,gFy,gFz,ax,ay,az,wx,wy,wz,subject_number,foot
0.9440000000000001,0.2560186226428466,0.9715162527034824,0.037655617057039265,-0.06404863630819918,0.04332076438776526,-0.03398054840178128,0.06656421088020345,-0.18530479558898505,0.12121562999148511,1,left
0.9490000000000001,0.2572888908971867,0.9710692074069371,0.03777072110665727,-0.07199543578035612,0.04751130294980273,-0.041613881337934526,0.06526931831328509,-0.18715280939488868,0.12188510840393905,1,left
0.9490000000000001,0.25856639456665115,0.9706176971392647,0.037891645984948465,-0.07982233563643922,0.05163733276933007,-0.04919119351459833,0.06395732313981628,-0.18899428634951504,0.12256173960279505,1,left
0.953,0.25984921740199785,0.9701626254271778,0.03801709703963732,-0.08751808804460577,0.055693797120140186,-0.0567044385128741,0.0626293022117174,-0.1908274569183261,0.12324481323634533,1,left
0.953,0.2611354209909833,0.9697049064320679,0.03814576633198519,-0.09507153995634744,0.059675702794303204,-0.06414563977212441,0.06128633456018215,-0.1926505428799013,0.12393361773599124,1,left
0.96,0.2624230480211834,0.969245463604329,0.03827633497509107,-0.10247164800823631,0.06357812839610986,-0.07150689998767808,0.0599294992985427,-0.1944617587837978,0.12462744217393024,1,left
0.96,0.26371012545664596,0.9687852283702995,0.03840747547390933,-0.1097074941671672,0.06739623271167666,-0.07878041103726298,0.05855987348985229,-0.19625931340588254,0.12532557815574405,1,left
0.9620000000000001,0.26499466762314794,0.9683251388565282,0.0385378540678806,-0.11676830214077115,0.07112526316564105,-0.08595846445752636,0.05717852997532945,-0.19804141120636934,0.12602732174986514,1,left
0.963,0.26627467920074077,0.9678661386542314,0.038666133077158736,-0.12364345457423553,0.07476056437614698,-0.09303346249177266,0.05578653515976844,-0.1998062537957604,0.1267319754559133,1,left
0.9690000000000001,0.2675481581258469,0.9674091756242352,0.0387909732551013,-0.13032251105429407,0.07829758681907883,-0.09999792972979711,0.0543849467499836,-0.20155204141385197,0.12743885021390622,1,left
0.9690000000000001,0.26881309840861245,0.966955200739777,0.038911036151295875,-0.13679522694064766,0.08173189561224649,-0.10684452536041933,0.052974811442321676,-0.20327697442692036,0.12814726745635857,1,left
0.972,0.27006749287396875,0.9665051669608871,0.03902498648946029,-0.14305157304454413,0.08505917942995454,-0.11356605605702551,0.05155716255524556,-0.20497925484815382,0.12885656120529254,1,left
0.972,0.2713093358360909,0.9660600281300027,0.03913149456325668,-0.14908175617368172,0.08827525955810749,-0.1201554895161104,0.0501330176029654,-0.20665708788634188,0.12956608021618868,1,left
0.977,0.27253662571498505,0.9656207378751241,0.03922923865192808,-0.15487624056200955,0.09137609909970718,-0.12660596866847207,0.04870337580606824,-0.20830868352777313,0.13027519017091088,1,left
0.978,0.2737473676015607,0.9651882485052219,0.03931690745786385,-0.1604257702023764,0.09435781234029204,-0.13291082658235334,0.04726921553507584,-0.2099322581562285,0.13098327592164188,1,left
0.982,0.27493957577597583,0.964763509883102,0.03939320256953925,-0.16572139209933054,0.09721667428254835,-0.13906360207744498,0.0458314916828418,-0.21152603621588564,0.13168974378786588,1,left
0.983,0.27611127618437004,0.9643474682628008,0.0394568409546406,-0.17075448045869676,0.09994913035899289,-0.14505805606826663,0.044391132961682934,-0.21308825192187503,0.13239402390843427,1,left
0.986,0.27726050888035936,0.9639410650804199,0.03950655748816311,-0.17551676182985337,0.10255180633128491,-0.1508881886550241,0.042949039121127144,-0.21461715102314846,0.1330955726507472,1,left
0.987,0.2783853304387663,0.9635452356886898,0.0395411075187725,-0.1800003412159038,0.10502151838437236,-0.15654825697960428,0.041506078086498956,-0.21611099261986447,0.13379387507585644,1,left
0.988,0.27948381634944464,0.9631609080271232,0.03955926947507387,-0.18419772916618365,0.10735528342331453,-0.16203279386391584,0.04006308304030398,-0.2175680510255547,0.13448844744217447,1,left
0.993,0.28055406339892724,0.96278900122158,0.03955984751197723,-0.1881018698647669,0.10955032958025142,-0.16733662724731124,0.03862084950751384,-0.21898661764290964,0.13517883970146147,1,left
0.9940000000000001,0.2815941920483834,0.9624304241089143,0.03954167419557766,-0.1917061701783166,0.1116041069225702,-0.17245490040235673,0.03718013252759805,-0.22036500281007068,0.13586463792463793,1,left
0.995,0.28260234881821517,0.9620860736839552,0.03950361322317928,-0.1950045293782101,0.11351429827273923,-0.17738309272280262,0.035741643974401806,-0.22170153758606162,0.136545466611075,1,left
0.997,0.2835767086901742,0.9617568334680621,0.03944456217350228,-0.19799136880535953,0.11527882990554127,-0.18211704054425076,0.03430605004582497,-0.22299457546521007,0.13722099086400744,1,left
0.997,0.2845154775357813,0.9614435718018163,0.039363455279616454,-0.2006616604976931,0.11689588180784191,-0.1866529572725737,0.03287396892351469,-0.22424249402214524,0.13789091843081586,1,left
1.003,0.28541689457650465,0.9611471400689152,0.03925926621283273,-0.2030109540469798,0.1183638972658075,-0.19098745227950456,0.03144596859844053,-0.22544369649120843,0.1385550016101332,1,left
1.004,0.2862792348780336,0.9608683708625713,0.0391310108601397,-0.20503540139645451,0.11968159168840987,-0.19511754835709766,0.030022564858229413,-0.22659661328398667,0.13921303902771584,1,left
1.006,0.287100811877984,0.9606080761086951,0.03897775007161795,-0.20673177953738595,0.12084796065582214,-0.19904069770710017,0.02860421943214767,-0.22769970344855153,0.13986487728300281,1,left
1.0070000000000001,0.28787997994343084,0.9603670451618941,0.038798592348987596,-0.20809751111132835,0.12186228719691976,-0.20275479647768088,0.027191338289628955,-0.22875145607385006,0.14051041246827073,1,left
1.011,0.28861513695287794,0.9601460428906047,0.038592696444754715,-0.2091306829238657,0.12272414829967038,-0.2062581978593752,0.025784270088260043,-0.22975039164255673,0.1411495915622743,1,left
1.012,0.2893047268971926,0.9599458077664479,0.03835927384522012,-0.20983006237471596,0.12343342065776135,-0.2095497237515117,0.024383304767150754,-0.23069506333555223,0.14178241370024508,1,left
1.016,0.2899472424943971,0.9597670499705625,0.03809759111848877,-0.21019511180811482,0.12399028565637793,-0.21262867500978697,0.02298867228163002,-0.23158405829104672,0.1424089313221021,1,left
1.0170000000000001,0.290541227812458,0.9596104495263429,0.03780697211670196,-0.21022600078644416,0.12439523359960801,-0.2154948402850497,0.021600541475226515,-0.23241599882121486,0.14302925120071155,1,left
1.021,0.2910852808918356,0.9594766544641286,0.0374868000266717,-0.20992361628911313,0.12464906718151117,-0.21814850346274894,0.020219019084909796,-0.2331895435890528,0.1436435353520128,1,left
1.021,0.2915780563561509,0.9593662790205004,0.0371365192637831,-0.20928957083774116,0.12475290420245269,-0.22059044971189049,0.01884414887558589,-0.23390338874800837,0.14425200182881093,1,left
1.026,0.29201826799660574,0.9592799018742652,0.03675563720177069,-0.20832620854773368,0.1247081795318678,-0.2228219701517362,0.017475910899859816,-0.234556269046771,0.1448549254000186,1,left
1.026,0.29240469131550156,0.9592180644228565,0.0363437257289462,-0.20703660910538466,0.1245166463181877,-0.22484486514387078,0.016114220879096395,-0.23514695890144144,0.14545263811711162,1,left
1.031,0.2927361660165307,0.9591812691052701,0.03590042262182686,-0.2054245896686905,0.1241803764462286,-0.22666144621665457,0.014758929701829685,-0.23567427343712882,0.1460455297695475,1,left
1.032,0.2930115984326304,0.9591699777789647,0.035425432729938484,-0.20349470468911357,0.12370176024191946,-0.22827453662847577,0.01340982303559027,-0.23613706950084815,0.1466340482308793,1,left
1.037,0.2932299638834667,0.9591846101576422,0.03491852897151611,-0.20125224365059957,0.12308350542382213,-0.22968747057561936,0.01206662104823829,-0.23653424664741224,0.14721869969728296,1,left
1.038,0.2933903089532365,0.9592255423153693,0.034379553149241654,-0.1987032267212273,0.12232863530048337,-0.23090409104997647,0.010728978234908367,-0.23686474809983102,0.1478000488202019,1,left
1.04,0.2934917536776245,0.9592931052614599,0.03380841660363155,-0.19585439831195844,0.1214404862122497,-0.23192874635123623,0.009396483346690222,-0.23712756168554475,0.14837871873480135,1,left
1.041,0.29353349362824566,0.9593875835898777,0.0332051007228347,-0.1927132185360579,0.12042270421577525,-0.23276628525762627,0.008068659417185556,-0.23732172074963012,0.1489553909859123,1,left
1.046,0.2935148018826156,0.9595092142056858,0.03256965732154822,-0.18928785256187688,0.11927924100906147,-0.23342205085870738,0.006744963883097609,-0.23744630504592668,0.149530805353137,1,left
1.046,0.2934350308668415,0.9596581851290679,0.031902208895337035,-0.1855871578508309,0.11801434909448505,-0.23390187305317567,0.005424788795024501,-0.23750044160683625,0.15010575957678013,1,left
1.05,0.2932936140587316,0.9598346343755209,0.031202948754796313,-0.18162066927156656,0.11663257617689873,-0.23421205971409007,0.004107461114640669,-0.23748330559235117,0.15068110898626275,1,left
1.051,0.29309006754194517,0.9600386489096352,0.030472141045999532,-0.17739858208049583,0.11513875879352932,-0.23435938652342103,0.002792243094462474,-0.23739412111866715,0.1512577660326751,1,left
1.055,0.2928239914054494,0.9602702636693626,0.02971012066660864,-0.1729317327580871,0.11353801517204908,-0.2343510854773132,0.001478332736404028,-0.23723216206653516,0.15183669972712086,1,left
1.056,0.29249507098567723,0.9605294606578302,0.028917293088565357,-0.16823157768954064,0.11183573731286128,-0.23419483206296723,0.00016486432700708393,-0.23699675286914826,0.15241893498631515,1,left
1.057,0.29210307795143636,0.9608161681007201,0.028094134097384392,-0.16331016967774298,0.11003758229131978,-0.23389873110757972,-0.0011490909444163465,-0.23668726927838976,0.15300555188593645,1,left
1.061,0.29164787123284386,0.9611302596686955,0.027241189455398634,-0.15818013231650746,0.10814946278642296,-0.2334713013159417,-0.0024645242634583784,-0.23630313910668738,0.153597684820503,1,left
1.062,0.2911293977947361,0.9614715537658362,0.02635907449359227,-0.15285463245551678,0.10617753689786816,-0.23292145859591284,-0.0037824883344863653,-0.2358438429407433,0.1541965215675882,1,left
1.062,0.29054769325437946,0.9618398128863314,0.02544847363480683,-0.1473473513550855,0.10412819741322411,-0.2322584984200578,-0.005104096369440867,-0.23530891482396027,0.1548033022551672,1,left
1.065,0.28990288234523937,0.9622347430428715,0.024510139849870546,-0.14167245533233888,0.10200806074235753,-0.23149207755439732,-0.006430520915322966,-0.23469794290554402,0.1554193182326408,1,left
1.065,0.28919517923204763,0.9626559932714935,0.02354489404729191,-0.1358445664957676,0.09982395568037321,-0.230632195401833,-0.0077629925224897344,-0.23401057005480821,0.15604591084706618,1,left
1.071,0.28842488768461705,0.9631031552189416,0.022553624395923,-0.1298787337972592,0.0975829120599588,-0.22968917505801098,-0.00910279825755697,-0.23324649443914514,0.15668447012634043,1,left
1.071,0.28759240111747614,0.9635757628198418,0.021537285577324226,-0.12379040442615129,0.09529214929818562,-0.228673644094052,-0.010451280064722353,-0.23240547006390558,0.15733643337110942,1,left
1.075,0.2866982025001489,0.9640732920725649,0.020496897960346473,-0.11759539552859632,0.09295906483150658,-0.2275965150636997,-0.011809832979339607,-0.23148730727221295,0.15800328365720534,1,left
1.0759999999999998,0.2857428641399485,0.9645951609245101,0.01943354668627825,-0.11130986623513316,0.09059122243252828,-0.22646896573220116,-0.013179903197595464,-0.23049187320251602,0.15868654825044973,1,left
1.083,0.28472704733610227,0.9651407292784044,0.018348380650952963,-0.10495028997900914,0.08819634040199312,-0.22530241902402587,-0.014562986006166283,-0.2294190922014638,0.1593877969356989,1,left
1.083,0.2836515019018002,0.9657092991300268,0.017242611370963837,-0.09853342708749131,0.08578227962928497,-0.2241085226863529,-0.01596062357576017,-0.2282689461894647,0.16010864026205027,1,left
1.084,0.282517065550751,0.9663001148446658,0.01611751172311948,-0.0920762976281453,0.08335703151467308,-0.22289912866511138,-0.017374402622483683,-0.22704147497607005,0.1608507277061757,1,left
1.085,0.2813246631470214,0.9669123635748613,0.014974414549033959,-0.08559615449184838,0.08092870574643093,-0.22168627219024864,-0.018805951941009688,-0.22573677652210064,0.16161574575580032,1,left
1.091,0.2800753058196811,0.9675451758162645,0.013814711121085054,-0.07911045669413999,0.07850551792591275,-0.22048215056682163,-0.020256939813564783,-0.22435500714521137,0.16240541591540078,1,left
1.091,0.27877008994624425,0.9681976260937386,0.012639849470869862,-0.07263684287639681,0.07609577703363775,-0.2192991016684634,-0.021729071298801254,-0.2228963816653689,0.1632214926362584,1,left
1.094,0.27741019601167033,0.968868733767569,0.011451332585279762,-0.06619310498825433,0.07370787272942401,-0.21814958212976632,-0.023224085404669578,-0.22136117348649392,0.16406576117306879,1,left
1.094,0.2759968873526816,0.9695574639494186,0.010250716479120292,-0.05979716213268141,0.07135026247962865,-0.21704614523415006,-0.02474375214946347,-0.21974971461029974,0.16494003536938015,1,left
1.099,0.2745315087994194,0.9702627285181218,0.009039608156363043,-0.05346703455514909,0.06903145850458975,-0.21600141849384172,-0.02628986951527025,-0.21806239557813722,0.1658461553742085,1,left
1.099,0.27301548522791913,0.9709833872256965,0.007819663472153791,-0.047220817758421026,0.06676001453942863,-0.21502808091869377,-0.027864260298125117,-0.21629966533643596,0.16678598529225885,1,left
1.104,0.27145032003785413,0.9717182488846365,0.006592584905148385,-0.041076656724630546,0.06454451240145787,-0.2141388399706967,-0.0294687688592388,-0.21446203102111416,0.1677614107702683,1,left
1.105,0.2698375935697448,0.9724660726295647,0.005360119247796702,-0.03505272022649861,0.06239354835755208,-0.2133464082012123,-0.031105257781744132,-0.21255005765611065,0.16877433652207782,1,left
1.109,0.26817896147446413,0.9732255692489459,0.0041240552216310275,-0.029167175209788,0.06031571928497504,-0.21266347956815956,-0.032775604437488254,-0.210564367760976,0.16982668379513657,1,left
1.11,0.2664761530474777,0.9739954025842178,0.002886221023742035,-0.023438161229382314,0.05831960861931673,-0.21210270543062484,-0.03448169746848383,-0.2085056408622452,0.17092038778124538,1,left
1.115,0.2647309695416234,0.9747741909938603,0.001648481808706923,-0.01788376492172373,0.056413772083379936,-0.21167667021864814,-0.036225433187724525,-0.20637461290310052,0.17205739497445274,1,left
1.1159999999999999,0.26294528247324067,0.9755605088790679,0.00041273710897619514,-0.012521994496741011,0.054606723191065715,-0.2113978667762504,-0.03800871190416725,-0.20417207554562172,0.1732396604791315,1,left
1.119,0.26112103193492225,0.9763528882668142,-0.0008190818016814917,-0.007370754232848793,0.05290691852054187,-0.21127867137611808,-0.03983343417678639,-0.20189887535971118,0.1744691452713817,1,left
1.119,0.2592602249240541,0.9771498204458083,-0.0020450145936248575,-0.002447818959100608,0.051322742751237854,-0.2113313184047483,-0.04170149700271346,-0.1995559128925734,0.17574781341703,1,left
1.123,0.2573649336910361,0.9779497576513257,-0.003263074606236065,0.0022291914908687083,0.04986249345949308,-0.21156787471727978,-0.043614789944988575,-0.1971441416164591,0.17707762924998594,1,left
1.124,0.2554372941060446,0.9787511147964469,-0.0044712516051951135,0.0066428378678710905,0.04853436566799369,-0.2120002136616938,-0.04557519120756681,-0.1946645667723568,0.1784605545166451,1,left
1.124,0.2534795040393329,0.979552271249231,-0.005667514568607372,0.01077588715326813,0.047346436144464654,-0.21263998877256257,-0.04758456366894212,-0.19211824416343334,0.17989854549540382,1,left
1.128,0.2514938217475375,0.9803515726564059,-0.006849814500474254,0.014611338261748928,0.0463066474558312,-0.21349860715514962,-0.04964475088787925,-0.18950627897200242,0.181393550102291,1,left
1.129,0.24948256425682197,0.9811473328142789,-0.008016087271000956,0.018132447730636426,0.04542279183639892,-0.21458720268173126,-0.05175757309288157,-0.1868298246534296,0.1829475049920808,1,left
1.129,0.24744810573281287,0.9819378355881351,-0.009164256485328587,0.021322755200587268,0.0447024950225253,-0.21591660930350298,-0.05392482316356818,-0.18409008192387363,0.18456233266117578,1,left
1.133,0.24539287582654706,0.9827213368834231,-0.010292236385958912,0.024166108422705418,0.04415320025863666,-0.21749733488256506,-0.05614826261028198,-0.1812882978383978,0.1862399385569185,1,left
1.1340000000000001,0.24331935798323873,0.9834960666753194,-0.011397934797639904,0.026646687595177795,0.04378215262793613,-0.21933953584864027,-0.058429617558002314,-0.17842576495176518,0.18798220819779998,1,left
1.139,0.24123008769664742,0.9842602311062627,-0.012479256124622284,0.02874902895577343,0.043596383768096825,-0.2214529928049662,-0.06077057474079172,-0.17550382055405034,0.1897910043092076,1,left
1.139,0.2391276506891082,0.9850120146618895,-0.013534104408788088,0.030458047624542205,0.04360269698076894,-0.22384708710802495,-0.06317277751316804,-0.17252384597302134,0.1916681639795366,1,left
1.1440000000000001,0.23701468099708414,0.9857495824345174,-0.014560386455261464,0.03175905970380591,0.043807652733850115,-0.226530778426424,-0.06563782188495901,-0.1694872659350712,0.19361549584167378,1,left
1.1440000000000001,0.23489385894238343,0.986471082481437,-0.01555601503121587,0.032637803641448554,0.044217554555999974,-0.22951258328501942,-0.0681672525863681,-0.16639554797630848,0.19563477728505352,1,left
1.148,0.2327679089691019,0.9871746482832863,-0.016518912142600227,0.03308046086238392,0.0448384353234311,-0.23280055460117832,-0.07076255917015568,-0.16325020189524894,0.19772775170368243,1,left
1.148,0.2306395973273528,0.9878584013056041,-0.017447012390910798,0.03307367567190704,0.045676043939578845,-0.2364022622209086,-0.07342517215802037,-0.16005277923838832,0.19989612578573135,1,left
1.1540000000000001,0.2285117295866237,0.9885204536648674,-0.018338266408461135,0.032604574433424315,0.0467358324088405,-0.2403247744634392,-0.07615645923845021,-0.1568048728097777,0.2021415668504986,1,left
1.1540000000000001,0.22638714796237588,0.9891589108989298,-0.01919064436710155,0.031660784021805055,0.04802294330617975,-0.24457464068371268,-0.07895772152350224,-0.15350811619556912,0.20446570023876093,1,left
1.158,0.2242687284396921,0.989771874840026,-0.02000213955203478,0.03023044955230729,0.049542197645014496,-0.24915787486315183,-0.08183018987216241,-0.15016418329434963,0.20687010676274506,1,left
1.159,0.22215937767891553,0.9903574465866463,-0.020770771989162457,0.028302251383703552,0.05129808314644355,-0.25407994023998304,-0.08477502128813505,-0.1467747878439368,0.20935632022217374,1,left
1.163,0.2200620296907823,0.9909137295697781,-0.021494592112252124,0.025865421392869882,0.053294742913520106,-0.25934573499133806,-0.08779329540011169,-0.1433416829351684,0.21192582499306617,1,left
1.163,0.21797964227271016,0.9914388327090595,-0.022171684455809845,0.022909758516704667,0.05553596451494603,-0.2649595789803121,-0.09088601103277354,-0.13986666050308436,0.21458005369620367,1,left
1.168,0.2159151932034935,0.9919308736543354,-0.022800171360318065,0.019425643555814956,0.05802516948324023,-0.2709252015821288,-0.09405408287698964,-0.13635155078576713,0.21732038495240574,1,left
1.168,0.21387167619970926,0.9923879821081405,-0.023378216677918385,0.015404053232947912,0.060765403233124876,-0.2772457306045487,-0.09729833826788388,-0.13279822174098263,0.22014814123200155,1,left
1.173,0.2118520966429487,0.9928083032246849,-0.02390402946875143,0.010836573497655806,0.06375932540657561,-0.28392368231865617,-0.10061951407965676,-0.12920857841064234,0.22306458680612393,1,left
1.1740000000000002,0.2098594670925939,0.9931900010796187,-0.024375867680212507,0.005715412067166249,0.06700920065169277,-0.29096095261716903,-0.10401825374626546,-0.12558456222299302,0.22607092580770155,1,left
1.177,0.20789680260420168,0.9935312622018171,-0.024792041801465804,3.341019188654421e-05,0.07051688984327148,-0.29835880931843367,-0.10749510441728292,-0.12192815022233001,0.2291683004102753,1,left
1.178,0.20596711587759428,0.9938302991554792,-0.025150918483044453,-0.006215946367595768,0.07428384175367632,-0.30611788563529374,-0.11105051425847876,-0.11824135421592656,0.23235778913301977,1,left
1.182,0.20407341226056072,0.9940853541594062,-0.02545092410765832,-0.013038517166743318,0.07831108518336051,-0.3142381748290515,-0.11468482990688658,-0.11452621982777247,0.23564040528060817,1,left
1.183,0.20221868463474862,0.9942947027297822,-0.025690548295128235,-0.020439497722867177,0.08259922156110924,-0.3227190260697744,-0.11839829409034686,-0.11078482544862249,0.23901709552682143,1,left
1.187,0.20040590821140236,0.9944566573320079,-0.025868347322369648,-0.02842341099845835,0.08714841802483111,-0.331559141525238,-0.12219104342173975,-0.1070192810717676,0.2424887386510663,1,left
1.188,0.19863803526565046,0.9945695710266723,-0.025982947437927287,-0.0369940997416631,0.09195840099446788,-0.34075657470183035,-0.1260631063783489,-0.10323172700386113,0.24605614443723395,1,left
1.192,0.19691798983771625,0.9946318410956307,-0.02603304804898863,-0.04615471970517292,0.09702845024934173,-0.35030873006177776,-0.13001440147430401,-0.09942433244221535,0.24972005274073283,1,left
1.192,0.19524866242652666,0.9946419126362642,-0.026017424759061963,-0.055907733766473,0.10235739352300806,-0.36021236394208483,-0.13404473562067754,-0.09559929392070993,0.2534811327104549,1,left
1.193,0.19363290469581385,0.9945982821142433,-0.025934932239337294,-0.0662549069740774,0.10794360162942986,-0.3704635868016033,-0.1381538026435562,-0.0917588336458217,0.2573399821178868,1,left
1.197,0.19207352420891666,0.994499500866357,-0.025784506923982816,-0.07719730254607222,0.11378498413503656,-0.3810578668236639,-0.14234118191703615,-0.08790519775502396,0.2612971267265087,1,left
1.198,0.19057327921009293,0.9943441785449769,-0.025565169523992674,-0.0887352788489883,0.11987898559197178,-0.39199003490271367,-0.14660633708191725,-0.08404065451895706,0.2653530196542489,1,left
1.198,0.18913487347397887,0.994130986495655,-0.025276027354041088,-0.10086848737053099,0.12622258234743353,-0.4032542910253078,-0.15094861484557906,-0.0801674924892969,0.2695080407168649,1,left
1.203,0.1877609512441949,0.9938586610605122,-0.02491627646441262,-0.11359587162040524,0.13281227993904118,-0.41484421196133775,-0.15536724387234638,-0.0762880185834146,0.2737624957597503,1,left
1.203,0.18645409227752244,0.9935260068023443,-0.02448520356763171,-0.12691566674938767,0.13964411107662758,-0.42675276001053564,-0.15986133377659573,-0.07240455609473072,0.2781166159898211,1,left
1.207,0.18521680700866058,0.9931318996459969,-0.023982187746992355,-0.14082539959750862,0.14671363420586955,-0.43897229245479547,-0.16442987423107525,-0.06851944261764233,0.2825705573194167,1,left
1.208,0.1840515318545848,0.992675289932832,-0.023406701931216745,-0.1553218889649098,0.15401593265557761,-0.451494571463238,-0.16907173420312974,-0.06463502787588313,0.28712439973443943,1,left
1.2109999999999999,0.1829606246812782,0.992155205381753,-0.022758314117323288,-0.17040124604643933,0.1615456143814199,-0.4643107743696716,-0.17378566133173878,-0.060753671443165666,0.2917781466992402,1,left
1.212,0.18194636045465987,0.9915707539489604,-0.022036688325580048,-0.18605887505373653,0.16929681232523877,-0.4774115043384442,-0.17857028145848997,-0.056877740344949766,0.29653172461104593,1,left
1.216,0.18101092709326802,0.9909211265791342,-0.021241585277860207,-0.20228947406644296,0.17726318541092637,-0.49078680145464115,-0.18342409832581905,-0.05300960653018329,0.3013849823170105,1,left
1.217,0.18015642153507588,0.9902055998416944,-0.02037286280165231,-0.21908703615584843,0.18543792019847657,-0.5044261542754264,-0.1883454934560563,-0.04915164420187029,0.30633769070725814,1,left
1.2209999999999999,0.17938484602543453,0.9894235384465521,-0.01943047597165619,-0.23644485082594124,0.19381373321846748,-0.5183185118801388,-0.19333272622502062,-0.045306226995337165,0.3113895423975748,1,left
1.2209999999999999,0.1786981046277774,0.9885743976343566,-0.018414477006080236,-0.2543555058184753,0.2023828740098445,-0.5324522964575467,-0.19838393414410116,-0.041475724993089706,0.3165401515156893,1,left
1.227,0.17809799995345993,0.9876577254361578,-0.01732501493585031,-0.2728108893302953,0.21113712888447247,-0.5468154164694179,-0.20349713336496145,-0.03766250156518348,0.3217890536053703,1,left
1.227,0.17758623010184735,0.9866731647972586,-0.01616233506381369,-0.2918021926927676,0.22006782544250172,-0.56139528043029,-0.20867021942118838,-0.03386891002406551,0.3271357056628523,1,left
1.2309999999999999,0.1771643857975322,0.9856204555613161,-0.01492677822854783,-0.3113199135647521,0.22916583786314682,-0.5761788113440163,-0.2139009682213929,-0.03009729008288852,0.3325794863203857,1,left
1.232,0.1768339477105364,0.9844994363126817,-0.01361877988397246,-0.33135385969211417,0.238421592996008,-0.5911524618383234,-0.2191870373084463,-0.026349964106348378,0.3381196961919872,1,left
1.237,0.17659628394931884,0.983310046075709,-0.012238869002337623,-0.3518931532883124,0.2478250772785721,-0.6063022300392346,-0.22452596739970868,-0.022629233143151777,0.3437555583967507,1,left
1.237,0.17645264772549613,0.9820523258693832,-0.010787666805379032,-0.3729262360921091,0.25736584450600675,-0.6216136762278003,-0.22991518422327065,-0.018937372729284363,0.34948621927535395,1,left
1.2409999999999999,0.17640417520020238,0.9807264201148572,-0.009265885329000838,-0.394440875159934,0.2670330244798175,-0.6370719403221203,-0.2353520006653888,-0.01527662845131911,0.3553107493156758,1,left
1.242,0.17645188352865268,0.9793325778922939,-0.007674325833345467,-0.4164241694518774,0.2768153325623577,-0.6526617602281478,-0.2408336192444468,-0.011649211259081247,0.3612281443037125,1,left
1.246,0.17659666911749716,0.9778711540431893,-0.0060138770808579505,-0.43886255727171214,0.2867010801645759,-0.6683674911032287,-0.24635713492691755,-0.008057292517068814,0.3672373267162531,1,left
1.246,0.17683930610104956,0.9763426101165698,-0.004285513514400132,-0.4617418246227196,0.29667818619474906,-0.6841731255767513,-0.25191953830093955,-0.004502998784117238,0.37333714737204515,1,left
1.251,0.1771804450331269,0.9747475151601571,-0.002490293371296252,-0.4850471145424444,0.30673418949627634,-0.7000623149726584,-0.2575177191232479,-0.0009884063108920632,0.37952638735844624,1,left
1.252,0.17762061178569385,0.9730865463570806,-0.0006293567667537971,-0.508762937480806,0.31685626230290825,-0.7160183915789042,-0.26314847025532134,0.0024844647551042773,0.3858037602508225,1,left
1.256,0.1781602066460192,0.9713604895038768,0.0012960762266133684,-0.5328731827872611,0.32703122474004487,-0.7320243920092283,-0.2688084920047182,0.005913656467217673,0.3921679146422143,1,left
1.256,0.17879950360949273,0.9695702393188449,0.0032847074854491748,-0.5573611313739341,0.3372455604009642,-0.7480630817028543,-0.2744943968876754,0.00929727949011169,0.39861743700104657,1,left
1.26,0.17953864987123916,0.967716799565227,0.005335162721326839,-0.5822094696228087,0.34748543302703067,-0.7641169806079152,-0.2802027148189426,0.012633519821174867,0.4051508548652863,1,left
1.261,0.1803776655225819,0.9658012829733704,0.007445993348132781,-0.6074003046062093,0.35773670432108323,-0.7801683900945491,-0.2859298986839129,0.015920645761801425,0.4117666403335568,1,left
1.261,0.18131644345844458,0.9638249109484098,0.009615678340252764,-0.6329151806908794,0.3679849529233177,-0.7961994211437018,-0.2916723301564046,0.019157014970982624,0.4184632137273114,1,left
1.265,0.18235474950109956,0.9617890130520228,0.011842626094687732,-0.6587350975970037,0.37821549457904863,-0.8121920238577192,-0.29742632557452064,0.02234108137441709,0.4252389472502704,1,left
1.266,0.18349222274501598,0.9596950262481899,0.014125176314538645,-0.6848405299554255,0.38841340350751236,-0.8281280182996353,-0.3031881417380575,0.02547140176130052,0.4320921685196993,1,left
1.266,0.18472837612616844,0.9575444939053159,0.016461601934125818,-0.7112114482618808,0.39856353487957497,-0.8439891264721932,-0.30895398158276266,0.028546642007177003,0.4390211639309944,1,left
1.27,0.18606259721714058,0.9553390645505246,0.018850111105261372,-0.7378273408662832,0.4086505481298453,-0.8597570048950454,-0.3147199997377643,0.031565582920177256,0.4460241818654087,1,left
1.271,0.18749414924711652,0.9530804903754069,0.02128884926345539,-0.7646672364905547,0.4186589307273103,-0.8754132770426123,-0.32048230798271765,0.03452712571963348,0.45309943576060213,1,left
1.275,0.1890221723427501,0.9507706254953787,0.023775901296191237,-0.791709726914616,0.4285730221297596,-0.8909395651006664,-0.3262369806212222,0.0374302971559025,0.46024510706391647,1,left
1.276,0.19064568498263895,0.948411423966053,0.026309293841049214,-0.8189329897325183,0.43837703782939996,-0.9063175208519213,-0.33198005978706707,0.04027425428006759,0.4674593480884907,1,left
1.28,0.19236358565776274,0.9460049375591104,0.028886997745480085,-0.8463148112266987,0.44805509349811856,-0.9215288556963991,-0.3377075606998486,0.04305828887202435,0.4747402847925365,1,left
1.281,0.19417465473502332,0.9435533132981357,0.03150693072118746,-0.8738326094379988,0.457591229260844,-0.9365553698511402,-0.3434154768864836,0.045781831535289134,0.4820860195022985,1,left
1.284,0.19607755653050182,0.941058790753292,0.034166960224572857,-0.9014634575096029,0.46696943412513303,-0.9513789807733901,-0.34909978538510833,0.04844445546669827,0.48949463359941925,1,left
1.285,0.1980708416103632,0.9385236990935613,0.03686490659096406,-0.92918410738351,0.4761736705947524,-0.9659817508509253,-0.35475645194780775,0.051045879908994694,0.4969641901936215,1,left
1.29,0.20015294934628458,0.9359504538972376,0.03959854644476807,-0.9569710139285384,0.4851878994946155,-0.9803459144026443,-0.3603814362585638,0.05358597329412509,0.504492736801806,1,left
1.291,0.20232221075654114,0.9333415537250569,0.042365616399164426,-0.9848003595791937,0.49399610503398045,-0.9944539040319708,-0.36597069718274367,0.0560647560848959,0.512078308054843,1,left
1.295,0.20457685166496847,0.9306995764641938,0.04516381704621246,-1.0126480795649768,0.502582320134317,-1.008288376374979,-0.3715201980643691,0.05848240332246127,0.5197189284535123,1,left
1.295,0.20691499620973774,0.9280271754542417,0.04799081722321722,-1.0404898878099118,0.5109306520477023,-1.0218322372844697,-0.377025912087318,0.060839246886939626,0.5274126151952135,1,left
1.3,0.20933467073087877,0.9253270754084109,0.05084425852828682,-1.068301303582183,0.5190253082910151,-1.035068666490487,-0.3824838277165047,0.06313577747828071,0.5351573810932357,1,left
1.301,0.21183380805773377,0.922602068144623,0.053721760050126924,-1.0960576789738306,0.5268506229205606,-1.0479811417769818,-0.38788995423497347,0.06537264632432849,0.5429512376105299,1,left
1.304,0.2144102522056352,0.9198550081421516,0.056620923274121375,-1.1237342272904343,0.5343910831710736,-1.0605534627134936,-0.3932403273927135,0.06755066662285189,0.5507921980300827,1,left
1.305,0.21706176347701664,0.9170888079408877,0.05953933712709355,-1.1513060524306251,0.5416313564823204,-1.0727697739798396,-0.3985310151828641,0.06967081472414206,0.5586782807841364,1,left
1.31,0.2197860239472264,0.9143064334020875,0.06247458312535281,-1.1787481793351116,0.5485563179357464,-1.084614588320872,-0.4037581237608341,0.07173423106060374,0.5666075129646385,1,left
1.31,0.22258064330165672,0.9115108988503711,0.06542424059264561,-1.206035585584668,0.5551510781227981,-1.0960728091673837,-0.40891780352169527,0.07374222082959977,0.5745779340374442,1,left
1.3159999999999998,0.2254431649819582,0.908705262116682,0.06838589191354999,-1.233143234226246,0.561401011465685,-1.1071297529582251,-0.41400625535104146,0.07569625443564186,0.58258759978292,1,left
1.317,0.22837107259659054,0.9058926195020404,0.07135712778285122,-1.2600461079059826,0.5672917850104451,-1.1177711711976257,-0.4190197370643207,0.07759796769785796,0.590634586485724,1,left
1.319,0.2313617965524257,0.9030761006831948,0.07433555240562435,-1.2867192443874436,0.572809387711226,-1.1279832722806056,-0.42395457004945486,0.07944916182850789,0.5987169953966547,1,left
1.319,0.23441272086750448,0.9002588635839414,0.07731878859956107,-1.313137773532918,0.5779401602237051,-1.13775274311821,-0.42880714612735543,0.0812518031881643,0.6068329574895752,1,left
1.325,0.2375211901306864,0.8974440892392627,0.08030448274986254,-1.339276955825,0.5826708252245418,-1.1470667705931046,-0.4335739346447318,0.08300802282302566,0.6149806385365241,1,left
1.3259999999999998,0.24068451658071352,0.8946349766825622,0.08329030956469306,-1.365112222505025,0.5869885182726836,-1.1559130628748457,-0.4382514898133591,0.08472011578968378,0.6231582445242285,1,left
1.329,0.2438999872821871,0.8918347378878436,0.08627397657677027,-1.3906192174042025,0.5908808192272348,-1.164279870622856,-0.44283645829803664,0.08639054026821068,0.6313640274183988,1,left
1.33,0.24716487137922477,0.8890465927966629,0.08925322834058444,-1.4157738405424827,0.594335784235452,-1.17215600810384,-0.4473255869967124,0.0880219164427067,0.6395962911976203,1,left
1.331,0.2504764274108725,0.8862737644543582,0.0922258502869131,-1.440552293569322,0.5973419783032422,-1.1795308742490247,-0.45171573085067435,0.08961702508946205,0.6478533979263628,1,left
1.3330000000000002,0.2538319106731033,0.8835194742767298,0.0951896722089176,-1.464931127119571,0.5998885084593204,-1.1863944736752399,-0.45600386046393593,0.09117880579117478,0.6561337735520535,1,left
1.334,0.2572285806067955,0.8807869374697028,0.09814257136226039,-1.4888872901566972,0.6019650575229261,-1.1927374376924387,-0.4601870693691757,0.09271035471714642,0.6644359131958918,1,left
1.335,0.2606637081829015,0.8780793586245459,0.10108247517054168,-1.5123981812919758,0.6035619184485647,-1.198551045292647,-0.46426258088262545,0.09421492194813556,0.6727583858595348,1,left
1.338,0.2641345832527405,0.8753999275043237,0.10400736353994626,-1.5354417016546895,0.6046700290441932,-1.2038272439829705,-0.46822775454851695,0.09569590834604443,0.6810998385545088,1,left
1.339,0.2676385218338732,0.87275181502616,0.10691527079951481,-1.557996308144712,0.6052810065415998,-1.2085586700881943,-0.472080092185099,0.0971568619728453,0.6894589998781901,1,left
1.344,0.2711728733021552,0.8701381694334708,0.10980428729511432,-1.5800410654851285,0.6053871813206251,-1.2127386680161085,-0.47581724354392607,0.09860147406307627,0.6978346830602642,1,left
1.345,0.2747350274531927,0.8675621126435156,0.11267256067794967,-1.6015556959036585,0.6049816292631994,-1.216361308108029,-0.4794370115938051,0.10003357455416843,0.7062257885036209,1,left
1.349,0.278322421386691,0.8650267367484316,0.11551829693874284,-1.622520626012671,0.6040582025280561,-1.2194214029310255,-0.48293735744046107,0.10145712717880948,0.7146313058436975,1,left
1.35,0.2819325461605804,0.8625351006450349,0.11833976123992188,-1.6429170308685894,0.6026115587112656,-1.2219145219976753,-0.4863164048926543,0.10287622412350182,0.7230503155503274,1,left
1.3530000000000002,0.285562953158145,0.8600902267726753,0.12113527858884306,-1.6627268752724491,0.6006371883914141,-1.2238370049237366,-0.48957244468514116,0.10429508025743785,0.7314819900961996,1,left
1.354,0.28921126011013715,0.857695097948036,0.12390323438024095,-1.6819329523717907,0.5981314410567593,-1.2251859730325279,-0.4927039383685315,0.10571802693579069,0.7399255947160717,1,left
1.36,0.29287515671596426,0.855352654296637,0.12664207482305553,-1.7005189196224477,0.5950915494101997,-1.2259593394131598,-0.49570952187574613,0.10714950538150622,0.748380487780922,1,left
1.36,0.29655240981493786,0.8530657902880558,0.12935030726075428,-1.7184693321670992,0.5915156520463775,-1.2261558174381437,-0.4985880087744239,0.10859405964968148,0.7568461208112602,1,left
1.3630000000000002,0.30024086807184475,0.8508373518822784,0.13202650039731678,-1.735769673685721,0.5874028144937103,-1.2257749277442416,-0.5013383932142716,0.11005632917862718,0.7653220381538509,1,left
1.364,0.3039384661592497,0.8486701337884923,0.13466928445139764,-1.7524063847713032,0.582753048612616,-1.2248170036787798,-0.5039598525779899,0.11154104093173584,0.7738078763461383,1,left
1.368,0.30764322843677705,0.8465668768286242,0.13727735127237567,-1.7683668888823607,0.5775673303396538,-1.2232831952119891,-0.5064517498440395,0.11305300113431585,0.7823033631926918,1,left
1.369,0.3113532721402847,0.8445302653900081,0.13984945445686484,-1.7836396159219166,0.5718476157657689,-1.2211754713142764,-0.5088136356691491,0.11459708660960216,0.7908083165780176,1,left
1.3730000000000002,0.31506681009911497,0.8425629249474923,0.14238440949979111,-1.7982140234907131,0.5655968555352843,-1.2184966207956804,-0.5110452501980937,0.11617823571821886,0.7993226430401158,1,left
1.374,0.31878215299796037,0.8406674196360593,0.14488109400215274,-1.8120806158604856,0.5588190075507465,-1.2152502516031092,-0.5131465246079014,0.11780143890544814,0.8078463361291869,1,left
1.3769999999999998,0.3224977111945808,0.8388462498596911,0.14733844794346593,-1.8252309607111452,0.5515190479672021,-1.2114407885693093,-0.515117582393273,0.1194717288607516,0.8163794745759213,1,left
1.3780000000000001,0.3262119960995574,0.8371018499283046,0.1497554740161253,-1.8376577036737178,0.5437029804579525,-1.2070734696058796,-0.516958740399623,0.12119417029409692,0.8249222202938284,1,left
1.383,0.3299236211207499,0.8354365857191637,0.1521312380133499,-1.8493545807188614,0.5353778437323329,-1.2021543403310144,-0.5186705096097828,0.12297384933376397,0.8334748162400941,1,left
1.3840000000000001,0.33363130217331566,0.8338527523595538,0.15446486926093955,-1.860316428428718,0.5265517172845521,-1.1966902471210403,-0.5202535956900253,0.12481586255043947,0.8420375841594806,1,left
1.3869999999999998,0.337333857757779,0.8323525719227644,0.15675556108457991,-1.8705391921877885,0.517233725351158,-1.1906888285732178,-0.5217088993007036,0.12672530561255915,0.850610922235808,1,left
1.3869999999999998,0.34103020861483563,0.83093819112119,0.15900257130847745,-1.880019932326421,0.5074340390532288,-1.1841585053656876,-0.5230375161764218,0.12870726157802095,0.8591953026755899,1,left
1.392,0.34471937697495164,0.8296116789712163,0.16120522278672497,-1.888756828248392,0.4971638766979559,-1.1771084684988837,-0.5242407369802867,0.13076678882757212,0.8677912692484211,1,left
1.393,0.3484004854309957,0.8283750243960621,0.16336290397402212,-1.8967491805719434,0.48643550221287035,-1.1695486659011898,-0.525320046936426,0.13290890864536606,0.876399434808748,1,left
1.3969999999999998,0.3520727554702817,0.827230133726765,0.1654750695448701,-1.9039974113115095,0.47526222168458676,-1.1614897873800973,-0.5262771252446075,0.1351385924625292,0.8850204788155089,1,left
1.3969999999999998,0.355735505705362,0.8261788280610306,0.16754124106879278,-1.9105030621252255,0.4636583779725872,-1.152943247898637,-0.5271138442805292,0.13746074883047701,0.8936551448252971,1,left
1.3980000000000001,0.35938814984115414,0.8252228404448937,0.16956100774406932,-1.9162687906511815,0.45163934336725314,-1.1439211691553883,-0.5278322685851525,0.1398802102821742,0.9023042378611702,1,left
1.402,0.3630301944158397,0.8243638128476369,0.17153402718471056,-1.9212983649532498,0.43922151026008005,-1.134436359444938,-0.528434653646191,0.14240172029046244,0.9109686215183965,1,left
1.403,0.3666612363596942,0.8236032929020172,0.17346002624570667,-1.9255966560951758,0.4264222797927717,-1.1245022917742655,-0.5289234444744335,0.14502992048216706,0.919649214709337,1,left
1.4040000000000001,0.3702809604260409,0.8229427303822346,0.17533880186356116,-1.9291696288521503,0.4132600484750062,-1.114133080244134,-0.5293012739770765,0.14776933817575585,0.9283469880232698,1,left
1.406,0.3738891365536869,0.8223834733950335,0.17717022188812673,-1.932024330530176,0.39975419288093944,-1.1033434548780943,-0.5295709611298199,0.15062437425993852,0.9370629597178741,1,left
1.4069999999999998,0.37748561721966123,0.8219267642634741,0.17895422588864418,-1.934168877795247,0.3859250527519702,-1.092148735395162,-0.5297355089491366,0.15359929142076711,0.9457981913673148,1,left
1.411,0.38107033484517694,0.8215737350835047,0.18069082592727917,-1.9356124413754676,0.3717939129536689,-1.0805648045958316,-0.5297981022658063,0.15669820272511656,0.9545537831919132,1,left
1.412,0.3846432993327133,0.8213254029284731,0.1823801073035107,-1.9363652285339872,0.357382984612369,-1.0686080818550283,-0.5297621053004964,0.1599250605687558,0.9633308690944488,1,left
1.416,0.3882045958278355,0.8211826646706987,0.1840222292807715,-1.9364384632747849,0.3427153855374395,-1.056295496899701,-0.5296310590418672,0.16328364599756492,0.9721306114281854,1,left
1.4169999999999998,0.3917543828028884,0.8211462913890498,0.185617425809656,-1.9358443642781171,0.3278151199129775,-1.043644463872785,-0.5294086784273915,0.16677755841080882,0.9809541955217771,1,left
1.422,0.39529289054912575,0.8212169223402771,0.18716600625567423,-1.9345961205678148,0.31270705721756936,-1.0306728556492226,-0.5290988493267892,0.17041020565574583,0.9898028239862731,1,left
1.423,0.39882042014315255,0.821395058489114,0.18866835612276664,-1.9327078649106662,0.2974169103300372,-1.0173989783687052,-0.5287056253277119,0.17418479452322705,0.9986777108294993,1,left
1.426,0.4023373429270542,0.8216810556154475,0.19012493774040667,-1.9301946449462095,0.28197121277842013,-1.003841546148838,-0.5282332243230452,0.1781043216543309,1.007580075403171,1,left
1.4269999999999998,0.4058441005141156,0.8220751170418585,0.1915362908599203,-1.9270723920433777,0.26639729508884324,-0.9900196559414977,-0.5276860248989469,0.1821715648684755,1.0165111362081551,1,left
1.432,0.40934120530730056,0.8225772860468521,0.19290303309240922,-1.9233578878786028,0.2507232601904077,-0.9759527624942935,-0.5270685625225018,0.1863890749238586,1.0254721045833843,1,left
1.433,0.4128292414973479,0.8231874380456468,0.19422586012049708,-1.9190687287281976,0.23497795783178932,-0.9616606533782259,-0.5263855255276453,0.19075916772149099,1.0344641783039956,1,left
1.436,0.41630886649212545,0.823905272631021,0.19550554562931893,-1.9142232874660767,0.21919095796486612,-0.9471634240418768,-0.5256417508977931,0.19528391696451283,1.0434885351143552,1,left
1.4369999999999998,0.4197808127174739,0.8247303055722502,0.196742940924225,-1.9088406732561876,0.2033925230504101,-0.9324814528517653,-0.5248422198434132,0.19996514728491338,1.0525463262217134,1,left
1.442,0.4232458897186361,0.8256618608731933,0.19793897422358692,-1.9029406889273701,0.18761357924067443,-0.9176353760778538,-0.5239920531725886,0.2048044278502134,1.0616386697763232,1,left
1.442,0.4267049864777198,0.826699062994892,0.19909464962495677,-1.8965437860167629,0.17188568639358984,-0.9026460627826022,-0.5230965064524455,0.20980306646311192,1.0707666443639527,1,left
1.446,0.43015907384621616,0.8278408293564731,0.20021104573881848,-1.8896710174663356,0.15624100687325196,-0.8875345895714354,-0.5221609649591602,0.21496210416754913,1.0799312825368115,1,left
1.446,0.43360920697435507,0.829085863240375,0.20128931397133804,-1.8823439879556494,0.14071227309143852,-0.8723222151620234,-0.5211909384141139,0.22028231037509002,1.0891335644090139,1,left
1.4509999999999998,0.43705652760472824,0.8304326472402244,0.2023306764250797,-1.8745848018525055,0.12533275374504438,-0.8570303547293566,-0.5201920555036348,0.22576417852599037,1.0983744113428047,1,left
1.452,0.44050226609003007,0.8318794373970343,0.20333642338347102,-1.866416008761791,0.11013621870456114,-0.8416805539832516,-0.5191700581796515,0.2314079222997679,1.1076546797518745,1,left
1.456,0.4439477429967328,0.8334242581671086,0.20430791035619483,-1.857860546651517,0.09515690250906374,-0.8262944629346326,-0.5181307957384832,0.23721347239056295,1.1169751550482054,1,left
1.4569999999999999,0.4473943701696143,0.8350648983494329,0.20524655468903735,-1.8489416825338083,0.08042946642359496,-0.810893809306706,-0.5170802186749096,0.2431804738630369,1.1263365457589931,1,left
1.46,0.45084365115585157,0.8367989080703477,0.2061538317764855,-1.83968295067743,0.06598895901536642,-0.7955003715469774,-0.5160243723085969,0.24930828410502134,1.1357394778403076,1,left
1.4609999999999999,0.4542971809172964,0.838623596882245,0.20703127094620566,-1.830108088327321,0.05187077520581887,-0.7801359513959593,-0.5149693901799076,0.25559597139359513,1.1451844892142693,1,left
1.466,0.4577566447875753,0.8405360329890801,0.20788045110187103,-1.8202409689055645,0.03811061375630933,-0.7648223459683725,-0.5139214872120895,0.2620423140917292,1.154672024556635,1,left
1.4669999999999999,0.46122381665080897,0.8425330435751797,0.2087029962134153,-1.8101055326672457,0.024744433146017573,-0.7495813193026697,-0.5128869526388422,0.2686458004828445,1.1642024303516412,1,left
1.4680000000000002,0.46470055633075613,0.8446112161931917,0.20950057073413741,-1.799725714783748,0.011808405801591156,-0.7344345733347879,-0.5118721427063647,0.2754046291998041,1.1737759501802327,1,left
1.4709999999999999,0.4681888061854358,0.8467669011618927,0.21027487500586042,-1.7891253709229769,-0.0006611293359122099,-0.7194037182781073,-0.5108834731771856,0.2823167101130051,1.1833927201164405,1,left
1.472,0.4716905869046505,0.8489962149260523,0.21102764069415053,-1.7783282008841919,-0.012627715795040004,-0.7045102425214125,-0.5099274116732142,0.28937966549140776,1.1930527640559403,1,left
1.473,0.4752079925095717,0.8512950443289534,0.2117606262817236,-1.767357671724515,-0.024054829770840475,-0.6897754823902162,-0.509010469885411,0.2965908313020632,1.2027559888518018,1,left
1.475,0.47874318455884995,0.8536590517358614,0.21247561263965584,-1.7562369423025155,-0.03490593107016678,-0.6752205922467552,-0.5081391956593696,0.30394725860645266,1.212502179224051,1,left
1.475,0.4822983855768457,0.8560836809195116,0.21317439869240373,-1.7449887906747454,-0.045144514464526844,-0.6608665152747437,-0.5073201649560977,0.31144571506366625,1.222290992460628,1,left
1.4809999999999999,0.4858758717374201,0.8585641635838391,0.21385879719536818,-1.7336355449004999,-0.054734161333162834,-0.6467339550621357,-0.506559973685377,0.3190826865611299,1.2321219529376166,1,left
1.482,0.4894779648602246,0.8610955263729432,0.21453063065185665,-1.7221990173206891,-0.0636385916024432,-0.6328433479660498,-0.5058652294092141,0.3268543789940075,1.2419944464867423,1,left
1.4869999999999999,0.4931070238008322,0.863672598193676,0.2151917274054692,-1.710700442278564,-0.07182171601090159,-0.6192148362186657,-0.5052425429130427,0.33475672021481045,1.2519077146382591,1,left
1.4869999999999999,0.4967654353364146,0.866290017671276,0.21584391794852592,-1.6991604172497243,-0.07924768872739302,-0.6058682417335366,-0.5046985196425081,0.3427853621751471,1.2618608487674638,1,left
1.49,0.5004556046631103,0.8689422405595403,0.21648903148289259,-1.687598847348599,-0.08588096034786953,-0.5928230405724582,-0.5042397510038515,0.3509356832819276,1.2718527841732004,1,left
1.4909999999999999,0.5041799456286188,0.8716235469434549,0.2171288927556483,-1.6760348931784153,-0.09168633129420627,-0.5800983380337853,-0.5038728055261213,0.3592027909907177,1.2818822941168246,1,left
1.495,0.5079408708222131,0.8743280481030868,0.21776531917180453,-1.664486921991543,-0.09662900563633398,-0.5677128443238965,-0.5036042198836608,0.36758152465929395,1.2919479838502288,1,left
1.496,0.5117407816356491,0.8770496929474679,0.21840011816694563,-1.652972462127047,-0.10067464535665806,-0.5556848507743725,-0.5034404897775691,0.3760664586848049,1.3020482846616184,1,left
1.5,0.5155820583966585,0.8797822739697692,0.21903508481107895,-1.641508160692262,-0.10378942507336608,-0.5440322065683753,-0.5033880606750971,0.38465190594827636,1.3121814479678557,1,left
1.5,0.5194670506643558,0.8825194327171823,0.21967199961149367,-1.630109744455257,-0.10594008723674941,-0.5327722959406849,-0.5034533184062183,0.39333192159051733,1.3223455394822812,1,left
1.505,0.5233980677636476,0.8852546648088073,0.22031262648135,-1.618791983915148,-0.1070939978100875,-0.521922015816881,-0.5036425796169187,0.4021003071437916,1.3325384334870243,1,left
1.505,0.5273773696240732,0.8879813245711525,0.22095871083657373,-1.6075686605173543,-0.10721920244397155,-0.511497753858231,-0.5039620820790698,0.410950615043904,1.3427578072389101,1,left
1.51,0.5314071579750393,0.8906926293945804,0.22161197777508518,-1.5964525369810891,-0.10628448315017547,-0.5015153668799743,-0.5044179748570851,0.4198761535476245,1.353001135538155,1,left
1.51,0.5354895679299818,0.8933816639461453,0.22227413028244272,-1.5854553307066002,-0.10425941547832004,-0.4919901596118682,-0.5050163083319176,0.42886999208062454,1.3632656854891285,1,left
1.514,0.53962665996634,0.8960413844020394,0.22294684740192283,-1.5745876902299476,-0.10111442619562298,-0.48293686377108314,-0.5057630240833287,0.43792496704133677,1.373548511482533,1,left
1.515,0.543820412280875,0.8986646228822726,0.2236317823093371,-1.563859174693409,-0.09682085146698388,-0.4743696174188041,-0.5066639446317519,0.44703368808636307,1.3838464504284222,1,left
1.5190000000000001,0.548072713476513,0.9012440922792949,0.22433056024488376,-1.5532782362999418,-0.09135099552952324,-0.466301944573206,-0.5077247630414821,0.4561885449232529,1.3941561172695391,1,left
1.52,0.5523853555218213,0.9037723916697975,0.2250447762739406,-1.5428522057205085,-0.08467818985247882,-0.4587467350528259,-0.5089510323873497,0.4653817146366488,1.4044739008045048,1,left
1.525,0.5567600269190275,0.9062420124832198,0.22577599287181788,-1.532587280423455,-0.07677685277006564,-0.4517162245257507,-0.5103481550874783,0.47460516957394844,1.4147959598504385,1,left
1.526,0.5611983060196046,0.9086453455723557,0.2265257373498728,-1.5224885158955699,-0.06762254957152834,-0.44522197474146985,-0.5119213721051861,0.48385068581676677,1.425118219774614,1,left
1.5290000000000001,0.5657016544340981,0.9109746892949843,0.22729549915785818,-1.5125598197248789,-0.057192053029162186,-0.43927485392371685,-0.513675752023565,0.49310985226459075,1.4354363694247838,1,left
1.53,0.5702714104911336,0.9132222586748706,0.22808672710635758,-1.5028039485157052,-0.04546340434155126,-0.43388501730412754,-0.5156161799967631,0.5023740803571047,1.4457458584878207,1,left
1.534,0.574908782706835,0.915380195668894,0.2289008265533339,-1.4932225076069865,-0.03241597446567608,-0.42906188777808163,-0.5177473465825003,0.5116346144617288,1.4560418953063123,1,left
1.535,0.5796148432301024,0.9174405805288195,0.22973915659370522,-1.4838159535653324,-0.018030525807879377,-0.4248141366656654,-0.5200737364656249,0.5208825429379399,1.4663194451771888,1,left
1.535,0.5843905212343588,0.919395444218845,0.23060302728413612,-1.4745835994248055,-0.002289274239952193,-0.42114966456229225,-0.5225996171068444,0.5301088098149118,1.4765732291286475,1,left
1.5390000000000001,0.5892365962347471,0.9212367818376195,0.23149369692885294,-1.4655236226292612,0.014824048628621182,-0.4180755822919856,-0.5253290273941313,0.5393042268839051,1.4867977231215852,1,left
1.5390000000000001,0.5941536913188588,0.9229565669893512,0.23241236944839724,-1.456633075550416,0.033324133152254305,-0.41559819211219295,-0.5282657663986556,0.5484594859317564,1.4969871575939144,1,left
1.54,0.5991422662856437,0.9245467670405337,0.2333601918546471,-1.447907898305593,0.05322402984151826,-0.41372296956224863,-0.5314133823138786,0.5575651709167991,1.507135517293852,1,left
1.545,0.6042026106919842,0.92599935917495,0.23433825186518542,-1.439342933516413,0.07453508872403314,-0.41245454648351165,-0.5347751616142041,0.5666117700235529,1.5172365413982014,1,left
1.545,0.6093348368126881,0.9273063471166961,0.23534757570836365,-1.430931942733359,0.09726690039874238,-0.41179669560670346,-0.5383541184463908,0.57558968760745,1.527283723939326,1,left
1.5490000000000002,0.614538872530243,0.9284597783441276,0.2363891261895107,-1.4226676244013283,0.12142723902939234,-0.4117523168621232,-0.5421529842627727,0.5844892560557395,1.5372703145699584,1,left
1.55,0.6198144541849406,0.9294517615873964,0.2374638010976659,-1.414541633324918,0.14702200736989737,-0.41232342543594547,-0.5461741977059539,0.5933007475905344,1.547189319694845,1,left
1.554,0.625161119428859,0.9302744843940736,0.23857243202660042,-1.406544601609267,0.1740551838869091,-0.41351114157071717,-0.5504198947552629,0.6020143860397729,1.5570335039980752,1,left
1.555,0.6305782001342631,0.9309202305559243,0.2397157836664054,-1.3986661610526965,0.2025287720490096,-0.41531568210993025,-0.5548918991458867,0.6106203586016392,1.566795392394771,1,left
1.5590000000000002,0.6360648154090556,0.9313813972100703,0.24089455359794365,-1.3908949669677775,0.23244275185606317,-0.41773635378831436,-0.5595917130722404,0.6191088276277357,1.5764672724356152,1,left
1.56,0.6416198647737692,0.9316505114550457,0.24210937259941587,-1.383218723407843,0.2637950336863905,-0.42077154827126056,-0.5645205081877722,0.6274699424500166,1.586041197192478,1,left
1.564,0.6472420215606774,0.9317202463514264,0.2433608054590802,-1.3756242097762752,0.29658141454356224,-0.4244187389485593,-0.5696791169140549,0.6356938512761868,1.5955089886531766,1,left
1.565,0.6529297266064865,0.9315834362033976,0.24464935228225623,-1.3680973087962234,0.3307955367887422,-0.42867447948940296,-0.5750680240726678,0.643770713177927,1.6048622416531275,1,left
1.569,0.6586811823232755,0.9312330910404464,0.2459754502814984,-1.3606230358186704,0.3664288494486376,-0.4335344041673664,-0.5806873588540297,0.6516907101959444,1.6140923283713806,1,left
1.569,0.6644943472450869,0.9306624102400586,0.24733947604227288,-1.3531855694470005,0.40347057219322985,-0.43899322996583645,-0.5865368871380029,0.6594440595854537,1.623190403418216,1,left
1.5730000000000002,0.6703669311560415,0.9298647952593979,0.24874174825478776,-1.3457682834564129,0.44190766208155535,-0.4450447604761058,-0.5926160041817502,0.6670210262252682,1.6321474095411546,1,left
1.574,0.6762963909055827,0.9288338614825171,0.2501825308871174,-1.3383537799866752,0.4817247831778771,-0.4516818916020813,-0.5989237276909852,0.674411935213233,1.6409540839758772,1,left
1.578,0.6822799270065892,0.9275634492399487,0.2516620367457403,-1.3309239239868178,0.5229042791446311,-0.4588966190872753,-0.6054586912914223,0.6816071846702534,1.6496009654681703,1,left
1.578,0.6883144810960133,0.9260476341140722,0.2531804313369112,-1.3234598788904208,0.5654261489225337,-0.46668004788144934,-0.6122191384178844,0.6885972587746623,1.6580784019926091,1,left
1.5830000000000002,0.6943967343188893,0.9242807366987468,0.25473783691658985,-1.3159421435001553,0.6092680256121957,-0.47502240336595847,-0.6192029166391885,0.6953727410481394,1.6663765591932556,1,left
1.584,0.7005231066769875,0.9222573320274756,0.25633433660367466,-1.3083505900601948,0.6544051586754981,-0.48391304445850447,-0.6264074724375759,0.7019243279138323,1.6744854295711935,1,left
1.588,0.7066897573640369,0.9199722589156065,0.257969978430275,-1.3006645034950135,0.7008103995788348,-0.4933404786196362,-0.6338298464621065,0.708242842546738,1.6823948424432305,1,left
1.588,0.7128925860906672,0.917420629477284,0.25964477920872997,-1.2928626217929278,0.7484541910041155,-0.5032923787849392,-0.6414666692760713,0.7143192490357896,1.6900944746955857,1,left
1.5919999999999999,0.7191272353849537,0.9145978390775218,0.26135872810369465,-1.2849231775125334,0.797304559757136,-0.5137556022484302,-0.6493141576191158,0.7201446668764515,1.6975738623558352,1,left
1.5930000000000002,0.7253890938399459,0.9114995769651909,0.2631117898063563,-1.2768239403899095,0.8473271135065652,-0.5247162115242133,-0.6573681112053873,0.7257103858119507,1.7048224130058118,1,left
1.598,0.7316733002677284,0.9081218378048501,0.26490390721684415,-1.268542261024129,0.8984850414903434,-0.5361594972149574,-0.665623910079639,0.7310078810405856,1.7118294190575605,1,left
1.599,0.7379747487103812,0.9044609342838483,0.2667350035551872,-1.260055115618221,0.9507391193297556,-0.5480700029172235,-0.6740765125538231,0.7360288288058262,1.7185840719138088,1,left
1.6019999999999999,0.7442880942541312,0.9005135109172142,0.268604983844536,-1.251339151752269,1.0040477180948006,-0.5604315521950988,-0.6827204537394023,0.7407651223680148,1.7250754770170438,1,left
1.6030000000000002,0.7506077595972792,0.8962765591135878,0.27051373573726556,-1.2423707351648055,1.0583668177677341,-0.5732272776549738,-0.6915498446516825,0.7452088882699096,1.7312926697070339,1,left
1.604,0.7569279423318099,0.8917474335087171,0.2724611296762382,-1.2331259975180684,1.113650025254808,-0.5864396521556479,-0.7005583717919395,0.7493525026530743,1.737224631655507,1,left
1.607,0.7632426229013625,0.8869238695147919,0.2744470183993454,-1.2235808851220333,1.1698485970992545,-0.600050522189235,-0.7097392970741573,0.7531886072955022,1.7428603075623823,1,left
1.608,0.7695455731908298,0.8818040019676455,0.27647123581107974,-1.213711208590771,1.2269114669871966,-0.6140411434109978,-0.7190854580032277,0.7567101251258229,1.748188621880731,1,left
1.608,0.7758303656990041,0.8763863846971915,0.2785335952608186,-1.2034926934007244,1.2847852778196407,-0.6283922180044563,-0.7285892680830779,0.7599102751230157,1.7531984954872089,1,left
1.6130000000000002,0.7820903832545701,0.8706700108154694,0.28063388728026833,-1.1929010313139383,1.3434144175479905,-0.6430839330419109,-0.7382427174731828,0.7627825865954786,1.7578788622974182,1,left
1.6130000000000002,0.7883188292466526,0.8646543334787573,0.28277187684654803,-1.1819119326251786,1.402741057651705,-0.6580959987086327,-0.7480373739202952,0.7653209128495522,1.7622186858414823,1,left
1.617,0.794508738343828,0.8583392868006018,0.2849473002588981,-1.1705011791940403,1.462705193460345,-0.673407685552984,-0.7579643839926803,0.767519444256679,1.7662069758141985,1,left
1.618,0.8006529876765706,0.8517253064999325,0.28715986174036834,-1.1586446782277695,1.5232446861027538,-0.6889978604530614,-0.7680144746445651,0.7693727207274346,1.7698328046131966,1,left
1.6219999999999999,0.8067443084665921,0.8448133498093234,0.2894092298923237,-1.1463185167825412,1.5842953061894098,-0.7048450212843479,-0.778177955138924,0.7708756435997115,1.7730853238775393,1,left
1.6219999999999999,0.8127752981015629,0.8376049141495492,0.2916950341377824,-1.133499016950365,1.6457907794000837,-0.7209273303323165,-0.7884447193570964,0.7720234869473593,1.7759537810382042,1,left
1.6269999999999998,0.8187384326708567,0.8301020540844415,0.294016861288865,-1.1201627916975052,1.7076628341505684,-0.7372226464947219,-0.7988042485240875,0.7728119083145948,1.7784275358908361,1,left
1.6280000000000001,0.8246260799956178,0.8223073960976195,0.2963742523602049,-1.1062868013189542,1.7698412515137292,-0.7537085563190615,-0.8092456143787268,0.7732369588804879,1.7804960772000924,1,left
1.631,0.8304305132042697,0.8142241507768638,0.2987666997234431,-1.0918484104720814,1.8322539175713801,-0.7703624039213557,-0.8197574828181564,0.773295093056813,1.782149039343797,1,left
1.632,0.8361439249208911,0.8058561220495641,0.3011936446650756,-1.0768254457510986,1.8948268783745816,-0.7871613198330121,-0.8303281180463844,0.772983177521521,1.7833762190039901,1,left
1.636,0.8417584421445897,0.7972077131809251,0.3036544753803484,-1.0611962537624293,1.9574843976908247,-0.8040822488230865,-0.8409453872568746,0.7722984996890472,1.7841675919107887,1,left
1.6369999999999998,0.8472661418978855,0.7882839293234049,0.30614852541240917,-1.0449397596594567,2.0201490177172357,-0.8211019767437296,-0.851596765879347,0.771238775617612,1.7845133296437883,1,left
1.642,0.8526590677088978,0.7790903764886239,0.3086750725250084,-1.0280355260934475,2.082741622939397,-0.8381971564470321,-0.8622693434211265,0.7698021573526168,1.7844038164945097,1,left
1.643,0.8579292469680422,0.769633256897367,0.31123333797485175,-1.0104638125357075,2.1451815073156135,-0.8553443328218249,-0.8729498299335154,0.7679872397041592,1.7838296663921407,1,left
1.649,0.86306870916893,0.7599193607440371,0.3138224861256797,-0.9922056349242235,2.207386444966473,-0.8725199669992796,-0.8836245631337589,0.765793066455622,1.782781739893547,1,left
1.649,0.8680695050087163,0.7499560544845564,0.31644162432296397,-0.9732428255861895,2.2692727645493402,-0.8897004597763662,-0.8942795162132373,0.7632191359992053,1.7812511612372162,1,left
1.651,0.8729237262875436,0.7397512658183297,0.31908980292901074,-0.9535580933858944,2.3307554274969786,-0.906862174306378,-0.9049003063625344,0.7602654063931846,1.7792293354594657,1,left
1.652,0.8776235265109594,0.7293134655837205,0.32176601540649996,-0.9331350840454856,2.391748110298816,-0.9239814581058144,-0.915472204044019,0.7569322998345923,1.7767079655698885,1,left
1.656,0.8821611420649417,0.7186516468214639,0.32446919833752574,-0.9119584405840923,2.4521632910024604,-0.9410346644269252,-0.9259801430425173,0.7532207065399276,1.773679069781617,1,left
1.6569999999999998,0.8865289138055275,0.707775301280324,0.3271982312742083,-0.8900138638187246,2.511912340111897,-0.9579981730451647,-0.936408731324556,0.7491319880254099,1.7701349987905808,1,left
1.661,0.8907193088911299,0.6966943936422012,0.3299519363299845,-0.8672881728682496,2.570905616057396,-0.9748484105106867,-0.9467422627365124,0.7446679797772038,1.7660684530964972,1,left
1.661,0.8947249426872961,0.6854193337310028,0.3327290774356445,-0.8437693655995719,2.629052565410497,-0.9915618699128178,-0.9569647295718257,0.7398309933009541,1.7614725003568783,1,left
1.665,0.8985386005834177,0.6739609469494365,0.33552835920709045,-0.8194466789529574,2.6862618280155215,-1.0081151302061886,-0.9670598360371927,0.7346238175388922,1.756340592763856,1,left
1.666,0.902153259569894,0.6623304431729405,0.33834842540770443,-0.794310649081182,2.7424413472068876,-1.0244848751468794,-0.9770110126474024,0.7290497196416907,1.7506665844321296,1,left
1.671,0.9055621094328389,0.6505393843228413,0.34118785703033233,-0.768353171234924,2.79749848527907,-1.0406479118865442,-0.9868014315642044,0.7231124450818103,1.744444748765831,1,left
1.671,0.908758573440599,0.6385996508254083,0.34404517005521046,-0.7415675593245055,2.851340144373357,-1.0565811892720134,-0.9964140228245822,0.7168162170971514,1.7376697956756275,1,left
1.672,0.911736328423797,0.6265234071324329,0.3469188129522332,-0.7139486050857559,2.9038728929425988,-1.0722618158973543,-1.0058314912779884,0.7101657354584386,1.7303368883449517,1,left
1.676,0.9144893241733446,0.6143230664585123,0.34980716399990847,-0.6854926367249581,2.9550030978534876,-1.0876670779456525,-1.015036333981977,0.7031661745558544,1.7224416591477263,1,left
1.676,0.9170118020897449,0.6020112548924414,0.35270852849753986,-0.6561975766631756,3.0046370616903983,-1.1027744568115407,-1.024010857874817,0.6958231807962719,1.7139802244133138,1,left
1.6769999999999998,0.9192983130218826,0.5896007750389382,0.35562113594324196,-0.6260629975437592,3.05268116393536,-1.1175616464127236,-1.032737197668509,0.6881428692957654,1.704949197903686,1,left
1.681,0.9213437342358062,0.5771045693436992,0.3585431372369298,-0.5950901754121453,3.099042004202664,-1.1320065700523785,-1.041197333974674,0.6801318198479283,1.6953457029611458,1,left
1.681,0.923143285442748,0.564535683278316,0.36147260195465025,-0.5632821392269328,3.1436265461943416,-1.146087396739034,-1.049373111689062,0.6717970721469188,1.68516738330228,1,left
1.685,0.9246925437962478,0.5519072286009067,0.3644075157287152,-0.5306437163129339,3.186342261923898,-1.1597825569516638,-1.057246258659705,0.6631461202431839,1.6744124124321935,1,left
1.686,0.9259874577596804,0.5392323469323944,0.3673457777526921,-0.4971815736167703,3.2270972762428465,-1.1730707578823263,-1.064798404662981,0.6541869062088636,1.663079501651438,1,left
1.6909999999999998,0.9270243597563057,0.5265241738943389,0.3702851984179248,-0.4629042546736491,3.2658005117979463,-1.185930998196753,-1.0720111007110396,0.6449278129889466,1.651167906626384,1,left
1.692,0.9277999775392411,0.5137958040531224,0.37322349708812763,-0.42782221219157274,3.302361834541645,-1.1983425823521854,-1.0788658387131596,0.6353776564133451,1.6386774324921407,1,left
1.696,0.9283114442493552,0.5010602569108389,0.37615830003100514,-0.3919478361568721,3.336692199912607,-1.2102851345105852,-1.0853440715127027,0.6255456763441658,1.6256084374554665,1,left
1.696,0.9285563071580465,0.48833044417410354,0.3790871385426948,-0.3552954773626162,3.3687037997973293,-1.2217386120841207,-1.0914272333203379,0.6154415269316011,1.6119618348634492,1,left
1.7,0.9285325351162621,0.4756191385162787,0.3820074473125466,-0.3178814662591444,3.398310210377674,-1.2326833189485384,-1.097096760563189,0.6050752659510225,1.5977390937020752,1,left
1.7009999999999998,0.9282385247486974,0.4629389440257943,0.38491656307852223,-0.2797241270236934,3.4254265409627473,-1.2430999183586844,-1.102334113168479,0.5944573431930533,1.5829422374871458,1,left
1.704,0.9276731054402327,0.4503022685050713,0.3878117236197083,-0.2408437867438632,3.4499695838969116,-1.252969445599036,-1.1071207962991032,0.5835985878776169,1.5675738415083427,1,left
1.705,0.9268355431610374,0.43772129775427143,0.39069006712550913,-0.20126277960747893,3.4718579656287902,-1.2622733204006455,-1.1114383825573806,0.5725101950622005,1.5516370283855843,1,left
1.709,0.9257255431721575,0.4252079719443756,0.39354863197374584,-0.16100544598927902,3.491012299018988,-1.2709933591543772,-1.1152685346719848,0.5612037110138594,1.5351354618951765,1,left
1.71,0.9243432516482494,0.41277396415499434,0.39638435694516155,-0.12009812632278301,3.5073553369568504,-1.2791117869487483,-1.1185930286817725,0.5496910175137875,1.5180733390216123,1,left
1.714,0.9226892562484812,0.4004306611217047,0.39919408190077404,-0.07856914964368661,3.5208121273489823,-1.2866112494590662,-1.1213937776288663,0.5379843150626273,1.5004553801892453,1,left
1.715,0.9207645856602364,0.3881891462039083,0.4019745489497121,-0.03644881668919196,3.5313101695343727,-1.293474824712872,-1.1236528557719614,0.5260961049540648,1.4822868176264437,1,left
1.72,0.9185707081344189,0.37606018454753776,0.4047224041379527,0.006230622564181706,3.538779572172925,-1.2996860347549752,-1.125352523329364,0.5140391701836609,1.4635733818132173,1,left
1.7209999999999999,0.9161095290279407,0.3640542103795669,0.4074341996917075,0.04943499704354339,3.543153212645884,-1.3052288572335868,-1.1264752517597691,0.5018265551593174,1.4443212859617205,1,left
1.725,0.9133833873699767,0.3521813163362817,0.41010639685017775,0.09312824852426262,3.54436689799817,-1.3100877369272328,-1.1270037495872314,0.489471544179253,1.4245372084774486,1,left
1.726,0.9103950514731683,0.3404512446973069,0.412735369320458,0.1372724714988218,3.54235952744394,-1.3142475972302567,-1.1269209887751712,0.47698763864288046,1.4042282733473803,1,left
1.73,0.9071477136154232,0.32887338037401875,0.4153174073848553,0.18182795909392577,3.5370732564477905,-1.3176938516128012,-1.1262102316526064,0.46438853295953153,1.3834020283997774,1,left
1.73,0.9036449838174513,0.31745674548528785,0.41784872268855344,0.22675325516130565,3.5284536623849734,-1.320412415069194,-1.1248550583940873,0.451688089119564,1.36206642137882,1,left
1.734,0.8998908827345589,0.30620999534605503,0.4203254537320138,0.27200521266894656,3.5164499117747168,-1.3223897155666566,-1.1228393950530675,0.43890030989201867,1.340229773775755,1,left
1.735,0.8958898336726865,0.2951414156946084,0.42274367208525165,0.3175390585206452,3.5010149290713493,-1.323612705504206,-1.1201475421466285,0.4260393106126625,1.3179007523567412,1,left
1.739,0.8916466537331788,0.2842589209922019,0.425099389327452,0.36330846493286334,3.482105566988373,-1.3240688731895294,-1.1167642037876309,0.4131192895259621,1.2950883383261242,1,left
1.739,0.8871665440888146,0.27357005364471737,0.42738856469709763,0.40926562749877815,3.459682778320877,-1.3237462543394862,-1.1126745173329022,0.40015449670046316,1.2718017941402064,1,left
1.74,0.8824550793921789,0.2630819840213564,0.4296071134235545,0.4553613500702347,3.433711789221881,-1.3226334436077205,-1.1078640833862903,0.3871592018177382,1.248050628374093,1,left
1.744,0.8775181963148959,0.2528015111756785,0.43175091570769625,0.5015451364638028,3.404162273622904,-1.3207196061493378,-1.102318995763321,0.37414766164051705,1.2238445597428542,1,left
1.745,0.8723621812138667,0.2427350641999515,0.4338158263227858,0.5477652883717784,3.3710085272025765,-1.3179944892737006,-1.096025870894336,0.3611340882463835,1.1991934817658025,1,left
1.746,0.8669936569198697,0.23288870415988,0.4357976848079616,0.5939690077327506,3.3342296369993827,-1.3144484343121359,-1.0889718762687468,0.3481326188324362,1.1741074291724336,1,left
1.749,0.8614195686455399,0.2232681265681224,0.43769232621896875,0.6401025011907111,3.2938096414779365,-1.3100723888683852,-1.081144757751049,0.3351572873906444,1.148596546447215,1,left
1.75,0.8556471690153329,0.21387866436747613,0.43949559238453784,0.6861110848976772,3.2497376771242608,-1.304857919573963,-1.0725328657249193,0.32222199827272424,1.1226710585202122,1,left
1.754,0.8496840022296431,0.20472529140921908,0.4412033435989956,0.7319392890413704,3.2020081099326756,-1.2987972253902211,-1.0631251800451054,0.30934050160721677,1.0963412435315112,1,left
1.755,0.8435378873861097,0.19581262642627714,0.44281147066899046,0.7775309621051786,3.1506206514128867,-1.2918831514531988,-1.0529113337745968,0.2965263705315223,1.0696174075961697,1,left
1.7590000000000001,0.8372169009905615,0.1871449375111295,0.4443159072254402,0.8228293749924582,3.095580458990645,-1.2841092034462604,-1.0418816356823173,0.2837929802017614,1.0425098614952435,1,left
1.76,0.8307293586975102,0.1787261471130893,0.4457126422100806,0.8677773251467034,3.0368982206648654,-1.275469562483096,-1.0300270914742884,0.27115348854348637,1.0150288992172725,1,left
1.7630000000000001,0.8240837963262159,0.17055983756943952,0.44699773244874197,0.9123172407984342,2.974590223773596,-1.265959100481207,-1.0173394237289002,0.2586208187064608,0.9871847782734776,1,left
1.764,0.8172889502039773,0.16264925718115059,0.44816731522828573,0.9563912854688112,2.9086784077107435,-1.2555733960035327,-1.0038110905045867,0.24620764318695595,0.9589877017088182,1,left
1.768,0.8103537368953116,0.1549973268385012,0.4492176207991575,0.9999414628589745,2.839190400425008,-1.244308750543388,-0.9894353025858328,0.23392636958128088,0.9304478017299852,1,left
1.768,0.8032872323854051,0.14760664719693556,0.4501449847320104,1.042909722252936,2.766159538522085,-1.2321622052253807,-0.9742060393310465,0.22178912793457223,0.901575124870366,1,left
1.7730000000000001,0.7960986507961946,0.14047950639891346,0.4509458600659376,1.0852380645605124,2.689624870780843,-1.2191315578924633,-0.9581180630834216,0.20980775964920936,0.8723796186109968,1,left
1.7730000000000001,0.7887973227195554,0.13361788833133045,0.45161682919535534,1.1268686491252804,2.6096311448839318,-1.205215380546759,-0.9411669321034767,0.1979938079176008,0.8428711193755389,1,left
1.778,0.781392673253114,0.12702348139909528,0.45215461544906305,1.1677439014208677,2.5262287771531082,-1.1904130371092545,-0.9233490119795127,0.18635850964449982,0.8130593418163571,1,left
1.7790000000000001,0.7738941998227058,0.12069768778442948,0.45255609431725075,1.2078066217570522,2.4394738050695044,-1.1747247014609314,-0.9046614854697598,0.17491278882445582,0.7829538693078477,1,left
1.7830000000000001,0.7663114498744815,0.11464163315011075,0.45281830428160585,1.2470000951151399,2.3494278223491523,-1.1581513757253505,-0.8851023607275127,0.16366725134048604,0.7525641455622709,1,left
1.784,0.7586539985192774,0.10885617673530178,0.4529384572019177,1.285268202229919,2.2561578963342956,-1.1406949087501714,-0.8646704778580608,0.1526321811505669,0.7218994672824638,1,left
1.788,0.7509314262104535,0.10334192178666284,0.45291394821024133,1.322555532033163,2.1597364674513893,-1.122358014742537,-0.8433655137537234,0.14181753782908735,0.6909689777649707,1,left
1.7890000000000001,0.7431532965339266,0.09809922626519081,0.45274236506128723,1.3588074955711473,2.0602412304772613,-1.103144292010718,-0.821187985150801,0.1312329554309804,0.6597816613663089,1,left
1.794,0.7353291341861666,0.09312821376885481,0.45242149688670613,1.3939704415060021,1.9577549973456476,-1.0830582417618775,-0.7981392498497478,0.12088774264685401,0.628346338744298,1,left
1.795,0.7274684032105941,0.08842878461109614,0.4519493423035711,1.4279917733078937,1.8523655412172746,-1.062105286903284,-0.7742215060373588,0.11079088421807397,0.5966716627856179,1,left
1.798,0.7195804855534917,0.08400062699492251,0.45132411683593765,1.4608200682420645,1.7441654215278488,-1.040291790791786,-0.7494377896472691,0.10095104358141274,0.5647661151300204,1,left
1.7990000000000002,0.7116746599896231,0.07984322822106388,0.4505442596230153,1.4924051982516322,1.6332517897197207,-1.0176250758738585,-0.723791969692554,0.09137656671356412,0.5326380032009087,1,left
1.804,0.703760081458958,0.07595588586712534,0.4496084394046987,1.5226984528337704,1.5197261753546738,-0.9941134421560466,-0.6972887415017289,0.082075487146537,0.5002954576513092,1,left
1.805,0.6958457608505325,0.07233771887460766,0.44851555979040675,1.5516526640034687,1.4036942522972105,-0.9697661854431509,-0.6699336177869587,0.07305553212567895,0.46774643013359885,1,left
1.807,0.6879405452660955,0.06898767848331044,0.447264763827583,1.5792223334355078,1.2852655846499306,-0.9445936152790637,-0.6417329175250513,0.06432412986170045,0.4349986913269352,1,left
1.808,0.6800530987914394,0.0659045589595313,0.44585543789056586,1.605363761871565,1.1645533521151052,-0.9186070725227283,-0.6126937529005271,0.05588841772314786,0.40205982928685996,1,left
1.808,0.6721918837969596,0.06308700807595671,0.4442872149099877,1.6300351808755373,1.0416740544493472,-0.8918189464893042,-0.5828240150457384,0.047755251026306095,0.3689372484169939,1,left
1.8119999999999998,0.66436514278909,0.06053353731277757,0.44255997696255234,1.6531968870161833,0.916747194671412,-0.8642426915842447,-0.5521323595817696,0.03993121197463331,0.3356381694933076,1,left
1.8130000000000002,0.6565808808486944,0.05824253175663073,0.4406738572440736,1.6748113785520942,0.7898949406766028,-0.8358928433556665,-0.5206281926902542,0.032422618406385634,0.30216963103976724,1,left
1.8130000000000002,0.6488468487151097,0.0562122596778187,0.43862924144988547,1.6948434944775639,0.6612417655731079,-0.8067850338531757,-0.48832165795574073,0.025235532200232717,0.2685384921175808,1,left
1.817,0.6411705265885528,0.054440881770429536,0.4364267685805258,1.7132605547224982,0.5309140703900566,-0.7769360060045442,-0.4552236239446943,0.01837576729525979,0.23475143645862814,1,left
1.817,0.6335591087236236,0.05292646004437278,0.4340673311805455,1.7300324983851074,0.3990397988141626,-0.7463636264052704,-0.4213456724306512,0.011848897303799079,0.20081497784694347,1,left
1.8219999999999998,0.6260194888906334,0.05166696636092309,0.431552075012247,1.745132015810479,0.2657480569469961,-0.7150868957393697,-0.3867000871727435,0.005660262696456555,0.16673546665165107,1,left
1.8230000000000002,0.6185582468038272,0.050660290603747604,0.42888239816583607,1.7585346713845926,0.13116874772977702,-0.6831259562221251,-0.3512998431525363,-0.0001850224603602605,0.13251909741430762,1,left
1.8259999999999998,0.6111816356408081,0.049904248476937106,0.4260599496080586,1.77021901581859,-0.00456777633446538,-0.6505020957675958,-0.3151585961718812,-0.005682064233151875,0.09817191739317395,1,left
1.827,0.6038955707828363,0.049396588921741015,0.42308662716973156,1.780166687754405,-0.14133104187593248,-0.6172377487561679,-0.2782906727122868,-0.010826183034041075,0.0636998359665283,1,left
1.831,0.5967056198880143,0.04913500114557264,0.41996457497113504,1.7883625047302099,-0.2789907651566241,-0.5833564933103826,-0.24071105995414072,-0.015612908334273236,0.02910863479673969,1,left
1.8319999999999999,0.5896169943777916,0.04911712126068591,0.4166961802859379,1.7947945435392019,-0.41741714476208874,-0.548883044985368,-0.2024353958519889,-0.020037973894284158,-0.005596021343556139,1,left
1.8359999999999999,0.5826345423815446,0.04934053853469165,0.4132840698479882,1.799454210010278,-0.5564811368789604,-0.5138432467783657,-0.16347995915999328,-0.02409731352510346,-0.04040857318219503,1,left
1.837,0.5757627431519615,0.04980280125926674,0.4097311056079173,1.8023362982341136,-0.696054713553461,-0.4782640553600759,-0.12386165929964528,-0.027787057394835342,-0.07532355509449586,1,left
1.841,0.5690057029391153,0.05050142224634061,0.406040379946989,1.8034390392531063,-0.8360111043282547,-0.4421735234288405,-0.08359802595981405,-0.031103528892919972,-0.11033558288623041,1,left
1.8419999999999999,0.5623671522928058,0.0514338839627014,0.4022152103560727,1.802764139228559,-0.9762250216568691,-0.4056007780870643,-0.042707198317258,-0.03404324206382856,-0.14543934131254724,1,left
1.8459999999999999,0.5558504447482185,0.05259764331438555,0.39825913359151427,1.8003168070933764,-1.1165728704963724,-0.36857599513772443,-0.0012079137638237396,-0.036602899620783856,-0.18062957143313907,1,left
1.847,0.54945855683677,0.05399013609165021,0.39417589932744024,1.7961057716934499,-1.2569329424800895,-0.33113036919735306,0.040880503975294635,-0.038779391549025884,-0.21590105790422282,1,left
1.851,0.5431940893525172,0.05560878108379979,0.3899694633317534,1.790143288415799,-1.3971855950728902,-0.29329607952049336,0.08353815744966421,-0.040569794307060855,-0.2512486163081646,1,left
1.8519999999999999,0.5370592697966946,0.057450983869771974,0.3856439801966793,1.782445135296462,-1.5372134161119708,-0.25510625142933485,0.1267445889372646,-0.04197137063323973,-0.28666708062183016,1,left
1.8559999999999999,0.5310559559200461,0.059514140284711914,0.38120379565333345,1.7730305985960617,-1.6769013741360859,-0.21659491324102528,0.17047879486454784,-0.042981569963912676,-0.3221512909249759,1,left
1.857,0.5251856402845805,0.06179563955598415,0.3766534384945932,1.761922447825953,-1.8161369549058877,-0.1777969485840429,0.21471924131540715,-0.043598029468296745,-0.35769608145021303,1,left
1.86,0.5194494557707517,0.0642928670964122,0.3719976121234241,1.7491469002028794,-1.9548102845173865,-0.1387480439939932,0.25944388075312935,-0.043818575704077774,-0.39329626907628135,1,left
1.861,0.5138481819587255,0.06700320694052649,0.3672411857381667,1.7347335745051422,-2.092814239509577,-0.09948463167827239,0.30463017008092175,-0.04364122689664341,-0.42894664236655844,1,left
1.8659999999999999,0.5083822523118215,0.0699240438127107,0.3623891851657505,1.7187154342984248,-2.2300445443659793,-0.06004382733821809,0.35025509016805656,-0.043064195843713446,-0.46464195125490415,1,left
1.8659999999999999,0.5030517620888504,0.07305276482318437,0.3574467833582239,1.7011287204946388,-2.3663998568082407,-0.020463362936648976,0.3962951669700671,-0.04208589344599677,-0.5003768974810986,1,left
1.8730000000000002,0.49785647691242463,0.07638676079637478,0.35241929057425564,1.6820128732024582,-2.5017818412780115,0.01921848570192044,0.44272649437275347,-0.04070493286336174,-0.5361461258782764,1,left
1.874,0.49279584192325215,0.07992342724513973,0.3473121442730614,1.6614104428235987,-2.6360952310011156,0.05896297657161116,0.4895247588910155,-0.038920134294858764,-0.5719442166148884,1,left
1.876,0.4878689914564994,0.0836601650128006,0.34213089875231467,1.6393669903444117,-2.7692478790255075,0.0987309845596792,0.5366652663547229,-0.03673053037978173,-0.6077656784938377,1,left
1.8769999999999998,0.48307475918587917,0.0875943806111989,0.3368812145630553,1.6159309767679635,-2.9011507986217273,0.13848309002909504,0.5841229706390473,-0.03413537220963123,-0.643604943373603,1,left
1.8769999999999998,0.4784116886926539,0.09172348628479733,0.3315688477323851,1.5911536416275178,-3.031718193431506,0.1781796730232941,0.6318725041181963,-0.03113413590884589,-0.6794563615866033,1,left
1.881,0.47387804442580145,0.09604489982903798,0.3261996388191541,1.5650888705181973,-3.1608674777468417,0.2177810132072564,0.6798882088393069,-0.027726529685498914,-0.7153141978887595,1,left
1.882,0.46947182302209267,0.10055604418963612,0.32077950182349185,1.5377930517850116,-3.2885192873255464,0.2572473954802307,0.7281441670346249,-0.023912501221155676,-0.7511726272846173,1,left
1.883,0.46519076495333544,0.1052543468696046,0.31531441297104645,1.5093249235285888,-3.4145974812817865,0.2965392203012783,0.7766142299704768,-0.01969224529875889,-0.7870257302620755,1,left
1.885,0.4610323664678632,0.11013723917068197,0.30981039939308325,1.4797454139348685,-3.5390291358314823,0.33561711615937134,0.8252720448154661,-0.01506621162174777,-0.8228674873121405,1,left
1.886,0.45699389179288175,0.11520215529601108,0.3042735277228948,1.449117478958468,-3.6617445308044902,0.37444205072541137,0.8740910795905615,-0.01003511280728744,-0.8586917727987804,1,left
1.891,0.4530723855596361,0.12044653134303593,0.298709892631158,1.4175059403590882,-3.782677129694618,0.41297543811701487,0.9230446463402571,-0.004599932541485943,-0.8944923482818572,1,left
1.891,0.44926468540718656,0.125867804217875,0.2931256053258447,1.3849773252385142,-3.901763553768397,0.4511792413154651,0.9721059226645319,0.0012380661166889767,-0.930262855396093,1,left
1.895,0.4455674347172045,0.13146341050297916,0.2875267820413105,1.351599707195776,-4.01894355061227,0.4890160696674842,1.0212479717517935,0.00747733229724421,-0.9659968083889667,1,left
1.896,0.441977095431808,0.13723078530920815,0.28191953253849084,1.3174425490097885,-4.134159957465454,0.5264492715824396,1.0704437610533781,0.014116018762357832,-1.001687586420375,1,left
1.9,0.43848996090736253,0.14316736114146295,0.27630994863906405,1.2825765467561827,-4.247358659680462,0.5634430225346543,1.1196661797404908,0.021151973247705538,-1.0373284257268007,1,left
1.901,0.43510216875843505,0.14927056680265588,0.2707040928227029,1.2470734752625836,-4.358488544647778,0.599962408479436,1.1688880550846983,0.028582729719836716,-1.0729124117526323,1,left
1.905,0.43180971364879983,0.15553782635424193,0.26510798692560983,1.211006034804366,-4.467501451515572,0.6359735047902854,1.2180821679032434,0.03640549956866671,-1.1084324713511444,1,left
1.906,0.4286084599923175,0.1619665581437612,0.2595276009862893,1.1744476989408863,-4.574352117029511,0.6714434508234796,1.267221267210524,0.04461716275529239,-1.1438813651575157,1,left
1.911,0.4254941545346638,0.16855417390158722,0.2539688422875201,1.1374725633903484,-4.678998117811826,0.7063405202148695,1.3162780842170807,0.05321425893647152,-1.1792516802360915,1,left
1.911,0.42246243879412865,0.1752980779013991,0.2484375446407356,1.1001551958398554,-4.7813998093927,0.7406341870122706,1.3652253458173549,0.06219297858823205,-1.2145358231039125,1,left
1.9169999999999998,0.41950886134383963,0.18219566617312974,0.24293945795265917,1.0625704865857821,-4.881520262300827,0.7742951877452735,1.4140357877073235,0.07154915415219375,-1.2497260132323318,1,left
1.9180000000000001,0.4166288899185343,0.18924432575330769,0.23748023810653182,1.0247934998984094,-4.979325195513697,0.8072955795326592,1.4626821672728767,0.08127825122929103,-1.2848142771283124,1,left
1.919,0.41381792332787726,0.19644143395497646,0.23206543718188244,0.9868993260037782,-5.0747829075616755,0.8396087943258731,1.5111372763894932,0.09137535984668166,-1.3197924430967496,1,left
1.92,0.4110713031574739,0.20378435763789984,0.22670049402799822,0.9489629335749553,-5.167864205573449,0.871209689385195,1.5593739542733764,0.10183518582470916,-1.3546521367848938,1,left
1.925,0.40838432523903545,0.2112704524603171,0.2213907251995288,0.9110590226243493,-5.258542332543717,0.9020745940833521,1.6073651005237344,0.11265204227185754,-1.3893847776096564,1,left
1.926,0.4057522508716009,0.21889706209632656,0.21614131626103797,0.8732618776883769,-5.346792893097303,0.9321813531293448,1.655083688495353,0.12381984123669326,-1.4239815761682613,1,left
1.929,0.4031703177754026,0.22666151740711105,0.2109573134721559,0.8356452211956605,-5.432593778017015,0.9615093663032187,1.7025027791399672,0.13533208554683052,-1.458433532732367,1,left
1.93,0.4006337507601619,0.2345611355574716,0.20584361587398062,0.7982820669100292,-5.515925087795699,0.9900396247903969,1.7495955354542398,0.14718186086598042,-1.4927314369254217,1,left
1.9340000000000002,0.3981377720926243,0.24259321907008258,0.20080496780567925,0.7612445733399005,-5.596769055465967,1.0177547442020232,1.7963352376713753,0.15936182800115245,-1.5268658686826115,1,left
1.935,0.3956776115542611,0.25075505480928045,0.1958459518836553,0.7246038970061368,-5.675109968954034,1.0446389943655212,1.8426952993325312,0.17186421549306474,-1.5608272005923614,1,left
1.939,0.39324851618718515,0.25904391288533063,0.19097098247211894,0.6884300454611981,-5.750934093197012,1.0706783259672954,1.8886492843732543,0.18468081252378873,-1.594605601717891,1,left
1.939,0.3908457597325869,0.2674570454696929,0.18618429966426495,0.6527917299533462,-5.8242295922558736,1.0958603941271559,1.934170925359156,0.19780296217660123,-1.628191042996868,1,left
1.944,0.3884646517708356,0.275991685512211,0.18148996378097246,0.617756217630791,-5.894986451649106,1.12017457898167,1.9792341430039466,0.211221555083942,-1.6615733043166996,1,left
1.945,0.38610054657554,0.28464504535237795,0.17689185038232735,0.5833891831820097,-5.963196401124849,1.1436120033512174,2.023813067101794,0.2249270235002772,-1.6947419833624713,1,left
1.945,0.38374885169451384,0.29341431521908945,0.17239364577826474,0.5497545598100033,-6.028852838082062,1.1661655475630668,2.0678820589437272,0.23890933584234833,-1.7276865062832623,1,left
1.949,0.3814050362681132,0.30229666161750607,0.16799884301971127,0.5169143894399859,-6.091950751843966,1.1878298615003033,2.111415734981598,0.2531579917641508,-1.7603961399682675,1,left
1.95,0.3790646390911794,0.31128922560779937,0.16371073835096592,0.48492867224982444,-6.152486648975669,1.2086013739146564,2.154388990952862,0.26766201787803606,-1.7928600052668968,1,left
1.95,0.37672327642171866,0.3203891209863978,0.15953242810557502,0.45385521655418803,-6.210458479810447,1.228478298892408,2.1967770253730703,0.2824099642581383,-1.8250670902326767,1,left
1.955,0.37437664953860395,0.3295934323835364,0.1554668060286934,0.4237494917668176,-6.265865566305613,1.2474606390966214,2.238555361606333,0.29738990183907865,-1.8570062627238013,1,left
1.955,0.37202055205108503,0.33889921329142314,0.15151656100630334,0.3946644881073195,-6.318708531321431,1.2655501852600415,2.2796998682712624,0.31258942078040425,-1.8886662821491302,1,left
1.959,0.3696508769642796,0.3483034840371426,0.14768417517382673,0.3666505857819581,-6.368989229429296,1.2827505115467701,2.3201867780431216,0.3279956298439069,-1.9200358104013933,1,left
1.96,0.3672636235069934,0.35780322971563916,0.1439719223643127,0.33975543467952585,-6.4167106793842015,1.2990669666616645,2.359992704972155,0.34359515682682834,-1.951103422069329,1,left
1.964,0.36485490373102974,0.3673953981007411,0.14038186684301046,0.31402384468675315,-6.461876998409297,1.3145066607301605,2.3990946604362344,0.3593741500945876,-1.9818576140196862,1,left
1.964,0.3624209488953152,0.37707689755451973,0.13691586226397984,0.2894976865428852,-6.50449333843697,1.3290784479979474,2.4374700678440893,0.37531828125726024,-2.0122868144391766,1,left
1.969,0.35995811565421376,0.3868445949561528,0.1335755507777838,0.2662158031562589,-6.5445658244435725,1.3427929053973822,2.475096776203414,0.3914127490345922,-2.0423793914256074,1,left
1.97,0.3574628920755107,0.3966953136700822,0.13036236222141687,0.24421393130905036,-6.582101495007529,1.355662307025014,2.511953072666143,0.40764228435484795,-2.072123661216512,1,left
1.974,0.35493190351591086,0.4066258315698554,0.1272775133372907,0.22352463367981937,-6.617108245213289,1.3677005945721066,2.5480176941610786,0.4239911567332617,-2.1015078961426727,1,left
1.974,0.352361918377399,0.4166328791308697,0.12432200699744601,0.20417724111704544,-6.649594772016232,1.378923343747579,2.5832698382219257,0.440443181976296,-2.1305203323929565,1,left
1.9780000000000002,0.3497498537556699,0.426713137604555,0.12149663144551018,0.18619780510051961,-6.679570522176399,1.389347726730368,2.617689173116557,0.45698173125829644,-2.1591491776758867,1,left
1.979,0.3470927809733207,0.4368632372892925,0.11880195960262128,0.1696090603312207,-6.707045642861611,1.398992470685826,2.6512558473810737,0.47358974161747286,-2.1873826188623373,1,left
1.983,0.3443879309680034,0.44707975591919735,0.11623834850826949,0.15443039739415187,-6.732030935013332,1.407877812378434,2.683950498859886,0.4902497279184342,-2.215208829692672,1,left
1.984,0.34163269948251346,0.4573592171986606,0.11380593898212162,0.14067784544253673,-6.754537809561411,1.4160254489108137,2.7157542633506493,0.5069437963287506,-2.2426159786305426,1,left
1.9880000000000002,0.33882465198369804,0.46769808951556774,0.11150465559966996,0.12836406485576116,-6.774578246566649,1.4234584846167933,2.74664878295044,0.5236536593572165,-2.2695922369444306,1,left
1.989,0.3359615282235035,0.47809278486802553,0.10933420707349999,0.11749834982749187,-6.792164757362994,1.4302013741340915,2.7766162141970545,0.5403606525016345,-2.29612578709684,1,left
1.993,0.3330412463498275,0.48853965803864813,0.10729408712424986,0.10808664084449093,-6.807310349764048,1.4362798616800851,2.8056392360967615,0.5570457525540391,-2.322204831519857,1,left
1.994,0.33006190647598405,0.4990350060488387,0.10538357591246585,0.10013154702077234,-6.8200284963914815,1.4417209165520573,2.8337010581272053,0.5736895976113234,-2.3478176018545374,1,left
1.9980000000000002,0.32702179362270906,0.5095750679245991,0.10360174208458707,0.0936323782558991,-6.830333106175908,1.4465526648713571,2.8607854283015315,0.5902725088392211,-2.3729523687303256,1,left
1.999,0.32391937995390047,0.5201560248050444,0.10194744546381594,0.0885851871903893,-6.838238499073752,1.4508043175889909,2.8868766413770595,0.6067745140375347,-2.397597452159401,1,left
2.002,0.320753326237638,0.5307740004243654,0.10041934039340988,0.08498282093537651,-6.843759384036682,1.4545060947683335,2.9119595472890825,0.6231753730543822,-2.4217412326194934,1,left
2.003,0.3175224824781503,0.5414250619968636,0.09901587971930122,0.08281498255784585,-6.846910840263234,1.4576891461589045,2.936019559887575,0.6394546050970559,-2.445372162897364,1,left
2.008,0.31422588768045356,0.5521052215317954,0.09773531938023247,0.08206830230693105,-6.847708301755377,1.4603854680734896,2.959042666051725,0.6555915179868549,-2.4684787807637107,1,left
2.009,0.3108627687261134,0.5628104375996147,0.09657572355664379,0.08272641857090186,-6.846167545195902,1.4626278165793034,2.9810154352543123,0.6715652394049653,-2.4910497225488433,1,left
2.012,0.3074325383555809,0.5735366175651812,0.09553497031881512,0.08477006855858533,-6.8423046811557375,1.464449617012414,3.0019250296198443,0.6873547501260624,-2.513073737652953,1,left
2.013,0.3039347922665109,0.5842796202993039,0.09461075771491195,0.08817718870304057,-6.836136148633491,1.46588486982324,3.021759214391501,0.7029389189856862,-2.5345397038532007,1,left
2.013,0.3003693053461978,0.5950352593785084,0.093800610248558,0.09292302478933648,-6.827678712922849,1.466968052759635,3.040506368492338,0.7182965388765722,-2.555436642962073,1,left
2.017,0.29673602706441227,0.6057993067810402,0.09310188570478214,0.09898025162169458,-6.816949466762983,1.4677340195007877,3.058155494737237,0.733406362818374,-2.5757537362197724,1,left
2.0180000000000002,0.2930350760623377,0.6165674970831679,0.09251178228834192,0.10631910109636551,-6.803965834551542,1.468217895393659,3.074696229374915,0.7482471393948419,-2.5954803389719268,1,left
2.0180000000000002,0.289266733979079,0.6273355321559868,0.0920273460432511,0.11490749583539941,-6.788745579089216,1.4684549719139486,3.0901188508627637,0.7627976473022672,-2.614605994488486,1,left
2.023,0.28543143856260206,0.6380990863570624,0.09164547852706623,0.12471118458742665,-6.771306810149325,1.468480602012274,3.1044142879000187,0.7770367290025085,-2.633120446948117,1,left
2.023,0.28152977612497304,0.6488538121993017,0.09136294471344457,0.1356938765580481,-6.751667994328415,1.468330097965849,3.1175741267667534,0.7909433235231874,-2.6510136536447497,1,left
2.0269999999999997,0.2775624734180797,0.6595953464648247,0.09117638109228188,0.14781737355106714,-6.729847965931446,1.4680386323839243,3.1295906180129855,0.8044964984468088,-2.66827579647119,1,left
2.028,0.2735303890177216,0.6703193167198543,0.09108230393288125,0.1610416997580879,-6.705865938807734,1.4676411424750737,3.1404566825389457,0.8176754811296657,-2.6848972927329697,1,left
2.033,0.26943450431217236,0.6810213481777082,0.09107711767421063,0.1753252292279478,-6.679741519081263,1.4671722375759628,3.1501659171042906,0.8304596891904321,-2.7008688053438155,1,left
2.0340000000000003,0.26527591419928975,0.6916970708487454,0.09115712340741204,0.1906248110507256,-6.651494718712729,1.466666109940841,3.1587125993007747,0.8428287603073343,-2.7161812524522992,1,left
2.037,0.2610558176036114,0.7023421269089337,0.09131852741777345,0.20689589229422597,-6.621145969824466,1.4661564487906877,3.166091692019573,0.854762581361717,-2.730825816547405,1,left
2.0380000000000003,0.25677550792949677,0.7129521782145891,0.09155744975394323,0.22409263873387986,-6.5887161397132505,1.4656763576207419,3.1722988474411418,0.8662413169646846,-2.7447939530888723,1,left
2.041,0.2524363635660549,0.723522913890713,0.0918699327909756,0.24216805341991646,-6.554226546469871,1.4652582747650276,3.1773304105721527,0.8772454374023082,-2.7580773987062845,1,left
2.042,0.24803983855411174,0.7340500579230518,0.0922519497520179,0.2610740931284511,-6.517698975118349,1.4649338972164918,3.1811834223506947,0.887755746033638,-2.770668179008958,1,left
2.045,0.24358745351683606,0.7445293766886458,0.09269941315105189,0.28076178274578845,-6.479155694181657,1.4647341077014366,3.1838556223375627,0.8977534061744552,-2.7825586160467375,1,left
2.05,0.2390807869459956,0.7549566863665569,0.0932081831160445,0.30118132763776456,-6.438619472574946,1.4646889050071166,3.1853454510080845,0.9072199674983323,-2.7937413354598366,1,left
2.051,0.23452146692592635,0.7653278601797388,0.09377407554939725,0.32228222405833373,-6.396113596721358,1.464827337561638,3.1856520516555475,0.9161373919851566,-2.8042092733538864,1,left
2.055,0.22991116336669362,0.7756388354297553,0.09439287008229061,0.3440133676538503,-6.35166188777976,1.4651774402656472,3.184775271913898,0.9244880794457949,-2.8139556829343273,1,left
2.056,0.22525158080616423,0.7858856202973271,0.09506031778241601,0.36632316012159727,-6.3052887188680184,1.4657661745757415,3.1827156649039945,0.932254892650059,-2.822974140932252,1,left
2.059,0.2205444518279307,0.7960643003923593,0.09577214857957778,0.38915961408306793,-6.257019032159735,1.466619371840063,3.1794744900042917,0.9394211820835487,-2.8312585538517694,1,left
2.06,0.2157915311283591,0.8061710450453315,0.09652407837751957,0.41247045623431816,-6.206878355726804,1.4677616798871356,3.1750537132434387,0.9459708103573273,-2.838803164066857,1,left
2.063,0.21099459025211373,0.8162021133371541,0.09731181582102694,0.43620322883736684,-6.154892819994625,1.4692165128696937,3.1694560073088778,0.9518881762927012,-2.8456025557936053,1,left
2.064,0.20615541300229148,0.8261538598681694,0.09813106868656914,0.4603053896181352,-6.101089173671372,1.4710060043660098,3.1626847511621405,0.9571582387016607,-2.851651660961645,1,left
2.069,0.20127579151844674,0.8360227402700308,0.09897754986655936,0.48472441013777806,-6.045494799007323,1.4731509637420463,3.154744029248138,0.9617665398817621,-2.8569457650064094,1,left
2.07,0.19635752300291656,0.8458053164667485,0.09984698292390212,0.5094078727054708,-5.988137726234964,1.4756708357786652,3.145638630282381,0.9656992288424157,-2.861480512601764,1,left
2.073,0.1914024070641647,0.855498261693019,0.10073510720327758,0.5343035659017796,-5.929046647035378,1.4785836635690761,3.135374045596683,0.9689430842776908,-2.865251913350358,1,left
2.074,0.1864122436356821,0.8650983652788137,0.1016376824960464,0.5593595787826504,-5.868250926871259,1.4819060546927303,3.123956467020547,0.9714855372988453,-2.8682563474469074,1,left
2.0780000000000003,0.18138883141952994,0.8746025372093212,0.10255049326548302,0.5845243938348129,-5.805780616021853,1.485653150672934,3.1113927842836233,0.9733146939183168,-2.8704905713216005,1,left
2.079,0.17633396679749513,0.8840078124701909,0.10346935244739806,0.6097469787540077,-5.741666459150115,1.4898385997265913,3.0976905819790175,0.9744193571772898,-2.8719517232394924,1,left
2.079,0.1712494431525567,0.8933113551906471,0.10439010484800842,0.6349768771179034,-5.675939903227515,1.4944745328156472,3.0828581362277605,0.9747890486311648,-2.8726373287771167,1,left
2.083,0.16613705054294325,0.9025104625993434,0.10530863016949737,0.6601642980258859,-5.608633103637098,1.4995715430110264,3.066904411239175,0.9744140288075549,-2.8725453060662027,1,left
2.084,0.1609985756642833,0.9116025688068241,0.10622084570750095,0.6852602047780711,-5.539778928270674,1.50513866818112,3.04983905590089,0.9732853163470129,-2.8716739707212993,1,left
2.088,0.15583580202773653,0.9205852484244125,0.10712270878053959,0.7102164026659095,-5.469410959431397,1.5111833770181577,3.031672400425169,0.9713947057103477,-2.8700220404183123,1,left
2.088,0.1506505102816641,0.9294562200247318,0.10801021896164621,0.7349856258585632,-5.397563493403984,1.5177115584047802,3.012415453017271,0.9687347834319033,-2.867588639117858,1,left
2.089,0.14544447861183862,0.9382133494465571,0.10887942018152215,0.7595216229286162,-5.3242715378279675,1.5247275140627323,2.9920798965168496,0.9652989429155411,-2.8643733009309287,1,left
2.094,0.14021948316694374,0.9468546529468982,0.10972640276149795,0.7837792397676315,-5.249570807504802,1.5322339543158279,2.970678084960214,0.961081397767876,-2.8603759736221193,1,left
2.094,0.13497729846713963,0.9553783002018361,0.11054730542334074,0.8077144982011765,-5.173497719542982,1.540231996738988,2.9482230400081724,0.9560771936611145,-2.855597021743434,1,left
2.0980000000000003,0.12971969776021164,0.9637826171502526,0.1113383173191489,0.8312846690526289,-5.096089388463564,1.5487211675282844,2.9247284471810535,0.950282218715608,-2.850037229389423,1,left
2.099,0.12444845329515594,0.9720660886641379,0.11209568012260376,0.8544483391969234,-5.017383621384732,1.5576994055394686,2.9002086518394625,0.9436932123899979,-2.8436978025621733,1,left
2.103,0.11916533649154352,0.9802273610214518,0.11281569021536715,0.8771654725848365,-4.9374189131224675,1.5671630690056113,2.8746786548462846,0.9363077728645665,-2.8365803711324293,1,left
2.103,0.1138721179945721,0.9882652441532584,0.1134947009910468,0.8993974653054287,-4.856234440985032,1.5771069449582382,2.848154107842476,0.9281243629011396,-2.828686990380871,1,left
2.108,0.10857056761791666,0.9961787136334186,0.11412912528719772,0.9211071947531042,-4.773870059035249,1.5875242613777412,2.8206513080662434,0.9191423141606073,-2.820020142101336,1,left
2.108,0.10326245418760988,1.003966912375915,0.11471543794419652,0.94225906296446,-4.690366291590945,1.5984067021002473,2.7921871926422948,0.9093618299568421,-2.810582735245557,1,left
2.112,0.09794954530914918,1.0116291520037888,0.11525017848037282,0.9628190341887174,-4.60576432573042,1.6097444245094892,2.7627793322650005,0.8987839864235068,-2.8003781060867294,1,left
2.113,0.0926336070864544,1.0191649138557484,0.11572995386615371,0.9827546667540205,-4.520106002566422,1.6215260800435902,2.732445924196499,0.8874107320679459,-2.7894100178770267,1,left
2.1180000000000003,0.08731640382594837,1.0265738496004642,0.11615144137410265,1.002035139290295,-4.433433807048833,1.6337388375480055,2.701205784498006,0.8752448856840699,-2.7776826599719615,1,left
2.119,0.08199969776336032,1.033855781432472,0.11651139147609257,1.0206312713676586,-4.345790856053104,1.6463684095071622,2.669078339409895,0.8622901325938463,-2.765200646392275,1,left
2.123,0.0766852488556501,1.0410107018269437,0.11680663075491096,1.0385155386075877,-4.257220884508484,1.6593990811886195,2.636083615793445,0.848551019184733,-2.7519690137918693,1,left
2.124,0.07137481468451887,1.04803877283405,0.11703406479521428,1.0556620823221665,-4.16776822931712,1.672813742734799,2.6022422305445483,0.8340329457081105,-2.7379932187980907,1,left
2.127,0.06607015051874565,1.0549403248982674,0.11719068101670584,1.0720467137347771,-4.077477810812373,1.6865939242385357,2.5675753788871405,0.8187421573015116,-2.7232791346885206,1,left
2.128,0.06077300957878444,1.0617158551938979,0.1172735514104651,1.0876469128335549,-3.9863951115019867,1.7007198338398426,2.5321048214515947,0.8026857331951858,-2.7078330473662784,1,left
2.1319999999999997,0.05548514353931183,1.068366025474275,0.11727983513825595,1.1024418219068133,-3.8945661518392436,1.7151703988823905,2.4958528700409253,0.7858715740613101,-2.6916616505937014,1,left
2.133,0.05020830329470834,1.0748916594376845,0.11720678095664588,1.1164122338074585,-3.802037462762824,1.7299233101692466,2.458842371985249,0.7683083874619319,-2.67477204044214,1,left
2.138,0.04494424000071805,1.0812937396170617,0.11705172943569027,1.1295405749911638,-3.7088560547438107,1.7449550693584006,2.4210966929826565,0.7500056713495366,-2.657171708913511,1,left
2.138,0.039694706396490434,1.0875734038022387,0.11681211495534792,1.1418108833707654,-3.615069383076137,1.7602410395395491,2.3826396983224036,0.7309736955719554,-2.638868536687172,1,left
2.142,0.03446145840728144,1.0937319410028752,0.11648546747715025,1.153208781026973,-3.520725309144772,1.7757554990344677,2.3434957323841483,0.7112234813311802,-2.61987078494361,1,left
2.142,0.02924625702753899,1.0997707869574531,0.11606941409948404,1.1637214418130772,-3.425872057404061,1.7914716984640984,2.3036895963048516,0.6907667785435285,-2.6001870862144014,1,left
2.147,0.02405087048321127,1.1056915191897836,0.11556168041210603,1.1733375538888695,-3.330558167796895,1.8073619211262115,2.263246523702924,0.6696160410465081,-2.579826434205885,1,left
2.148,0.018877076669357066,1.111495851611124,0.11496009167219239,1.1820472772164932,-3.2348324433437927,1.8233975467281502,2.222192154347209,0.6477843995956695,-2.558798172541983,1,left
2.148,0.013726665855908367,1.1171856286639668,0.11426257383080625,1.1898421960483985,-3.138743892629511,1.83954911851975,2.1805525057247004,0.6252856326604674,-2.537111982403689,1,left
2.151,0.008601443651987664,1.122762819003052,0.11346715444130656,1.196715266435006,-3.0423416669134724,1.8557864138720184,2.138353942799955,0.6021341353649627,-2.51477786921101,1,left
2.1519999999999997,0.0035032342166094674,1.1282295087099887,0.11257196347810271,1.202660758777083,-2.9456749915891267,1.8720785183475759,2.095623146871055,0.5783448875270867,-2.4918061487975898,1,left
2.157,-0.0015661163001478686,1.133587894037918,0.11157523409030168,1.2076741955561685,-2.8487930919051334,1.8883939032041248,2.052387084766217,0.553933422087078,-2.4682074336965893,1,left
2.157,-0.006604736105435372,1.1388402736816474,0.11047530331440114,1.2117522849285698,-2.751745113804447,1.904700505747102,2.008672979282607,0.528915794875026,-2.4439926199843023,1,left
2.158,-0.011610723925607785,1.1439890405698874,0.10927061277127839,1.2148928518644528,-2.6545800424360078,1.9209658110021965,1.9645082811537657,0.5033085560557765,-2.4191728748197976,1,left
2.161,-0.0165821450144149,1.1490366731801835,0.10795970937556175,1.2170947690656966,-2.557346621837217,1.9371569326531288,1.919920642489682,0.47712872324886707,-2.393759624646854,1,left
2.162,-0.02151702705504703,1.1539857263816935,0.10654124609325001,1.2183578893386844,-2.460093278340791,1.9532406917154144,1.8749378915639878,0.4503937562516608,-2.3677645439886534,1,left
2.166,-0.02641335602216091,1.1588388218164623,0.10501398279371123,1.2186829800968317,-2.362868048559896,1.9691836923623416,1.8295880088214698,0.42312153329214974,-2.3411995447639558,1,left
2.167,-0.03126907208699673,1.16359863783769,0.10337678724975558,1.2180716601101387,-2.2657185118611602,1.9849523948445404,1.7838991039778582,0.3953303287362598,-2.314076766051772,1,left
2.171,-0.036082065663256335,1.1682678990336257,0.10162863634380531,1.2165263385054008,-2.16869172704628,2.000513185549268,1.7378993940827414,0.36703879217289204,-2.286408564229888,1,left
2.1719999999999997,-0.04085017370394637,1.1728493653773508,0.09976861754151257,1.2140501560180108,-2.0718341729630194,2.0158324442451416,1.6916171824153787,0.33826592879839473,-2.2582075034109534,1,left
2.177,-0.045571176368452565,1.177345821054159,0.09779593069610022,1.2106469284936054,-1.9751916927666258,2.0308766085575494,1.6450808380822273,0.30903108102066906,-2.229486346098234,1,left
2.178,-0.050242794183225775,1.1817600630273208,0.09570989024408406,1.2063210926351207,-1.8788094415530245,2.045612235719362,1.5983187761840951,0.27935391120167563,-2.200258043981586,1,left
2.18,-0.05486268581847414,1.186094889408503,0.0935099278445445,1.201077653988152,-1.782731837085648,2.0600060616408866,1.551359438420025,0.24925438545572653,-2.170535728792658,1,left
2.181,-0.059428446596652015,1.190353087700997,0.09119559550169966,1.194922137154852,-1.6870025133383668,2.0740250573422068,1.5042312739942867,0.2187527584196214,-2.1403327031368353,1,left
2.186,-0.06393760783457371,1.1945374229824888,0.08876656919630098,1.1878605382239495,-1.5916642765777391,2.0876364827901663,1.4569627206922005,0.1878695589094162,-2.109662431218004,1,left
2.186,-0.06838763709922771,1.1986506260896226,0.08622265303585559,1.1798992794018404,-1.4967590637086658,2.1008079381812808,1.4095821859899549,0.15662557637739968,-2.078538529370764,1,left
2.191,-0.0727759394307372,1.2026953818605797,0.08356378391787915,1.171045165827075,-1.4023279026085387,2.1135074127107725,1.3621180280630907,0.12504184808169955,-2.046974756313363,1,left
2.1919999999999997,-0.07709985955742205,1.2066743174868046,0.08079003668719355,1.161305344547978,-1.3084108741760927,2.1257033308667648,1.3145985365579234,0.09313964687984336,-2.0149850030332743,1,left
2.195,-0.08135668509780863,1.2105899910218902,0.07790162975971783,1.1506872656405365,-1.2150470758224108,2.1373645962874055,1.2670519129898532,0.06094046955656414,-1.9825832822160323,1,left
2.1959999999999997,-0.08554365071286207,1.2144448800943903,0.07489893118039956,1.1391986454411422,-1.1222745861328953,2.1484606332173346,1.2195062506322725,0.028466025595164753,-1.9497837171266863,1,left
2.201,-0.08965794314020921,1.2182413708717577,0.07178246508040499,1.1268474318662194,-1.0301304304304868,2.158961425598459,1.1719895137596188,-0.004261773699159216,-1.916600529851999,1,left
2.202,-0.093696707012078,1.2219817473239813,0.06855291849738775,1.1136417717882552,-0.9386505469720073,2.168837553828472,1.1245295161080482,-0.037220825816490825,-1.883048028810346,1,left
2.205,-0.09765705133205824,1.2256681808373764,0.0652111485204919,1.0995899804352456,-0.8478697535111953,2.178060229218933,1.0771538984171996,-0.07038884749310072,-1.849140595435115,1,left
2.206,-0.10153605646498563,1.229302720231667,0.06175818971535009,1.084700512778092,-0.7578217139638035,2.186601326183001,1.0298901049166094,-0.10374338509006423,-1.8148926699363128,1,left
2.211,-0.10533078147999804,1.2328872822367067,0.05819526177048886,1.0689819368680291,-0.6685389049120397,2.19443341218114,0.9827653586204959,-0.13726182499422127,-1.7803187360440234,1,left
2.2119999999999997,-0.10903827167933851,1.2364236424878705,0.05452377728469886,1.052442909083736,-0.5800525816876305,2.201529775451224,0.9358066352948737,-0.1709214041367134,-1.7454333046363437,1,left
2.2159999999999997,-0.11265556614583395,1.2399134271011936,0.050745349589337845,1.0350921512453766,-0.4923927437748967,2.207864450547523,0.8890406359612831,-0.20469922072486815,-1.7102508961534384,1,left
2.217,-0.11617970514946538,1.2433581048917075,0.046861800476874334,1.0169384295504318,-0.40558809927742123,2.2134122417110076,0.8424937578018119,-0.2385722452836712,-1.674786021698424,1,left
2.217,-0.11960773726732102,1.2467589803009906,0.042875167693799364,0.9979905352838293,-0.31966602819417594,2.2181487440913057,0.796192063406909,-0.27251733208663953,-1.6390531627918992,1,left
2.22,-0.12293672609508642,1.2501171870985073,0.03878771205951549,0.9782572672525466,-0.23465254425334717,2.222050362838456,0.7501612486897293,-0.3065112309720861,-1.6030667500810623,1,left
2.221,-0.12616375646002953,1.253433682913203,0.03460192409024078,0.9577474158925552,-0.1505722550545503,2.2250943300803367,0.7044266104784256,-0.34053059938954794,-1.5668411419065327,1,left
2.226,-0.12928594006992636,1.2567092446431063,0.030320530018766747,0.9364697490144444,-0.06744832042772038,2.227258719826525,0.6590130151801986,-0.37455201443719444,-1.5303906039642061,1,left
2.227,-0.1323004205432652,1.2599444647866187,0.025946497099098523,0.9144329992555597,0.014697590305128697,2.228522460972895,0.6139448695300016,-0.40855198473533433,-1.4937292909637565,1,left
2.228,-0.13520437777629593,1.2631397487350435,0.021483038085482003,0.8916458534910213,0.09584534008086229,2.228865348823536,0.5692460937505996,-0.44250696213270563,-1.4568712305817375,1,left
2.23,-0.13799503161735702,1.2662953130582586,0.016933614781162187,0.8681169445575375,0.17597636199644082,2.2282680556800116,0.5249400970699134,-0.47639335332639876,-1.4198303096715954,1,left
2.231,-0.14066964483056987,1.269411184806402,0.012301940551314002,0.8438548455379895,0.2550736912704291,2.2267121409094197,0.48104975546623124,-0.510187531493036,-1.382620262625308,1,left
2.234,-0.143225525339655,1.272487201837895,0.00759198169367959,0.8188680666658532,0.3331219905675135,2.224180060655361,0.43759739151293103,-0.5438658480287001,-1.3452546617807926,1,left
2.235,-0.14566002775457526,1.2755230141635492,0.00280795757462617,0.7931650548026327,0.410107568761125,2.220655177217248,0.39460475619548224,-0.5774046444949072,-1.3077469097687102,1,left
2.239,-0.147970554199174,1.2785180862691927,-0.002045660533681524,0.766754195418626,0.4860183933613603,2.2161217680934486,0.35209301257469106,-0.6107802648676552,-1.270110233691793,1,left
2.24,-0.15015455447430068,1.2814717003506098,-0.006964151946474647,0.7396438170052622,0.560844096832385,2.210565034680949,0.31008272117140884,-0.6439690681862443,-1.2323576810293877,1,left
2.244,-0.15220952560666964,1.2843829603694232,-0.0119425503895249,0.7118421978451891,0.6345759770204491,2.203971110621383,0.2685938269492421,-0.6769474416981686,-1.1945021171594925,1,left
2.245,-0.15413301084771325,1.2872507968192097,-0.01697564912444693,0.683357575064257,0.7072069919105672,2.196327069780369,0.22764564777318425,-0.7096918145959055,-1.1565562243901957,1,left
2.251,-0.15592259819895465,1.2900739720779502,-0.022058007325564535,0.6541981558875377,0.7787317489267976,2.187620933844166,0.18725686422352675,-0.7421786724408963,-1.1185325023920882,1,left
2.252,-0.15757591855262737,1.2928510862157119,-0.02718395763606297,0.6243721310195285,0.8491464889879166,2.177841679514666,0.14744551064590614,-0.7743845723694033,-1.0804432699229327,1,left
2.254,-0.15909064354872846,1.2955805831247913,-0.032347614809747446,0.5938876900667298,0.9184490655271259,2.1669792452807544,0.10822896731989261,-0.80628615917426,-1.042300667735603,1,left
2.255,-0.16046448325939353,1.298260756842504,-0.03754288532874563,0.5627530389188484,0.9866389186812585,2.155024537740994,0.06962395363013367,-0.8378601823557897,-1.0041166625600921,1,left
2.261,-0.16169518381543166,1.3008897579438492,-0.04276347788238302,0.5309764190029596,1.0537170448517597,2.1419694374495166,0.03164652212572249,-0.8690835142343608,-0.9659030520501923,1,left
2.262,-0.16278052508817095,1.3034655998921982,-0.04800291459746943,0.49856612832307373,1.119685961836528,2.1278068042539036,-0.005687946644831671,-0.8999331692161741,-0.9276714705853024,1,left
2.263,-0.16371831853444213,1.3059861652511564,-0.05325454292105774,0.4655305441956839,1.184549669728515,2.1125304820906954,-0.04236474863389816,-0.9303863243029353,-0.8894333958176923,1,left
2.2640000000000002,-0.1645064053057733,1.3084492116806934,-0.05851154807178232,0.4318781475900246,1.2483136077737798,2.096135303201004,-0.07836986023935073,-0.9604203409350608,-0.8512001558554729,1,left
2.269,-0.16514265471625794,1.310852377664665,-0.06376696599467865,0.3976175489799556,1.3109846073785238,2.0786170917255347,-0.11368994180074488,-0.9900127882569876,-0.8129829369714685,1,left
2.27,-0.16562496315674174,1.3131931879417182,-0.0690136967731422,0.3627575156125858,1.3725708414514508,2.059972666635121,-0.14831234075237892,-1.019141467892026,-0.7747927917281676,1,left
2.273,-0.16595125353359844,1.3154690586353892,-0.07424451846615782,0.3273070000969812,1.4330817702646437,2.0401998439496634,-0.18222509453664343,-1.0477844403129848,-0.7366406474089404,1,left
2.274,-0.166119475296189,1.317677302102698,-0.07945210134853195,0.29127517021455507,1.492528084013015,2.019297438195141,-0.21541693337909665,-1.075920052893531,-0.6985373146457617,1,left
2.279,-0.16612760509842794,1.3198151315437108,-0.08462902253815426,0.25467143985101476,1.550921642249268,1.9972652630451302,-0.24787728302470158,-1.1035269697239194,-0.6604934961337519,1,left
2.279,-0.16597364811978518,1.3218796654359377,-0.08976778099858777,0.21750550094804655,1.6082754103682269,1.974104131090026,-0.2795962675326221,-1.130584203273323,-0.6225197953229562,1,left
2.283,-0.16565564005359984,1.3238679318745339,-0.0948608129083935,0.17978735637124776,1.6646033933113369,1.9498158526739187,-0.31056471219626963,-1.157071147918754,-0.5846267249928446,1,left
2.2840000000000003,-0.16517164975906676,1.325776872906776,-0.09990050739179183,0.14152735358917495,1.719920566659106,1.924403233735833,-0.3407741465100028,-1.1829676150550374,-0.5468247156897551,1,left
2.285,-0.1645197825684144,1.3276033489474013,-0.10487922260940075,0.10273621905676163,1.77424280527628,1.8978700725888038,-0.3702168068440187,-1.2082538689515459,-0.509124124141955,1,left
2.2880000000000003,-0.16369818423949598,1.3293441433651203,-0.10978930221122257,0.06342509319477373,1.827586809671605,1.870221155567011,-0.39888563834362833,-1.232910662215764,-0.47153524184179985,1,left
2.2880000000000003,-0.1627050455415998,1.330995967350279,-0.11462309215564428,0.02360556585541523,1.8799700302311189,1.8414622514679886,-0.42677429571012176,-1.2569192700260543,-0.4340683039101543,1,left
2.295,-0.16153860745620935,1.332555465195869,-0.11937295790139818,-0.016710287837328787,1.9314105894810603,1.811600104713689,-0.45387714277596103,-1.280261522841433,-0.3967334982242877,1,left
2.296,-0.16019716696359682,1.3340192201317862,-0.12403130198673368,-0.057509871385517025,1.9819272025336783,1.7806424271509877,-0.48018925092800957,-1.302919837598347,-0.3595409747161993,1,left
2.296,-0.15867908337121459,1.3353837608435264,-0.12859058201673493,-0.0987800306823817,2.031539095897771,1.7485978884742266,-0.5057063964589017,-1.3248772474633845,-0.32250085473376255,1,left
2.299,-0.15698278512708358,1.3366455687845442,-0.13304332907948715,-0.14050701784918557,2.0802659249896185,1.7154761055752084,-0.5304250569244005,-1.346117430208936,-0.2856232403574582,1,left
2.299,-0.15510677705372017,1.3378010863592946,-0.1373821666047988,-0.1826764554825661,2.128127690959097,1.6812876317096939,-0.5543424065823237,-1.3666247352768637,-0.24891822356587234,1,left
2.3040000000000003,-0.15304964792211878,1.3388467260182124,-0.1415998296679901,-0.22527330172633836,2.1751446575997067,1.6460439466923187,-0.5774563109863333,-1.3863842095932175,-0.21239589514357637,1,left
2.305,-0.1508100782462201,1.3397788802675679,-0.1456891847233936,-0.26828181650917743,2.221337268952156,1.6097574490027668,-0.5997653208055922,-1.4053816221949835,-0.1760663532254692,1,left
2.3080000000000003,-0.14838684812384312,1.3405939325483511,-0.1496432497238534,-0.31168552915792364,2.2667260679268963,1.572441450096193,-0.6212686649389937,-1.4236034877277461,-0.13993971137216163,1,left
2.309,-0.1457788449019191,1.3412882688789511,-0.15345521454662964,-0.35546720752361655,2.311331616112016,1.5341101708818785,-0.641966242990358,-1.4410370888709938,-0.1040261060715044,1,left
2.312,-0.14298507041945294,1.3418582901011578,-0.15711846161179494,-0.3996088287437751,2.3551744148992495,1.4947787402659007,-0.6618586171686841,-1.4576704977456165,-0.06833570356191747,1,left
2.313,-0.14000464759092246,1.3423004245343646,-0.16062658655444298,-0.44409155176557447,2.3982748280585247,1.4544631956506555,-0.680947003675229,-1.4734925963559142,-0.032878705873759316,1,left
2.318,-0.1368368261362573,1.3426111408357584,-0.16397341879998237,-0.4888956917556529,2.4406530058892413,1.4131804852811425,-0.6992332636368743,-1.4884930961161698,0.0023346440144112915,1,left
2.319,-0.1334809873303847,1.3427869608816312,-0.16715304189240437,-0.5340006965233159,2.482328811074265,1.3709484723250656,-0.7167198936429289,-1.5026625565095493,0.03729405800718859,1,left
2.323,-0.12993664771915225,1.3428244725168266,-0.17015981343783146,-0.5793851250848818,2.523321746360506,1.3277859405709633,-0.7334100159402073,-1.5159924029247573,0.07198919981312432,1,left
2.324,-0.12620346181282416,1.3427203420532583,-0.1729883845487117,-0.6250266284978347,2.5636508841878576,1.283712601625818,-0.7493073683389191,-1.5284749437135219,0.10640968305612006,1,left
2.327,-0.1222812238110681,1.3424713264238874,-0.17563371870266725,-0.6709019330943143,2.6033347983862614,1.2387491034908598,-0.7644162938796134,-1.540103386509594,0.14054507067781397,1,left
2.3280000000000003,-0.11816986843308942,1.342074284910796,-0.17809110995100386,-0.7169868262442703,2.642391498058708,1.1929170403916165,-0.7787417303091307,-1.550871853847539,0.17438487573060973,1,left
2.332,-0.11386947093859483,1.341526190368955,-0.18035620041266698,-0.7632561447793479,2.68083836376606,1.1462389637356394,-0.7922891994112408,-1.5607753981171613,0.20791856366020575,1,left
2.333,-0.10938024645556636,1.3408241398748593,-0.18242499697464293,-0.8096837662092397,2.7186920861277457,1.0987383940687858,-0.8050647962353807,-1.569810015886961,0.2411355561756643,1,left
2.338,-0.10470254879832726,1.3399653647615752,-0.18429388710396297,-0.8562426028628398,2.755968606950551,1.0504398338984426,-0.8170751782646601,-1.5779726616275425,0.2740252368042103,1,left
2.338,-0.09983686906199155,1.3389472400721674,-0.18595965365844663,-0.9029045990870626,2.7926830629960016,1.0013687812496488,-0.8283275545620621,-1.5852612608634182,0.3065769582270706,1,left
2.343,-0.09478383439420589,1.3377672935633844,-0.18741948855073998,-0.9496407316366416,2.8288497324951103,0.9515517438177121,-0.8388296749315568,-1.591674722779153,0.33878005149175416,1,left
2.344,-0.08954420743962915,1.3364232144920931,-0.1886710050789052,-0.9964210133886017,2.864481984517603,0.9010162535786269,-0.8485898191286455,-1.597212952303296,0.37062383719523373,1,left
2.347,-0.08411888700188394,1.3349128624927906,-0.1897122487108399,-1.0432145005153852,2.8995922313011335,0.849790881716381,-0.8576167861526776,-1.6018768616910373,0.4020976387315181,1,left
2.3480000000000003,-0.07850891046636416,1.3332342769021301,-0.19054170611670349,-1.089989303250832,2.9341918836444076,0.7979052537241013,-0.8659198836511263,-1.605668381624006,0.4331907976961036,1,left
2.352,-0.072715458480617,1.3313856869061824,-0.19115831228859975,-1.1367126003833328,2.9682913094666032,0.7453900645339235,-0.8735089174481633,-1.6085904718033948,0.4638926914759317,1,left
2.353,-0.06673986229726184,1.3293655228577674,-0.19156145566301874,-1.1833506576105088,3.0018997956339804,0.6922770935284938,-0.8803941811291672,-1.610647130811375,0.49419275273828234,1,left
2.353,-0.06058361405760364,1.3271724290225781,-0.19175098124567244,-1.2298688498897263,3.0350255131530948,0.638599219285114,-0.8865864454692522,-1.611843404655638,0.5240804899654856,1,left
2.3569999999999998,-0.05424838016140396,1.3248052778900525,-0.1917271918051888,-1.2762316879185895,3.0676754858285915,0.5843904339017381,-0.8920969474132552,-1.612185393210701,0.5535455078670785,1,left
2.358,-0.04773601772356033,1.3222631860448408,-0.19149084723096668,-1.3224028488793178,3.0998555624821473,0.5296858567523095,-0.8969373783911946,-1.611680253965831,0.5825775268140129,1,left
2.3609999999999998,-0.041048593919254826,1.3195455314302995,-0.19104316212408995,-1.3683452114906605,3.1315703927948566,0.4745217474698542,-0.9011198718927003,-1.6103362028446049,0.6111664010037875,1,left
2.362,-0.03418840779999448,1.316651971691313,-0.1903858016229577,-1.4140208949610102,3.1628234066695606,0.41893551771692455,-0.9046569903005489,-1.6081625120573682,0.639302135378298,1,left
