time,gFx,gFy,gFz,ax,ay,az,wx,wy,wz,subject_number,foot
5.504,0.46953785256431696,0.04529160909606666,0.2451951855870762,0.8378954612155971,-2.728579938915934,-0.15381018511932162,0.9952321951693649,0.0688672582780191,-1.7166457849770673,2,left
5.507999999999999,0.4627070520937804,0.053240443621023266,0.24275428378524677,0.8165736738103277,-2.8645001494676143,-0.15280245497226372,1.0383133036276755,0.07494128807645552,-1.770052406571667,2,left
5.5089999999999995,0.45599199909618693,0.06145022769222621,0.24033883592465677,0.7942162791183672,-2.9991624770020024,-0.15193979105123695,1.0812157678073342,0.08119375759647633,-1.82294578170304,2,left
5.51,0.4493960119511706,0.06991335767888314,0.23795027892487688,0.7708532554188601,-3.132462212227263,-0.1512080956580331,1.1239114989540935,0.08761461411383761,-1.8752985633967987,2,left
5.513999999999999,0.44292226727260614,0.07862214254449632,0.23558996488612563,0.7465161352831883,-3.264297188176157,-0.15059289415801977,1.1663724635216866,0.09419347289218345,-1.927083857378211,2,left
5.515,0.4365737962322397,0.08756881527526493,0.23325915845660997,0.7212379424056674,-3.3945678454079795,-0.15007937583093994,1.2085707100158587,0.10091962690364772,-1.9782752497418679,2,left
5.518,0.4303534807004401,0.09674554430744801,0.23095903434052567,0.6950531289369036,-3.5231772904100027,-0.14965243346627755,1.2504783946236238,0.10778205750100003,-2.028846832306424,2,left
5.519,0.42426404923705735,0.10614444489561356,0.22869067490751782,0.6679975133492113,-3.6500313475060295,-0.14929670164196066,1.29206780574966,0.11476944606021246,-2.0787732258031215,2,left
5.523,0.4183080729769311,0.11575759035825985,0.22645506788079384,0.6401082187615478,-3.7750386046460918,-0.14899659368489443,1.333311387581012,0.12187018661274544,-2.128029601045101,2,left
5.523,0.41248796146051264,0.125577023133759,0.22425310411020227,0.6114236116488198,-3.898110453446548,-0.14873633731206395,1.3741817628004311,0.12907239948724256,-2.1765916982227176,2,left
5.528,0.4068059584562769,0.13559476557884667,0.22208557547237506,0.58198324085792,-4.019161123844801,-0.14850000895115187,1.4146517545677642,0.13636394598068202,-2.2244358444682444,2,left
5.529,0.4012641378072086,0.145802830446451,0.21995317297676126,0.5518277768504564,-4.1381077137275595,-0.1482715667397745,1.4546944078878197,0.14373244407935798,-2.271538969831401,2,left
5.5329999999999995,0.3958643993120517,0.15619323098983529,0.21785648518832307,0.520998951089856,-4.254870213886007,-0.14803488220255467,1.4942830104820581,0.15116528525035516,-2.317878621805169,2,left
5.535,0.390608464628692,0.16675799065347088,0.21579599709852998,0.48953949548835807,-4.369371528645448,-0.1477737706053174,1.5333911132803097,0.15864965232443734,-2.363432978539284,2,left
5.539,0.3854978731666017,0.17748915232441467,0.21377208958112037,0.4574930818273547,-4.481537492510968,-0.14747201998571813,1.5719925506474937,0.16617253849148994,-2.408180860876674,2,left
5.54,0.3805339779200947,0.18837878712910056,0.21178503955621003,0.4249042610626121,-4.591296883164355,-0.1471134188595881,1.6100614604590102,0.17372076742984166,-2.4521017433459193,2,left
5.542000000000001,0.3757179411855312,0.1994190027698743,0.20983502095776937,0.39181840242408866,-4.698581431141068,-0.14668178260221224,1.6475723041370955,0.1812810145909379,-2.4951757642405443,2,left
5.542999999999999,0.3710507301046156,0.2106019514053295,0.20792210656114687,0.35828163221838616,-4.803325826509312,-0.1461609785036375,1.684499886758975,0.1888398296609488,-2.537383734913659,2,left
5.547999999999999,0.366533111982726,0.22191983708880714,0.20604627068716805,0.3243407722403131,-4.905467722866387,-0.14553494949694673,1.7208193773461222,0.19638366022096715,-2.5787071484140736,2,left
5.5489999999999995,0.3621656493448286,0.23336492278825108,0.2042073927634988,0.29004327769861227,-5.004947738960371,-0.14478773655822375,1.7565063294423282,0.2038988766274857,-2.619128187587583,2,left
5.5520000000000005,0.35794869470929913,0.24492953701702372,0.20240526169493023,0.25543717455961107,-5.101709458237899,-0.14390349977667805,1.7915367020866104,0.21137179813483975,-2.65862973276464,2,left
5.553,0.3538823850790324,0.2566060801102027,0.20063958097326817,0.220570996211394,-5.195699426611344,-0.14286653809309724,1.8258868812852451,0.21878872028125607,-2.6971953691530843,2,left
5.56,0.3499666361699003,0.2683870301839027,0.19890997444529576,0.1854937193500733,-5.2868671487310515,-0.1416613077044459,1.8595337020853901,0.22613594356006883,-2.734809394052012,2,left
5.561,0.34620113642174993,0.2802649488147691,0.19721599265143977,0.1502546989888478,-5.375165083040491,-0.14027243913203732,1.8924544713508793,0.23339980339754043,-2.7714568240002286,2,left
5.562,0.3425853408670311,0.2922324864739064,0.19555711964344588,0.11490360248979434,-5.460548635884216,-0.13868475295026558,1.9246269913388216,0.24056670145856413,-2.807123401970034,2,left
5.563,0.33911846496213527,0.30428238774651567,0.19393278018386892,0.07949034251773084,-5.542976154930434,-0.13688327417240229,1.9560295841736068,0.24762313830132657,-2.8417956047143726,2,left
5.567,0.33579947850978903,0.31640749636565946,0.19234234722508076,0.04406500881502487,-5.622408922161753,-0.13485324528943582,1.9866411173128515,0.254555747401767,-2.8754606503725877,2,left
5.568,0.3326270998137758,0.3286007600855955,0.19078514956300374,0.008677798695901583,-5.698811146679282,-0.13258013795735954,2.016441030097653,0.2613513305683937,-2.908106506437216,2,left
5.569,0.32959979020962593,0.3408552354183674,0.18926047956201283,-0.02662105384137423,-5.772149957556814,-0.1300496633277022,2.045409361420464,0.26799689470470117,-2.939721898138155,2,left
5.572,0.32671574910395945,0.35316409225741824,0.1877676008553746,-0.06178135048610133,-5.842395396973187,-0.12724778101543754,2.0735267782572997,0.2744796895610867,-2.970296317081461,2,left
5.5729999999999995,0.3239729096330379,0.3655206184126208,0.18630575593899176,-0.09675300257208033,-5.909520413842255,-0.12416070669771205,2.100774604296918,0.28078724555078816,-2.9998200295879425,2,left
5.5760000000000005,0.3213689350342146,0.37791822408053777,0.18487417358362207,-0.1314861066404863,-5.973500858062977,-0.12077491837705473,2.127134847612901,0.28690741038894285,-3.0282840839575673,2,left
5.577000000000001,0.3189012158195681,0.390350446271632,0.18347207598848478,-0.16593102122539263,-6.0343154750629155,-0.1170771615467706,2.1525902266064354,0.2928283836283924,-3.0556803160989143,2,left
5.577999999999999,0.31656686783528093,0.40281095321387,0.18209868559828662,-0.20003844375184973,-6.091945899506677,-0.11305445386407093,2.177124193956867,0.2985387487323379,-3.0820013533490185,2,left
5.582000000000001,0.31436273128101705,0.4152935487491541,0.18075323150543712,-0.233759486032253,-6.146376646591464,-0.10869409014045324,2.200720958598845,0.3040275026384042,-3.1072406165221294,2,left
5.582999999999999,0.3122853707610712,0.42779217673314734,0.17943495534874948,-0.2670457472493916,-6.197595099783168,-0.10398364825313099,2.2233655057991517,0.3092840828310974,-3.131392320266069,2,left
5.587999999999999,0.31033107643707414,0.44030092544124194,0.17814311660643262,-0.2998493840398732,-6.245591494630059,-0.09891099621170969,2.2450436154036626,0.31429839193903586,-3.1544514718017864,2,left
5.5889999999999995,0.30849586633934306,0.45281403197577785,0.176876997179725,-0.33212317769399463,-6.290358898722327,-0.09346430040852004,2.2657418783221943,0.3190608198727014,-3.1764138681186007,2,left
5.5920000000000005,0.3067754898746249,0.4653258866614425,0.1756359051739632,-0.3638205985675788,-6.331893187944584,-0.08763203503905008,2.285447711316255,0.32356226351778766,-3.1972760916945093,2,left
5.593,0.30516543254967504,0.4778310374058684,0.17441917779845303,-0.39489586779991176,-6.370193019159198,-0.08140299267787857,2.3041493701519458,0.3277941439985309,-3.217035504807788,2,left
5.596,0.3036609219149779,0.4903241939918799,0.17322618332260814,-0.4253040164303931,-6.405259799449049,-0.07476629599443756,2.3218359611774564,0.3317484215246848,-3.235690242502972,2,left
5.597,0.3022569347217136,0.5028002322578972,0.1720563220443071,-0.4550009420048606,-6.43709765203903,-0.06771141059182585,2.3384974513817234,0.3354176078350517,-3.253239204271142,2,left
5.601,0.3009482052785464,0.5152541981131639,0.1709090262471497,-0.48394346276076267,-6.4657133790063135,-0.060228158950755284,2.354124676987966,0.3387947762497102,-3.2696820445012786,2,left
5.603,0.2997292349921556,0.5276813113242433,0.1697837591447152,-0.512089369478438,-6.491116420880133,-0.05230673545954178,2.3687093506328765,0.3418735693422832,-3.2850191617562627,2,left
5.606,0.29859430307433493,0.5400769690001006,0.1686800128301177,-0.5393974750837203,-6.513318813222568,-0.04393772250985243,2.3822440671793204,0.34464820424277076,-3.2992516869239465,2,left
5.607,0.29753747839657774,0.5524367486970937,0.16759730526676184,-0.5658276620849227,-6.532335140272527,-0.03511210763669003,2.394722308207408,0.34711347558063743,-3.3123814702905237,2,left
5.611000000000001,0.29655263246933283,0.5647564110632496,0.16653517637185722,-0.5913409279249674,-6.54818248572596,-0.025821301679838808,2.4061384452258316,0.34926475607698443,-3.3244110675802667,2,left
5.611000000000001,0.29563345351775105,0.5770319019434191,0.16549318326037782,-0.6158994283270234,-6.5608803807161005,-0.016057157942709857,2.4164877416423303,0.35109799479376785,-3.335343725002519,2,left
5.6160000000000005,0.2947734616191198,0.5892593538729756,0.16447089473496573,-0.6394665187094961,-6.570450749048413,-0.005811992323214202,2.4257663535291134,0.3526097130471341,-3.3451833633436636,2,left
5.617000000000001,0.2939660248594726,0.6014350868970945,0.16346788512548888,-0.6620067937435795,-6.576917849735786,0.004921395610044111,2.433971329216038,0.3537969979910437,-3.353934561138635,2,left
5.621,0.29320437645786884,0.6135556086653966,0.16248372759804133,-0.6834861251238411,-6.580308216870532,0.016149700624321185,2.4411006077412516,0.3546574938764427,-3.3616025369533866,2,left
5.621,0.29248163279637174,0.6256176137676694,0.16151798706483395,-0.7038716976194671,-6.580650596860717,0.02787908894147983,2.4471530161859567,0.3551893909903184,-3.3681931308066,2,left
5.627000000000001,0.2917908122823921,0.6376179822940539,0.1605702128337772,-0.7231320434708449,-6.577975883049458,0.04011517449977812,2.4521282659168606,0.3553914122780451,-3.3737127847557713,2,left
5.627999999999999,0.2911248549589239,0.6495537776212423,0.15963993114173808,-0.7412370751931179,-6.572317047727004,0.0528629943909691,2.456026947756787,0.3552627976514872,-3.3781685226697302,2,left
5.631,0.29047664276807766,0.6614222434437125,0.15872663771845064,-0.7581581168452057,-6.563709071536624,0.06612698350641924,2.4588505261008398,0.3548032859843855,-3.381567929206528,2,left
5.632000000000001,0.28983902036429876,0.6732208000840506,0.15782979052589358,-0.7738679338195572,-6.5521888702667095,0.07991094842740727,2.4606013319924083,0.3540130947956052,-3.383919128012574,2,left
5.635,0.2892048163647359,0.6849470401287127,0.1569488028082451,-0.7883407612045819,-6.537795219012909,0.09421804059623433,2.461282555170219,0.3528928976198763,-3.385230759155833,2,left
5.636,0.28856686491423333,0.6965987234463533,0.1560830365708397,-0.8015523307683147,-6.520568673685642,0.10905072880625727,2.4608982350945494,0.3514437990647053,-3.3855119558028663,2,left
5.636,0.28791802743422157,0.7081737716545793,0.15523179658539482,-0.8134798966083854,-6.500551489829973,0.12441077105044963,2.45945325096832,0.34966730761006387,-3.3847723201707285,2,left
5.641,0.2872512144274746,0.7196702621046633,0.1543943249951297,-0.8241022595098191,-6.477787538716604,0.14029918576959613,2.456953310819062,0.34756530650087686,-3.3830218989029373,2,left
5.642,0.2865594072253971,0.7310864214519988,0.15356979657102074,-0.8333997900485709,-6.452322220654568,0.15671622254273473,2.4534049398007927,0.3451400236112465,-3.3802711582339335,2,left
5.645,0.285835679574317,0.7424206188782063,0.15275731465677253,-0.8413544504856713,-6.424202375564402,0.17366133231085318,2.4488154679251246,0.34239400145277543,-3.3765309594246937,2,left
5.646,0.2850732189547208,0.7536713590315675,0.15195590783600116,-0.8479498155463899,-6.393476191323582,0.19113313746076024,2.4431930173745617,0.33933006820405,-3.371812534828073,2,left
5.646,0.2842653475257932,0.7648372747519967,0.15116452735163996,-0.8531710922709297,-6.360193111253813,0.20912940251948367,2.4365464894518443,0.33595131010756185,-3.366127464721431,2,left
5.65,0.2834055425854757,0.7759171196456728,0.15038204530103302,-0.857005139172588,-6.324403742593093,0.22764700644545882,2.428885551162849,0.3322610452850579,-3.3594876549200565,2,left
5.651,0.28248745641963496,0.7869097605772221,0.14960725362461466,-0.8594404848821401,-6.286159767307037,0.24668191726988678,2.420220621416916,0.32826279896252303,-3.351905315157867,2,left
5.655,0.2815049353916567,0.7978141701503279,0.14883886390052808,-0.8604673463573547,-6.245513855721036,0.26622916942122954,2.4105628568255257,0.3239602800950972,-3.343392938219074,2,left
5.655,0.28045203811253483,0.8086294192442198,0.14807550794729554,-0.860077646679284,-6.202519582966727,0.2862828438329097,2.3999241370773396,0.3193573593813325,-3.333963279801766,2,left
5.6610000000000005,0.2793230525315621,0.8193546696646999,0.14731573922145755,-0.8582650324423048,-6.15723134813302,0.3068360508888859,2.3883170498647406,0.31445804865531307,-3.3236293390916485,2,left
5.662000000000001,0.278112511795437,0.829989166958039,0.14655803498039763,-0.8550248907408419,-6.109704296005045,0.32788091626324545,2.375754875334153,0.30926648164428594,-3.312404340021525,2,left
5.666,0.27681520873927556,0.8405322334247892,0.14580079916590888,-0.8503543657516436,-6.0599942412676056,0.3494085697114083,2.3622515700296045,0.30378689607858783,-3.300301713189452,2,left
5.666,0.2754262088940877,0.8509832613584417,0.14504236595306386,-0.8442523749063887,-6.00815759504317,0.37140913687196875,2.347821750296219,0.29802361713980335,-3.2873350784059125,2,left
5.671,0.27394086191778916,0.8613417065230881,0.14428100390121956,-0.8367196246453122,-5.954251293627976,0.39387173413961213,2.3324806751075777,0.2919810422322495,-3.2735182278377857,2,left
5.672000000000001,0.27235481138022116,0.8716070818763977,0.1435149206388212,-0.8277586257384311,-5.898332729283586,0.41678446667092917,2.3162442282781925,0.2856636270620539,-3.258865109714376,2,left
5.6739999999999995,0.27066400285803577,0.8817789515386671,0.142742268010432,-0.8173737081568411,-5.840459682935086,0.4401344295863055,2.2991289000196704,0.27907587300728004,-3.243389812558288,2,left
5.675,0.26886469032213994,0.891856925004233,0.1419611476126568,-0.8055710354724513,-5.780690258621199,0.4639077124323902,2.2811517677965307,0.2722223157617512,-3.2271065499014795,2,left
5.678999999999999,0.26695344082679656,0.9018406515882724,0.14116961664602848,-0.7923586187604225,-5.719082819535795,0.4880894069709377,2.262330476435072,0.2651075152344328,-3.2100296454444295,2,left
5.68,0.26492713753403874,0.9117298151004669,0.1403656940132801,-0.777746329974488,-5.65569592549468,0.5126636183610711,2.242683217436152,0.25773604668546013,-3.1921735186139926,2,left
5.684,0.26278298112938364,0.9215241287364281,0.13954736659984343,-0.7617459147612735,-5.590588271656073,0.5376134798032289,2.2222287074402796,0.25011249307913114,-3.1735526704731987,2,left
5.685,0.26051848970537383,0.9312233301768629,0.13871259567855518,-0.7443710046756754,-5.523818628317923,0.5629211707142295,2.2009861657909844,0.24224143863343636,-3.1541816699339673,2,left
5.689,0.25813149720891737,0.9408271768831666,0.13785932338702647,-0.7256371287553498,-5.4554457816101,0.588567938504011,2.17897529114007,0.23412746354495895,-3.13407514022147,2,left
5.69,0.2556201505661619,0.9503354415778239,0.13698547923143406,-0.7055617244083741,-5.385528474894541,0.6145341240256831,2.1562162370360247,0.2257751398672544,-3.113247745536691,2,left
5.694,0.2529829056127698,0.9597479078995643,0.13608898657266313,-0.6841641475642023,-5.3141253506816835,0.6407991907715526,2.132729586434613,0.2171890285201083,-3.0917141778615553,2,left
5.695,0.25021852196708844,0.9690643662265146,0.13516776905158426,-0.6614656820341349,-5.2412948928668746,0.6673417578887565,2.10853632506846,0.20837367740637314,-3.069489143848904,2,left
5.7,0.24732605698986443,0.978284609665361,0.13421975691306606,-0.6374895480236724,-5.167095369086047,0.6941396370890522,2.0836578136102877,0.19933362061239926,-3.046587351737511,2,left
5.7,0.24430485897728008,0.9874084302111009,0.13324289319270285,-0.6122609097353287,-5.091584772985655,0.7211698735281722,2.058115758562381,0.19007337866740467,-3.023023498230323,2,left
5.702999999999999,0.24115455973315333,0.9964356150902949,0.13223513973491063,-0.5858068819967491,-5.014820766197775,0.7484087907309437,2.031932181802827,0.18059745983646927,-2.998812255272093,2,left
5.705,0.23787506665939348,1.0053659433096156,0.1311944830171351,-0.5581565358453098,-4.936860619807343,0.775832039639109,2.0051293887717354,0.1709103624115966,-2.9739682566915566,2,left
5.705,0.2344665544877293,1.0141991824381646,0.13011893976284467,-0.5293409029967806,-4.857761155094728,0.8034146518594439,1.9777299355518685,0.16101657791667048,-2.9485060848258553,2,left
5.709,0.230929456752568,1.0229350856542536,0.12900656233412974,-0.4993929791221204,-4.77757868333325,0.8311310971903744,1.9497565955879153,0.15092059505514369,-2.9224402575211195,2,left
5.71,0.22726445709127532,1.0315733890862209,0.1278554439017537,-0.46834772585303774,-4.696368944417785,0.8589553455058143,1.921232327059996,0.1406269041807048,-2.895785216055775,2,left
5.716,0.22347248046536938,1.0401138094752311,0.12666372339530246,-0.4362420714336101,-4.614187044097382,0.8868609330754097,1.8921802416521387,0.13014000211856047,-2.8685553143768927,2,left
5.7170000000000005,0.21955468440837533,1.0485560421869584,0.12542959023693923,-0.40311490987551873,-4.531087389726409,0.9148210332568434,1.8626235749631772,0.11946439725075887,-2.8407648097601044,2,left
5.718,0.21551245040121245,1.0568997595982184,0.12415128885919711,-0.36900709818888283,-4.447123625169777,0.9428085307766133,1.8325856585328049,0.10860461482639666,-2.812427854847435,2,left
5.718999999999999,0.21134737545484925,1.0651446098838335,0.12282712300353456,-0.33396145074926986,-4.3623485667979764,0.9707960975207321,1.8020898933993736,0.09756520246659284,-2.7835584909848574,2,left
5.718999999999999,0.2070612639625749,1.073290216227791,0.12145545979518904,-0.298022729576101,-4.2768141432289335,0.9987562670374045,1.771159725104584,0.08635073583357117,-2.7541706427797736,2,left
5.724,0.20265611988198448,1.0813361764794918,0.1200347335912905,-0.26123762957728547,-4.19057134074733,1.0266615056733643,1.7398186200588217,0.07496582443266363,-2.7242781137970393,2,left
5.725,0.19813413931008972,1.0892820632692726,0.11856344960274497,-0.22365475832059176,-4.103670155026648,1.0544842795607536,1.708090043179586,0.06341511751553157,-2.6938945833106303,2,left
5.728,0.19349770351253745,1.0971274245881852,0.11704018729640786,-0.18532461017212937,-4.016159549053097,1.0821971173908917,1.6759974367142083,0.0517033100523983,-2.663033604026558,2,left
5.729,0.18874937245968568,1.1048717848271568,0.11546360359128206,-0.14629953469637194,-3.9280874170038103,1.109772669055044,1.6435642001568755,0.039835148740597334,-2.6317086006911894,2,left
5.733,0.1838918789098854,1.1125146462612268,0.11383243586859733,-0.10663369920986493,-3.8395005538297324,1.1371837602320527,1.6108136711688597,0.02781543801626416,-2.5999328694977146,2,left
5.734,0.17892812306311176,1.120055490956238,0.1121455048201643,-0.06638304537861793,-3.750444630291941,1.164403443002389,1.577769107409814,0.01564904603553707,-2.5677195782021442,2,left
5.7379999999999995,0.17386116778792635,1.1274937830687624,0.11040171716309496,-0.025605239747190246,-3.660964173198477,1.1914050425677811,1.5444536691870088,0.003340910591183191,-2.5350817668588674,2,left
5.74,0.16869423440507592,1.1348289715040858,0.10860006825166564,0.01564038191435944,-3.5711025505872938,1.2181622001551045,1.510890402828478,-0.009103955069869125,-2.5020323490845167,2,left
5.744,0.16343069899345916,1.1420604928899543,0.10673964461741044,0.05729287656116455,-3.480901961599607,1.2446489121826756,1.4771022246851955,-0.021680456563031778,-2.4685841137576334,2,left
5.744,0.1580740891689779,1.1491877748161026,0.10481962646541149,0.09928976223889908,-3.3904034307866557,1.270839565766457,1.443111905666628,-0.03438341285193942,-2.434749727060397,2,left
5.747999999999999,0.15262808127432348,1.1562102392838975,0.10283929014883647,0.1415670929821395,-3.299646806591845,1.2967089706429853,1.4089420562132906,-0.04720755093945279,-2.4005417347675024,2,left
5.749,0.147096497908105,1.1631273063076892,0.10079801063658056,0.184059540365262,-3.2086707637492147,1.3222323875850548,1.374615111609291,-0.060147500799900666,-2.3659725646861336,2,left
5.752999999999999,0.14148330571464882,1.169938397608571,0.09869526398133767,0.22670048182638344,-3.11751280933836,1.3473855533853456,1.34015331753727,-0.07319779058904125,-2.3310545291498492,2,left
5.754,0.13579261335174111,1.1766429403408254,0.09653062978851956,0.2694220958856565,-3.026209292235152,1.3721447024822542,1.3055787157776213,-0.08635284216857178,-2.2957998274681497,2,left
5.757000000000001,0.13002866955318693,1.183240370790938,0.09430379368176466,0.31215546437984504,-2.9347954156969953,1.3964865853011974,1.2709131299534286,-0.09960696698234767,-2.260220548232439,2,left
5.757999999999999,0.124195861206456,1.1897301379890843,0.09201454975844739,0.35483068183552974,-2.843305252820835,1.4203884833835985,1.236178151222167,-0.1129543623217889,-2.224328671378094,2,left
5.7620000000000005,0.11829871137289709,1.1961117071737846,0.08966280302551265,0.39737697210352385,-2.751771764611686,1.4438282213746292,1.2013951238148894,-0.12638910801825273,-2.1881360699013936,2,left
5.763,0.11234187718819205,1.202384563051721,0.08724857179938544,0.4397228123771093,-2.6602268203991635,1.4667841759395897,1.1665851303233667,-0.13990516360043545,-2.1516545111291268,2,left
5.767,0.1063301475917094,1.2085482127967055,0.08477199004567115,0.4817960647165358,-2.5687012203392428,1.489235281677538,1.131768976635436,-0.15349636595513433,-2.1148956574377893,2,left
5.767,0.10026844084389286,1.2146021887347915,0.08223330962858115,0.5235241152018523,-2.4772247197383845,1.5111610340994641,1.096967176418683,-0.16715642752995072,-2.0778710663184294,2,left
5.772,0.09416180180135514,1.220546050666395,0.07963290243751402,0.5648340208355656,-2.3858260549370924,1.5325414897369036,1.0621999350935944,-0.1808789351073951,-2.040592189724126,2,left
5.773,0.08801539892959351,1.2263793877832994,0.0769712623594394,0.6056526643158326,-2.294532970490046,1.5533572634454489,1.027487133442737,-0.1946573491332981,-2.003070372845101,2,left
5.774,0.08183452104104195,1.2321018201504208,0.07424900707084157,0.645906916799905,-2.203372247380078,1.5735895229660972,0.9928483113723705,-0.20848500349844046,-1.9653168528315637,2,left
5.777,0.07562457375125647,1.2377129997336247,0.0714668796293827,0.6855238087763385,-2.1123697320035,1.5932199808058158,0.9583026525484412,-0.2223551056257223,-1.9273427581924603,2,left
5.778,0.06939107565104664,1.243212610959281,0.06862574985144634,0.7244307091630735,-2.0215503656645657,1.6122308834970804,0.9238689704236092,-0.23626073676212386,-1.8891591093888123,2,left
5.782,0.06313965419881722,1.2486003707917464,0.06572661546847915,0.7625555127468675,-1.930938214317249,1.6306049982944735,0.8895656958023831,-0.2501948524590399,-1.8507768207637705,2,left
5.7829999999999995,0.056876041343467215,1.2538760283180113,0.06277060306138894,0.7998268357668757,-1.8405564983321974,1.6483255974213753,0.8554108658862474,-0.2641502832714642,-1.8122067037420944,2,left
5.784,0.05060606889073459,1.25903936383566,0.059758968774768814,0.8361742178888536,-1.7504276222633572,1.6653764402614208,0.8214221146999044,-0.27811973571595616,-1.7734594711893796,2,left
5.787000000000001,0.04433566362487613,1.2640901874489907,0.05669309881070052,0.8715283260164991,-1.6605732049424244,1.681741754397711,0.7876166648001257,-0.2920957935274018,-1.7345457428207998,2,left
5.787000000000001,0.03807084219908621,1.2690283371862212,0.05357450969720324,0.9058211538297196,-1.5710141104260407,1.6974062166843014,0.7540113201691341,-0.3060709192546456,-1.6954760515485807,2,left
5.792999999999999,0.03181770581782944,1.2738536766579753,0.05040484832079376,0.9389862124912397,-1.4817704801252687,1.7123549352491574,0.7206224601949104,-0.3200374562351064,-1.6562608506569234,2,left
5.794,0.025582434750474285,1.278566092286868,0.0471858917068264,0.9709587107578274,-1.392861766094615,1.7265734328156495,0.6874660346413485,-0.33398763098851064,-1.6169105216926056,2,left
5.797000000000001,0.01937128273241872,1.2831654901526515,0.043919546525092716,1.0016757242836511,-1.3043067652625937,1.7400476314442404,0.6545575595117558,-0.34791355606987445,-1.5774353829590513,2,left
5.797999999999999,0.01319057132288648,1.28765179251519,0.04060784829188315,1.0310763542109045,-1.216123654347499,1.752763838737278,0.6219121137098134,-0.3618072334218382,-1.5378456985012328,2,left
5.801,0.007046684295563819,1.292024934094243,0.03725296023494331,1.0591018751394083,-1.1283300252030146,1.7647087355477067,0.5895443364027835,-0.37566055826641304,-1.4981516874683887,2,left
5.801,0.0009460621396894973,1.2962848581973874,0.03385717178544962,1.0856958725633057,-1.0409429203393084,1.7758693652303776,0.5574684249924554,-0.38946532357612745,-1.4583635337411702,2,left
5.807,-0.00510480325279797,1.3004315127930353,0.03042289666030769,1.1108043698591785,-0.9539788683663185,1.7862331244724587,0.5256981336000833,-0.4032132251644684,-1.4184913957095173,2,left
5.808,-0.011099373642583024,1.304464846623199,0.026952670498154672,1.1343759449059785,-0.8674539191070642,1.7957877557372315,0.49424677197235967,-0.41689586743539697,-1.3785454160872486,2,left
5.811,-0.017031069175560465,1.3083848054419356,0.023449148014991893,1.1563618364130506,-0.7813836781299739,1.8045213413533068,0.46312720471630997,-0.4305047698315783,-1.3385357316490905,2,left
5.812,-0.02289327273677881,1.3121913284530935,0.01991509965263366,1.1767160400282692,-0.695783340450444,1.8124222992790102,0.43235185077187055,-0.444031374020801,-1.2984724827756235,2,left
5.816,-0.02867933388380387,1.315884345006558,0.016353407706000668,1.1953953942938975,-0.6106677231530945,1.8194793805693523,0.4019326830318238,-0.457467051859875,-1.2583658226914138,2,left
5.817,-0.03438257233778693,1.3194637715957993,0.012767061932934491,1.21235965651323,-0.5260512966875015,1.8256816685706565,0.37188122801972023,-0.4708031141750836,-1.2182259262814141,2,left
5.821000000000001,-0.0399962810369579,1.322929509181822,0.00915915467123686,1.227571568586397,-0.44194821459152905,1.8310185798655096,0.3422085655374047,-0.4840308203980301,-1.1780629983705666,2,left
5.822,-0.04551372878796275,1.3262814408513945,0.005532875509471792,1.240996912868907,-0.3583723413977781,1.8354798669882892,0.3129253281947837,-0.49714138909545713,-1.1378872813514112,2,left
5.8260000000000005,-0.050928162582405706,1.329519429803042,0.0018915055768952234,1.2526045581015772,-0.2753372784801023,1.8390556229290633,0.2840417007355292,-0.5101260094313302,-1.097709062044413,2,left
5.827000000000001,-0.05623280967584517,1.3326433176439265,-0.0017615884684945326,1.262366495455483,-0.19285638759861473,1.8417362874411698,0.25556741907349984,-0.5229758535991678,-1.0575386776756521,2,left
5.832000000000001,-0.06142087955171575,1.3356529229739902,-0.005422960666204144,1.2702578647304208,-0.11094281190312386,1.8435126551652667,0.22751176895577832,-0.5356820902622598,-1.0173865208564836,2,left
5.832999999999999,-0.06648556591177507,1.3385480402291776,-0.009089092102769047,1.2762569707401767,-0.02960949415648965,1.8443758855801144,0.19988358416937108,-0.5482358990390594,-0.9772630434497681,2,left
5.836,-0.07142004884688226,1.3413284387514894,-0.012756397296411577,1.280345289912584,0.05113080805901708,1.8443175147877617,0.17269124420979123,-0.5606284860706422,-0.9371787592072983,2,left
5.836,-0.07621749734671909,1.34399386204932,-0.016421230538504725,1.2825074671269971,0.13126551038764053,1.8433294691382247,0.14594267133094777,-0.5728511007067135,-0.8971442450630959,2,left
5.841,-0.08087107230459657,1.3465440272085756,-0.02007989212839274,1.2827313028063738,0.21078219323197211,1.8414040806961174,0.1196453268969899,-0.5848950533462125,-0.8571701409673383,2,left
5.8420000000000005,-0.0853739301641247,1.3489786244158963,-0.023728634454331498,1.281007730275678,0.2896685970026074,1.8385341045490518,0.09380620695800779,-0.596751734468091,-0.817267148145787,2,left
5.843,-0.08971922733791209,1.351297316560433,-0.027363667888808188,1.2773307833927887,0.36791262131580665,1.8347127379549502,0.06843183701387581,-0.6084126348433753,-0.777446025717414,2,left
5.845,-0.0939001255039402,1.3534997388891814,-0.030981166481824182,1.2716975544525366,0.44550232836756276,1.8299336413227238,0.04352826613737687,-0.6198693666991558,-0.7377175858415109,2,left
5.847,-0.09790979785620882,1.3555854987018643,-0.034577273451339305,1.2641081423589067,0.5224259507106701,1.8241909610180584,0.019101060999065736,-0.6311136852087195,-0.6980926879949193,2,left
5.851,-0.10174143636176938,1.3575541750828373,-0.038148106484660285,1.2545655912399878,0.5986719035193221,1.81747935394597,-0.004844699456779132,-0.6421375094615276,-0.6585822332186643,2,left
5.852,-0.10538826006129141,1.3594053186769748,-0.04168976287509443,1.2430758206004002,0.6742288007227822,1.8097940136723145,-0.028304428139971943,-0.6529329422861055,-0.6191971589351324,2,left
5.852,-0.10884352443894982,1.3611384515237896,-0.04519832452346957,1.229647549766689,0.7490854731257706,1.8011306975075636,-0.051274032569496995,-0.6634922886941947,-0.5799484345080806,2,left
5.855,-0.11210053187174063,1.362753066971846,-0.048669862838052455,1.2142922203013238,0.8232309859301618,1.7914857537866398,-0.07374991628351552,-0.6738080729338306,-0.5408470574796803,2,left
5.855,-0.11515264314478112,1.3642486297033938,-0.05210044357227957,1.1970239191296013,0.8966546537717112,1.7808561487625443,-0.09572897897168678,-0.6838730541823403,-0.5019040503714773,2,left
5.86,-0.11799328998511355,1.3656245758995118,-0.05548613164544967,1.1778593034518117,0.9693460526455051,1.7692394928648063,-0.11720861539578113,-0.6936802409095821,-0.4631304579365406,2,left
5.861000000000001,-0.12061598852039017,1.3668803135635175,-0.058822995994500527,1.1568175275817392,1.0412950287928897,1.7566340662576978,-0.1381867131631455,-0.7032229039410409,-0.42453734475049526,2,left
5.865,-0.12301435351626284,1.3680152230026734,-0.062107114503024995,1.133920171661925,1.1124917047607852,1.7430388436676705,-0.15866164941615593,-0.7124945882496814,-0.3861357930295908,2,left
5.8660000000000005,-0.12518211320510297,1.3690286574607848,-0.0653345790445487,1.1091911722006806,1.1829264828421855,1.7284535184466387,-0.17863228649935764,-0.7214891235047195,-0.34793690056444254,2,left
5.872000000000001,-0.1271131245131361,1.3699199439062197,-0.068501500664603,1.0826567543704495,1.25259004610451,1.7128785258348969,-0.19809796666455387,-0.7302006334047065,-0.30995177865860263,2,left
5.872999999999999,-0.12880138853870973,1.3706883840066084,-0.07160401491504993,1.0543453660017899,1.3214733572103219,1.696315065384613,-0.21705850587265976,-0.7386235438215526,-0.27219154996166556,2,left
5.874,-0.13024106622611303,1.371333255348867,-0.07463828733813074,1.0242876132019973,1.389567655232725,1.6787651225020015,-0.23551418674969038,-0.7467525897813144,-0.23466734608719866,2,left
5.875,-0.1314264942924706,1.3718538129776632,-0.07760051906940553,0.9925161975222005,1.456864450665551,1.660231489063432,-0.25346575075280214,-0.7545828213067594,-0.19739030490639967,2,left
5.88,-0.13235220156652597,1.372249291321915,-0.08048695249763485,0.9590658545916649,1.5233555188262002,1.640717783057899,-0.27091438960085706,-0.7621096081458933,-0.16037156740903,2,left
5.88,-0.13301292595757375,1.3725189065607037,-0.08329387690531058,0.9239732941330283,1.5890328918467327,1.6202284672054417,-0.2878617360225289,-0.7693286434097945,-0.12362227402385152,2,left
5.885,-0.13340363226934507,1.3726618594511157,-0.08601763402707577,0.8872771412672703,1.6538888494465191,1.5987688664982775,-0.30430985387352516,-0.776235946142234,-0.08715356029150298,2,left
5.886,-0.1335195309996144,1.3726773386031255,-0.08865462350113729,0.8490178790124023,1.7179159086774445,1.5763451846086034,-0.3202612276730521,-0.7828278628427018,-0.05097655178349552,2,left
5.89,-0.13335609813505886,1.3725645241465299,-0.09120130823419662,0.8092377918751493,1.7811068128303238,1.5529645191042154,-0.3357187516082138,-0.7891010679635626,-0.015102358161780197,2,left
5.891,-0.13290909579783133,1.3723225917021882,-0.09365421973241328,0.767980910430292,1.8434545196888235,1.5286348754103125,-0.3506857180536013,-0.7950525634011804,0.020457933725853316,2,left
5.895,-0.13217459346859434,1.371950716551337,-0.09600996346430793,0.7252929567778524,1.9049521893148083,1.5033651794530816,-0.36516580565190154,-0.800679676999938,0.05569326781844982,2,left
5.896,-0.13114898943344255,1.3714480778964735,-0.09826522433176021,0.6812212907639383,1.9655931715466297,1.4771652889179152,-0.3791630669999389,-0.8059800600871704,0.0905926279856667,2,left
5.899,-0.12982903209315325,1.3708138631297968,-0.10041677234528516,0.6358148568468289,2.0253709933894486,1.450046003052388,-0.3926819159831537,-0.8109516840560989,0.1251450484447884,2,left
5.899,-0.12821184082513892,1.3700472720703454,-0.10246146862405948,0.5891241314857679,2.084279346474243,1.4220190709414224,-0.40572711480012374,-0.8155928360129306,0.15933962555217537,2,left
5.904,-0.12629492617481916,1.3691475211885347,-0.1043962718532555,0.5412010709259666,2.1423120747596935,1.3930971981793991,-0.418303760717348,-0.8199021135033422,0.1931655310693801,2,left
5.905,-0.12407620924042738,1.3681138478918582,-0.10621824531131395,0.49209905924948316,2.1994631626486587,1.3632940518613315,-0.4304172725931398,-0.8238784183326259,0.22661202700316713,2,left
5.91,-0.12155404017862988,1.3669455149870293,-0.10792456451514437,0.44187285655796116,2.2557267236884564,1.3326242638126178,-0.4420733772081152,-0.8275209494928307,0.2596684821176455,2,left
5.9110000000000005,-0.1187272157885312,1.365641815454395,-0.10951252544078584,0.39057854714967216,2.31109699002165,1.301103431974316,-0.4532780954353923,-0.830829195229168,0.2923243901531627,2,left
5.9110000000000005,-0.1155949961352493,1.364202077663777,-0.11097955321030833,0.3382734875499224,2.3655683027515,1.2687481198583566,-0.4640377282671612,-0.8338029243764636,0.3245693894730221,2,left
5.914,-0.11215712016237099,1.3626256711310303,-0.1123232111194875,0.28501625425065863,2.4191351033837107,1.235575853984619,-0.47435884268574113,-0.8364421772745261,0.3563932832954634,2,left
5.915,-0.10841382021320355,1.3609120128807666,-0.11354120988632059,0.23086659101204154,2.471791926503517,1.2016051192093589,-0.48424825735082105,-0.8387472566698058,0.3877860593546984,2,left
5.917999999999999,-0.10436583533151016,1.3590605744561088,-0.11463141699737131,0.17588535560372937,2.523533393789527,1.1668553518936964,-0.4937130280884255,-0.8407187189102964,0.41873790814611245,2,left
5.92,-0.10001442316827834,1.3570708895949062,-0.1155918660356239,0.12013446600025253,2.5743542091878724,1.1313469310666529,-0.5027604331931197,-0.8423573655606206,0.44923923947203165,2,left
5.92,-0.09536137030224419,1.354942562564168,-0.1164207659180483,0.06367684629317133,2.624249154572131,1.0951011681095342,-0.5113979585688524,-0.843664235463817,0.47928069731571865,2,left
5.922999999999999,-0.09040900075806158,1.3526752771050907,-0.11711651004693781,0.006576372719692653,2.673213084936577,1.0581402956943424,-0.5196332827356419,-0.8446405972554947,0.5088531731324923,2,left
5.9239999999999995,-0.08516018244729863,1.350268805886453,-0.1176776854564603,-0.051102179934158415,2.721240922442947,1.0204874564986062,-0.5274742617281132,-0.8452879423350638,0.5379478176455734,2,left
5.928,-0.0796183311981905,1.3477230203024062,-0.11810308207554346,-0.10929319155061527,2.7683276491337283,0.9821666918422887,-0.5349289139107138,-0.8456079782977995,0.5665560512329378,2,left
5.93,-0.07378741203359386,1.3450379004008324,-0.11839170219338649,-0.16793024965351522,2.8144682983975615,0.9432029301822724,-0.5420054047332872,-0.845602622830549,0.5946695729901124,2,left
5.934,-0.0676719374163444,1.3422135447039871,-0.11854277010108198,-0.2269462023034674,2.8596579453247197,0.9036219753563015,-0.5487120314495406,-0.845273998072941,0.6222803685524744,2,left
5.935,-0.061276962294802326,1.3392501796836613,-0.11855574173266922,-0.28627321108186743,2.9038916960879204,0.8634504944663522,-0.555057207819845,-0.8446244254450264,0.6493807167592238,2,left
5.938,-0.054608075933581766,1.3361481686709906,-0.118430313995895,-0.3458428043320628,2.9471646764810124,0.8227160052895541,-0.5610494488187118,-0.843656420941335,0.6759631952397709,2,left
5.94,-0.04767139068613403,1.3329080200118222,-0.11816643340138164,-0.4055859308270602,2.9894720197453446,0.7814468631030144,-0.5666973553662298,-0.8423726908904099,0.7020206850018419,2,left
5.944,-0.04047352803310711,1.3295303943228691,-0.11776430357602193,-0.4654330140340571,3.03080885381087,0.7396722468072016,-0.5720095991017107,-0.8407761281779625,0.727546374099139,2,left
5.944,-0.03302160235031957,1.3260161107629898,-0.11722439127656467,-0.5253140071467779,3.071170288076297,0.6974221442309317,-0.5769949072167752,-0.838869808930868,0.752533760454904,2,left
5.949,-0.025323202966279167,1.3223661523056378,-0.116547430597504,-0.5851584490570887,3.110551399849807,0.6547273364994632,-0.581662047364122,-0.8366569896583234,0.7769766539162265,2,left
5.95,-0.017386375112703318,1.3185816700750201,-0.11573442518734756,-0.6448955214376669,3.1489472205690827,0.6116193813457595,-0.5860198126572612,-0.8341411048455868,0.800869177612411,2,left
5.952999999999999,-0.00921960035968268,1.3146639868770857,-0.114786648429871,-0.7044541071075956,3.1863527219165806,0.56813059524361,-0.5900770067755511,-0.8313257649948289,0.8242057686891726,2,left
5.954,-0.0008317770624634394,1.3106146001044878,-0.11370564167924409,-0.7637628498526449,3.222762801943175,0.5242940342400287,-0.5938424291879649,-0.828214755106747,0.8469811784888669,2,left
5.959,0.007767798762786224,1.3064351842134836,-0.11249321073470231,-0.8227502158716982,3.2581722713104506,0.48014347336316143,-0.5973248605081255,-0.8248120335957223,0.8691904722453764,2,left
5.96,0.016569451860667012,1.3021275929562683,-0.11115142080083705,-0.8813445570202648,3.292575839759105,0.43571338448084107,-0.600533047992282,-0.8211217316304408,0.8908290283606846,2,left
5.9639999999999995,0.025563145348443863,1.2976938615067528,-0.10968259021369905,-0.9394741760213041,3.3259681029080337,0.3910389124839335,-0.6034756911910648,-0.8171481528910485,0.9118925373285542,2,left
5.9639999999999995,0.03473849758324502,1.2931362085513436,-0.10808928322172126,-0.9970673938126599,3.358343529485811,0.34615584966771495,-0.6061614277650406,-0.8128957737330756,0.9323770003690995,2,left
5.968,0.044084798503140565,1.2884570383426297,-0.10637430208544009,-1.0540526191992778,3.389696449093396,0.30110060818372125,-0.6085988194733036,-0.8083692437475382,0.9522787278364077,2,left
5.968999999999999,0.053591025766261326,1.2836589426453309,-0.10454067868974139,-1.1103584209770416,3.420021040593965,0.25591019043380814,-0.6107963383435756,-0.8035733867058091,0.971594337459708,2,left
5.973,0.06324586104951006,1.2787447024487282,-0.1025916657402456,-1.1659136026935257,3.4493113212228743,0.21062215727756362,-0.6127623530315465,-0.7985132018770567,0.9903207524769299,2,left
5.974,0.07303770683757646,1.2737172892810202,-0.10053072746042385,-1.2206472802092099,3.477561136507806,0.16527459392372026,-0.6145051153764772,-0.7931938657052535,1.0084551997178108,2,left
5.977,0.08295470395095186,1.2685798659384375,-0.09836152957894521,-1.2744889622207587,3.5047641510862,0.11990607337582916,-0.6160327471593963,-0.7876207338319934,1.0259952076920411,2,left
5.978,0.09298474995296502,1.2633357864384396,-0.09608792836927313,-1.327368633905806,3.5309138405040987,0.0745556173021763,-0.6173532270816459,-0.7817993434363442,1.0429386047314841,2,left
5.979,0.10311551847183355,1.2579885950280472,-0.09371395859052989,-1.3792168438463268,3.5560034840775447,0.02926265419975338,-0.6184743780413587,-0.7757354157910155,1.0592835172100663,2,left
5.982,0.11333447939796665,1.2525420241211094,-0.09124382033277796,-1.4299647943851221,3.580026158894673,-0.015933025277964728,-0.6194038548936555,-0.7694348588052032,1.0750283678204888,2,left
5.983,0.12362891986070136,1.2469999910831002,-0.08868186495036152,-1.4795444355671719,3.602974735033591,-0.06099131595963058,-0.6201491329402211,-0.7629037692525539,1.090171873861449,2,left
5.9879999999999995,0.13398596583938432,1.2413665938163643,-0.08603258043676537,-1.527888562712173,3.624841872080781,-0.1058718488271021,-0.6207174973328861,-0.7561484344532006,1.1047130455110878,2,left
5.989,0.14439260424525088,1.2356461051263776,-0.08330057667082909,-1.5749309171489894,3.645620017094988,-0.15053404446503818,-0.6211160334664505,-0.7491753333063318,1.1186511841033981,2,left
5.989,0.15483570534325442,1.2298429658751142,-0.08049057089879239,-1.620606288717029,3.6653014042724474,-0.1949371684591192,-0.6213516183750017,-0.7419911366403004,1.1319858804463447,2,left
5.992000000000001,0.16530204543814575,1.2239617769546278,-0.07760737367934502,-1.664850618123591,3.683878056629493,-0.23904038759274013,-0.6214309131333722,-0.7346027068608814,1.1447170132234699,2,left
5.992999999999999,0.17577832979467023,1.2180072901470376,-0.074655875395974,-1.7076010977549065,3.701341789952166,-0.28280282601114476,-0.6213603562648984,-0.7270170968776606,1.1568447475190213,2,left
5.996,0.18625121580225262,1.2119843979697302,-0.07164103334120851,-1.748796270457044,3.717684219145317,-0.3261836210967735,-0.6211461581561718,-0.7192415482879314,1.1683695335049111,2,left
5.997000000000001,0.19670733643525495,1.2058981226248524,-0.06856785929371344,-1.7883761263111586,3.7328967670472135,-0.36914197911848295,-0.6207942964790231,-0.7112834887968886,1.1792921053260776,2,left
6.001,0.20713332408279614,1.1997536041786874,-0.06544140746040568,-1.8262821975257646,3.7469706757597976,-0.4116372307802676,-0.6203105126195508,-0.7031505288523446,1.1896134802190943,2,left
6.002000000000001,0.21751583481153583,1.1935560880946947,-0.06226676264956646,-1.8624576515642466,3.759897020541533,-0.4536288867940174,-0.6197003091135915,-0.6948504574716465,1.19933495789713,2,left
6.007000000000001,0.22784157308577624,1.1873109122380654,-0.059049028572579626,-1.896847382621182,3.7716667263065164,-0.49507669359963147,-0.6189689480876328,-0.6863912372379481,1.208458120232644,2,left
6.007999999999999,0.2380973169191989,1.1810234934643151,-0.055793316244511566,-1.9293981015562491,3.7822705867702684,-0.5359406893544773,-0.6181214507037927,-0.6777809984424916,1.2169848312674694,2,left
6.0120000000000005,0.24826994338832734,1.1746993139045288,-0.05250473255613521,-1.960058424389525,3.7916992862793144,-0.5761812603127406,-0.617162597607122,-0.6690280323490709,1.2249172375782107,2,left
6.013,0.25834645440865195,1.1683439070652406,-0.04918836917533603,-1.988778959456847,3.799943424358352,-0.6157591977136493,-0.6160969303731404,-0.6601407835563934,1.2322577690231769,2,left
6.017,0.2683140026623158,1.1619628438661986,-0.04584929195186111,-2.0155123933186427,3.806993543005443,-0.6546357552958743,-0.614928753953182,-0.6511278414336231,1.2390091398953385,2,left
6.017,0.27815991756946445,1.1555617187389031,-0.04249253093559742,-2.040213575510197,3.812840156762298,-0.692772707553627,-0.6136621401148051,-0.6419979306039788,1.245174350504111,2,left
6.021,0.28787173120887616,1.1491461359004929,-0.03912307101248627,-2.0628396022157602,3.81747378558331,-0.7301324088480643,-0.6123009318742144,-0.6327599004508742,1.2507566892070539,2,left
6.022,0.29743720410916435,1.142721695901644,-0.03574584306767886,-2.083349898943203,3.8208849905235875,-0.766677853485602,-0.6108487489173483,-0.6234227136207279,1.2557597349108853,2,left
6.026,0.30684435084180683,1.136293982525344,-0.03236571554277309,-2.1017063022700784,3.82306441226274,-0.8023727368726117,-0.6093089940060011,-0.6139954334962343,1.2601873600595335,2,left
6.027,0.3160814653486564,1.1298685500881358,-0.028987486275112474,-2.117873140726006,3.8240028124777212,-0.8371815178537478,-0.6076848603650784,-0.6044872106135752,1.2640437341252677,2,left
6.032,0.32513714593111026,1.1234509111695108,-0.025615874572711868,-2.1318173148702195,3.8236911180745063,-0.8710694823388092,-0.6059793400468193,-0.5949072679967703,1.2673333276172893,2,left
6.032,0.3340003198176556,1.1170465247708234,-0.022255513548155352,-2.143508376616929,3.822120468284839,-0.9040028083206039,-0.6041952332675712,-0.5852648853821024,1.2700609166205108,2,left
6.0360000000000005,0.3426602672128645,1.1106607848836552,-0.018910942773284988,-2.1529186078548714,3.8192822646307305,-0.935948632383736,-0.6023351587124559,-0.5755693823053245,1.272231587875612,2,left
6.037000000000001,0.35110664471834846,1.104299009430512,-0.015586601313882854,-2.160023098401042,3.8151682237557965,-0.9668751178015942,-0.6004015648030351,-0.5658301000241457,1.2738507444098353,2,left
6.04,0.359329508008879,1.097966429530888,-0.01228682117365968,-2.1647998233221335,3.809770433118899,-0.9967515243160797,-0.5983967419228545,-0.5560563822483183,1.274924111726361,2,left
6.041,0.367319333644471,1.0916681790459362,-0.00901582113958547,-2.1672297196506607,3.8030814095419165,-1.025548279691776,-0.5963228355955302,-0.5462575546494927,1.275457744558518,2,left
6.045,0.37506703990097057,1.0854092843661534,-0.005777700991694604,-2.1672967625161292,3.7950941605998207,-1.0532370531333395,-0.594181860586017,-0.5364429031666723,1.275458034167955,2,left
6.046,0.3825640065127605,1.0791946544245419,-0.0025764360309670454,-2.1649880407049396,3.785802248837524,-1.079790830651872,-0.5919757157764594,-0.5266216513419604,1.2749317160366838,2,left
6.047000000000001,0.38980209324160103,1.0730290709374026,0.0005841281081209934,-2.1602938316559617,3.7751998587942706,-1.105183992462943,-0.5897061994535545,-0.516802937315336,1.273885877571571,2,left
6.051,0.3967736571977912,1.06691717889892,0.0037002803650383292,-2.153207675891949,3.7632818668126213,-1.129392392495741,-0.5873750245251255,-0.5069957913261102,1.2723279653106614,2,left
6.0520000000000005,0.40347156883075513,1.060863477388415,0.006768448853825684,-2.143726450880142,3.7500439136053103,-1.1523934400895866,-0.5849838333024537,-0.4972091143497356,1.2702657912468691,2,left
6.055,0.40988922649170234,1.0548723107806912,0.009785205110657055,-2.131850444184688,3.7354824794391637,-1.1741661837936346,-0.5825342116990082,-0.4874516581045308,1.2677075381128566,2,left
6.056,0.4160205694749503,1.048947860461105,0.012747267943671849,-2.1175834251473065,3.719594961239709,-1.1946913963968935,-0.58002770281507,-0.4777320064439559,1.2646617635971138,2,left
6.057,0.42186008946627346,1.043094137134569,0.015651506858415157,-2.100932713210928,3.70237974992314,-1.213951658898655,-0.5774658199013872,-0.46805855810634395,1.2611374034853289,2,left
6.061,0.427402840344788,1.0373149738030514,0.018494945053518425,-2.0819092403748307,3.6838363057067296,-1.231931440340598,-0.5748500586948266,-0.45843951079407536,1.2571437737197224,2,left
6.062,0.43264444628722265,1.0316140194847871,0.021274761998143817,-2.060527605882272,3.663965229696749,-1.2486171712035594,-0.5721819091188235,-0.44888284655429256,1.25269057136761,2,left
6.065,0.4375811081209943,1.0259947337478144,0.023988295616532016,-2.0368061223495877,3.642768331042318,-1.2639973094818924,-0.5694628663412742,-0.43939631843338245,1.2477878744890942,2,left
6.066,0.44220960787826624,1.0204603821156866,0.02663304411889065,-2.0107668531582856,3.62024868949156,-1.278062399329976,-0.5666944411823593,-0.4299874383776117,1.242446140892431,2,left
6.071000000000001,0.44652731151494585,1.0150140323790573,0.02920666753079408,-1.982435641048737,3.5964107132929866,-1.29080512232878,-0.5638781698646373,-0.4206634663524767,1.2366762057642997,2,left
6.072,0.45053216976960103,1.0096585518233983,0.0317069889789283,-1.9518421278473748,3.5712601923812186,-1.3022203414166507,-0.5610156230976002,-0.41143140065353295,1.2304892781609165,2,left
6.075,0.45422271714633805,1.0043966053638973,0.03413199578360866,-1.9190197652526477,3.544804346782369,-1.3123051375247075,-0.5581084144887407,-0.4022979693816905,1.2238969363446666,2,left
6.0760000000000005,0.45759806901428973,0.9992306545644173,0.03647984039079766,-1.8840058165984042,3.5170518701706093,-1.3210588389534437,-0.5551582082730447,-0.393269623056204,1.2169111219497075,2,left
6.081,0.46065791682533225,0.9941629575086363,0.038748841157789725,-1.846841349506897,3.4880129685036927,-1.3284830435233193,-0.5521667263526894,-0.3843525283388525,1.2095441329587908,2,left
6.081,0.46340252146169436,0.9891955694862717,0.04093748299423363,-1.8075712193371933,3.4576993936614535,-1.3345816335283154,-0.549135754638599,-0.3755525628430826,1.2018086154723935,2,left
6.085,0.4658327047383441,0.9843303444524453,0.04304441785415098,-1.766244043328496,3.426124472007569,-1.3393607835176007,-0.5460671486853858,-0.3668753110021944,1.1937175542501146,2,left
6.086,0.4679498391041033,0.9795689372115356,0.045068465071474675,-1.7229121653317083,3.3933031277912002,-1.3428289609266448,-0.5429628386110867,-0.35832606097096525,1.1852842620032038,2,left
6.09,0.46975583561071355,0.9749128062673259,0.04700861152778739,-1.6776316110165321,3.3592519013014437,-1.3449969195753135,-0.5398248332929946,-0.3499098025354437,1.1765223674160248,2,left
6.09,0.47125313024840215,0.9703632172688279,0.04886401163579507,-1.6304620334354953,3.3239889616839378,-1.345877686046692,-0.5366552238307685,-0.34163122600599743,1.1674458018732408,2,left
6.093999999999999,0.4724446687772963,0.9659212469675896,0.050633987118906286,-1.5814666488205449,3.287534114325358,-1.3454865389566226,-0.5334561862679139,-0.3334947220690672,1.158068784868522,2,left
6.096,0.47333389021322453,0.9615877875903257,0.05231802657064277,-1.5307121624822528,3.249908802708023,-1.343840981120214,-0.530229983562621,-0.32550438257345693,1.1484058080696398,2,left
6.1,0.4739247091501075,0.957363551521888,0.053915784787952316,-1.4782686846762698,3.211136104633356,-1.340960704617884,-0.5269789667988587,-0.31766400222738955,1.138471618013897,2,left
6.101,0.47422149711621936,0.9532490761893274,0.055427081884616224,-1.4242096362964194,3.171240722709523,-1.3368675487598483,-0.5237055756285427,-0.3099770811829628,1.1282811974069948,2,left
6.104,0.474229063166798,0.9492447290408016,0.05685190219818418,-1.3686116442487757,3.13024896899521,-1.3315854509443759,-0.5204123379355114,-0.30244682848505844,1.1178497449976033,2,left
6.105,0.4739526339111568,0.9453507125246164,0.05819039300244136,-1.3115544263562295,3.0881887436882027,-1.3251403904015775,-0.517101868711978,-0.2950761663621893,1.1071926539991304,2,left
6.109,0.4733978331609447,0.9415670689913038,0.05944286302762602,-1.2531206656384106,3.045089507744224,-1.3175603248110233,-0.5137768681380585,-0.2878677353372094,1.096325489029452,2,left
6.11,0.47257066137134335,0.9378936854619337,0.06060978077604026,-1.1933958738074204,3.0009822493083274,-1.308875119778071,-0.5104401188549219,-0.2808239001362598,1.0852639615386648,2,left
6.115,0.4714774750304154,0.93433029822637,0.061691772606915586,-1.1324682438156397,2.9558994438380854,-1.2991164711504508,-0.5070944824364728,-0.27394675636384413,1.0740239037394825,2,left
6.1160000000000005,0.47012496612943233,0.9308764972529802,0.06268962055780111,-1.070428491287934,2.9098750077948217,-1.288317820153394,-0.5037428951364948,-0.2672381378576974,1.062621241280296,2,left
6.117000000000001,0.4685201418181638,0.9275317304036537,0.06360425987307444,-1.0073696846668714,2.862944245776253,-1.276514261318426,-0.500388363117875,-0.2606996245391351,1.0510719653071623,2,left
6.12,0.4666703043278716,0.9242953074560009,0.06443677621803795,-0.9433870638961204,2.8151437909610952,-1.2637424431778574,-0.49703395744256357,-0.2543325505203541,1.0393921047864845,2,left
6.12,0.4645830312423017,0.9211664039413658,0.06518840256185367,-0.8785778474640044,2.7665115387335124,-1.2500404616940315,-0.4936828090288427,-0.24813801228533408,1.0275976997336649,2,left
6.124,0.4622661562017485,0.91814406481287,0.06586051571343095,-0.8130410276262657,2.717086573352643,-1.2354477463894962,-0.49033810365275315,-0.2421168768599258,1.0157047755857957,2,left
6.126,0.4597277501204708,0.9152272079607494,0.06645463249450467,-0.7468771539272318,2.6669090876934503,-1.220004939327506,-0.48700307699846157,-0.23626978994189868,1.003729318730068,2,left
6.126,0.4569761029808506,0.912414627592762,0.06697240553509455,-0.6801881066501303,2.616020296900082,-1.2037537680196642,-0.48368100974794953,-0.23059718397315498,0.9916872531540515,2,left
6.129,0.4540197062445202,0.9097049974967129,0.0674156186786779,-0.6130768645502962,2.5644623482618387,-1.1867369150090759,-0.4803752227004212,-0.2250992861368144,0.9795944181837144,2,left
6.13,0.4508672358982036,0.907096874204137,0.06778618198686458,-0.5456472727371365,2.5122782304370532,-1.1689978878050231,-0.47708907191185745,-0.21977612626237286,0.9674665472748163,2,left
6.1339999999999995,0.44752753613425084,0.9045887000818854,0.0680861263348356,-0.4780038150552909,2.4595116843307974,-1.150580891912778,-0.4738259438451795,-0.21462754462264017,0.9553192478231126,2,left
6.1339999999999995,0.4440096036513385,0.9021788063876568,0.0683175975908958,-0.41025139258913207,2.4062071164591945,-1.1315307080258448,-0.4705892505215329,-0.20965319960666262,0.9431679819586656,2,left
6.138999999999999,0.4403225725481849,0.8998654163298565,0.06848285037874066,-0.34249510839991304,2.3524095148139907,-1.1118925735157792,-0.4673824246632586,-0.20485257525333841,0.9310280482894565,2,left
6.14,0.43647569977364165,0.8976466481702006,0.0685842414284612,-0.27484005830146296,2.2981643670758998,-1.0917120681667798,-0.4642089148191845,-0.20022498863093405,0.9189145645594355,2,left
6.144,0.4324783510904574,0.8955205184017413,0.06862422252883811,-0.20739112748002472,2.2435175810236827,-1.0710350041004164,-0.46107218046294757,-0.19576959704821142,0.9068424511861345,2,left
6.145,0.4283399875069272,0.8934849450276467,0.06860533309894197,-0.14025279276381408,2.1885154069845187,-1.0499073198341828,-0.4579756870551394,-0.19148540508337253,0.8948264156430017,2,left
6.15,0.4240701521302838,0.8915377509582209,0.06853019240524008,-0.07352893034817166,2.1332043621699333,-1.0283749784159981,-0.4549229010601687,-0.18737127141752663,0.8828809376516905,2,left
6.151,0.4196784573959962,0.8896766675365705,0.06840149146375878,-0.007322628782769875,2.0776311567403947,-1.006483869575355,-0.45191728490883515,-0.18342591545987832,0.8710202551496538,2,left
6.152,0.4151745726248132,0.8878993381990617,0.06822198468237285,0.058263992971772004,2.021842621440677,-0.9842797158305215,-0.448962291897728,-0.17964792375232688,0.8592583509985573,2,left
6.153,0.4105682118526346,0.8862033222768303,0.06799448131050789,0.12312996260932253,1.965885636647193,-0.9618079824900355,-0.4460613610166861,-0.176035756141655,0.8476089403992265,2,left
6.159,0.4058691218690282,0.8845860989483654,0.06772183676878293,0.18717562685569572,1.909807062667752,-0.9391137914857064,-0.4432179116956927,-0.17258775170797044,0.8360854589790832,2,left
6.16,0.40108707039297753,0.8830450713579355,0.06740694392892353,0.250302819346327,1.8536536711335754,-0.9162418389734329,-0.44043533846272415,-0.16930213443854356,0.8247010515183132,2,left
6.1610000000000005,0.3962318343125614,0.8815775709181419,0.06705272440709507,0.31241502419029527,1.7974720773229282,-0.8932363166373805,-0.43771700550422554,-0.16617701863666076,0.8134685612813299,2,left
6.166,0.3913131879194236,0.8801808618163992,0.06666211992527804,0.3734175354044666,1.7413086732553593,-0.8701408366324179,-0.4350662411200522,-0.1632104140555848,0.8024005199204555,2,left
6.166,0.38634089107793096,0.8788521457449462,0.06623808378777071,0.43321761239889817,1.6852095613953457,-0.8469983600992078,-0.43248633206489107,-0.16040023074817877,0.7915091379191446,2,left
6.17,0.3813246772805452,0.8775885668735072,0.06578357251380369,0.4917246316917315,1.6292204888040416,-0.8238511291859497,-0.4299805177683595,-0.1577442836232123,0.7808062955425101,2,left
6.172000000000001,0.3762742415529838,0.8763872170842846,0.06530153766253206,0.5488502350286178,1.5733867815778853,-0.8007406025105258,-0.42755198442617426,-0.15524029669982323,0.7703035342633794,2,left
6.175,0.37119922818483225,0.8752451414901792,0.06479491788316788,0.6045084740782717,1.5177532794130144,-0.7777073939966576,-0.425203858954986,-0.1528859070520567,0.7600120486326221,2,left
6.176,0.3661092182742018,0.8741593442573109,0.06426663122045956,0.6586159518720359,1.4623642701347361,-0.754791215017666,-0.4229392028036876,-0.15067866843584743,0.7499426785630244,2,left
6.18,0.3610137170880687,0.8731267947507609,0.0637195677043437,0.7110919611513813,1.4072634240317587,-0.7320308197815321,-0.4207610056142263,-0.1486160545912465,0.7401059019965658,2,left
6.182,0.3559221412509423,0.8721444340180243,0.0631565822519006,0.7618586197830507,1.352493727835459,-0.7094639538911753,-0.41867217872518153,-0.14669546221312385,0.7305118279255521,2,left
6.185,0.35084380578295316,0.8712091816188943,0.06258048790790008,0.8108410033971116,1.2980974181851588,-0.6871273060142026,-0.41667554852179683,-0.14491421358805376,0.7211701897474244,2,left
6.186,0.3457879110133981,0.8703179428042284,0.061994049445937685,0.857967275398499,1.2441159144212182,-0.6650564625968216,-0.4147738496873516,-0.1432695589157714,0.7120903389773015,2,left
6.187,0.3407635293958917,0.8694676160396256,0.06139997734623524,0.903168814497725,1.1905897505486909,-0.6432858655571725,-0.4129697185027159,-0.14175867837047648,0.7032812394214752,2,left
6.191,0.33577959225205756,0.8686551008628131,0.060800922162048424,0.9463803399013155,1.1375585062153724,-0.6218487728939842,-0.41126568639214295,-0.14037868397792577,0.6947514619593803,2,left
6.191,0.33084487647852673,0.8678773060554085,0.06019946928755901,0.9875400341642747,1.0850607366598886,-0.6007772221539659,-0.4096641738626801,-0.13912662136438234,0.6865091800387276,2,left
6.193,0.32596799125981657,0.8671311581038933,0.05959813414408934,1.0265896630367017,1.0331339021399908,-0.5801019967358874,-0.4081674848931572,-0.1379994713973948,0.678562165910816,2,left
6.196000000000001,0.32115736482797436,0.866413609923166,0.058999357803714694,1.0634746904345926,0.9818142983484025,-0.559852595070896,-0.40677780177805,-0.13699415171848875,0.6709177875902504,2,left
6.197,0.3164212313060084,0.8657216498141095,0.05840550307086444,1.0981443859943194,0.9311369898783028,-0.5400572027533537,-0.4054971804216248,-0.13610751816416716,0.6635830065154109,2,left
6.199,0.311767617677559,0.8650523106189404,0.05781885104784428,1.1305519233288757,0.8811357482489586,-0.5207426676639241,-0.4043275460780677,-0.13533636607197508,0.6565643758868531,2,left
6.2,0.3072043309363016,0.8644026790268114,0.057241598216628845,1.160654468294155,0.8318429950079997,-0.5019344780672258,-0.403270689533612,-0.13467743146873387,0.6498680396616979,2,left
6.204,0.30273894547595526,0.8637699049708647,0.05667585406628942,1.18841325723183,0.7832897498754676,-0.4836567436339778,-0.40232826372698793,-0.1341273921383912,0.6434997321829523,2,left
6.205,0.2983787907846688,0.8631512110462232,0.05612363927742493,1.2137936652818297,0.7355055837860661,-0.4659321793322076,-0.40150178080483895,-0.13368286856726394,0.6374647784236132,2,left
6.21,0.2941309395093157,0.8625439018657562,0.05558688445026279,1.2367652648508167,0.6885185766880776,-0.44878209213354386,-0.4007926096090724,-0.13334042476477437,0.6317680948263288,2,left
6.211,0.2900021959573121,0.8619453732586456,0.05506742934600517,1.257301874316329,0.6423552799595265,-0.4322263704821342,-0.40020197359344045,-0.133096568958092,0.6264141907203348,2,left
6.2139999999999995,0.28599908510656,0.8613531212076728,0.05456702260581005,1.2753815970394322,0.5970406833043799,-0.41628347647531644,-0.39973094916697927,-0.13294775415939683,0.6214071702983391,2,left
6.215,0.2821278421980795,0.8607647504160331,0.05408732191042672,1.290986850751819,0.5525981859938618,-0.40097044070681914,-0.39938046446227266,-0.1328903786047727,0.6167507351370004,2,left
6.218999999999999,0.2783944029901622,0.8601779823945469,0.05362989453730666,1.3041043873763019,0.5090495723203193,-0.38630285972496997,-0.3991512985268453,-0.1329207860640223,0.6124481872456277,2,left
6.22,0.27480439475745544,0.8595906629659706,0.05319621826024669,1.3147253033326034,0.46641499113351453,-0.37229489606014954,-0.3990440809363344,-0.13303526602096882,0.6085024326287263,2,left
6.224,0.2713631281235641,0.8590007690938486,0.052787682525064,1.3228450403732406,0.42471293933171766,-0.35895928077753414,-0.39905929182843525,-0.13323005372407185,0.6049159853490204,2,left
6.225,0.26807558981986007,0.8584064149568391,0.052405589829587734,1.3284633769871717,0.38396024918254124,-0.34630731851302143,-0.39919726235696207,-0.13350133010743606,0.6016909720785981,2,left
6.229,0.2649464364622173,0.8578058572042704,0.05205115723943491,1.331584410401704,0.3441720793510774,-0.3343488949521262,-0.3994581755657196,-0.13384522158253429,0.5988291371268488,2,left
6.23,0.26197998942765993,0.8571974993453451,0.0517255179805459,1.33221652920599,0.305361909515576,-0.3230924867135596,-0.3998420676822279,-0.13425779970119572,0.5963318479348954,2,left
6.233,0.25918023089389386,0.8565798952437885,0.051429723060765105,1.3303723766122575,0.26754153845362394,-0.31254517360116796,-0.4003488298316976,-0.1347350806906306,0.5942001010272604,2,left
6.234,0.25655080107843764,0.8559517517118741,0.05116474288158508,1.3260688043637614,0.23072108548455408,-0.30271265318989693,-0.40097821017200574,-0.13527302486147047,0.5924345284125476,2,left
6.2379999999999995,0.25409499668256896,0.8553119302222534,0.0509314688064659,1.319326817291297,0.19490899515661864,-0.29359925771345835,-0.40172981645077394,-0.1358675358900012,0.591035404425967,2,left
6.239,0.2518157705118314,0.8546594477814738,0.05073071465527498,1.3101715085130161,0.16011204507030002,-0.28520797322341346,-0.40260311898600504,-0.13651445997595044,0.5900026530075805,2,left
6.245,0.249715732215389,0.8539934770328211,0.05056321809671634,1.2986319852652257,0.12633535673200263,-0.27754046099143476,-0.4035974540720847,-0.13720958487736667,0.5893358554111972,2,left
6.245,0.2477971500659591,0.8533133456757271,0.05042964191323185,1.2847412853448583,0.09358240933526138,-0.27059708112857306,-0.4047120278133067,-0.13794863882428843,0.589034258339899,2,left
6.25,0.24606195369088968,0.8526185353021646,0.050330575117102004,1.2685362841373717,0.06185505636951554,-0.26437691839742733,-0.4059459203874281,-0.1387272893130531,0.5890967825052279,2,left
6.251,0.24451173766143505,0.8519086797552234,0.05026653390385907,1.250057592197004,0.031153544959424094,-0.2588778101951915,-0.4072980907421105,-0.13954114178323324,0.5895220316081187,2,left
6.252999999999999,0.24314776585090117,0.8511835631108201,0.05023796243917379,1.2293494433395546,0.001476537840636088,-0.2540963766876298,-0.4087673817194742,-0.1403857381864734,0.5903083017325296,2,left
6.252999999999999,0.24197097648401775,0.8504431173696627,0.050245233484062686,1.206459573201229,-0.027178862119127713,-0.2500280530761067,-0.4103525255644776,-0.14125655549241098,0.5914535911028783,2,left
6.254,0.24098198781623703,0.849687419926203,0.05028864886839986,1.1814390882105583,-0.05481708494188197,-0.24666712398186727,-0.4120521497014256,-0.14214900424140076,0.5929556100838256,2,left
6.257999999999999,0.24018110439171528,0.8489166908654814,0.0503684398287257,1.1543423249140037,-0.08144406418933309,-0.24400675993382206,-0.41386478262338866,-0.14305842728964713,0.5948117912610953,2,left
6.2589999999999995,0.2395683238269081,0.8481312901343002,0.05048476723775033,1.125226699589604,-0.10706720532331367,-0.2420390559481369,-0.41578885977950525,-0.14398009885662685,0.5970192994839413,2,left
6.26,0.23914334406332668,0.8473317146310249,0.05063772176647436,1.094152548280272,-0.13169535184652606,-0.24075507215326356,-0.41782272941721726,-0.14490922392031233,0.5995750418245003,2,left
6.263,0.23890557103979956,0.8465185952483163,0.050827324027337646,1.0611829583892192,-0.1553387492426309,-0.24014487623258313,-0.4199646583766695,-0.14584093796995706,0.6024756774511787,2,left
6.263999999999999,0.23885412674840015,0.8456926938881467,0.05105352474597782,1.0263835948045106,-0.17800900664562644,-0.24019758712857053,-0.42221283784279684,-0.14677030711908085,0.605717627422409,2,left
6.268,0.23898785764803693,0.844854900456234,0.05131620500906569,0.9898225245309573,-0.199719056117715,-0.2409014192708762,-0.4245653890609388,-0.14769232858131323,0.6092970844081099,2,left
6.269,0.23930534341206605,0.8440062298353744,0.051615176644335986,0.9515700427852791,-0.220483109459922,-0.2422437267761282,-0.4270203690221307,-0.1486019315117612,0.613210022347175,2,left
6.273,0.23980490598571685,0.8431478188320751,0.0519501828004605,0.9116985016749204,-0.24031661256314757,-0.24421104739941352,-0.4295757761245246,-0.14949397821656013,0.6174522060502957,2,left
6.274,0.24048461892815354,0.8422809230875994,0.05232089879829481,0.8702821415590061,-0.25923619735247017,-0.24678914620273734,-0.43222955581769634,-0.15036326573324577,0.6220192007583921,2,left
6.277,0.24134231701130873,0.8414069139435133,0.05272693331823487,0.8273969249817046,-0.2772596313843849,-0.24996305894428866,-0.4349796062368852,-0.15120452778454938,0.6269063816678838,2,left
6.277,0.2423756060425101,0.8405272752541421,0.05316782997311352,0.783120373063616,-0.29440576515398903,-0.2537171351941322,-0.43782378383450227,-0.15201243710816728,0.6321089434349773,2,left
6.2829999999999995,0.24358187287012942,0.8396436001454572,0.05364306929575951,0.7375314042323742,-0.3106944771665032,-0.25803508118370094,-0.4407599090165288,-0.15278160816499067,0.6376219096720807,2,left
6.284,0.2449582955209482,0.8387575877319209,0.054152071147851824,0.6907101751694271,-0.32614661682494656,-0.26290000239817374,-0.44378577179169804,-0.15350660022820117,0.6434401424503736,2,left
6.287999999999999,0.24650185340671296,0.8378710398185386,0.054694197533721206,0.6427379238459761,-0.3407839451832633,-0.2682944459224868,-0.4468991374416271,-0.1541819208555412,0.6495583518234684,2,left
6.289,0.2482093375283523,0.8369858576324241,0.05526875578392523,0.5936968145172763,-0.3546290736117404,-0.27420044255334763,-0.4500977522203295,-0.1548020297469571,0.6559711053879883,2,left
6.292000000000001,0.2500773606016177,0.8361040386420375,0.055875002064498074,0.5436697845409731,-0.3677054004191514,-0.2805995486911885,-0.4533793490917943,-0.1553613429896859,0.6626728378977655,2,left
6.292999999999999,0.2521023670299349,0.8352276735284347,0.0565121451675794,0.49274039288183674,-0.3800370454737263,-0.2874728880275189,-0.4567416535145734,-0.15585423769271411,0.6696578609492232,2,left
6.297000000000001,0.25428064266132433,0.8343589433695845,0.05717935054144168,0.44099267016219224,-0.39164878286276955,-0.29480119304460217,-0.46018238928255856,-0.1562750570123774,0.6769203727563518,2,left
6.297999999999999,0.25660832428585956,0.8335001170865591,0.057875744520485856,0.38851097011451213,-0.4025659716285431,-0.3025648463457996,-0.4636992844313712,-0.15661811557069608,0.6844544680345198,2,left
6.3020000000000005,0.25908140885449277,0.8326535491813455,0.05860041871947751,0.3353798222900438,-0.41281448461589343,-0.31074392183628563,-0.46729007722001975,-0.15687770526785028,0.6922541480131725,2,left
6.303,0.26169576242490034,0.8318216777737724,0.059352434556785794,0.2816837858749978,-0.4224206354650364,-0.3193182257751437,-0.47095252219770334,-0.15704810148999118,0.7003133305982691,2,left
6.307,0.26444712886293104,0.8310070229220128,0.060130827860927286,0.22750730446371173,-0.43141110378091413,-0.3282673377211029,-0.4746843963658598,-0.15712356971336172,0.7086258607060887,2,left
6.308,0.26733113834823674,0.8302121851868157,0.0609346134966956,0.172934561636341,-0.43981285850862556,-0.3375706513953691,-0.4784835054457689,-0.1570983725054602,0.7171855207907994,2,left
6.311,0.27034331574903236,0.8294398443725884,0.06176278993849655,0.11804933718700382,-0.4476530795425816,-0.3472074154861369,-0.48234769026222757,-0.15696677692372377,0.7259860415889267,2,left
6.312,0.273479088943772,0.8286927583482274,0.06261434372977898,0.06293486384692688,-0.4549590775952713,-0.3571567744204473,-0.4862748332540126,-0.1567230623119365,0.7350211131045905,2,left
6.317,0.2767337971772908,0.8279737618183568,0.06348825379106296,0.007673684345999409,-0.4617582123498332,-0.3673978091300721,-0.49026286512204,-0.15636152849427687,0.744284395860086,2,left
6.318,0.2801026995453586,0.8272857648846721,0.0643834955637482,-0.047652491344755896,-0.46807780891901324,-0.3779095778390643,-0.4943097716263172,-0.15587650436661477,0.7537695324370741,2,left
6.322,0.283580983703772,0.8266317512119284,0.06529904500138435,-0.1029629287479464,-0.47394507263155666,-0.38867115690151105,-0.4984136005429662,-0.1552623568843456,0.7634701593343267,2,left
6.3229999999999995,0.2871637748955631,0.82601477559714,0.0662338824461161,-0.1581780117503823,-0.47938700216562563,-0.399661681718863,-0.5025724687927682,-0.15451350044571013,0.7733799191686205,2,left
6.3229999999999995,0.2908461453820574,0.82543796073798,0.06718699644980192,-0.21321938576822208,-0.4844303010474538,-0.4108603877669944,-0.5067845697403335,-0.15362440666184296,0.7834924732218499,2,left
6.3260000000000005,0.29462312434932425,0.8249044930146429,0.06815738760662227,-0.26801010136541126,-0.4891012875321522,-0.4222466517638622,-0.511048180600569,-0.15258961446765815,0.7938015142172105,2,left
6.327999999999999,0.29848970834279553,0.8244176171373357,0.06914407245413715,-0.3224747583193015,-0.49342580297402905,-0.433800032975014,-0.5153616697766036,-0.15140374046112345,0.8043007789904036,2,left
6.327999999999999,0.30244087226577454,0.8239806295500918,0.07014608748224165,-0.3765396493040264,-0.4974291192509975,-0.4455003144833915,-0.5197235038908913,-0.15006148932130878,0.8149840606015624,2,left
6.331,0.3064715809661992,0.8235968705039699,0.07116249327361884,-0.43013290088043027,-0.5011358466316195,-0.4573275439418991,-0.5241322543339549,-0.14855766419193864,0.8258452195549976,2,left
6.332000000000001,0.31057680142685906,0.8232697147211538,0.07219237878253086,-0.4831846086575982,-0.5045698439306959,-0.46926207315628715,-0.5285866032680449,-0.14688717698291645,0.8368781940119114,2,left
6.337999999999999,0.314751515561464,0.8230025605798355,0.07323486573392542,-0.5356269643127053,-0.5077541323400315,-0.48128459601772283,-0.5330853490857214,-0.14504505857860042,0.848077009002588,2,left
6.3389999999999995,0.3189907336000797,0.8227988177743962,0.07428911309243272,-0.5873943736356178,-0.5107108134951029,-0.4933761846133037,-0.5376274113360237,-0.14302646894850068,0.8594357846692483,2,left
6.3420000000000005,0.323289508023486,0.8226618934532212,0.07535432152027616,-0.6384235655859402,-0.5134609918792171,-0.5055183235144765,-0.5422118351310188,-0.1408267071555878,0.8709487435712537,2,left
6.343,0.3276429479798897,0.8225951768984202,0.07642973772452423,-0.68865369251302,-0.5160247015743543,-0.5176929422778594,-0.5468377950456504,-0.13844122125691027,0.8826102170848146,2,left
6.347,0.33204623409272255,0.8226020228752794,0.07751465859065287,-0.7380264216874884,-0.5184208373672357,-0.5298824461931625,-0.5515045985239367,-0.13586561809071218,0.8944146509298219,2,left
6.348,0.33649463354777015,0.8226857338377987,0.07860843500708102,-0.7864860182907984,-0.5206670902185585,-0.5420697453130486,-0.5562116888046817,-0.13309567294372163,0.9063566098568662,2,left
6.351,0.3409835153318393,0.8228495412261433,0.0797104752969791,-0.8339794200069326,-0.522779887102805,-0.5542382817998736,-0.5609586473799902,-0.13012733909174792,0.9184307815279288,2,left
6.352,0.34550836548177294,0.8230965861285732,0.08082024818232766,-0.8804563033579954,-0.5247743352255463,-0.566372055624282,-0.5657451959999912,-0.12695675720617924,0.9306319796246472,2,left
6.355,0.35006480219071723,0.8234298996030738,0.0819372852085771,-0.925869141922788,-0.5266641706247291,-0.5784556486506371,-0.5705711982372901,-0.12358026461841469,0.942955146218448,2,left
6.356,0.35464859060837817,0.8238523829638191,0.0830611825600472,-0.9701732565746916,-0.5284617111620479,-0.5904742471442069,-0.5754366606247872,-0.11999440443369537,0.9553953534372227,2,left
6.361000000000001,0.35925565716416946,0.8243667883365158,0.08419160220148436,-1.0133268578722734,-0.5301778139101615,-0.6024136627349282,-0.5803417333806117,-0.11619593448521824,0.967947804463584,2,left
6.362,0.36388210323700904,0.8249756997753848,0.08532827229211308,-1.0552910807329785,-0.5318218369412099,-0.6142603518724322,-0.5852867107340356,-0.11218183611882557,0.9806078339000971,2,left
6.3660000000000005,0.3685242179933524,0.8256815152142697,0.08647098683431632,-1.09603001151709,-0.533401605521817,-0.6260014338068262,-0.5902720308663448,-0.10794932279796167,0.9933709075372098,2,left
6.367000000000001,0.37317849021733224,0.8264864294970548,0.08761960453832279,-1.1355107076458444,-0.5349233827195318,-0.6376247071295007,-0.5952982754807586,-0.10349584851797869,1.0062326215599333,2,left
6.371,0.37784161896577484,0.8273924186994832,0.08877404690753952,-1.1737032098741744,-0.5363918444254449,-0.6491186649079671,-0.6003661690156044,-0.09881911601825366,1.0191887012296308,2,left
6.372000000000001,0.3825105228967609,0.8284012259166531,0.0899342955772668,-1.2105805473350446,-0.5378100587975352,-0.6604725084484282,-0.6054765775150706,-0.09391708477995295,1.0322349990775708,2,left
6.375,0.38718234814203545,0.8295143486500359,0.09110038896935829,-1.246118735468727,-0.5391794701291257,-0.6716761597194478,-0.610630507171979,-0.08878797879664493,1.0453674926471843,2,left
6.376,0.39185447461940404,0.8307330278862112,0.09227241835136443,-1.2802967669466816,-0.5404998871466751,-0.6827202724697156,-0.6158291025571352,-0.08343029410432198,1.0585822818222352,2,left
6.381,0.39652452070988026,0.832058238915114,0.09345052340705856,-1.3130965956959224,-0.5417694757409816,-0.6935962420725003,-0.6210736445499419,-0.07784280605674543,1.0718755857783742,2,left
6.382000000000001,0.401190346255464,0.83349068388654,0.09463488743555064,-1.3445031141259212,-0.5429847561357338,-0.7042962141289584,-0.6263655479850827,-0.07202457633137581,1.085243739595795,2,left
6.385,0.40585005386707884,0.8350307860514227,0.09582573230060891,-1.3745041236561915,-0.5441406044971965,-0.7148130918620053,-0.631706359030214,-0.06597495965049446,1.0986831905709464,2,left
6.386,0.4105019885677631,0.8366786855825695,0.09702331325239792,-1.403090298638747,-0.5452302589886706,-0.7251405423319764,-0.6370977523097326,-0.05969361020146332,1.112190494265479,2,left
6.391,0.4151447358335486,0.8384342368200897,0.09822791374038922,-1.4302551437656288,-0.54624533027321,-0.7352730015048006,-0.6425415277898263,-0.053180487739407006,1.1257623103308247,2,left
6.391,0.4197771181304647,0.8402970067462758,0.09943984032701851,-1.455994945047667,-0.547175816467898,-0.7452056782028843,-0.6480396074361219,-0.04643586335571432,1.1393953981350722,2,left
6.392,0.4243981900693758,0.8422662744811164,0.10065941779499323,-1.480308714446584,-0.5480101225527987,-0.7549345569683632,-0.6535940316352385,-0.03946032489897344,1.153086612159324,2,left
6.395,0.429007232302838,0.8443410316109897,0.10188698451907297,-1.5031981282966267,-0.5487350842084194,-0.764456399851722,-0.6592069553354266,-0.03225478204127919,1.1668328970234854,2,left
6.396,0.43360374428018317,0.8465199831967298,0.10312288815370764,-1.5246674599386254,-0.5493359959100055,-0.7737687470577308,-0.6648806438414743,-0.024820470986068537,1.1806312819419365,2,left
6.397,0.4381874359768538,0.8488015493237104,0.10436748167713636,-1.5447235075087251,-0.5497966428452086,-0.7828699162351935,-0.6706174682193824,-0.017158958809095813,1.1944788744693826,2,left
6.399,0.4427582187327217,0.8511838670461528,0.10562111982861853,-1.5633755181107343,-0.5500993360760796,-0.791759000115933,-0.6764199003027506,-0.009272147416509665,1.2083728535047549,2,left
6.4,0.44731619536904665,0.8536647925511459,0.10688415597230093,-1.5806351093061768,-0.5502249505112539,-0.800435862288316,-0.6822905073131481,-0.0011622770994549941,1.2223104615808569,2,left
6.405,0.45186164978415905,0.8562419033529696,0.10815693941165748,-1.5965161883286383,-0.5501529655152811,-0.8089011310348824,-0.6882319461109561,0.007168070336805548,1.2362889964795332,2,left
6.407,0.45639503623427696,0.8589125003474392,0.10943981315996215,-1.6110348691341723,-0.5498615081268764,-0.8171561912435206,-0.6942469570933543,0.01571596889190238,1.2503058022122675,2,left
6.41,0.46091696849019737,0.8616736096031199,0.1107331121503823,-1.624209387337379,-0.549327398886407,-0.8252031744171149,-0.700338357756324,0.024478146160794044,1.2643582594062432,2,left
6.4110000000000005,0.4654282090344767,0.8645219838243027,0.11203716184909984,-1.6360600130788163,-0.5485262002723627,-0.8330449468059863,-0.706509035937741,0.0334509816195511,1.2784437751360158,2,left
6.416,0.46992965843288537,0.8674541034809016,0.11335227721562681,-1.646608961865485,-0.5474322677459191,-0.8406850956868468,-0.7127619427588419,0.042630505431037594,1.2925597722410622,2,left
6.417999999999999,0.47442234498030594,0.8704661776606435,0.11467876193524675,-1.6558803034222838,-0.546018803402012,-0.8481279138113905,-0.7191000852815731,0.05201239779565369,1.3067036781695651,2,left
6.419,0.4789074146866607,0.8735541447571896,0.11601690783209319,-1.6638998685885207,-0.5442579122245618,-0.8553783820470541,-0.7255265188995519,0.061591988872907635,1.3208729133888932,2,left
6.42,0.48338612163487604,0.8767136731597386,0.11736699436051412,-1.6706951542898418,-0.542120660942649,-0.862442150231907,-0.7320443394806111,0.07136425930017774,1.335064879403326,2,left
6.4239999999999995,0.4878598187125339,0.879940162149164,0.11872928806551412,-1.676295226612265,-0.5395771394835209,-0.8693255162650622,-0.7386566752791397,0.08132384133560641,1.3492769464196435,2,left
6.4239999999999995,0.49232994869356855,0.8832287432286217,0.12010404189797344,-1.6807306220014138,-0.5365965250173076,-0.8760354034534477,-0.7453666786366906,0.09146502065263465,1.3635064407012851,2,left
6.428,0.49679803562728214,0.8865742821214867,0.12149149427138255,-1.684033246606539,-0.5331471485872442,-0.8825793361352445,-0.7521775174895832,0.10178173881423885,1.3777506316518382,2,left
6.43,0.5012656764801051,0.8899713816570994,0.12289186776313771,-1.6862362737854804,-0.5291965643180248,-0.8889654135997827,-0.7590923667025047,0.11226759645546874,1.392006718668679,2,left
6.434,0.5057345329710824,0.8934143857374194,0.12430536739791065,-1.6873740397833756,-0.5247116211936578,-0.895202282323183,-0.7661143992473929,0.12291585720340628,1.4062718178076385,2,left
6.434,0.5102063235434047,0.8968973845380137,0.12573217849410565,-1.6874819375946783,-0.5196585373948446,-0.9012991065385649,-0.7732467772471725,0.13371945236416885,1.4205429482996061,2,left
6.44,0.5146828154195612,0.9004142210461903,0.12717246409360028,-1.6865963090148868,-0.5140029771844606,-0.9072655371591826,-0.7804926429042164,0.14467098640706552,1.434817018960019,2,left
6.441,0.519165816696134,0.9039584989788424,0.12862636202479433,-1.68475433488533,-0.5077101303281812,-0.9131116790724254,-0.7878551093337108,0.15576274327648051,1.4490908145322101,2,left
6.444,0.5236571684456451,0.907523592055755,0.13009398167429195,-1.6819939235313965,-0.5007447940356631,-0.9188480568222197,-0.7953372513224226,0.166986693562504,1.4633609820056075,2,left
6.445,0.528158736807165,0.9111026545348236,0.13157540056751071,-1.6783535973917438,-0.4930714574059594,-0.9244855786969921,-0.8029420960336868,0.17833450256175445,1.4776240169497785,2,left
6.4479999999999995,0.53267240506425,0.9146886328483849,0.13307066087944933,-1.6738723778332767,-0.4846543883590153,-0.930035499240013,-0.8106726136797759,0.18979753926023854,1.4918762499053235,2,left
6.45,0.5372000657261635,0.9182742781204869,0.13457976600695784,-1.6685896681440495,-0.4754577230331566,-0.9355093801986208,-0.8185317081831491,0.20136688627047453,1.5061138328726,2,left
6.454,0.541743612642916,0.9218521592998059,0.13610267733094436,-1.6625451346937175,-0.4654455576264528,-0.9409190499285477,-0.8265222078484346,0.2130333507554596,1.5203327259392467,2,left
6.454,0.5463049331944398,0.9254146766155311,0.13763931128293833,-1.6557785862487484,-0.45458204265769636,-0.9462765612693154,-0.8346468560673598,0.22478747637239221,1.534528684087439,2,left
6.459,0.550885900599905,0.9289540750528601,0.13918953680762713,-1.6483298514273046,-0.44283147962050123,-0.9515941479064498,-0.8429083020792116,0.23661955626936526,1.5486972442217724,2,left
6.46,0.5554883663959378,0.9324624575513291,0.1407531732857633,-1.640238654276518,-0.43015842000168164,-0.956884179236083,-0.8513090918059867,0.24851964714120187,1.5628337124584317,2,left
6.46,0.560114153131035,0.9359317976616383,0.1423299889572982,-1.6315444879528038,-0.4165277666326263,-0.9621591137473583,-0.859851658762765,0.2604775842142452,1.5769331517153706,2,left
6.462999999999999,0.5647650473165167,0.9393539514549473,0.14391969986690775,-1.6222864866283158,-0.4019048772705031,-0.9674314509960964,-0.8685383150100174,0.27248299678423543,1.590990369641567,2,left
6.4639999999999995,0.5694427926653788,0.9427206685374971,0.14552196934234018,-1.612503296466895,-0.38625566995682414,-0.9727136825338757,-0.8773712420959464,0.2845253237949898,1.6049999069224534,2,left
6.465,0.5741490836456159,0.9460236020577142,0.14713640800854802,-1.6022329478108852,-0.3695467290741627,-0.9780182426800307,-0.8863524819563803,0.2965938290823797,1.6189560259993891,2,left
6.468,0.578885559376201,0.9492543176039099,0.1487625743362097,-1.5915127314406519,-0.35174541067231024,-0.9833574603148385,-0.8954839277743664,0.30867761615413625,1.632852700242492,2,left
6.468999999999999,0.5836537978983753,0.9524043008976557,0.15039997571972266,-1.5803790810450522,-0.3328199459788709,-0.9887435125814199,-0.9047673148210411,0.3207656425127328,1.6466836036168924,2,left
6.473,0.588455310856364,0.9554649642153527,0.15204807007349522,-1.5688674627399386,-0.31273954263023185,-0.9941883808605482,-0.9142042113035823,0.3328467335559907,1.6604421008824852,2,left
6.474,0.59329153861578,0.9584276515317248,0.1537062679229075,-1.5570122717483907,-0.2914744835023726,-0.9997038090918848,-0.923796009246478,0.34490959609009814,1.6741212383670894,2,left
6.478,0.5981638458337762,0.9612836424645934,0.15537393494727048,-1.5448467362107758,-0.26899622308707777,-1.005301264457142,-0.9335439154327855,0.3569428314897435,1.687713735352735,2,left
6.479,0.6030735174739513,0.9640241551922331,0.15705039490950243,-1.5324028280916344,-0.24527748135580493,-1.0109919004408374,-0.9434489424324918,0.36893494854004477,1.7012119761145814,2,left
6.484,0.6080217552338502,0.9666403485994292,0.158734932884357,-1.5197111811494104,-0.22029233505005616,-1.0167865222845107,-0.9535118997455349,0.38087437599490426,1.7146080026517538,2,left
6.485,0.6130096743281005,0.9691233239756755,0.1604267986776587,-1.5068010159341456,-0.1940163063336213,-1.0226955548505068,-0.9637333850874893,0.39274947488633116,1.7278935081491256,2,left
6.4879999999999995,0.618038300551041,0.9714641266313183,0.1621252103188252,-1.4937000717774558,-0.1664264487384991,-1.0287290129116946,-0.9741137758463733,0.4045485506191576,1.7410598312088081,2,left
6.489,0.623108567532213,0.9736537478132183,0.1638293575123452,-1.4804345457383898,-0.13750143033266796,-1.0348964738837925,-0.9846532207394852,0.416259864885423,1.7540979508898111,2,left
6.495,0.6282213140965708,0.975683127294517,0.16553840494981717,-1.4670290384681486,-0.10722161403417284,-1.041207053017295,-0.9953516316996367,0.4278716474325135,1.7669984825940215,2,left
6.496,0.6333772816471652,0.97754315698975,0.16725149540710316,-1.4535065069560802,-0.07556913499222417,-1.0476693810663564,-1.0062086760206002,0.4393721077189285,1.7797516748363087,2,left
6.497999999999999,0.6385771114983338,0.9792246859133026,0.1689677525754634,-1.4398882241188984,-0.04252797495217268,-1.0542915844523661,-1.017223768792049,0.45074944649129184,1.7923474069361833,2,left
6.497999999999999,0.6438213420991907,0.9807185267605188,0.1706862835983187,-1.4261937451946631,-0.008084033517335469,-1.0610812679403636,-1.028396065654722,0.46199186731593944,1.8047751876680538,2,left
6.502000000000001,0.6491104060998001,0.9820154643484268,0.17240618130583055,-1.412440880902721,0.027774803783289708,-1.0680454998468751,-1.039724455907003,0.4730875880980964,1.8170241549066966,2,left
6.504,0.6544446272267742,0.9831062661077401,0.1741265261574833,-1.3986456773305287,0.06505860071637123,-1.0751907997982129,-1.0512075559945537,0.4840248526213018,1.8290830763040946,2,left
6.507000000000001,0.6598242169508417,0.98398169477078,0.17584638791719176,-1.3848224025080553,0.10377530895362559,-1.0825231290587556,-1.062843703415096,0.4947919421393519,1.8409403510333326,2,left
6.507999999999999,0.665249270944662,0.9846325233522649,0.17756482709387783,-1.3709835396302865,0.14393071017226902,-1.0900478834492326,-1.0746309510708796,0.5053771870526129,1.8525840126347017,2,left
6.5120000000000005,0.6707197653439763,0.9850495524714565,0.17928089618085147,-1.3571397868882396,0.1855283617536625,-1.0977698888755494,-1.086567062101825,0.5157689787000959,1.864001732998639,2,left
6.5120000000000005,0.676235552838294,0.9852236300142532,0.18099364072113078,-1.3433000638687977,0.22856954619138517,-1.1056933994892308,-1.0986495052327596,0.5259557812982011,1.8751808275195343,2,left
6.517,0.6817963586271687,0.9851456730827314,0.1827021002193957,-1.329471524483637,0.2730532243240998,-1.1138220985011085,-1.1108754506686085,0.5359261440565156,1.8861082614538311,2,left
6.518,0.6874017762835696,0.9848066921290787,0.18440530892173865,-1.3156595763874908,0.3189759925127116,-1.1221591016704444,-1.1232417665718206,0.5456687135004905,1.8967706575151895,2,left
6.522,0.6930512635670268,0.9841978171236416,0.18610229649367002,-1.301867906846013,0.3663320438854644,-1.1307069634922633,-1.1357450161567344,0.555172246030239,1.9071543047388009,2,left
6.523,0.698744138227566,0.9833103255662153,0.18779208863934435,-1.2880985150135253,0.4151131337787566,-1.1394676861062483,-1.1483814554359986,0.5644256207440712,1.917245168646216,2,left
6.527,0.7044795738388242,0.982135672122252,0.1894737077120038,-1.2743517505809763,0.46530854950558737,-1.148442730951158,-1.1611470316416521,0.5734178525423295,1.9270289027227225,2,left
6.528,0.7102565956954475,0.980665519664289,0.19114617336278647,-1.2606263587544995,0.5169050845876585,-1.1576330331893252,-1.1740373822792902,0.5821381054643856,1.9364908611256797,2,left
6.528,0.7160740768056315,0.9788917715226408,0.19280850326478674,-1.2469195315250143,0.5698870175912417,-1.1670390189264062,-1.1870478346579023,0.5905757060993295,1.9456161123742939,2,left
6.531000000000001,0.7219307340056768,0.9768066047635408,0.19445971393772774,-1.2332269651893761,0.6242360957109826,-1.1766606252521659,-1.200173405673766,0.5987201568481146,1.954389453677608,2,left
6.532,0.7278251242192972,0.9744025042905882,0.19609882168991155,-1.2195429240836404,0.6799315232498295,-1.1864973231287017,-1.2134088016917122,0.6065611488761556,1.9627954256493785,2,left
6.532,0.7337556408778152,0.9716722975332392,0.19772484368811896,-1.2058603103781274,0.7369499550552703,-1.1965481430821783,-1.2267484184836412,0.6140885747061828,1.9708183273246296,2,left
6.5360000000000005,0.7397205105098427,0.9686091894875096,0.199336799162148,-1.1921707392293739,0.7952654945160736,-1.206811703300028,-1.240186341249074,0.6212925404623254,1.9784422314844954,2,left
6.537000000000001,0.7457177895043521,0.9652067979079624,0.20093371074898922,-1.1784646175857252,0.8548496948997637,-1.2172862390976606,-1.2537163447557416,0.6281633777879273,1.9856510003134582,2,left
6.541,0.7517453610481172,0.9614591884718289,0.20251460598155005,-1.1647312243886851,0.9156715623549448,-1.2279696323645992,-1.2673318936385307,0.6346916554586972,1.9924283014119981,2,left
6.542000000000001,0.757800932234655,0.9573609097173413,0.20407851892701379,-1.1509587904667606,0.9776975593662174,-1.2388594399553148,-1.281026142895367,0.6408681907118685,1.9987576241865217,2,left
6.546,0.7638820313385601,0.9529070275224499,0.2056244919787908,-1.1371345774168329,1.0408916082809017,-1.2499529206291542,-1.2947919386188949,0.6466840603110868,2.004622296637245,2,left
6.547000000000001,0.7699860052484888,0.9480931588693002,0.207151577802422,-1.123244955322652,1.1052150949902408,-1.2612470604991024,-1.3086218190030527,0.6521306113657585,2.010005502563458,2,left
6.5520000000000005,0.7761100170530508,0.9429155046346179,0.20865884143196278,-1.1092754792708612,1.1706268729431892,-1.2727385970206584,-1.3225080156638656,0.657199471922585,2.0148902992043265,2,left
6.553,0.7822510437761809,0.9373708811435633,0.21014536251423013,-1.0952109646248096,1.2370832676742423,-1.2844240415526837,-1.3364424553139862,0.6618825613459723,2.0192596353320336,2,left
6.556,0.7884058742642832,0.9314567502199674,0.2116102377061864,-1.0810355610162201,1.3045380820300043,-1.2962997005226629,-1.350416761830697,0.6661721005029425,2.0230963698126976,2,left
6.557,0.7945711072382237,0.9251712474606031,0.21305258324392307,-1.066732825014551,1.3729426022823106,-1.3083616952293788,-1.3644222587572479,0.6700606217670925,2.0263832906490555,2,left
6.562,0.8007431495377598,0.9185132084579778,0.21447153771683214,-1.052285791433611,1.4422456053187125,-1.3206059803165693,-1.378449972277541,0.673540978855037,2.0291031345174293,2,left
6.563,0.8069182146013104,0.9114821926970131,0.21586626509344145,-1.0376770432346725,1.5123933671040077,-1.3330283609516653,-1.3924906347042867,0.6766063565076416,2.0312386068099597,2,left
6.566,0.8130923212391286,0.9040785048565679,0.21723595805180643,-1.0228887799849566,1.583329672609206,-1.345624508744258,-1.4065346885208496,0.6792502800272004,2.032772402191515,2,left
6.567,0.8192612927744365,0.8963032132575126,0.21857984166545266,-1.0079028848299507,1.6549958274069059,-1.3583899764394574,-1.4205722910170564,0.6814666246805442,2.0336872256790475,2,left
6.572,0.8254207566453643,0.8881581652161281,0.2198971774863098,-0.9927009899375543,1.7273306711344796,-1.3713202114218215,-1.4345933195592866,0.6832496249768676,2.033965814249499,2,left
6.5729999999999995,0.8315661445789932,0.8796459990862222,0.22118726804989056,-0.9772645403715303,1.8002705930287186,-1.384410568066031,-1.4485873775351654,0.684593883827862,2.0335909589806196,2,left
6.5760000000000005,0.8376926934648713,0.8707701528058449,0.2224494618063454,-0.9615748563511718,1.8737495497376842,-1.3976563189709703,-1.4625438010131635,0.685494381596504,2.0325455277272915,2,left
6.577000000000001,0.8437954470653988,0.8615348688043499,0.22368315845607015,-0.9456131938534733,1.9476990856174294,-1.411052665114351,-1.476451666157363,0.6859464850396126,2.0308124883341265,2,left
6.581,0.8498692587006648,0.8519451951722624,0.224887814642603,-0.9293608035134227,2.0220483557229834,-1.4245947449654741,-1.4902997974375651,0.6859459561480261,2.0283749323832168,2,left
6.582000000000001,0.8559087950339391,0.8420069830499993,0.22606294993067175,-0.9127989877772987,2.0967241517045347,-1.4382776425941695,-1.5040767766748102,0.6854889608869739,2.0252160994740014,2,left
6.585,0.8619085410611594,0.8317268802514879,0.22720815297540942,-0.8959091562630824,2.171650930821105,-1.4520963948143881,-1.5177709529622392,0.6845720778379346,2.0213194020302363,2,left
6.586,0.8678628063737565,0.8211123212025985,0.22832308777152613,-0.8786728792812518,2.2467508482851337,-1.4660459974013385,-1.5313704535010526,0.6831923067419696,2.0166684506270243,2,left
6.59,0.8737657327209084,0.8101715133374147,0.22940749985953346,-0.8610719394683438,2.321943793152337,-1.4801214104214628,-1.5448631953911225,0.6813470769432131,2.0112470798287974,2,left
6.591,0.8796113028510997,0.798913420151202,0.23046122235957628,-0.8430883814847225,2.3971474279719205,-1.4943175627149454,-1.5582368984155688,0.6790342557298763,2.005039374527024,2,left
6.595,0.8853933505750364,0.7873477411451695,0.23148418170170265,-0.824704559726999,2.4722772324127145,-1.5086293555708066,-1.571479098834281,0.6762521565541112,1.9980296967522118,2,left
6.596,0.8911055719748042,0.775484888896305,0.2324764029288508,-0.8059031840045029,2.547246551081059,-1.5230516656350137,-1.584577164080735,0.6729995470373062,1.9902027128724218,2,left
6.597,0.8967415376873313,0.7633359634482303,0.23343801446675758,-0.7866673631281049,2.621966645746301,-1.5375793470923773,-1.5975183080395432,0.6692756565338652,1.9815434209799863,2,left
6.6,0.9022947061928798,0.750912724189698,0.23436925226942945,-0.7669806463585388,2.6963467521895463,-1.552207233163334,-1.6102896064614836,0.6650801829517354,1.972037178205664,2,left
6.601,0.9077584380259895,0.7382275593953375,0.23527046325091072,-0.7468270627072879,2.7702941419256737,-1.566930136957896,-1.622878012192646,0.6604132986000382,1.9616697277572754,2,left
6.601,0.9131260108131929,0.7252934536132016,0.23614210792069293,-0.7261911583173886,2.843714189222087,-1.5817428517336347,-1.6352703701104678,0.6552756549649811,1.9504272255857316,2,left
6.606,0.9183906350458253,0.7121239530626589,0.23698476216553163,-0.7050580325741866,2.9165104441502296,-1.5966401506125671,-1.6474534317792535,0.6496683863873152,1.9382962666390906,2,left
6.607,0.923545470500859,0.6987331291886282,0.23779911815309052,-0.6834133738302863,2.9885847125788043,-1.6116167858163768,-1.6594138698613157,0.6435931126279281,1.9252639106748237,2,left
6.61,0.9285836432097732,0.6851355405412496,0.23858598435772768,-0.6612434953920011,3.0598371438419685,-1.6266674874753686,-1.6711382923193037,0.6370519403068201,1.9113177075979684,2,left
6.611000000000001,0.9334982628586057,0.671346193190832,0.23934628472520128,-0.6385353719892174,3.130166326500425,-1.6417869620590908,-1.682613256444695,0.6300474631993572,1.8964457222902928,2,left
6.615,0.9382824405007646,0.6573804999100762,0.2400810570049521,-0.6152766767135693,3.1994693924370847,-1.6569698904724899,-1.6938252827467768,0.6225827613723516,1.880636558893006,2,left
6.6160000000000005,0.942929306476866,0.6432542383574198,0.2407914502858863,-0.5914558183612104,3.267642129491768,-1.672210925860825,-1.7047608687357714,0.6146613991411857,1.863879384502921,2,left
6.62,0.9474320284526567,0.6289835084906384,0.2414787217735383,-0.5670619791149192,3.334579102836763,-1.687504691166766,-1.7154065026330387,0.6062874218278653,1.846163952239325,2,left
6.621,0.9517838295004267,0.614584689436011,0.2421442328455003,-0.542085152498698,3.4001737852921075,-1.7028457764832776,-1.7257486770405401,0.5974653512985629,1.8274806236361196,2,left
6.624,0.9559780061583162,0.6000743960382952,0.24278944442084527,-0.5165161815364124,3.4643186967762034,-1.7182287362460624,-1.7357739026009436,0.5882001802579053,1.8078203903110688,2,left
6.625,0.9600079464047626,0.5854694353210829,0.24341591167730012,-0.4903467970443702,3.5269055530838314,-1.7336480863094876,-1.7454687216789304,0.5784973652759594,1.7871748948612414,2,left
6.629,0.9638671474823158,0.5707867630937984,0.2440252781448583,-0.46356965598607125,3.5878254241797696,-1.7490983009500518,-1.7548197220933777,0.5683628185225824,1.7655364509309557,2,left
6.63,0.9675492334980996,0.5560434409466145,0.2446192691963892,-0.4361783798156555,3.6469689021920533,-1.764573809841573,-1.7638135509291915,0.5578028981825331,1.7428980623957342,2,left
6.6339999999999995,0.9710479727219731,0.5412565938737398,0.24519968494850222,-0.4081675927348558,3.7042262792844385,-1.7800689950463828,-1.7724369284566122,0.5468243975234819,1.7192534416029386,2,left
6.6339999999999995,0.9743572945034205,0.5264433687566298,0.24576839258565,-0.3795329597865198,3.7594877355828342,-1.7955781880668955,-1.7806766621848247,0.5354345325878208,1.6945970266069077,2,left
6.638,0.9774713057361512,0.5116208939218861,0.24632731812979825,-0.3502712247059993,3.8126435373253806,-1.8110956670020018,-1.7885196610756822,0.5236409284779519,1.6689239973335548,2,left
6.64,0.9803843068114889,0.49680623996615186,0.24687843769124881,-0.32038024744993215,3.8635842454004123,-1.8266156538527816,-1.7959529499422888,0.5114516042035301,1.642230290606484,2,left
6.645,0.9830908070116611,0.48201638201572206,0.2474237682445378,-0.2898590413201488,3.9122009344308286,-1.8421323120220854,-1.802963684056082,0.49887495605795884,1.6145126139637878,2,left
6.646,0.9855855392984305,0.4672681635649562,0.24796535797465669,-0.2587078095986387,3.9583854225573303,-1.857639744052543,-1.8095391639849208,0.48591973949027395,1.5857684581917582,2,left
6.649,0.9878634744517625,0.4525782620153698,0.24850527623887675,-0.2269279816077049,4.002030512066636,-1.8731319896475755,-1.8156668506834996,0.4725950494374184,1.5559961084988319,2,left
6.65,0.9899198345101273,0.4379631560152418,0.24904560319344388,-0.1945222481076278,4.043030241004102,-1.888603024019973,-1.821334380856208,0.45891029908079756,1.5251946542501262,2,left
6.654,0.9917501054617687,0.42343909467738106,0.24958841914229193,-0.16149459594235294,4.081280145903193,-1.9040467566125696,-1.8265295826112922,0.44487519698991634,1.493363997179996,2,left
6.655,0.9933500491372539,0.4090220687308582,0.25013579367402006,-0.12785034184191285,4.116677535756957,-1.9194570302355136,-1.8312404914239016,0.430499722614842,1.460504857997078,2,left
6.659,0.9947157142581283,0.39472778364054606,0.25068977466151016,-0.0935961652884988,4.149121777349054,-1.934827620664559,-1.835455366424269,0.41579410008819895,1.426618781293342,2,left
6.659,0.9958434466021172,0.38057163470584093,0.25125237720460925,-0.0587401403513143,4.178514592054007,-1.950152236744735,-1.8391627070259253,0.40076877029639973,1.3917081386657015,2,left
6.662999999999999,0.9967298982498274,0.3665686841286385,0.25182557259909805,-0.023291766393573842,4.20476036420815,-1.9654245210436483,-1.8423512698931903,0.3854343612325874,1.355776129996989,2,left
6.664,0.9973720358820684,0.35273364002352,0.2524112774111766,0.01273800244673909,4.227766461144247,-1.9806380510985568,-1.8450100861744023,0.3698016569115768,1.318826783046074,2,left
6.665,0.9977671481013727,0.33908083733162375,0.25301134272521864,0.049336729102466094,4.247443564974036,-1.9957863413012291,-1.8471284787974749,0.3538815656099263,1.280864951864666,2,left
6.667999999999999,0.997912851753159,0.32562422059260826,0.2536275436226527,0.08649046688632439,4.26370601564648,-2.01086284543287,-1.8486960795515262,0.337685088462142,1.2418963147613382,2,left
6.669,0.9978070972208067,0.31237732852504096,0.25426156894773094,0.12418373457865634,4.2764721620632296,-2.0258609597033366,-1.8497028457481566,0.32122328917440335,1.2019273723244595,2,left
6.669,0.99744817266962,0.2993532803638309,0.2549150114157546,0.16239949392839967,4.285664713096662,-2.040774025864484,-1.8501390763828196,0.30450726513260784,1.1609654456421137,2,left
6.6739999999999995,0.9968347072177981,0.28656476390117974,0.25558935811980715,0.20111913037986237,4.291211077609031,-2.0555953338093826,-1.8499954277864996,0.28754811991198304,1.119018674648268,2,left
6.675,0.9959656730134553,0.27402402517216967,0.2562859814979668,0.2403224376629615,4.293043685298254,-2.070318123226815,-1.8492629287705693,0.2703569371409987,1.0760960164803801,2,left
6.678,0.9948403861961704,0.26174285971963335,0.25700613082875057,0.2799876065684348,4.291100285112201,-2.084935584164417,-1.8479329952660568,0.25294475567158226,1.0322072437307925,2,left
6.678999999999999,0.9934585067237063,0.24973260536838104,0.2577509243207559,0.3200912180545072,4.2853242206998585,-2.0994408565114413,-1.845997444456893,0.2353225460069428,0.9873629424714321,2,left
6.684,0.9918200370495588,0.2380041364355929,0.25852134185650105,0.3606082407975859,4.275664682904505,-2.1138270284434304,-1.8434485084050132,0.21750118793764153,0.9415745099285272,2,left
6.685,0.989925319643171,0.2265678593015508,0.2593182184459327,0.40151203330088076,4.262076939293193,-2.128087133870772,-1.8402788471634783,0.1994914493359117,0.8948541516812869,2,left
6.688,0.9877750333515479,0.215433709263881,0.2601422384435645,0.4427743506761035,4.244522540705832,-2.1422141489327933,-1.8364815613720378,0.1813039660576273,0.8472148782557409,2,left
6.689,0.9853701886093622,0.2046111485988203,0.26099393058564707,0.4843653562145823,4.222969504796039,-2.156200987578707,-1.8320502043277929,0.16294922290074818,0.7986705009822277,2,left
6.694,0.9827121215171971,0.19410916575373002,0.26187366390985906,0.5262536378652373,4.197392476524623,-2.1700404962763575,-1.8269787935218458,0.14443753556852662,0.7492356269823438,2,left
6.695,0.9798024868269373,0.1839362755970237,0.2627816446247246,0.5684062297378872,4.167772865555222,-2.1837254478893393,-1.8212618216310068,0.125779033585251,0.6989256531485298,2,left
6.6979999999999995,0.9766432498969508,0.1741005206563955,0.263717913991888,0.6107886387513018,4.134098960490099,-2.1972485347626467,-1.814894266951817,0.1069836441118199,0.6477567589768697,2,left
6.699,0.9732366777004219,0.1646094732838946,0.26468234726776524,0.6533648765462601,4.096366019872612,-2.210602361056602,-1.8078716032623101,0.08806107660798942,0.5957458981111218,2,left
6.702999999999999,0.9695853289829403,0.15547023869598497,0.26567465372316124,0.6960974967846344,4.054576339871214,-2.2237794343683577,-1.8001898090950752,0.06902080828771433,0.5429107884534905,2,left
6.704,0.9656920436707936,0.14668945884585724,0.2666943777256592,0.7389476379561767,4.008739298548258,-2.236772156679801,-1.7918453764033195,0.04987207031360967,0.48926990069518045,2,left
6.707000000000001,0.9615599316312825,0.1382733170895347,0.26774090084016067,0.7818750718152364,3.958871376605204,-2.249572814670213,-1.7828353185997485,0.030623834676193777,0.43484244511735765,2,left
6.707999999999999,0.957192360881437,0.13022754360296102,0.26881344488599684,0.824838257570085,3.9049961544841976,-2.262173569431518,-1.7731571779461872,0.011284801703234986,0.3796483565107766,2,left
6.712000000000001,0.9525929453365002,0.12255742149364854,0.26991107588184077,0.8677944019478572,3.8471442856943905,-2.27456644562343,-1.762809032269966,-0.00813661185578784,0.3237082770600183,2,left
6.712999999999999,0.947765532194869,0.1152677935297744,0.2710327088041356,0.9106995252583407,3.7853534462197773,-2.28674332010525,-1.7517895009811826,-0.027632284225387344,0.2670435370360265,2,left
6.7170000000000005,0.9427141890778199,0.10836306938687526,0.272177113078634,0.953508533579941,3.7196682598538557,-2.2986959100805024,-1.740097750363031,-0.04719439953547001,0.20967613313842937,2,left
6.718999999999999,0.9374431910738454,0.10184723329472431,0.2733429187199213,0.9961752971911311,3.650140199295003,-2.3104157607899896,-1.727733498105471,-0.0668154583442138,0.15162870432699097,2,left
6.723,0.9319570078639833,0.09572385196003148,0.2745286230288004,1.038652735370542,3.576827462825148,-2.321894232788225,-1.7146970170505742,-0.08648828780841024,0.09292450497945766,2,left
6.724,0.926260291111951,0.08999608264567631,0.2757325977474088,1.0808929076885738,3.499794826383156,-2.3331224888375726,-1.7009891381159654,-0.10620605155745139,0.03358737521104637,2,left
6.728,0.9203578622842539,0.08466668130256791,0.2769530965553879,1.1228471119129975,3.419113470833314,-2.34409148045373,-1.6866112523608363,-0.1259622593273126,-0.026358291811129406,2,left
6.73,0.9142547010229365,0.07973801067214993,0.27818826277265113,1.1644659886504678,3.3348607842184554,-2.3547919341355183,-1.671565312157083,-0.1457507764110307,-0.0868875857272864,2,left
6.731,0.9079559341362601,0.07521204830196335,0.279436137126972,1.2056996328451903,3.247120138776578,-2.365214337311219,-1.6558538314261952,-0.16556583298230795,-0.1479751181882582,2,left
6.732,0.9014668252136857,0.0710903944402939,0.28069466545885674,1.2464977122551588,3.1559806424893435,-2.375348924032937,-1.6394798849191132,-0.18540203331777738,-0.2095950654569986,2,left
6.733,0.8947927648271153,0.06737427979473101,0.28196170627200084,1.2868095930254129,3.061536864920605,-2.3851856604497206,-1.6224471066069568,-0.20525436478753453,-0.2717212138741463,2,left
6.737,0.8879392612577016,0.0640645731511421,0.2832350380826557,1.326584472476664,2.963888537093101,-2.3947142300893454,-1.6047596874153023,-0.22511820620277023,-0.33432700659312037,2,left
6.737,0.8809119316770798,0.06116178885719498,0.2845123665609941,1.3657715190045083,2.8631402257758243,-2.403924019027847,-1.58642237262538,-0.24498933495337746,-0.39738558940175783,2,left
6.7379999999999995,0.8737164937045291,0.058666094180663216,0.28579133148385144,1.4043200178736779,2.759400985715747,-2.412804101274884,-1.567440459171071,-0.26486393252447604,-0.4608698540389434,2,left
6.742000000000001,0.8663587572596243,0.05657731655578722,0.2870695135312416,1.4421795196933787,2.652783999045542,-2.421343225151939,-1.5478197928920248,-0.2847385882616795,-0.5247524784780405,2,left
6.742999999999999,0.8588446166291127,0.05489495073290025,0.2883444409665076,1.4792999872487023,2.5434062142606915,-2.429529801689318,-1.52756676570875,-0.30461030141097534,-0.5890059642402158,2,left
6.747000000000001,0.8511800426589154,0.05361816585218089,0.28961359624739635,1.5156319374706386,2.4313879939801506,-2.437351895817085,-1.5066883126651627,-0.32447648149030517,-0.6536026709199733,2,left
6.747000000000001,0.8433710749763975,0.05274581247064059,0.29087442261814206,1.5511265773220981,2.316852774989308,-2.4447972206742983,-1.485191908782239,-0.34433494704993384,-0.718514848106356,2,left
6.751,0.8354238141596915,0.052276429577577326,0.29212433072551736,1.5857359334845968,2.1999267408854166,-2.4518531351100146,-1.4630855656646065,-0.36418392287868745,-0.783714664884339,2,left
6.752000000000001,0.827344413801201,0.05220825163665907,0.29336070528820374,1.6194129759498779,2.0807385070039572,-2.4585066443985077,-1.4403778278001118,-0.38402203571312565,-0.8491742371019227,2,left
6.757000000000001,0.8191390724519858,0.05253921569440654,0.294580911835509,1.6521117356183272,1.9594188172971916,-2.46474440419006,-1.4170777684906295,-0.40384830850669295,-0.914865652589342,2,left
6.757999999999999,0.8108140254713394,0.05326696859602391,0.29578230352170015,1.683787416003509,1.8361002528292703,-2.4705527277175707,-1.3931949853506238,-0.423662153315867,-0.9807609945176341,2,left
6.7620000000000005,0.8023755368335658,0.05438887434949333,0.2969622280148221,1.7143964991394638,1.7109169515457878,-2.4759175962780673,-1.3687395953082475,-0.44346336286029014,-1.0468323630845504,2,left
6.763,0.7938298909593542,0.05590202167662832,0.29811803445033963,1.7438968457846127,1.5840043389695515,-2.480824673007004,-1.3437222290420692,-0.4632521008138405,-1.113051895716469,2,left
6.766,0.7851833846431956,0.05780323178500914,0.29924708042887366,1.7722477900131643,1.4554988694685875,-2.4852593199620103,-1.318154024784836,-0.4830288908835606,-1.1793917859755454,2,left
6.767,0.7764423191432214,0.06008906638719148,0.30034673902519987,1.799410228281868,1.3255377777370614,-2.4892066185314667,-1.2920466214240451,-0.5027946047333278,-1.2458243013618475,2,left
6.774,0.7676129924889951,0.06275583598313185,0.3014144057635639,1.8253467030567736,1.1942588401248195,-2.492651393181973,-1.2654121508274765,-0.5225504488091156,-1.3123218002006471,2,left
6.775,0.758701692049039,0.06579960840919656,0.30244750550272487,1.8500214810813564,1.061800145446685,-2.4955782385574174,-1.2382632293202651,-0.542297950122661,-1.3788567478053815,2,left
6.775,0.7497146873852263,0.06921621764436042,0.30344349916515156,1.8734006263639564,0.928299874898461,-2.4979715499409516,-1.2106129482385353,-0.5620389410503221,-1.4454017321070742,2,left
6.776,0.7406582234071434,0.07300127285309468,0.3043998902414971,1.8954520679589664,0.79389609070281,-2.499815557089737,-1.1824748634831128,-0.5817755432038832,-1.5119294789411808,2,left
6.782,0.7315385138274824,0.07715016763579066,0.3053142310063487,1.9161456626125757,0.6587265331047863,-2.5010943614508365,-1.1538629839953505,-0.6015101504300395,-1.5784128671829365,2,left
6.782,0.7223617349110989,0.08165808945100518,0.3061841283954613,1.9354532523401682,0.5229284253338111,-2.50179197676509,-1.1247917590756662,-0.6212454109952767,-1.6448249439223204,2,left
6.785,0.7131340195063471,0.08652002916830062,0.30700724951652747,1.9533487169986532,0.38663828614627843,-2.5018923730642375,-1.0952760644639874,-0.6409842090128505,-1.7111389398696848,2,left
6.7860000000000005,0.7038614513465471,0.0917307907053297,0.30778132678979947,1.9698080219131153,0.24999174956078282,-2.501379524064934,-1.0653311870999422,-0.6607296451685604,-1.7773282851829888,2,left
6.79,0.694550059610995,0.09728500069817712,0.30850416273563597,1.9848092606131955,0.11312339139615006,-2.5002374579616213,-1.0349728084793126,-0.6804850168020224,-1.843366625907357,2,left
6.792000000000001,0.6852058137385958,0.10317711815029583,0.3091736344405009,1.9983326927305607,-0.023833437778962487,-2.498450311618507,-1.0042169865219932,-0.700253797400148,-1.90922784121741,2,left
6.795,0.6758346184914842,0.10940144400342394,0.30978769774126114,2.0103607771046947,-0.16074677367715373,-2.4960023881591553,-0.973080135865465,-0.7200396155595618,-1.9748860616524582,2,left
6.796,0.6664423092691584,0.115952130574119,0.31034439116986257,2.0208782001400643,-0.29748619369695534,-2.492878217950359,-0.9415790064966085,-0.7398462334747169,-2.0403156885342058,2,left
6.8,0.657034647675077,0.1228231908026027,0.3108418396960688,2.029871899453471,-0.4339229670942525,-2.4890626229751365,-0.9097306606896753,-0.7596775250100599,-2.1054914146725796,2,left
6.8020000000000005,0.6476173173360612,0.1300085072688946,0.3112782582959717,2.0373310828461126,-0.5699302003134836,-2.4845407845877863,-0.877552448497847,-0.7795374534224092,-2.1703882460470143,2,left
6.8020000000000005,0.638195919970137,0.13750184094452444,0.31165195536160323,2.0432472426305375,-0.7053829778711578,-2.4792983146419836,-0.8450619825500132,-0.7994300488137527,-2.2349815233980266,2,left
6.805,0.6287759716947571,0.1452968396587024,0.3119613359557949,2.0476141653618174,-0.8401584990634311,-2.4733213298585057,-0.8122771131841049,-0.8193593854025032,-2.2992469422454964,2,left
6.806,0.6193628995668959,0.15338704626118388,0.3122049049085159,2.050427937135452,-0.9741362101685922,-2.4665965286849607,-0.7792159046666741,-0.8393295586935705,-2.3631605702669605,2,left
6.806,0.6099620383463895,0.16176590646644,0.31238126974500097,2.0516869448217205,-1.1071979307343296,-2.459111268795954,-0.7458966127422604,-0.8593446626137211,-2.4266988617201912,2,left
6.81,0.6005786274736027,0.1704267763680731,0.31248914342787665,2.0513918737193446,-1.2392279719380552,-2.450853642767837,-0.7123376634745381,-0.8794087666710407,-2.4898386690110934,2,left
6.811,0.5912178082549927,0.1793629296142099,0.31252734688340944,2.049545701989275,-1.3701132456059253,-2.4418125500722168,-0.6785576332843096,-0.8995258931958763,-2.5525572515904735,2,left
6.815,0.581884621253948,0.1885675642348972,0.31249481126934386,2.0461536920133208,-1.499743363552971,-2.4319777646320997,-0.6445752300886648,-0.9196999947207649,-2.6148322823621606,2,left
6.816,0.5725840038850758,0.19803380911641708,0.3123905799324205,2.041223378700298,-1.6280107275034508,-2.4213399977944894,-0.6104092754449431,-0.9399349315569979,-2.6766418517838124,2,left
6.82,0.5633207882079363,0.20775473012444276,0.31221380999848275,2.0347645547343984,-1.7548106099671799,-2.4098909566934505,-0.5760786876024954,-0.9602344496256177,-2.737964469840533,2,left
6.82,0.5540996989146815,0.21772333588409468,0.311963773537542,2.0267892527560587,-1.8800412264440063,-2.397623397975358,-0.5416024653646648,-0.9806021586008126,-2.798779066070155,2,left
6.824,0.5449253515069017,0.22793258322852764,0.3116398582515966,2.0173117244611785,-2.0036037993246762,-2.384531176855759,-0.5069996726628783,-1.0010415104238475,-2.8590649878177006,2,left
6.824,0.5358022506595438,0.2383753823294429,0.31124156764443317,2.0063484166001677,-2.125402613852141,-2.3706092914749455,-0.4722894237442651,-1.02155577824585,-2.9188019968951413,2,left
6.829,0.526734788773138,0.24904460152377036,0.31076852064790794,1.9939179438539378,-2.245345066502839,-2.355853922516971,-0.4374908688738045,-1.0421480358579736,-2.977970264821119,2,left
6.83,0.5177272447186405,0.259933071850649,0.3102204506958639,1.980041058559646,-2.363341706142717,-2.3402624680545023,-0.4026231804516381,-1.062821137667661,-3.036550366813762,2,left
6.835,0.5087837827807337,0.2710335913111608,0.30959720425358705,1.9647406172547404,-2.4793062683076745,-2.3238335735794977,-0.36770553944587436,-1.083577699279946,-3.0945232747081697,2,left
6.835,0.4999084518056598,0.28233892885989437,0.30889873882647617,1.948041544003639,-2.593155702952819,-2.3065671571773207,-0.33275712204096136,-1.104420078742955,-3.15187034896849,2,left
6.8389999999999995,0.4911051845596678,0.29384182813333465,0.3081251204846523,1.9299707904672272,-2.7048101960092996,-2.2884644297994954,-0.2977970864015015,-1.1253503585170057,-3.208573329962848,2,left
6.84,0.4823777973038366,0.30553501091661256,0.30727652094960706,1.9105572926712764,-2.8141931850816913,-2.269527910587907,-0.2628445594512417,-1.1463703282269309,-3.2646143286676113,2,left
6.843999999999999,0.4737299895901753,0.3174111803477037,0.3063532142957661,1.8898319244258652,-2.9212313696128085,-2.2497614372008474,-0.22791862356688233,-1.1674814682575112,-3.319975816965702,2,left
6.845,0.4651653442830605,0.3294630238570133,0.3053555733256705,1.8678274473439584,-3.025854715836537,-2.229170171088909,-0.19303830308631525,-1.1886849342521453,-3.3746406177018105,2,left
6.849,0.45668732780854027,0.3416832158413595,0.304284065682756,1.844578457403435,-3.127996456832761,-2.207760597666334,-0.15822255053092296,-1.2099815425751455,-3.428591894655464,2,left
6.85,0.4482992906305169,0.35406442007465516,0.3031392497703512,1.8201213279930986,-3.2275930879917163,-2.185540521321048,-0.12349023244164685,-1.2313717567983082,-3.481813142590949,2,left
6.854,0.44000446794855835,0.3665992918615432,0.30192177054953623,1.794494149379537,-3.324584358188191,-2.1625190552042364,-0.08886011472866336,-1.252855675272674,-3.534288177541089,2,left
6.855,0.4318059806088536,0.37928047994424013,0.3006323552907711,1.7677366645281143,-3.4189132569588514,-2.1387066057379784,-0.054350847434692616,-1.2744330198466558,-3.5860011274798334,2,left
6.858,0.4237068362172428,0.39210062817777364,0.2992718093528209,1.7398902012079214,-3.510525997968696,-2.1141148517771264,-0.019980948812202942,-1.296103125791986,-3.6369364235365076,2,left
6.859,0.4157099304407498,0.405052376994918,0.29784101205712,1.7109976003071523,-3.5993719990451214,-2.088756718359315,0.014231211384931473,-1.3178649329991972,-3.687078791902441,2,left
6.8629999999999995,0.4078180484812419,0.41812836468854936,0.2963409127177472,1.6811031402821248,-3.6854038590504836,-2.062646344974723,0.0482674294944159,-1.3397169785046217,-3.736413246578496,2,left
6.864,0.40003386670080393,0.4313212285447791,0.29477252687808597,1.6502524576600446,-3.7685773318562203,-2.0357990482849653,0.08210968652185932,-1.3616573904111624,-3.784925083109788,2,left
6.867999999999999,0.39235995437420695,0.4446236058641364,0.2931369327953028,1.618492463512606,-3.8488512976736606,-2.0082312792183026,0.1157401677471512,-1.3836838832371379,-3.832599873407856,2,left
6.869,0.3847987755421168,0.45802813491021516,0.2914352682024591,1.5858712558146506,-3.9261877319885734,-1.9799605743661925,0.1491412831494509,-1.4057937545867345,-3.8794234615394405,2,left
6.869,0.37735269093949897,0.4715274558266369,0.2896687273663584,1.5524380275993577,-4.000551672338301,-1.9510055016040904,0.18229568797502638,-1.4279838827819897,-3.925381959964876,2,left
6.872999999999999,0.37002395997506654,0.48511421156481793,0.28783855845042383,1.5182429709453524,-4.07191118314475,-1.9213855999964595,0.2151863025139227,-1.4502507249554415,-3.9704617454879116,2,left
6.874,0.3628147427383795,0.4987810488662938,0.2859460611871366,1.4833371774612578,-4.1402373187217645,-1.8911213147395185,0.24779633040843008,-1.4725903152438582,-4.014649454395119,2,left
6.875,0.3557271020109438,0.5125206193427195,0.2839925848599738,1.4477725370695718,-4.205504084411573,-1.8602339291453356,0.28010927527938095,-1.4949982629775422,-4.057931976654345,2,left
6.877999999999999,0.3487630052561052,0.5263255806935432,0.28197952658678843,1.4116016375221798,-4.267688395710058,-1.8287454963645582,0.3121089557131961,-1.5174697509009627,-4.100296449257929,2,left
6.879,0.34192432656004645,0.5401885980967651,0.2799083298864246,1.3748776664451579,-4.326770035318187,-1.7966787728476268,0.34377951870332435,-1.5399995334888819,-4.141730248837602,2,left
6.8839999999999995,0.33521284849388183,0.5541023458036329,0.2777804835007124,1.3376543165699428,-4.382731608203507,-1.764057154290494,0.37510545163886716,-1.5625819354223378,-4.182220983675372,2,left
6.885,0.32863026386540073,0.5680595089636988,0.275597520435311,1.2999856941735959,-4.435558494833032,-1.7309046141135507,0.4060715929322804,-1.5852108502890248,-4.221756485232075,2,left
6.888,0.32217817732843385,0.582052785700905,0.2733610171756866,1.2619262306227768,-4.485238802747223,-1.6972456443816977,0.4366631413771017,-1.6078797395727833,-4.2603247993125875,2,left
6.888,0.3158581068181952,0.5960748894541414,0.271072593031178,1.223530596914611,-4.531763316635777,-1.663105199071896,0.46686566432566134,-1.6305816319970585,-4.297914176984004,2,left
6.893,0.3096714847822379,0.6101185515896919,0.26873390956123017,1.1848536211063587,-4.575125447066956,-1.6285086395930122,0.49666510477570175,-1.6533091232873216,-4.334513065360316,2,left
6.894,0.30361965917852757,0.6241765242893618,0.26634667004113355,1.1459502085246658,-4.615321178013175,-1.593481682461319,0.5260477874537568,-1.676054376417558,-4.37011009836437,2,left
6.897,0.29770389421546434,0.6382415837141032,0.26391261892901613,1.1068752646442142,-4.65234901330647,-1.5580503490336268,0.5550004239820242,-1.6988091224060244,-4.40469408757507,2,left
6.898,0.2919253708152623,0.6523065334368534,0.26143354130213614,1.0676836205247835,-4.6862099221484,-1.522240917198722,0.5835101172143066,-1.7215646617255487,-4.438254013264919,2,left
6.903,0.2862851867919048,0.6663642081322739,0.25891126223745825,1.0284299606950797,-4.716907283789872,-1.486079874926535,0.6115643648254024,-1.7443118663936943,-4.4707790157301615,2,left
6.905,0.2807843567459575,0.6804074775065366,0.25634764611702937,0.9891687533712011,-4.744446831487239,-1.4495938755733195,0.6391510622370915,-1.7670411828081398,-4.502258387012839,2,left
6.907,0.2754238116896163,0.6944292504462973,0.25374459584314946,0.9499541828972705,-4.768836595831978,-1.4128096948400213,0.6662585049625885,-1.7897426353926238,-4.53268156311114,2,left
6.9079999999999995,0.2702043984265922,0.7084224793625044,0.2511040519536535,0.9108400842955837,-4.7900868475421134,-1.3757541892800162,0.6928753904500325,-1.8124058311187818,-4.562038116771473,2,left
6.912000000000001,0.2651268787219776,0.7223801647018696,0.24842799163495807,0.8718798798136068,-4.808210039794552,-1.3384542562514636,0.7189908195042342,-1.8350199649691488,-4.590317750952656,2,left
6.912999999999999,0.2601919283048348,0.7362953595956612,0.2457184276387844,0.8331265173552832,-4.823220750168387,-1.3009367952086566,0.7445942973645303,-1.85757382640652,-4.617510293049611,2,left
6.917999999999999,0.25540013574925813,0.7501611746126191,0.2429774071148427,0.7946324106844025,-4.835135622260254,-1.2632286702259767,0.7696757345151858,-1.8800558069147533,-4.643605689960854,2,left
6.919,0.2507520012780547,0.7639707825824429,0.24020701037562042,0.7564493812882228,-4.84397330702385,-1.2253566736473638,0.794225447303341,-1.902453908675949,-4.668594004081025,2,left
6.922000000000001,0.2462479355279644,0.7777174234584564,0.2374093496129119,0.7186286017901299,-4.849754403876745,-1.1873474907535746,0.8182341584380378,-1.9247557544487803,-4.692465410296539,2,left
6.922000000000001,0.2418882583083582,0.7913944091911862,0.23458656758984653,0.681220540800863,-4.852501401608773,-1.1492276653389673,0.8416929974423523,-1.946948598712528,-4.7152101940593,2,left
