time,gFx,gFy,gFz,ax,ay,az,wx,wy,wz,subject_number,foot
5.502000000000001,0.32933291888162897,0.11617035341755631,0.261579977878387,2.424188956857051,-6.131468224383868,0.6054053014635915,1.261625805426549,-0.23128061372951872,-2.690775706595033,3,left
5.502999999999999,0.3225123636754584,0.12814319982041147,0.2584847645278973,2.411363471490968,-6.26988380868568,0.6319016011699985,1.3036043767807044,-0.2293674463283112,-2.737990924237051,3,left
5.507000000000001,0.3158314155634381,0.14031371404222787,0.255397914368595,2.3974324483378755,-6.405014140680428,0.6582059886991402,1.3451337860850092,-0.2273624057810107,-2.7843596368967765,3,left
5.507999999999999,0.3092904257389863,0.15267496811908204,0.25232073909147906,2.382448358320384,-6.536777520067095,0.6843142105103152,1.3861842598370269,-0.22527662427518802,-2.8298613840714353,3,left
5.5089999999999995,0.3028895090216726,0.1652199701882229,0.24925453070700648,2.3664648222480715,-6.665096278307289,0.7102219120386143,1.4267262656288002,-0.22312121204009736,-2.8744761407898687,3,left
5.5120000000000005,0.2966285414123225,0.17794166749307194,0.24620056302844096,2.349536435505421,-6.789896751925828,0.7359246526397792,1.4667305491976794,-0.22090723630535067,-2.9181843305735793,3,left
5.513,0.290507157697812,0.19083294979767845,0.24316009319555718,2.331718594114065,-6.911109250819926,0.7614179206007606,1.5061681698356788,-0.21864570086121296,-2.9609668367967883,3,left
5.518,0.2845247491597896,0.20388665322922356,0.24013436320120743,2.3130673256852043,-7.028668022318575,0.7866971471502319,1.5450105342737663,-0.21634752621435005,-3.002805012573629,3,left
5.519,0.2786804614626084,0.21709556455764684,0.2371246013767628,2.2936391266383676,-7.142511211499757,0.8117577190868197,1.5832294291559434,-0.2140235303326919,-3.043680689298006,3,left
5.521,0.2729731928114446,0.23045242591235526,0.23413202378672,2.273490805872884,-7.252580818138423,0.8365949900222686,1.6207970522163473,-0.21168440997293902,-3.0835761839589684,3,left
5.521,0.267401592479711,0.2439499399266863,0.2311578354794591,2.2526793348386147,-7.3588226506228285,0.8612042903121475,1.6576860422709023,-0.2093407225841325,-3.122474305351765,3,left
5.529,0.2619640598084077,0.2575807752910856,0.22820323154116498,2.2312617039502487,-7.461186277166136,0.8855809357460827,1.6938695081332478,-0.20700286878063467,-3.160358359301955,3,left
5.53,0.25665874378181924,0.27133757268694436,0.22526939790475983,2.2092947852874136,-7.55962497462937,0.9097202350688565,1.7293210565628097,-0.20468107537782387,-3.197212153017146,3,left
5.531000000000001,0.2514835432842081,0.28521295106544325,0.22235751187498898,2.186835201520929,-7.654095675260815,0.9336174964030591,1.7640148193509284,-0.20238537898379255,-3.233019998678084,3,left
5.531000000000001,0.24643610813893513,0.29919951422994573,0.21946874234193678,2.163939201003803,-7.744558911645832,0.9572680326433093,1.797925479648931,-0.2001256101403546,-3.2677667163778654,3,left
5.5360000000000005,0.24151384102407347,0.3132898576773549,0.21660424966562747,2.140662538963986,-7.830978760149787,0.9806671658913818,1.8310282976399348,-0.19791137800671407,-3.3014376365151343,3,left
5.537000000000001,0.23671390034732617,0.3274765756532809,0.21376518522279211,2.117060364734487,-7.913322783125371,1.0038102310008792,1.8632991356539972,-0.19575205557922087,-3.3340186017440785,3,left
5.541,0.23203320414724168,0.3417522683763251,0.21095269061325117,2.09318711495519,-7.991561970144153,1.0266925782993819,1.8947144828239688,-0.19365676544074334,-3.365495968581022,3,left
5.542000000000001,0.22746843506869072,0.3561095493875511,0.20816789652799178,2.069096412679632,-8.06567067850052,1.0493095755552853,1.9252514793770987,-0.1916343660333161,-3.3958566087643085,3,left
5.546,0.22301604644273476,0.3705410529833449,0.20541192128423888,2.044840972319048,-8.135626573224512,1.0716566092557962,1.9548879406550455,-0.1896934384478802,-3.4250879104610377,3,left
5.547000000000001,0.21867226948670285,0.38503944169429544,0.2026858690359167,2.020472510355225,-8.201410566828246,1.0937290852618164,1.9836023809524894,-0.18784227372511514,-3.453177779411064,3,left
5.551,0.21443312162793657,0.39959741377833435,0.19999082767316947,1.9960416617530623,-8.263006758998799,1.115522428904674,2.0113740372620263,-0.18608886066157165,-3.4801146400954344,3,left
5.5520000000000005,0.2102944159428623,0.41420771070137624,0.1973278664317135,1.9715979020032819,-8.320402376438444,1.13703208458889,2.0381828930104335,-0.18444087411554727,-3.5058874370132282,3,left
5.557,0.20625177169173975,0.4288631245827855,0.19469803323680165,1.9471894747253846,-8.373587713041202,1.1582535149643798,2.064009701868751,-0.18290566380740372,-3.53048563614745,3,left
5.557,0.20230062591838835,0.44355650558560833,0.19210235180387006,1.9228633247607794,-8.422556070582617,1.1791821997306826,2.088836011715919,-0.18149024360930616,-3.553899226697353,3,left
5.561,0.198436246073466,0.4582807692310292,0.18954181851163146,1.8986650366859688,-8.467303700087653,1.1998136341350074,2.1126441888329386,-0.18020128131966526,-3.576118723151198,3,left
5.561,0.19465374360984106,0.47302890361351974,0.18701739905874906,1.874638778675772,-8.507829744029431,1.2201433272250413,2.135417442401715,-0.17904508891788745,-3.597135167770095,3,left
5.565,0.19094808849019643,0.48779397649175965,0.1845300249133745,1.8508272516468016,-8.544136179499516,1.2401667999166384,2.1571398493341287,-0.17802761330715042,-3.6169401335315103,3,left
5.567,0.187314124543551,0.5025691422352837,0.18208058956370896,1.8272716436117749,-8.57622776247827,1.2598795829356466,2.1777963792252804,-0.17715442761213018,-3.6355257274843966,3,left
5.567,0.18374658560913137,0.5173476486161933,0.1796699445762841,1.8040115891757285,-8.604111973321729,1.2792772146922644,2.1973729188102817,-0.17643072320490977,-3.6528845942965975,3,left
5.57,0.1802401124037331,0.5321228434383156,0.17729889546875566,1.7810851341058216,-8.627798963569264,1.2983552391454387,2.2158562950722587,-0.17586130269154268,-3.669009919678497,3,left
5.571000000000001,0.17678927003592249,0.5468881809865204,0.17496819740844438,1.7585287049071479,-8.647301504164288,1.3171092037139276,2.2332342963748597,-0.17545057403331288,-3.6838954334565917,3,left
5.5760000000000005,0.1733885660769747,0.5616372282660345,0.1726785507565965,1.7363770832784624,-8.662634935145784,1.3355346572902325,2.249495691401069,-0.1752025458712375,-3.697535412234976,3,left
5.577000000000001,0.17003246909835906,0.5763636709989975,0.17043059648731534,1.7146633850259518,-8.673817116744894,1.35362714841516,2.2646302459056593,-0.17512082406395568,-3.709924681672396,3,left
5.577999999999999,0.16671542759749297,0.591061319352832,0.16822491151692792,1.6934190424800903,-8.680868381608004,1.3713822236742856,2.2786287373311866,-0.17520860943783204,-3.7210586184176244,3,left
5.58,0.16343188924098703,0.6057241133776997,0.16606200399022136,1.67267378916504,-8.683811487744219,1.3887954263791162,2.2914829673342134,-0.17546869674856985,-3.7309331517423323,3,left
5.581,0.16017632034654528,0.6203461281187647,0.16394230858896952,1.652455645768049,-8.682671571894804,1.4058622955923221,2.3031857722652247,-0.17590347485410643,-3.7395447649070293,3,left
5.586,0.15694322550757672,0.634921578352395,0.1618661819457202,1.6327909069917925,-8.677476103211001,1.4225783655509983,2.313731031642431,-0.17651492809904884,-3.7468904962920604,3,left
5.587000000000001,0.15372716724951446,0.6494448228872085,0.15983389825049288,1.6137041291707719,-8.668254837226465,1.43893916553846,2.3231136746563648,-0.17730463891140186,-3.752967940322015,3,left
5.59,0.15052278559665624,0.6639103683722557,0.15784564513155755,1.595218118593745,-8.655039770121059,1.4549402202535975,2.3313296847388822,-0.178273791612842,-3.7577752482082687,3,left
5.591,0.14732481742149794,0.6783128725608423,0.15590151988153142,1.5773539204757532,-8.63786509326118,1.4705770507257934,2.338376102226853,-0.17942317744429695,-3.7613111285307768,3,left
5.596,0.14412811544411896,0.6926471469870384,0.15400152609042894,1.5601308085249557,-8.616767147990197,1.4858451758223976,2.3442510251474795,-0.18075320080910245,-3.7635748476765576,3,left
5.597,0.14092766674762708,0.7069081590221922,0.15214557073854384,1.5435662750512207,-8.591784380631083,1.5007401143947179,2.3489536081488427,-0.18226388673652175,-3.7645662301486778,3,left
5.6,0.13771861067831112,0.721091033290694,0.1503334617946098,1.5276760215651903,-8.562957297651998,1.5152573881074323,2.3524840595959144,-0.18395488956893036,-3.7642856587558966,3,left
5.601,0.1344962560061015,0.7351910524377389,0.14856490635915262,1.512473949818378,-8.530328420934312,1.529392524995281,2.354843636848911,-0.18582550287648775,-3.7627340746894697,3,left
5.604,0.13125609723039947,0.749203657256189,0.14683950938811305,1.49797215323675,-8.493942243071352,1.5431410637898142,2.356034639737498,-0.1878746706036339,-3.7599129774899662,3,left
5.605,0.12799382992678418,0.7631244461943159,0.14515677302515811,1.4841809087021733,-8.453845182615176,1.5564985590578877,2.3560604022409866,-0.19010099945226772,-3.7558244249032904,3,left
5.609,0.12470536504185964,0.7769491742809073,0.14351609656195077,1.471108668638079,-8.410085539177738,1.569460587192508,2.354925282381314,-0.19250277250697914,-3.7504710326214528,3,left
5.61,0.12138684205751184,0.7906737515179253,0.1419167770367132,1.4587620533577104,-8.362713448282005,1.5820227532955125,2.3526346503322273,-0.19507796410821765,-3.743855973899995,3,left
5.614,0.11803464096182564,0.8042942408015742,0.1403580104761407,1.44714584363535,-8.311780835847935,1.594180698990442,2.3491948747447613,-0.19782425597979011,-3.735982979040327,3,left
5.615,0.11464539298099624,0.8178068554387518,0.1388388937841796,1.4362629734629893,-8.257341372187748,1.6059301112028412,2.344613307285755,-0.20073905461758268,-3.726856334721607,3,left
5.619,0.11121599004517513,0.8312079563279472,0.1373584272800396,1.4261145229569825,-8.199450425374462,1.6172667319440612,2.3388982653828445,-0.20381950994689968,-3.716480883163163,3,left
5.62,0.10774359298180024,0.8444940488740426,0.13591551788385972,1.4166997113813218,-8.138165013837549,1.6281863691334786,2.332059013166065,-0.20706253525630344,-3.7048620210948493,3,left
5.624,0.10422563845116162,0.8576617797066264,0.13450898293947228,1.40801589025627,-8.073543758029395,1.6386849084928785,2.3241057405929153,-0.21046482841632236,-3.6920056985091367,3,left
5.625,0.10065984465905614,0.8707079332709914,0.1331375546474452,1.4000585365231963,-8.00564683099641,1.6487583265455608,2.3150495407404947,-0.2140228943918697,-3.6779184171651376,3,left
5.63,0.09704421589957128,0.8836294283595516,0.13179988505759985,1.3928212457385638,-7.934535907678852,1.658402704751527,2.304902385245078,-0.21773306905768247,-3.6626072288112,3,left
5.631,0.09337704599597113,0.8964233146490423,0.13049455154335166,1.3862957252721138,-7.8602741127538405,1.667614244808899,2.2936770978663086,-0.22159154432654707,-3.6460797330891497,3,left
5.6339999999999995,0.08965692071822683,0.9090867693044842,0.12922006265900068,1.3804717874863686,-7.782925966826661,1.6763892851504998,2.2813873261500253,-0.22559439460052463,-3.628344075079734,3,left
5.6339999999999995,0.0858827192613678,0.9216170937034021,0.12797486427158125,1.3753373428766522,-7.702557330766208,1.6847243186632945,2.2680475112101477,-0.2297376045029007,-3.609408942462101,3,left
5.635,0.08205361486616006,0.9340117103245895,0.12675734586404908,1.3708783931528523,-7.619235347971358,1.6926160116571456,2.2536728558947656,-0.2340170975843819,-3.5892835623407175,3,left
5.638,0.07816907465156245,0.9462681598370243,0.12556584692466322,1.3670790242461737,-7.533028384346239,1.7000612241080821,2.2382792920445445,-0.23842876522114526,-3.5679776979409437,3,left
5.638999999999999,0.07422885871844967,0.958384098415672,0.12439866335568829,1.3639213992260995,-7.444005965753641,1.7070570312000244,2.2218834477963365,-0.24296849465812098,-3.5455016454550847,3,left
5.643,0.07023301858811215,0.9703572952996132,0.12325405384148401,1.3613857511147187,-7.352238712707362,1.7136007461876201,2.20450261563413,-0.24763219541590997,-3.5218662312332794,3,left
5.644,0.066181895049231,0.9821856305956292,0.12213024611835098,1.359450375696506,-7.257798272175361,1.7196899445359368,2.1861547214405004,-0.2524158237564464,-3.497082809358896,3,left
5.645,0.06207611548638208,0.9938670933225067,0.12102544309798827,1.3580916249687007,-7.160757246954355,1.7253224889632135,2.1668582945510644,-0.25731540516751245,-3.471163259560713,3,left
5.65,0.05791659075037323,1.0053997796883802,0.11993782881145237,1.357283902860592,-7.061189124142963,1.7304965544207778,2.1466324387620412,-0.2623270548794944,-3.4441199853939977,3,left
5.65,0.05370451162158351,1.0167818915862596,0.11886557415209445,1.356999665396952,-6.9591682048296715,1.7352106517146781,2.1254968042382534,-0.26744699642811304,-3.415965912619317,3,left
5.653,0.04944134492134285,1.0280117352764038,0.11780684240174769,1.3572094269373016,-6.854769536507566,1.7394636488005184,2.1034715602661738,-0.272671578277196,-3.386714487704651,3,left
5.654,0.04512882933314974,1.0390877202069664,0.11675979453033489,1.357881773142883,-6.748068848646194,1.7432547893724737,2.080577368793959,-0.2779972885158805,-3.3563796763731384,3,left
5.6579999999999995,0.040768970992128305,1.0500083579146893,0.1157225942687028,1.3589833807795018,-6.639142491247,1.7465837086943794,2.0568353586977963,-0.2834207676449467,-3.3249759621156185,3,left
5.659,0.03636403888691296,1.0607722609442662,0.11469341296304324,1.3604790443567767,-6.52806737608259,1.7494504466851135,2.0322671007113335,-0.28893881946728345,-3.29251834458396,3,left
5.662999999999999,0.03191656009897123,1.0713781417259607,0.11367043422124756,1.3623317096056504,-6.414920920313476,1.7518554582691577,2.006894582952469,-0.2945484200977781,-3.2590223377780605,3,left
5.664,0.027429314884184455,1.0818248113563014,0.11265185835980057,1.3645025137972564,-6.299780992169537,1.7537996210019047,1.9807401869793455,-0.3002467251082042,-3.224503967936342,3,left
5.667999999999999,0.022905331580581383,1.09211117823656,0.11163590666245982,1.3669508329073548,-6.182725858377291,1.7552842399779465,1.9538266643050166,-0.3060310748229518,-3.1889797710365286,3,left
5.669,0.018347881303788168,1.1022362465377522,0.11062082547161269,1.3696343356315774,-6.0638341330080765,1.7563110500292516,1.926177113297944,-0.3118989977817097,-3.152466789810517,3,left
5.6739999999999995,0.013760472370906999,1.1121991144759504,0.1096048901439391,1.3725090442576315,-5.943184727416587,1.756882215218825,1.8978149563932416,-0.31784821238546374,-3.1149825701742175,3,left
5.675,0.00914684437965491,1.121998972393952,0.10858640890760869,1.3755294024014015,-5.820856800933615,1.7570003256341147,1.8687639175374005,-0.3238766267424219,-3.0765451569703433,3,left
5.6770000000000005,0.004510961865625033,1.1316351006550853,0.10756372665776313,1.378648349614565,-5.696929711971673,1.75666839148312,1.8390479997871123,-0.3299823367307189,-3.037173088919297,3,left
5.678,-0.0001429925339826574,1.1411068673644287,0.10653522872212169,1.3818174028718828,-5.571482969197041,1.7558898344948501,1.8086914629807724,-0.33616362229498614,-2.996885392670517,3,left
5.683,-0.004810625468202974,1.1504137259409017,0.10549934462040729,1.3849867449467401,-5.444596182417002,1.7546684766244762,1.7777188013992504,-0.34241894199410094,-2.955701575843891,3,left
5.683,-0.009487340850052347,1.1595552125678474,0.10445455183101265,1.3881053196837898,-5.316349012826428,1.7530085260622337,1.7461547213306214,-0.3487469258176516,-2.9136416189481853,3,left
5.687,-0.014168348439911011,1.1685309435496758,0.10339937956789165,1.3911209341777002,-5.186821122253519,1.750914560543842,1.7140241184516998,-0.3551463662888716,-2.870725966060785,3,left
5.688,-0.018848673027112166,1.1773406125997763,0.10233241256232219,1.393980367866997,-5.056092121040351,1.7483915079589478,1.6813520549374523,-0.36161620787201054,-2.8269755141504835,3,left
5.693,-0.023523164179084278,1.1859839880816117,0.10125229483904907,1.3966294885518495,-4.924241514189972,1.7454446242528276,1.6481637362076753,-0.3681555347023177,-2.782411600922543,3,left
5.693,-0.028186506505329372,1.1944609102211754,0.10015773347445857,1.3990133753443448,-4.791348645408145,1.7420794686153493,1.6144844872186779,-0.3747635566570188,-2.737055991062774,3,left
5.697,-0.032833230365531936,1.2027712883046362,0.09904750232587503,1.4010764485593543,-4.657492638664335,1.738301875949952,1.580339728206175,-0.38143959378587183,-2.6909308607550053,3,left
5.699,-0.03745772293891162,1.2109150978691472,0.09792044572521555,1.4027626065534806,-4.522752336893348,1.7341179266141948,1.5457549497841012,-0.3881830591200845,-2.6440587803439692,3,left
5.702000000000001,-0.04205423956635712,1.2188923778872127,0.09677548213518893,1.404015369518812,-4.387206237456035,1.729533913422216,1.510755687348299,-0.39499343991422486,-2.596462695082195,3,left
5.702999999999999,-0.04661691528116214,1.2267032279383479,0.09561160776976187,1.404778030237295,-4.250932423974683,1.7245563058982647,1.4753674949609772,-0.4018702775541944,-2.5481659042415123,3,left
5.702999999999999,-0.05113977645737055,1.2343478053584584,0.09442790018126794,1.4049938118004415,-4.1140084941562,1.7191917117693014,1.4396159193014513,-0.4088131466853674,-2.4991920394871956,3,left
5.707000000000001,-0.05561675251302431,1.2418263223535069,0.09322352181357439,1.404606032297852,-3.9765114832138706,1.7134468356835098,1.4035264744957532,-0.41582163429343694,-2.449565043754916,3,left
5.707999999999999,-0.06004168759857505,1.2491390430552434,0.0919977235141686,1.4035582764766232,-3.838517782496373,1.7073284351404365,1.3671246184083188,-0.42289531929245383,-2.399309151524446,3,left
5.711,-0.06440835219017414,1.256286280488712,0.09074984798987576,1.4017945741424866,-3.700103053169261,1.7008432737173946,1.3304357305670258,-0.4300337528538956,-2.348448870762531,3,left
5.712000000000001,-0.06871045451118107,1.263268393422632,0.08947933318549207,1.3992595839235562,-3.5613421359844084,1.6939980721758483,1.2934850916636174,-0.43723643953254726,-2.2970089664612545,3,left
5.712999999999999,-0.07294165172117663,1.2700857830835792,0.08818571556331761,1.395898778948831,-3.4223089603169807,1.6867994589307234,1.2562978645249914,-0.44450281920951396,-2.245014445627591,3,left
5.7170000000000005,-0.07709556082179334,1.2767388897240097,0.08686863325855115,1.3916586298433105,-3.283076456840206,1.6792539218647082,1.2188990764500134,-0.4518322498728698,-2.1924905435780735,3,left
5.7170000000000005,-0.08116576922273144,1.283228189037545,0.08552782907446595,1.3864867815875905,-3.143716477015299,1.6713677629684083,1.1813136028057585,-0.459223991256635,-2.139462711390869,3,left
5.721,-0.08514584489896948,1.2895541884167767,0.08416315326353373,1.3803322228542931,-3.004299720427617,1.6631470563858832,1.1435661517764049,-0.4666771893589529,-2.0859566043659465,3,left
5.722,-0.08902934606364524,1.2957174230537907,0.08277456602287131,1.3731454475793798,-2.864895669807608,1.6545976099439477,1.1056812501573996,-0.4741908618605217,-2.031998071342506,3,left
5.727,-0.09280983028214443,1.3017184518894933,0.0813621396217096,1.3648786087533846,-2.725572533336359,1.6457249301425878,1.0676832300869732,-0.48176388446451235,-1.9776131447213836,3,left
5.729,-0.09648086295968207,1.3075578534206287,0.07992606007947256,1.3554856644147801,-2.5863971938353956,1.6365341905828938,1.029596216606618,-0.4893949781793835,-1.9228280310387893,3,left
5.732,-0.10003602514624743,1.3132362213722852,0.0784666283236548,1.3449225158247267,-2.4474351644403938,1.6270302038079572,0.9914441159417516,-0.49708269756617335,-1.8676691019364162,3,left
5.734,-0.10346892061889836,1.3187541602400623,0.07698426077180788,1.3331471377993573,-2.3087505503587264,1.6172173965312557,0.9532506043934591,-0.5048254199720231,-1.812162885371749,3,left
5.734,-0.10677318222315131,1.3241122807013466,0.07547948930020017,1.3201197011725214,-2.1704060163111576,1.6070997882261362,0.9150391177319479,-0.5126213357718497,-1.7563360569112445,3,left
5.739,-0.10994247748277754,1.3293111948906597,0.07395296058508338,1.3058026873585489,-2.0324627592586326,1.5966809730490985,0.8768328409821705,-0.5204684396402495,-1.7002154309479829,3,left
5.74,-0.11297051351796336,1.334351511531373,0.0724054348318794,1.2901609949811255,-1.8949804860158883,1.5859641050687017,0.8386546984919432,-0.5283645228758724,-1.6438279516843952,3,left
5.742999999999999,-0.11585104134257433,1.3392338309168133,0.07083778394164973,1.2731620385307696,-1.758017395354591,1.5749518867710364,0.800527344172838,-0.5363071668006566,-1.5872006837197468,3,left
5.744,-0.11857785963957554,1.3439587397384387,0.06925098919805582,1.2547758390097101,-1.6216301641998572,1.5636465608118368,0.7624731518041439,-0.5442937372564618,-1.5303608020812176,3,left
5.749,-0.12114481813576083,1.348526805766256,0.06764613858292783,1.234975106519158,-1.4858739375253305,1.5520499049844532,0.7245142052902672,-0.5523213802217806,-1.4733355815366482,3,left
5.75,-0.1235458207098112,1.352938572395097,0.066024423837049,1.2137353147400742,-1.350802321553479,1.5401632303720538,0.6866722887620931,-0.5603870185713377,-1.4161523850263393,3,left
5.752999999999999,-0.12577482837084272,1.3571945530794902,0.0643871373733038,1.1910347672545571,-1.2164673798694292,1.5279873826515833,0.6489688764130331,-0.5684873500015151,-1.3588386510506738,3,left
5.754,-0.12782586223936057,1.3612952256915922,0.06273566912546996,1.166854655650915,-1.0829196320584586,1.5155227465161663,0.6114251219607623,-0.5766188461446573,-1.3014218798498016,3,left
5.757999999999999,-0.1296930066519684,1.3652410268523794,0.0610715033845686,1.1411791093513575,-0.9502080544792347,1.502769253181812,0.5740618476259793,-0.5847777528954204,-1.2439296182111796,3,left
5.7589999999999995,-0.1313704124986591,1.3690323463040004,0.059396215645107345,1.1139952370970572,-0.8183800827870019,1.4897263909434388,0.5368995325199274,-0.5929600919724278,-1.1863894427403743,3,left
5.763,-0.13285230088769717,1.372669521406944,0.05771146946284902,1.085293160021081,-0.6874816158231737,1.4763932187444175,0.4999583003328634,-0.6011616637385824,-1.128828941430244,3,left
5.763999999999999,-0.13413296721690524,1.376152831856525,0.05601901331438679,1.0550660362354052,-0.5575570204901878,1.4627683827229856,0.46325790621618823,-0.6093780513034668,-1.071275693363401,3,left
5.768,-0.13520678571171252,1.3794824947176296,0.05432067744310546,1.0233100768539034,-0.42864913723301606,1.4488501356980708,0.4268177227515213,-0.6176046259313283,-1.0137572463827142,3,left
5.769,-0.13606821447052295,1.382658659874495,0.05261837067335708,0.9900245533688348,-0.30079928575138837,1.434636359556215,0.39065672490064157,-0.6258365537781982,-0.9563010925645596,3,left
5.774,-0.1367118010381224,1.385681405984521,0.050914077174136395,0.9552117962939932,-0.1740472705695852,1.4201245905004523,0.35479347388363774,-0.6340688039548229,-0.8989346414150308,3,left
5.775,-0.1371321885110283,1.388550737012061,0.049209853155024116,0.9188771849832893,-0.048431386093568285,1.4053120471211549,0.31924610019702243,-0.642296157777516,-0.8416851911369126,3,left
5.775,-0.13732412216701026,1.3912665794018053,0.047507823480009544,0.8810291285291472,0.07601157921174238,1.390195661248011,0.2840322864589572,-0.6505132188267955,-0.7845798990848443,3,left
5.778,-0.13728245660247612,1.3938287799385414,0.045810178187155166,0.8416790377805267,0.19924633976525993,1.3747721114984583,0.24916925103325518,-0.6587144232990737,-0.7276457529538393,3,left
5.779,-0.1370021633551655,1.3962371043343875,0.044119168902465464,0.8008412892150278,0.3212391105504017,1.3590378592221428,0.21467373312107077,-0.666894050271248,-0.6709095438191871,3,left
5.779,-0.1364783389889736,1.3984912365821112,0.042437105135453485,0.7585331826534246,0.44195760403363166,1.3429891861532883,0.18056197953554806,-0.6750462317402738,-0.6143978413767165,3,left
5.7829999999999995,-0.13570621362283355,1.4005907791127856,0.04076635044239877,0.7147748954996859,0.5613710241982558,1.3266222328670865,0.14684973311204572,-0.6831649624343509,-0.5581369713054183,3,left
5.784,-0.13468115989267865,1.4025352537999984,0.03910931844031546,0.6695894354862548,0.6794500561864303,1.3099330373502158,0.11355222265487595,-0.6912441094192078,-0.502152994589496,3,left
5.787999999999999,-0.13339870234456172,1.4043241038571754,0.03746846865009682,0.6230025926419106,0.7961668511531378,1.2929175733815057,0.08068415432259822,-0.6992774215228895,-0.44647168863755804,3,left
5.789,-0.13185452726989963,1.4059566966739634,0.03584630214268923,0.5750428904963587,0.9114950065512837,1.2755717886327405,0.04825970435505368,-0.7072585386023595,-0.39111853003738506,3,left
5.792999999999999,-0.1300444930088765,1.4074323276322427,0.03424535695929306,0.5257415363917999,1.025409542187061,1.2578916424416506,0.016292513046517444,-0.7151810006751105,-0.33611867878550183,3,left
5.792999999999999,-0.12796464076140762,1.4087502249336532,0.03266820327676462,0.4751323707677086,1.1378868723808244,1.2398731432082033,-0.015204320129422117,-0.723038256938848,-0.2814969638316495,3,left
5.797000000000001,-0.1256112059523628,1.4099095554558982,0.031117438292189686,0.42325181528111216,1.2489047745647264,1.2215123853643504,-0.04621824033637444,-0.7308236747021629,-0.22727786977919862,3,left
5.797999999999999,-0.12298063019191229,1.410909431628584,0.029595680801885453,0.3701388196208129,1.3584423546443116,1.202805585866438,-0.07673724022485316,-0.7385305482489336,-0.17348552458355598,3,left
5.8020000000000005,-0.12006957384318692,1.4117489192791206,0.0281055654467314,0.3158348068702457,1.466480009447136,1.1837491201585066,-0.10674986190563283,-0.7461521076590196,-0.1201436880917051,3,left
5.803,-0.1168749291555758,1.4124270463548072,0.026649736595760604,0.26038361727001647,1.5729993865772935,1.164339557553726,-0.13624519813582486,-0.7536815276075949,-0.06727574126717409,3,left
5.808,-0.1133938338617908,1.4129428123952197,0.025230841854704072,0.20383145022763097,1.677983341990479,1.144573695980219,-0.1652128928053209,-0.7611119361652463,-0.014904675945952161,3,left
5.81,-0.1096236851065633,1.4132951986208435,0.02385152521055535,0.1462268044185066,1.7814158955999113,1.124448596036524,-0.19364314080979836,-0.7684364236207193,0.0369469150298322,3,left
5.812,-0.105562153600673,1.4134831785185582,0.022514419844736403,0.0876204158190712,1.8832821852190844,1.1039616143009268,-0.22152668739499817,-0.7756480513479236,0.08825684745229753,3,left
5.812,-0.10120719796902271,1.4135057288304709,0.02122214067117114,0.028065193509593533,1.9835684191428955,1.0831104358378771,-0.24885482705547005,-0.78273986073853,0.13900335531265934,3,left
5.818,-0.09655707935155078,1.4133618408738946,0.01997727669443707,-0.03238384691862809,2.0822618276642606,1.0618931058436696,-0.2756194020694377,-0.7897048822211865,0.18916510043945178,3,left
5.82,-0.09161037638205176,1.4130505321253393,0.018782383330651076,-0.09366965251996538,2.1793506138188175,1.0403080603725274,-0.3018128007498673,-0.7965361443880541,0.23872118235747403,3,left
5.822,-0.08636600068539943,1.412570857987209,0.017639974868059502,-0.15573320488601586,2.274823903645786,1.0183541560831886,-0.3274279554902287,-0.8032266832490195,0.2876511485131965,3,left
5.8229999999999995,-0.08082321298987259,1.4119219236243872,0.016552517249273088,-0.2185135949455459,2.3686716962484784,0.9960306989450387,-0.3524583406818191,-0.8097695516335811,0.3359350050106836,3,left
5.827000000000001,-0.07498163985924065,1.4111028957141476,0.015522421324809398,-0.2819481008487516,2.460884813933351,0.9733374718417777,-0.37689797057788227,-0.8161578287600151,0.3835532280003491,3,left
5.827000000000001,-0.06884129093343559,1.4101130139105444,0.014552036655852314,-0.3459722691139986,2.5514548527018386,0.950274761009553,-0.40074139717809365,-0.8223846299910273,0.43048677586106593,3,left
5.831,-0.06240257645578126,1.4089516018061838,0.013643645847049449,-0.41051999921725674,2.6403741333645567,0.9268433812454299,-0.42398370820530396,-0.8284431167946732,0.47671710231429293,3,left
5.832000000000001,-0.055666324786379166,1.407618077200506,0.012799459303302613,-0.47552363180632135,2.727635653542753,0.9030446998210055,-0.4466205252447393,-0.8343265069288819,0.5222261706069729,3,left
5.836,-0.04863379957856863,1.406111961559587,0.012021610261191832,-0.540914040723603,2.8132330408171797,0.8788806590349192,-0.46864800211414154,-0.840028084867457,0.56699646889799,3,left
5.837000000000001,-0.04130671634051823,1.4044328886625552,0.011312149946879306,-0.6066207290227694,2.8971605072798083,0.8543537973369457,-0.49006282353160957,-0.845541212484945,0.6110110269809548,3,left
5.8420000000000005,-0.03368725821120676,1.4025806125452336,0.010673042733360191,-0.6725719291658271,2.9794128057390554,0.8294672689553122,-0.5108622041461621,-0.8508593400172583,0.6542534344740132,3,left
5.843,-0.025778090920122638,1.4005550149413082,0.010106161192165763,-0.7386947075883414,3.0599851878244047,0.8042248619578236,-0.531043887964705,-0.8559760173028044,0.6967078605327495,3,left
5.843999999999999,-0.01758237702016195,1.3983561124581512,0.009613280958440058,-0.8049150738213972,3.138873364231513,0.7786310146763491,-0.5506061480593817,-0.8608849052502728,0.7383590747775285,3,left
5.846,-0.009103789541387066,1.3959840637056637,0.009196075360988317,-0.8711580942105231,3.2160734672842204,0.7526908304430279,-0.5695477861712139,-0.8655797873741622,0.7791924684718272,3,left
5.847,-0.0003465252189496758,1.3934391765561267,0.00885610980823487,-0.9373480095268838,3.291582015685718,0.7264100906847888,-0.5878681316762258,-0.8700545811804887,0.8191940746232885,3,left
5.848,0.008684682562749397,1.390721915684773,0.008594835960085211,-1.003408354424591,3.365395880787521,0.6997952666003961,-0.6055670395264039,-0.8743033492425839,0.8583505860394741,3,left
5.852,0.017984550986622088,1.3878329105266738,0.008413585764866336,-1.0692620759526432,3.4375122534007128,0.6728535297424953,-0.6226448870423761,-0.8783203099107819,0.8966493710205354,3,left
5.853,0.02754723511634982,1.3847729637632318,0.0083135655165363,-1.1348316490752488,3.5079286104683867,0.645592761726904,-0.6391025695808453,-0.8820998476572273,0.934078486731176,3,left
5.855,0.037366315393471135,1.3815430603850747,0.008295850173874035,-1.2000391884956578,3.576642681452148,0.6180215631118015,-0.6549414951276256,-0.8856365230679956,0.9706266903643654,3,left
5.856,0.047434785662177924,1.3781443772465614,0.008361378232830488,-1.2648065568234304,3.643652414579965,0.5901492613892831,-0.670163577865341,-0.8889250824940548,1.0062834482067995,3,left
5.861000000000001,0.05774504237904345,1.3745782928564336,0.008510947415006189,-1.3290554692733396,3.7089559431576586,0.5619859180109891,-0.68477123076307,-0.8919604673719125,1.0410389427136082,3,left
5.862,0.06828887594609587,1.3708463969960512,0.008745211317283908,-1.3927075950830639,3.772551552141421,0.5335423343686192,-0.6987673572334404,-0.8947378232241002,1.0748840776972821,3,left
5.8660000000000005,0.07905746526955064,1.3669504996725135,0.009064676987830844,-1.455684655835559,3.8344376451638587,0.504830056649288,-0.7121553419009083,-0.8972525083489273,1.107810481733226,3,left
5.867000000000001,0.0900413766400675,1.3628926389214067,0.009469703218787876,-1.5179085208705134,3.8946127122011607,0.47586137948483714,-0.7249390405231912,-0.899500102208217,1.1398105098817657,3,left
5.87,0.10123056785214932,1.3586750870579927,0.009960499240611036,-1.5793012999675704,3.953075298064078,0.44664934831341857,-0.7371227691060712,-0.9014764135209911,1.1708772438238197,3,left
5.87,0.11261439816876867,1.3543003550986836,0.010537123488646258,-1.6397854334820694,4.009823971890495,0.41720776037089335,-0.7487112922500343,-0.9031774880703188,1.2010044905048025,3,left
5.876,0.12418164434806338,1.3497711952029279,0.011199482177526176,-1.6992837801118872,4.0648572978124555,0.38755116422885316,-0.7597098107654814,-0.9045996162297776,1.230186779378677,3,left
5.877000000000001,0.13592052254431408,1.345090601101534,0.011947327549205957,-1.7577197024715796,4.118173806965589,0.3576948577953775,-0.7701239485915207,-0.9057393402151936,1.2584193583413876,3,left
5.881,0.14781871553319773,1.34026180657618,0.012780255837836907,-1.8150171506474098,4.169771971003952,0.3276548846939798,-0.7799597390516445,-0.9065934610665427,1.2856981884402106,3,left
5.882000000000001,0.1598634044290071,1.3352882821392948,0.013697705175590503,-1.871100743904023,4.219650177278387,0.2974480289355792,-0.7892236104778966,-0.9071590453640881,1.3120199374428423,3,left
5.886,0.17204130387631364,1.33017373013786,0.014698953792641885,-1.9258958507104769,4.267806705831556,0.2670918077977637,-0.7979223712334609,-0.9074334316820234,1.3373819723473226,3,left
5.8870000000000005,0.18433869962398058,1.324922078564672,0.015783118919087437,-1.9793286672500594,4.314239708357866,0.23660446282508418,-0.8060631941619426,-0.9074142367820657,1.361782350911151,3,left
5.89,0.19674148744289027,1.319537473889726,0.016949156786637876,-2.0313262945748534,4.358947189271584,0.20600494886364082,-0.8136536004899666,-0.907099361548621,1.3852198122752069,3,left
5.891,0.20923521253359256,1.3140242732041227,0.018195864047031832,-2.0818168145622957,4.401926989021462,0.17531292104279533,-0.8207014432080989,-0.9064869966663035,1.4076937667553235,3,left
5.896,0.22180510885158344,1.3083870358933676,0.019521880742297753,-2.130729364827073,4.443176769785271,0.1445487196164685,-0.8272148899534951,-0.9055756280397483,1.429204284871616,3,left
5.897,0.23443613808323321,1.3026305149403417,0.020925694694155922,-2.1779942127375773,4.48269400367267,0.11373335257616074,-0.8332024054160949,-0.904364041954811,1.4497520856828823,3,left
5.9,0.24711302825156775,1.2967596478337662,0.02240564692598148,-2.2235428286818113,4.5204759635598535,0.08288847594756944,-0.8386727332886291,-0.9028513299793903,1.4693385244906478,3,left
5.9,0.2598203120636049,1.290779546961575,0.023959937605348657,-2.2673079587231073,4.556519716674511,0.0520363716824712,-0.8436348777791685,-0.901036893601254,1.4879655799746425,3,left
5.905,0.2725423651284319,1.2846954893150626,0.025586632032547598,-2.309223696781294,4.590822121044573,0.021199923057391087,-0.848098084703433,-0.8989204485993842,1.5056358408187462,3,left
5.906000000000001,0.28526344412241084,1.2785129053096573,0.027283666350016382,-2.3492255564700084,4.623379824919316,-0.009597412509502181,-0.8520718221725967,-0.8965020291444965,1.5223524918836724,3,left
5.91,0.2979677249123076,1.2722373665300573,0.02904885283204465,-2.3872505427157464,4.654189269266323,-0.040331633311855575,-0.8555657608908622,-0.8937819916235189,1.538119299979904,3,left
5.912000000000001,0.31063934060578857,1.2658745722308384,0.030879884770167784,-2.4232372232789143,4.683246693442863,-0.07097822596748014,-0.8585897540931485,-0.8907610181762698,1.5529405992969807,3,left
5.912000000000001,0.3232624194878499,1.259430334468658,0.03277434105982482,-2.457125800291669,4.7105481441352,-0.10151220087800926,-0.8611538172393356,-0.8874401199032896,1.566821276569135,3,left
5.915,0.33582112280524135,1.2529105617999536,0.03472969061879473,-2.4888581819216484,4.736089487654337,-0.13190813062410506,-0.8632681077376424,-0.8838206396517768,1.5797667561025008,3,left
5.916,0.34829968235325937,1.2463212415414175,0.03674329676570425,-2.5183780542648417,4.759866425671649,-0.16214019138419897,-0.8649429050558726,-0.8799042542572989,1.591782984813042,3,left
5.917000000000001,0.36068243779029047,1.2396684206575446,0.038812421684456366,-2.5456309535674175,4.781874514454229,-0.19218220740152334,-0.8661885914904325,-0.8756929761465004,1.6028764173950127,3,left
5.92,0.3729538735778807,1.2329581853958258,0.0409342310826669,-2.570564338883087,4.802109187561647,-0.2220076982092751,-0.8670156337042272,-0.87118915425632,1.6130540016891148,3,left
5.921,0.38509865543687855,1.2261966398249433,0.04310579910494559,-2.5931276652895394,4.820565781793261,-0.2515899277571447,-0.8674345650557659,-0.866395474252786,1.6223231642902163,3,left
5.925,0.39710166619951986,1.2193898834749308,0.04532411350337302,-2.6132724577939226,4.837239566077104,-0.2809019542673792,-0.867455968723082,-0.8613149580372991,1.630691796426512,3,left
5.926,0.4089480408973782,1.2125439883608808,0.04758608102475592,-2.6309523860377344,4.8521257730793215,-0.3099166799624428,-0.8670904616248628,-0.8559509625274685,1.6381682401393818,3,left
5.93,0.4206232008754277,1.205664975764252,0.04988853296255335,-2.6461233398813833,4.865219633475493,-0.33860690037177765,-0.8663486791400173,-0.8503071776987373,1.6447612747905909,3,left
5.931,0.4321128866949113,1.1987587932023518,0.0522282308393884,-2.6587435059287765,4.876516412913132,-0.36694535323890587,-0.865241260625764,-0.8443876238722091,1.6504801039208914,3,left
5.934,0.443403189587434,1.1918312920317937,0.054601872214364536,-2.6687734450426346,4.8860114517081135,-0.39490476711216743,-0.8637788357332151,-0.8381966482332756,1.6553343424815194,3,left
5.935,0.45448058123974544,1.184888206122871,0.057006096624617295,-2.676176170894017,4.893700207312637,-0.4224579097014537,-0.8619720115183475,-0.8317389205648399,1.65933400445755,3,left
5.941,0.46533194171340353,1.177935132020009,0.05943749166250987,-2.6809172295822306,4.899578299587157,-0.44957763608228724,-0.8598313603451999,-0.8250194281781398,1.6624894908995593,3,left
5.942,0.4759445853282302,1.1709775109724936,0.061892599162396096,-2.68296478035386,4.903641558903561,-0.47623693682750873,-0.8573674085771217,-0.8180434700233948,1.6648115783775606,3,left
5.944,0.48630628436023254,1.1640206131802433,0.06436792143231895,-2.682289677442107,4.905886077101668,-0.502408986145666,-0.8545906260509017,-0.8108166499617396,1.6663114078687236,3,left
5.944,0.49640529042662257,1.1570695245519254,0.06685992742623612,-2.6788655530399885,4.906308261315922,-0.5280671901039536,-0.8515114163276556,-0.8033448691791476,1.6670004740879696,3,left
5.949,0.5062303534584691,1.1501291362179533,0.06936505872604355,-2.672668901413217,4.904904890683949,-0.5531852350122319,-0.8481401077134088,-0.7956343177223206,1.6668906152681333,3,left
5.95,0.5157707381986012,1.143204136979254,0.07187973520475467,-2.6636791641507624,4.901673175943419,-0.5777371360432522,-0.844486945041427,-0.7876914651357944,1.6659940033940273,3,left
5.952999999999999,0.5250162382079451,1.136299008804631,0.07440036027561826,-2.651878816543218,4.896610821918404,-0.6016972861627411,-0.8405620822074671,-0.7795230501788099,1.6643231348924123,3,left
5.954,0.5339571874151078,1.1294180254160868,0.07692332568774948,-2.637253455071109,4.889716092891224,-0.6250405054414457,-0.836375575448287,-0.7711360695998124,1.661890821777585,3,left
5.957999999999999,0.5425844692986966,1.1225652539219155,0.07944501589859324,-2.619791885977296,4.880987880850464,-0.6477420908196156,-0.8319373773529409,-0.7625377659457772,1.6587101832500348,3,left
5.959,0.550889523844856,1.1157445593696762,0.0819618121310078,-2.5994862148895335,4.870425776600623,-0.6697778663926982,-0.8272573315956081,-0.7537356143829099,1.6547946377433973,3,left
5.962999999999999,0.5588643524664165,1.1089596119967902,0.08447009629459536,-2.576331937451147,4.858030143713599,-0.6911242342852526,-0.8223451683779479,-0.7447373085046448,1.650157895412743,3,left
5.9639999999999995,0.5665015210954857,1.1022138968628594,0.08696625499708127,-2.550328030909656,4.84380219529692,-0.7117582261782471,-0.8172105005682545,-0.7355507451022544,1.644813951055096,3,left
5.968999999999999,0.5737941616611669,1.0955107254649543,0.08944668387684912,-2.5214770466049883,4.827744073548388,-0.7316575555529913,-0.8118628205239856,-0.7261840078728026,1.6387770774509642,3,left
5.968999999999999,0.5807359721393639,1.088853248873283,0.09190779244989725,-2.4897852032907775,4.809858932061518,-0.7508006707129753,-0.8063114975835765,-0.7166453500386083,1.6320618191135852,3,left
5.973,0.5873212153216726,1.0822444718840816,0.09434600959349118,-2.4552624812140427,4.790151020840925,-0.7691668086428451,-0.8005657762128081,-0.7069431758518456,1.624682986430576,3,left
5.974,0.5935447164076236,1.075687267670103,0.09675778970287789,-2.417922716870381,4.768625773981515,-0.7867360497616323,-0.794634774790387,-0.6970860209573909,1.6166556501806673,3,left
5.977,0.5994018594898713,1.0691843924211835,0.09913961948111895,-2.377783698343659,4.745289899960117,-0.8034893736251879,-0.788527485012008,-0.6870825316246724,1.6079951364022047,3,left
5.978,0.6048885829810677,1.0627384995216527,0.10148802527976489,-2.3348672611310475,4.720151474482953,-0.8194087156305372,-0.7822527718675942,-0.6769414430495098,1.5987170215678825,3,left
5.979,0.6100013740252657,1.0563521528991489,0.10379958090347881,-2.2891993843461833,4.693220035827122,-0.8344770247725865,-0.7758193741026544,-0.666671557269745,1.5888371279817388,3,left
5.982,0.6147372619458482,1.0500278392479259,0.10607091580087358,-2.2408102869723203,4.66450668244096,-0.8486783224173953,-0.7692359050501739,-0.6562817214287474,1.5783715192923329,3,left
5.983,0.6190938108001616,1.0437679788548346,0.10829872356900941,-2.189734522765055,4.634024171722301,-0.8619977616344625,-0.7625108537429901,-0.6457808069297778,1.567336496034543,3,left
5.984,0.6230691111295265,1.0375749347784682,0.11047977070799192,-2.1360110704805217,4.6017870173754165,-0.874421685873154,-0.7556525862593741,-0.6351776896805705,1.5557485911472702,3,left
5.9879999999999995,0.626661771019505,1.031451020166809,0.11261090557751205,-2.079683415032822,4.567811581901628,-0.885937685346541,-0.7486693472781191,-0.624481231436444,1.5436245654329526,3,left
5.989,0.6298709066296332,1.025398503523303,0.11468906751573027,-2.020799616241067,4.532116161614154,-0.8965346499027605,-0.7415692618238344,-0.6137002622117923,1.530981402927226,3,left
5.992999999999999,0.6326961323985003,1.0194196117605658,0.11671129607777024,-1.9594123637346057,4.494721063075867,-0.9062028179163113,-0.7343603371827628,-0.6028435637295185,1.5178363061454796,3,left
5.992999999999999,0.6351375511535555,1.0135165309447203,0.11867474034070084,-1.8955790176418637,4.455648670694261,-0.9149338211484696,-0.7270504649690755,-0.5919198538776984,1.5042066911715084,3,left
5.997000000000001,0.6371957443479707,1.0076914047246308,0.12057666820551592,-1.8293616348937423,4.414923505371133,-0.9227207256072469,-0.7196474233212671,-0.5809377721425252,1.4901101825519876,3,left
5.997999999999999,0.6388717626137835,1.0019463305381457,0.12241447560650011,-1.7608269809653632,4.372572274099609,-0.9295580684346456,-0.712158879207957,-0.5699058659863637,1.4755646079590368,3,left
6.002000000000001,0.6401671167675913,0.9962833537800887,0.12418569552199579,-1.6900465268729064,4.3286239103963045,-0.9354418908462772,-0.7045923908221154,-0.5588325781395517,1.4605879925817633,3,left
6.002999999999999,0.6410837693431843,0.9907044601945371,0.12588800667430575,-1.6170964312354632,4.283109605451707,-0.9403697671457044,-0.6969554100424636,-0.5477262347744196,1.445198553206322,3,left
6.007000000000001,0.6416241266698741,0.9852115668073664,0.1275192418101873,-1.5420575072051808,4.236062829877157,-0.9443408298331378,-0.6892552849405508,-0.5365950345298544,1.429414691942749,3,left
6.007999999999999,0.6417910314780858,0.9798065117395446,0.12907739546369226,-1.4650151740625224,4.187519345922256,-0.9473557908253853,-0.6814992623117883,-0.5254470383546144,1.4132549895555833,3,left
6.013,0.6415877559989626,0.9744910432388598,0.1305606311176548,-1.3860593932672558,4.137517210032028,-0.9494169588012102,-0.6736944902085192,-0.5142901601375078,1.396738198354106,3,left
6.013999999999999,0.6410179955284868,0.9692668082436864,0.13196728769761143,-1.3052845887497855,4.086096765608738,-0.9505282526835059,-0.6658480204530159,-0.5031321580924748,1.379883234596897,3,left
6.017,0.6400858624406178,0.9641353407552569,0.1332958853507671,-1.2227895512216989,4.033300625839017,-0.9506952112669531,-0.6579668111081411,-0.49198062686656546,1.3627091703643197,3,left
6.019,0.6387958806480342,0.9590980502525537,0.13454513047982444,-1.1386773262789145,3.9791736464427347,-0.94992499899709,-0.6500577288832675,-0.48084299033877936,1.3452352248515358,3,left
6.021,0.6371529805141757,0.9541562103425835,0.13571392001215649,-1.0530550860655976,3.9237628881959843,-0.9482264079040001,-0.6421275514529288,-0.46972649507772907,1.3274807550336647,3,left
6.022,0.6351624942112156,0.9493109478037687,0.136801344885416,-0.9660339842620801,3.8671175690766133,-0.9456098556911112,-0.6341829696655771,-0.45863820442610864,1.3094652456537956,3,left
6.026,0.6328301514952442,0.9445632321554447,0.13780669272260418,-0.8777289941553816,3.8092890058769115,-0.9420873799769148,-0.6262305896197401,-0.44758499317998696,1.2912082984836928,3,left
6.027,0.630162075835678,0.9399138658729852,0.1387294496568365,-0.7882587295466046,3.7503305451243767,-0.9376726286847455,-0.6182769345848118,-0.43657354283100586,1.2727296208062353,3,left
6.032,0.627164780795396,0.9353634753643634,0.13956930125225028,-0.6977452482454601,3.6902974831479436,-0.9323808465731307,-0.6103284467436676,-0.42561033733964515,1.2540490130678792,3,left
6.0329999999999995,0.6238451665166069,0.9309125028269004,0.14032613245754885,-0.6063138378985049,3.6292469751236696,-0.9262288578966221,-0.6023914887342734,-0.41470165940781484,1.235186355648736,3,left
6.037000000000001,0.6202105161307091,0.9265611991083483,0.14100002652818097,-0.5140927838943249,3.5672379329306163,-0.9192350451844591,-0.5944723449674534,-0.40385358721915693,1.2161615946972266,3,left
6.037999999999999,0.6162684918837215,0.9223096176999621,0.1415912628652553,-0.4212131190859193,3.5043309116445975,-0.9114193241218957,-0.5865772226979966,-0.3930719916155748,1.19699472697569,3,left
6.041,0.6120271307557761,0.9181576099879815,0.1421003137439454,-0.32780835506789835,3.440587984494535,-0.9028031145165624,-0.5787122528263152,-0.3823625336786665,1.177705783662799,3,left
6.042000000000001,0.6074948393551385,0.9141048218827182,0.14252783993899099,-0.2340141947438529,3.376072606103415,-0.8934093073298094,-0.5708834904079175,-0.37173066268490973,1.1583148130581766,3,left
6.046,0.6026803878836361,0.9101506919307102,0.14287468529543035,-0.13996822591736438,3.310849463833271,-0.8832622277506298,-0.5630969148480296,-0.3611816144036393,1.1388418621341936,3,left
6.047000000000001,0.5975929029975772,0.9062944509958153,0.14314187033233952,-0.045809595638620186,3.2449843170512103,-0.8723875942874539,-0.5553584297587831,-0.3507204097070628,1.1193069568795777,3,left
6.047999999999999,0.592241859420994,0.9025351235719676,0.143330584996512,0.04832133496251461,3.1785438241312827,-0.8608124738508892,-0.5476738624657852,-0.3403518534658274,1.0997300814198052,3,left
6.051,0.5866370702025677,0.8988715307665459,0.14344218069019252,0.14228335562683883,3.1115953570049713,-0.8485652327983034,-0.5400489631974624,-0.3300805337241099,1.0801311561021636,3,left
6.0520000000000005,0.5807886755400319,0.8953022949721727,0.14347816168058125,0.23593479133314918,3.044206803460836,-0.8356754839649986,-0.5324894040743335,-0.31991082118485215,1.0605300150988783,3,left
6.053,0.5747071301199888,0.8918258462294655,0.14344017597489522,0.3291339025330085,2.9764463593402315,-0.822174029984327,-0.5250007780619773,-0.3098468690562508,1.0409463842847337,3,left
6.057,0.5684031889334838,0.8884404302739682,0.14333000573123542,0.4217392919734024,2.9083823162809863,-0.8080928037004896,-0.5175885980051765,-0.29989261329066835,1.0213998599423935,3,left
6.057,0.561887891532327,0.8851441182523341,0.14314955727713038,0.51361030564379,2.840082852607727,-0.7934648067555381,-0.5102582957772825,-0.29005177321102493,1.0019098884829434,3,left
6.063,0.5551725446962885,0.881934818079445,0.14290085081734044,0.6046074185658131,2.771615833018414,-0.7783240471507209,-0.5030152215325897,-0.2803278524998131,0.982495747166073,3,left
6.064,0.5482687034949478,0.8788102873870252,0.14258600991643708,0.6945926018717229,2.7030486192093366,-0.7627054760773393,-0.49586464304043937,-0.2707241405221467,0.9631765257637824,3,left
6.067,0.5411881507532537,0.875768147988003,0.142207250833387,0.7834296707985337,2.6344478916321137,-0.7466449240310865,-0.4888117450800072,-0.2612437139545821,0.9439711091116685,3,left
6.068,0.5339428749630306,0.8728059017523537,0.14176687177470249,0.8709846138590185,2.565879482186163,-0.7301790361664514,-0.4818616288749763,-0.2518894386917847,0.9248981604920611,3,left
6.071000000000001,0.5265450467183007,0.8699209477576476,0.1412672421303793,0.9571259034477543,2.4974082176497965,-0.7133452068463945,-0.4750193115475671,-0.2426639720034573,0.9059761057935474,3,left
6.072,0.5190069937882709,0.8671106005384658,0.14071079176272483,1.0417247881371348,2.429097773653027,-0.6961815133412388,-0.46828972557167314,-0.23356976491430337,0.8872231183917566,3,left
6.075,0.5113411749771349,0.8643721092168122,0.14010000042727053,1.1246555669145906,2.3610105389952283,-0.6787266486295538,-0.4616777182051478,-0.2246090647801576,0.8686571046966499,3,left
6.077000000000001,0.5035601529502413,0.8617026772581016,0.13943738741209205,1.2057958456081994,2.293207490111104,-0.6610198532527538,-0.4551880508815969,-0.21578391803378683,0.8502956903119987,3,left
6.08,0.49567656622544914,0.8590994825703887,0.1387255014826034,1.2850267757434446,2.2257480754888506,-0.6431008461741899,-0.4488253985423544,-0.20709617307424102,0.8321562067532169,3,left
6.081,0.48770310053357113,0.8565596976525758,0.13796691121318322,1.3622332760690978,2.1586901098450526,-0.6250097545926744,-0.44259434888965804,-0.19854748327401722,0.8142556786702498,3,left
6.085,0.4796524597446781,0.8540805095023535,0.13716419578030686,1.4373042369850648,2.092089677861657,-0.6067870426596573,-0.43649940154239053,-0.1901393100786879,0.7966108115228098,3,left
6.086,0.47153733654211083,0.8516591390154171,0.13631993628913575,1.5101327080995537,2.0260010472913628,-0.5884734390486661,-0.43054496707611944,-0.18187292617403983,0.7792379796558843,3,left
6.09,0.4633703830074146,0.849292859641648,0.13543670770460461,1.5806160691371236,1.9604765912388997,-0.5701098633251221,-0.42473536592954436,-0.17374941869616828,0.7621532147241314,3,left
6.091,0.4551641812605491,0.846979015108653,0.1345170714526283,1.648656184413038,1.8955667194269952,-0.5517373510642755,-0.419074827159852,-0.1657696924603752,0.7453721944145071,3,left
6.096,0.4469312142839623,0.844715036073866,0.13356356874525122,1.714159541082922,1.8313198182572805,-0.5333969776647344,-0.4135674870298829,-0.15793447318512652,0.7289102314172504,3,left
6.097,0.43868383704995456,0.8424984556177462,0.13257871466915838,1.7770373713699907,1.7677821994780143,-0.5151297808049239,-0.40821738741043034,-0.15024431068773356,0.7127822625961836,3,left
6.1,0.4304342480705191,0.8403269235372764,0.13156499306259334,1.8372057589651076,1.7049980572722596,-0.49697668148978424,-0.4030284739814173,-0.1426995820288368,0.6970028383101491,3,left
6.1,0.4221944614960636,0.8381982194369461,0.13052485219058904,1.8945857297876567,1.6430094335820467,-0.4789784036351089,-0.39800459421614026,-0.13530049458318466,0.6815861118383278,3,left
6.104,0.4139762798985226,0.836110264642104,0.12946070121387454,1.9491033272876783,1.5818561914860927,-0.46117539213713454,-0.3931494951332192,-0.12804708901461603,0.6665458288631365,3,left
6.105,0.4057912678795351,0.8340611329776213,0.12837490743742766,2.0006896724619474,1.521575996450806,-0.443607729375321,-0.3884668208013549,-0.12093924213357345,0.6518953169654056,3,left
6.11,0.3976507266439003,0.8320490604634141,0.12726979431953175,2.04928100874867,1.4622043052765838,-0.42631505009670423,-0.3839601095824702,-0.11397666961589105,0.637647475087579,3,left
6.111000000000001,0.38956566967498074,0.8300724539771356,0.12614764021220562,2.0948187319572664,1.403774362563808,-0.40933645463076584,-0.37963279109929443,-0.10715892856202022,0.6238147629217579,3,left
6.114,0.3815467996456186,0.8281298989242647,0.12501067778369052,2.1372494053812967,1.3463172045254452,-0.39271042038443654,-0.37548818291394837,-0.1004854198762731,0.6104091901805285,3,left
6.115,0.37360448669805657,0.826220165938785,0.1238610940509869,2.1765247602339914,1.289861669975765,-0.3764747115676411,-0.3715294869045882,-0.09395539044608144,0.5974423057096713,3,left
6.115,0.36574874822778414,0.8243422166168418,0.12270103093804464,2.21260168153709,1.2344344183273908,-0.36066628710069165,-0.3677597853406185,-0.0875679351116399,0.5849251864285524,3,left
6.119,0.3579892302968457,0.8224952082687718,0.12153258628051426,2.2454421797577027,1.1800599543794215,-0.3453212067933638,-0.3641820367221641,-0.08132199846649586,0.5728684262127939,3,left
6.121,0.3503351907700187,0.8206784976684784,0.12035781521859568,2.2750133493434768,1.126760659420935,-0.3304745365741788,-0.36079907156641233,-0.07521637661966193,0.5612821250646964,3,left
6.121,0.3427954842316119,0.8188916437779905,0.11917873194047111,2.301287316853507,1.074556827706777,-0.3161602547872685,-0.3576135883886387,-0.0692497191000158,0.5501758790457484,3,left
6.124,0.3353785487404309,0.8171344094168486,0.11799731174317418,2.3242411822377576,1.023466707104255,-0.3024111622630996,-0.3546281500616211,-0.06342053103437913,0.5395587713193117,3,left
6.125,0.3280923945169542,0.8154067618297263,0.11681549336696978,2.343856955943766,0.9735065429737458,-0.28925879818319217,-0.3518451806213199,-0.057727175641467794,0.5294393644232985,3,left
6.132000000000001,0.32094459469116204,0.8137088720923031,0.11563518154866448,2.360121492963604,0.9246906248197231,-0.27673336252286734,-0.3492669625226114,-0.05216787703452539,0.5198256937664668,3,left
6.132999999999999,0.3139422782486655,0.8120411132921106,0.11445824973588008,2.373026424059928,0.8770313355132068,-0.2648636451701086,-0.34689563433650245,-0.046740723315890666,0.5107252623178551,3,left
6.1339999999999995,0.30709212530238356,0.8104040574275863,0.1132865429048472,2.382568084227436,0.8305392029421452,-0.253676961682818,-0.34473318888083754,-0.041443669947139744,0.5021450364603024,3,left
6.1339999999999995,0.30040036479301885,0.8087984709835517,0.11212188042508342,2.38874743843644,0.7852229539495211,-0.24319909564854789,-0.342781471777095,-0.03627454337882852,0.4940914429804509,3,left
6.141,0.29387277468386963,0.8072253091647335,0.11096605891290709,2.3915700046956156,0.7410895704222907,-0.23345424761266748,-0.3410421804264659,-0.031231044924240083,0.48657036716910457,3,left
6.143,0.2875146846669542,0.805685708801021,0.10982085500943771,2.3910457744613463,0.6981443473976167,-0.2244649905428845,-0.3395168633990063,-0.026310754861915524,0.47958715200730867,3,left
6.144,0.2813309813431107,0.8041809799773909,0.10868802800710098,2.38718913041142,0.6563909530562275,-0.21625223180007283,-0.3382069202302602,-0.021511136752113507,0.4731465984150262,3,left
6.144,0.2753261157822862,0.8027125964830137,0.10756932223509987,2.3800187615912134,0.6158314904761326,-0.2088351815874615,-0.3371136016203604,-0.016829541952704943,0.46725296654081805,3,left
6.149,0.26950411331642976,0.8012821852123034,0.10646646910458014,2.369557575930883,0.5764665610233283,-0.2022313278524051,-0.3362380100312275,-0.012263214320362478,0.4619099780724749,3,left
6.149,0.26386858537373414,0.7998915146820967,0.10538118871197892,2.35583261012253,0.5382953292595561,-0.19645641761718513,-0.3355811006781079,-0.007809295083251152,0.4571208195501093,3,left
6.153,0.2584227431341079,0.7985424828522497,0.10431519090326448,2.338874936836787,0.5013155892505963,-0.19152444471757193,-0.33514368291231145,-0.0034648278717652947,0.45288814666478416,3,left
6.155,0.25316941276964244,0.7972371044513277,0.10327017570993575,2.3187195692488296,0.46552383216200893,-0.1874476439302104,-0.3349264219926352,0.0007732361058123519,0.4492140895273362,3,left
6.159,0.2481110520257431,0.7959774980148948,0.10224783307945712,2.2954053628344577,0.4309153150326655,-0.18423649147226953,-0.3349298412435891,0.004908032755530567,0.4461002588936415,3,left
6.16,0.24324976789616065,0.7947658728410557,0.10124984183936807,2.2689749143876035,0.3974841306198259,-0.18189971185921416,-0.3351543245991672,0.008942779670355701,0.44354775333416924,3,left
6.164,0.23858733514801103,0.7936045160569237,0.1002778678558013,2.239474458201447,0.36522327821293515,-0.18044429110900997,-0.3356001195315422,0.012880770595305433,0.4415571673372711,3,left
6.165,0.2341252154600453,0.7924957799724246,0.09933356137280609,2.20695375934626,0.33412473531670267,-0.1798754962835556,-0.33626734036469347,0.01672536979701532,0.4401286003372654,3,left
6.167999999999999,0.22986457694714238,0.7914420698755138,0.09841855354811156,2.171466003968146,0.30417953010741117,-0.18019690136064367,-0.33715597197361447,0.020480006349335986,0.43926166665998295,3,left
6.169,0.22580631385463382,0.7904458323963403,0.09753445223240538,2.13306768652404,0.275377814569762,-0.18141041943228214,-0.3382658738703799,0.024148168346281026,0.43895550638005665,3,left
6.1739999999999995,0.2219510662171765,0.789509544539346,0.09668283706987323,2.0918184938596576,0.24770893822489898,-0.18351634122774846,-0.33959678467898985,0.027733397053377462,0.43920879708585164,3,left
6.175,0.21829923928949213,0.7886357034537816,0.09586525402467501,2.0477811860285677,0.22116152236356473,-0.1865133799623046,-0.34114832700154296,0.031239281008212393,0.4400197665495416,3,left
6.178999999999999,0.21485102257126293,0.787826816985337,0.09508320945896344,2.0010214737422087,0.19572353470162754,-0.19039872251505985,-0.3429200126789267,0.034669450080721066,0.44138620630145053,3,left
6.18,0.21160640826469565,0.7870853950256016,0.09433816390129049,1.9516078923324869,0.17138236437846863,-0.19516808694202767,-0.3449112484498473,0.03802756950352356,0.44330548610938253,3,left
6.182,0.20856520901875958,0.7864139416527665,0.09363152565064359,1.899611672100592,0.14812489722194042,-0.20081578633298122,-0.3471213420126558,0.04131733388238933,0.4457745693652654,3,left
6.183,0.2057270748283444,0.7858149480359008,0.09296464436342487,1.8451066049178484,0.1259375912067921,-0.2073347990232594,-0.349549508495058,0.04454246119669146,0.4487900293830274,3,left
6.185,0.2030915089716569,0.785290886057606,0.09233880476622862,1.7881689069367994,0.1048065520366085,-0.21471684517421225,-0.3521948773245489,0.04770668680122921,0.45234806658587834,3,left
6.188,0.2006578828891644,0.7848442026006331,0.09175522061896053,1.7288770772633182,0.08471760878242067,-0.22295246973849517,-0.35505649942865275,0.05081375744921939,0.45644452642606614,3,left
6.189,0.19842544993285602,0.7844773144443887,0.09121502902130728,1.667311752573473,0.06565638947017308,-0.23203113165036757,-0.358133354578772,0.05386742537158399,0.4610749176357245,3,left
6.19,0.19639335793829601,0.7841926037203106,0.09071928512549196,1.6035555583526155,0.047608396292030335,-0.2419412981908591,-0.36142435862768474,0.05687144245610507,0.4662344302723073,3,left
6.192,0.19456066058676955,0.7839924138728681,0.09026895730309278,1.537692958688704,0.030559079723076286,-0.2526705418731318,-0.36492837045574017,0.05982955456123537,0.47191795316033114,3,left
6.193,0.19292632753319627,0.7838790460601006,0.08986492281438774,1.4698101072460705,0.014493910607674637,-0.26420563630301663,-0.36864419855732056,0.06274549598368678,0.47812009057870036,3,left
6.1979999999999995,0.1914892532861666,0.7838547559033227,0.08950796403804909,1.3999947013388236,-0.0006015504970935561,-0.27653264836485925,-0.3725706072641446,0.06562298409015829,0.4848351781810925,3,left
6.2,0.19024826484569562,0.7839217504695148,0.0891987653262964,1.3283358397557397,-0.014741587034207384,-0.2896370256921455,-0.3767063226154747,0.06846571412170924,0.4920572981657163,3,left
6.202000000000001,0.1892021281313613,0.7840821853536917,0.08893791054785428,1.2549238842819574,-0.02794026330592773,-0.3035036792774601,-0.3810500378859007,0.07127735417916259,0.49978029371225074,3,left
6.202999999999999,0.1883495532627506,0.784338161723326,0.08872588136875385,1.179850324717117,-0.04021136452285905,-0.31811706125715933,-0.38560041878197676,0.07406154039781254,0.5079977827052402,3,left
6.209,0.1876891987798104,0.7846917231885561,0.0885630563040072,1.1032076471842729,-0.05156834008350207,-0.33346123790837123,-0.39035610831958917,0.07682187231961066,0.5167031707646812,3,left
6.21,0.1872196749104442,0.7851448523688784,0.08844971055596507,1.0250892055188907,-0.06202425012224344,-0.34951995789812407,-0.39531573139453086,0.07956190847091546,0.5258896636059729,3,left
6.212000000000001,0.18693954600907328,0.7856994670390213,0.0883860166411554,0.9455890955224571,-0.07159171536106275,-0.3662767158265498,-0.4004778990593512,0.08228516215381164,0.5355502787528235,3,left
6.212999999999999,0.1868473323064097,0.786357415752461,0.08837204579829933,0.8648020318607303,-0.0802828702976108,-0.38371481110820727,-0.40584121252014066,0.08499509745893599,0.5456778566281059,3,left
6.2170000000000005,0.18694151112611027,0.7871204728588154,0.08840777016620903,0.7828232273824228,-0.0881093197597231,-0.4018174022376216,-0.41140426686749404,0.08769512550768917,0.5562650710490392,3,left
6.218,0.18722051773322465,0.7879903328496443,0.08849306572085915,0.6997482746301338,-0.09508209885387962,-0.42056755648714195,-0.41716565455647997,0.09038860093166387,0.5673044391544313,3,left
6.222,0.18768274597869616,0.7889686039864566,0.08862771596427013,0.6156730293116607,-0.10121163633260316,-0.43994829508717653,-0.42312396865102037,0.09307881859708184,0.5787883307930615,3,left
6.223,0.1883265488936271,0.7900568011864324,0.08881141635949331,0.5306934954963893,-0.10650772140330342,-0.45994263394077134,-0.4292778058486581,0.0957690105820031,0.5907089774036018,3,left
6.226,0.1891502393686309,0.7912563381652232,0.08904377950138045,0.4449057122983194,-0.11097947399862004,-0.48053361992636207,-0.4356257693022605,0.0984623434140525,0.603058480417773,3,left
6.227,0.1901520910302457,0.7925685188608682,0.08932434100249911,0.3584056418044044,-0.11463531852589433,-0.5017043628443363,-0.44216647125577274,0.1011619155763985,0.6158288192197078,3,left
6.231,0.19133033940276864,0.7939945281875084,0.08965256606162586,0.27128905800428965,-0.11748296111100345,-0.5234380630648089,-0.44889853551169623,0.10387075528971947,0.6290118586957519,3,left
6.233,0.1926831834249612,0.7955354221906895,0.09002785667070982,0.18365143647521054,-0.11952937034942147,-0.5457180349357269,-0.45582059974852507,0.10659181857790116,0.6425993564101595,3,left
6.236000000000001,0.19420878737801775,0.797192117696015,0.09044955940479199,0.0955878445737649,-0.12078076157502611,-0.5685277260120855,-0.46293131770692736,0.10932798762522739,0.6565829694433527,3,left
6.237,0.19590528327049253,0.798965381560372,0.09091697372615841,0.007192831884502661,-0.12124258465484668,-0.5918507321686528,-0.4702293612640075,0.1120820694328516,0.6709542609305985,3,left
6.242000000000001,0.1977707737130242,0.8008558196514134,0.09142936071342064,-0.0814396793262221,-0.12091951531564536,-0.6156708086601751,-0.47771342241553244,0.1148567947823727,0.6857047063401195,3,left
6.242999999999999,0.1998033352985297,0.8028638656968712,0.09198595209482589,-0.17021650390391624,-0.11981545000593849,-0.6399718771945507,-0.4853822151865459,0.11765481751438163,0.7008256995307891,3,left
6.247000000000001,0.20200102248191013,0.804989770160735,0.09258595943254488,-0.2590453041008627,-0.11793350429479467,-0.6647380290859398,-0.49323447749133265,0.12047871412989589,0.7163085586306799,3,left
6.247000000000001,0.20436187192763328,0.8072335893180448,0.09322858328956629,-0.3478347006267028,-0.11527601480649,-0.6899535245562028,-0.501268972964231,0.12333098372265916,0.7321445317788197,3,left
6.252000000000001,0.2068839072656991,0.8095951747119302,0.09391302221988591,-0.436494384709519,-0.11184454468785535,-0.7156027882544462,-0.5094844927833198,0.12621404825034935,0.7483248027735752,3,left
6.254,0.20956514417268637,0.8120741631800171,0.0946384814435905,-0.5249352314224023,-0.10763989260291457,-0.741670401065785,-0.5178798574996064,0.12913025313739876,0.7648404966519872,3,left
6.254,0.21240359568535586,0.814669967623592,0.09540418108899527,-0.6130694145303784,-0.10266210524718247,-0.7681410882817288,-0.5264539188352211,0.13208186812514136,0.781682685124713,3,left
6.256,0.21539727766117225,0.8173817686633429,0.09620936389929516,-0.7008105231121967,-0.09691049337176698,-0.7949997042058393,-0.5352055613252826,0.13507108814636443,0.7988423916109995,3,left
6.257000000000001,0.21854421430508786,0.8202085073018741,0.097053302299027,-0.7880736802108589,-0.09038365130519642,-0.8222312132695139,-0.5441337036289725,0.13810003392436646,0.8163105955183899,3,left
6.257999999999999,0.2218424436723022,0.8231488787087307,0.09793530469180017,-0.8747756635605104,-0.08307947992132958,-0.8498206678029524,-0.5532372993855128,0.14117075207379554,0.8340782355134871,3,left
6.261,0.22529002304921253,0.8262013272386933,0.09885472084487308,-0.9608350274093002,-0.07499521281277662,-0.8777531829527273,-0.5625153375806142,0.14428521461937518,0.8521362117122341,3,left
6.2620000000000005,0.22888503412545347,0.8293640427712393,0.09981094623726264,-1.0461722226080417,-0.0661274450909605,-0.9060139098598848,-0.5719668424391099,0.14744531792581012,0.8704753868197367,3,left
6.266,0.23262558788360008,0.83263495843125,0.10080342529398068,-1.1307097111060138,-0.056472164045009154,-0.9345880085587812,-0.5815908728699264,0.15065288104769742,0.8890865862706504,3,left
6.268,0.23650982913272117,0.8360117497308893,0.10183165347703778,-1.2143720720202853,-0.0460247810761314,-0.9634606217125958,-0.5913865214900427,0.1539096435083939,0.9079605974219884,3,left
6.271,0.24053594060793093,0.8394918351500306,0.10289517825467796,-1.2970860982912753,-0.03478016465794706,-0.9926168496809685,-0.601352913254586,0.15721726251692195,0.9270881678510137,3,left
6.272,0.24470214656602876,0.8430723781365453,0.1039935990271034,-1.3787808839618685,-0.02273267425768312,-1.022041727070862,-0.6114892037207107,0.1605773096321321,0.9464600028116589,3,left
6.276,0.249006715825559,0.8467502904617878,0.10512656613797952,-1.4593879023202625,-0.009876195188212518,-1.0517202008535635,-0.6217945769733985,0.1639912668834816,0.9660667619036782,3,left
6.277,0.25344796421920884,0.85052223681867,0.10629377913221866,-1.5388410751440138,0.0037958256413794535,-1.0816371101315505,-0.6322682432418082,0.16746052235793424,0.9858990550094565,3,left
6.281000000000001,0.25802425644229854,0.8543846405036917,0.1074949844267812,-1.6170768332798189,0.0182903431113235,-1.111777167639715,-0.6429094362352933,0.1709863652626372,1.005947437554105,3,left
6.282,0.26273400729058216,0.8583336899828357,0.10872997254765991,-1.6940341687904523,0.03361467644973675,-1.1421249430661764,-0.6537174102286892,0.1745699804731853,1.026202405145152,3,left
6.285,0.2675756822828454,0.8623653461077043,0.10999857506490128,-1.7696546788969725,0.04977647100352631,-1.1726648482785904,-0.6646914369269574,0.17821244257744215,1.0466543876487757,3,left
6.2860000000000005,0.2725477976619006,0.8664753497236753,0.11130066134067906,-1.8438826019408137,0.06678365926328056,-1.2033811245425057,-0.6758308021397532,0.18191470942504834,1.0672937427601592,3,left
6.291,0.27764891976699674,0.8706592293941708,0.11263613519886746,-1.9166648455867163,0.08464442118618744,-1.2342578318189183,-0.6871348022969654,0.18567761519291504,1.0881107491261268,3,left
6.292000000000001,0.2828776637759784,0.8749123089523434,0.1140049316246845,-1.9879510074836138,0.10336714386342519,-1.2652788402287185,-0.6986027408367508,0.18950186297716795,1.1090955990787996,3,left
6.296,0.2882326918292444,0.8792297145831955,0.11540701360163168,-2.0576933885965976,0.1229603805809005,-1.2964278237722369,-0.7102339244980616,0.19338801692218005,1.1302383910395386,3,left
6.297999999999999,0.29371271056910264,0.8836063811364442,0.11684236918574879,-2.125846999418936,0.14343280932466104,-1.3276882563925587,-0.72202765955014,0.19733649389750313,1.1515291216529562,3,left
6.301,0.2993164681541574,0.8880370573761086,0.11831100890456922,-2.1923695592688333,0.16479319078478627,-1.359043410471682,-0.7339832479919199,0.20134755473368682,1.1729576777112558,3,left
6.3020000000000005,0.30504275083499344,0.8925163098906433,0.11981296355039125,-2.257221488871177,0.1870503259140615,-1.3904763578489696,-0.7460999837547507,0.2054212950281486,1.1945138279296228,3,left
6.305,0.3108903792013521,0.8970385254205948,0.12134828241431252,-2.3203658964199776,0.21021301310026594,-1.42196997345166,-0.7583771489423192,0.20955763553243895,1.2161872146337998,3,left
6.305,0.31685820423078087,0.9015979114102436,0.12291703198290939,-2.381768557312508,0.23429000501345582,-1.4535069416274757,-0.7708140101421147,0.2137563121324246,1.237967345421387,3,left
6.31,0.32294510328462006,0.9061884946540376,0.12451929510030503,-2.4413978877413713,0.259289965192201,-1.485069765269594,-0.7834098148432432,0.21801686543309243,1.2598435848587706,3,left
6.311,0.3291499762073387,0.9108041179855229,0.12615517058539946,-2.4992249123258206,0.2852214244353338,-1.5166407778244086,-0.7961637879958587,0.22233862995985554,1.2818051462759137,3,left
6.315,0.33547174168450355,0.9154384350447691,0.1278247732800994,-2.5552232259586516,0.3120927370683955,-1.5482021582726506,-0.8090751287479381,0.22672072298842283,1.3038410837215635,3,left
6.315,0.34190933399729984,0.9200849032586392,0.12952823448153605,-2.609368950039911,0.339912037156617,-1.5797359491744953,-0.8221430073955808,0.23116203301546978,1.3259402841416887,3,left
6.321000000000001,0.34846170027561985,0.9247367752644082,0.13126570267914497,-2.6616406832634825,0.3686871947389462,-1.6112240778693154,-0.8353665625661192,0.2356612079028486,1.3480914598343914,3,left
6.322,0.3551277983051647,0.929387089068415,0.13303734448949367,-2.712019447117362,0.39842577216033337,-1.6426483809207055,-0.8487448985670086,0.2402166428298709,1.3702831411856173,3,left
6.322,0.3619065948981547,0.9340286572437234,0.1348433456677906,-2.760488626253133,0.4291349805822088,-1.6739906318973323,-0.8622770826777394,0.24482646837128824,1.3925036696017423,3,left
6.324,0.36879706479119967,0.9386540554845796,0.13668391205716562,-2.807033903874753,0.460821636753832,-1.7052325725800253,-0.8759621420756953,0.24948853912038346,1.4147411905061296,3,left
6.325,0.375798189981818,0.9432556108976811,0.13855927029873874,-2.8516431922913497,0.4934921201299606,-1.7363559476853425,-0.8897990601740913,0.25420042317512415,1.4369836463160022,3,left
6.3260000000000005,0.3829089593689072,0.947825390477419,0.14046966809277195,-2.894306558846779,0.5271523304063689,-1.7673425430783523,-0.9037867723067449,0.2589593926225642,1.459218769404481,3,left
6.331,0.3901283685461444,0.9523551902091827,0.14241537380997008,-2.9350161478009773,0.5618076454640448,-1.7981742268608034,-0.9179241607816399,0.2637624150552052,1.481434075101818,3,left
6.332000000000001,0.39745541961246816,0.9568365251740724,0.14439667529818628,-2.9737660993945565,0.5974628795653966,-1.828832991665195,-0.932210049343027,0.26860614613284856,1.5036168547997044,3,left
6.335,0.40488912087766815,0.9612606209708416,0.14641387777769235,-3.0105524676903044,0.6341222415651333,-1.8593009958985902,-0.9466431970822459,0.2734869232036018,1.525754169222489,3,left
6.335,0.41242848632991985,0.9656184067775244,0.14846730074932357,-3.0453731384118488,0.6717892929848517,-1.8895606022658509,-0.9612222918378768,0.2784007599978313,1.5478328419291094,3,left
6.3389999999999995,0.42007253471516137,0.9699005104040905,0.15055727386955314,-3.0782277473321322,0.7104669059535518,-1.9195944129567835,-0.9759459431262589,0.2833433424089669,1.5698394531094264,3,left
6.34,0.42782028808237454,0.9740972556842641,0.15268413178882054,-3.109117599390927,0.7501572211027001,-1.9493853014674358,-0.9908126746438356,0.28831002537517175,1.5917603337385309,3,left
6.343999999999999,0.43567076967373675,0.9781986625237515,0.15484820799786322,-3.1380455886414125,0.7908616055240527,-1.9789164411424276,-1.0058209163832046,0.2932958308759839,1.6135815601524202,3,left
6.346,0.44362300107289415,0.9821944498877139,0.1570498277742601,-3.1650161191202137,0.8325806109013559,-2.0081713305245614,-1.0209689964051685,0.29829544705811833,1.6352889491082316,3,left
6.349,0.45167599856236423,0.9860740419777105,0.15928930036720568,-3.190035026729628,0.8753139319299441,-2.0371338155972603,-1.0362551323094884,0.30330322850468716,1.6568680533919782,3,left
6.349,0.4598287686776107,0.9898265778121434,0.16156691059814454,-3.2131095022151683,0.9190603651411706,-2.0657881090046244,-1.051677422447454,0.3083131976621488,1.6783041580364424,3,left
6.354,0.46808030297525477,0.9934409243783727,0.16388291007919797,-3.234248015315908,0.963817768251518,-2.0941188063331206,-1.067233836919781,0.3133190474393367,1.6995822772115565,3,left
6.355,0.47642957205396114,0.9969056934658842,0.16623750825438985,-3.253460240159509,1.0095830201591465,-2.1221108995380704,-1.0829222084037435,0.3183141449929409,1.7206871518492262,3,left
6.359,0.4848755188804177,1.0002092622197483,0.1686308634528044,-3.2707569819682494,1.0563519817135483,-2.1497497875972176,-1.0987402228538474,0.3232915367138214,1.7416032480641477,3,left
6.36,0.4934170514820584,1.0033397973770104,0.17106307411767915,-3.2861501051367874,1.1041194573868762,-2.177021284472733,-1.1146854101207206,0.32824395442851856,1.7623147564317125,3,left
6.3629999999999995,0.5020530350729477,1.0062852830706581,0.17353417035203536,-3.299652462736884,1.1528791579784101,-2.2039116244620325,-1.1307551345332902,0.3331638228302966,1.7828055921835941,3,left
6.364,0.5107822836775934,1.0090335520107776,0.17604410590513112,-3.311277827498794,1.2026236644865038,-2.2304074650167878,-1.1469465854896792,0.33804326815400215,1.8030593963810673,3,left
6.369,0.5196035513097645,1.0115723197848692,0.17859275071411984,-3.321040824313574,1.2533443932852224,-2.2564958871084304,-1.1632567681026242,0.3428741281089484,1.823059538125528,3,left
6.369,0.5285155227538347,1.0138892219631577,0.18117988410985106,-3.3289568642951264,1.3050315627457283,-2.2821643932173816,-1.1796824939455726,0.3476479630839423,1.8427891178650393,3,left
6.374,0.5375168039881231,1.0159718536515654,0.18380518879241922,-3.335042080435411,1.3576741614452992,-2.3074009030220872,-1.1962203719459659,0.3523560686384539,1.8622309718550523,3,left
6.375,0.5466059122829954,1.017807811103375,0.18646824567542625,-3.3393132648808943,1.411259918109664,-2.332193746862779,-1.2128667994725573,0.35698948929378765,1.881367677830722,3,left
6.377999999999999,0.5557812659986708,1.0193847349799028,0.1891685296820233,-3.3417878078530223,1.4657752734371163,-2.356531657053674,-1.229617953663942,0.36153903363795037,1.90018156194746,3,left
6.379,0.5650411740970063,1.0206903548419655,0.19190540654993038,-3.3424836382302274,1.5212053539556103,-2.3804037571160883,-1.2464697830458038,0.3659952907577226,1.9186547070455333,3,left
6.385,0.574383825370788,1.0217125344570097,0.19467813067135575,-3.3414191658037784,1.5775339480667423,-2.4037995490036566,-1.2634179994846864,0.3703486480112238,1.9367689622936508,3,left
6.386,0.5838072773903731,1.0224393175180297,0.197485843962366,-3.338613225214627,1.6347434844331974,-2.4267088983895597,-1.2804580705264084,0.37458931015402047,1.954505954265542,3,left
6.388999999999999,0.5933094451762206,1.0228589733859639,0.2003275757278767,-3.3340850215732796,1.6928150128688624,-2.4491220180843083,-1.2975852121675162,0.37870731983155786,1.971847099502559,3,left
6.388999999999999,0.6028880896247177,1.0229600424899898,0.20320224346630889,-3.3278540777596817,1.7517281878933808,-2.471029449651274,-1.3147943821002452,0.38269257942571416,1.9887736185897675,3,left
6.39,0.6125408057347186,1.0227313810645282,0.20610865454954572,-3.3199401833950954,1.8114612551154596,-2.492422043285759,-1.3320802734306407,0.38653487411951076,2.0052665516492247,3,left
6.393,0.6222650106984947,1.022162204967899,0.20904550872288638,-3.310363345473004,1.8719910406117086,-2.513290936021968,-1.3494373087958185,0.39022389582147443,2.021306774932203,3,left
6.394,0.6320579319386865,1.0212421323805405,0.21201140138598262,-3.2991437406491637,1.933292943359696,-2.5336275283813645,-1.366859634765506,0.39374926746732714,2.0368750180682382,3,left
6.394,0.6419165951921355,1.0199612252026036,0.21500482762731155,-3.2863016692759706,1.9953409302337015,-2.5534234598271994,-1.384341116454295,0.39710056733970583,2.0519518816503237,3,left
6.398,0.651837812753542,1.0183100289901896,0.21802418699148313,-3.2718575114233337,2.0581075320793505,-2.572670583843551,-1.4018753323451716,0.4002673532683612,2.066517855055071,3,left
6.399,0.6618181720045094,1.0162796112988701,0.22106778896136242,-3.2558316852134084,2.121563838832957,-2.591360943708479,-1.4194555693661464,0.4032391866962539,2.0805533345179903,3,left
6.403,0.6718540243815002,1.0138615983260963,0.22413385913071399,-3.2382446077019886,2.1856794922061176,-2.6094867497765493,-1.4370748182701882,0.40600565662115273,2.0940386415071597,3,left
6.404,0.6819414749699464,1.011048209767134,0.22722054602678027,-3.219116658372982,2.2504226754527346,-2.6270403586293636,-1.4547257693688203,0.40855640342180943,2.1069540414370813,3,left
6.41,0.6920763729308084,1.0078322918377676,0.23032592852014622,-3.19846814521794,2.315760100290188,-2.6440142541983214,-1.4724008086698666,0.4108811425772255,2.1192797627630022,3,left
6.4110000000000005,0.7022543029640119,1.0042073484626235,0.23344802373645973,-3.1763192733501735,2.3816569911587813,-2.6604010309116854,-1.4900920144699465,0.4129696882869358,2.130996016494404,3,left
6.412000000000001,0.7124705779935834,1.0001675706642592,0.2365847953649979,-3.152690116098543,2.4480770670053693,-2.6761933789163437,-1.5077911544524114,0.41481197699961403,2.142083016164713,3,left
6.412999999999999,0.7227202332263223,0.9957078642083657,0.23973416224300093,-3.127600588521648,2.514982520778797,-2.6913840714230255,-1.5254896833414766,0.4163980908566572,2.1525209982926,3,left
6.42,0.7329980216938337,0.9908238755629692,0.24289400708089412,-3.1010704232788338,2.58233399682637,-2.7059659542220245,-1.5431787411633575,0.41771828105672676,2.162290243368489,3,left
6.421,0.7432984113402751,0.9855120162136353,0.24606218518396583,-3.073119148790177,2.650090566382088,-2.719931937414785,-1.560849152165234,0.4187629911465175,2.171371097398071,3,left
6.422000000000001,0.7536155836703723,0.9797694853442223,0.24923653302309132,-3.043766069613417,2.7182097013387496,-2.7332749894049675,-1.5784914244428692,0.41952288024228984,2.179743994032782,3,left
6.422000000000001,0.7639434339305162,0.9735942908493281,0.2524148765098711,-3.0130302489616656,2.7866472464973393,-2.7459881331908775,-1.596095750327677,0.41998884618593757,2.1873894773152522,3,left
6.428,0.7742755727638783,0.9669852685957698,0.2555950388404812,-2.9809304932816296,2.8553573904882326,-2.7580644449993543,-1.6136520075839802,0.4201520486385714,2.194288225065779,3,left
6.428999999999999,0.7846053292593579,0.9599420997995524,0.25877484779174825,-2.947485338808076,2.924292635559822,-2.769497055299442,-1.6311497614671215,0.42000393211378345,2.2004210729338345,3,left
6.432,0.7949257553032831,0.9524653263351859,0.26195214238529696,-2.9127130400062735,2.99340376643107,-2.7802791522323447,-1.6485782676929754,0.4195362489519098,2.2057690391365257,3,left
6.433,0.8052296311402588,0.9445563637505464,0.2651247788785244,-2.8766315598102437,3.0626398184052674,-2.790403987492349,-1.6659264763692765,0.4187410822357433,2.210313349903789,3,left
6.438,0.8155094720539173,0.9362175117273149,0.2682906360884124,-2.8392585615607793,3.1319480449429227,-2.7998648846915377,-1.6831830369390033,0.41761086864725283,2.214035465647894,3,left
6.439,0.8257575360898012,0.9274519617077633,0.27144762009961015,-2.8006114025433786,3.2012738848922195,-2.808655250239249,-1.7003363041858643,0.4161384212639484,2.2169171078725793,3,left
6.442,0.835965832761001,0.9182638014058803,0.2745936684468501,-2.760707129022479,3.270560929575815,-2.8167685867653667,-1.7173743453516992,0.41431695229259174,2.2189402868348336,3,left
6.443,0.8461261327001872,0.9086580159376164,0.27772675388822243,-2.7195624726646637,3.33975088993297,-2.824198509114594,-1.7342849484153398,0.4121400957369894,2.2200873299699793,3,left
6.447,0.8562299782462177,0.8986404853455031,0.2808448878944086,-2.677193848239859,3.4087835639160446,-2.8309387629369533,-1.751055631582186,0.4096019299956248,2.2203409110882943,3,left
6.447,0.8662686949768029,0.8882179783597879,0.28394612396739527,-2.6336173524859223,3.4775968043402727,-2.836983245897805,-1.7676736540334115,0.40669700038388223,2.2196840803489493,3,left
6.452000000000001,0.8762334042180073,0.8773981423299033,0.2870285608741007,-2.5888487640184557,3.5461264873854605,-2.8423260315287133,-1.7841260279833577,0.403420341574597,2.218100295014514,3,left
6.454,0.8861150365741354,0.8661894893706824,0.29009034584352517,-2.5429035441641727,3.614306481947772,-2.846961395738522,-1.800399532093261,0.39976749994962796,2.215573450986728,3,left
6.457000000000001,0.8959043465259772,0.8546013788792186,0.29312967774017135,-2.4957968385926628,3.6820686200391592,-2.8508838460019708,-1.81648072626147,0.3957345558243058,2.212087915095712,3,left
6.457999999999999,0.905591928141144,0.8426439966520549,0.29614481020100175,-2.4475434796179765,3.7493426684311566,-2.854088153241208,-1.8323559676720167,0.39131814535658754,2.2076285579826394,3,left
6.459,0.9151682319298228,0.8303283308500069,0.29913405470999865,-2.398157989038084,3.8160563017387514,-2.8565693864134882,-1.8480114277348676,0.3865154816835485,2.202180787180085,3,left
6.462000000000001,0.9246235828652034,0.8176661450668276,0.3020957835726969,-2.3476545813769114,3.8821350771388508,-2.8583229498163227,-1.8634331094128112,0.3813243746777955,2.1957305798620115,3,left
6.462999999999999,0.9339481995707773,0.8046699487976414,0.3050284327337272,-2.2960471674829166,3.9475024110887698,-2.859344623032258,-1.8786068645671545,0.3757432488642415,2.18826451486206,3,left
6.4639999999999995,0.943132214660852,0.7913529656229323,0.30793050436327774,-2.2433493588977442,4.012079559270204,-2.8596306029982888,-1.8935184112018106,0.36977115930469173,2.1797698037890694,3,left
6.466,0.9521656962095166,0.7777290993780083,0.31080056913506604,-2.1895744742382965,4.075785602533269,-2.8591775468997014,-1.9081533506224881,0.36340780540553647,2.17023432119537,3,left
6.4670000000000005,0.961038670307817,0.7638128985206016,0.3136372681188061,-2.134735549295212,4.138537442474781,-2.8579826141509153,-1.922497184554543,0.35665354263251386,2.159646633776366,3,left
6.471,0.9697411446392357,0.7496195188989762,0.3164393142041735,-2.0788453520847976,4.200249809421038,-2.8560435061588936,-1.9365353322622976,0.34950939211538556,2.1479960285769866,3,left
6.471,0.9782631329682602,0.7351646851345184,0.31920549297505674,-2.0219164032553216,4.2608352840319075,-2.8533585033457176,-1.9502531477118383,0.3419770481242475,2.1352725401775845,3,left
6.476,0.986594680410741,0.7204646508265433,0.32193466297716916,-1.9639610017827187,4.32020433287862,-2.8499264993398605,-1.9636359368184695,0.3340588833980732,2.1214669768288443,3,left
6.478,0.9947258893420504,0.705536157767195,0.3246257553613705,-1.9049912557951763,4.378265358172386,-2.845747032330591,-1.976668974819114,0.3257579523049706,2.1065709455022072,3,left
6.481,1.0026469457975904,0.6903963943367967,0.3272777729221109,-1.8450191183630873,4.434924761817667,-2.8408203135777965,-1.9893375238090387,0.31707799181251894,2.0905768758192456,3,left
6.482,1.0103481462279065,0.6750629532367153,0.32988978857361373,-1.7840564280879065,4.49008702396047,-2.8351472530673556,-2.001626850481323,0.3080234202454457,2.073478042820305,3,left
6.487,1.0178199244837993,0.6595537887040477,0.3324609433123533,-1.722114954320529,4.543654796198244,-2.8287294823000617,-2.0135222441064724,0.298599333806805,2.055268588529612,3,left
6.4879999999999995,1.0250528789209832,0.6438871733387733,0.3349904437068143,-1.6592064468369336,4.595529009613959,-2.8215693741999432,-2.025009034788541,0.2888115008377322,2.0359435422708785,3,left
6.49,1.032037799525733,0.6280816546623241,0.33747755894190856,-1.5953426897959873,4.645608997792609,-2.813670060125688,-2.0360726120330397,0.27866635378977433,2.015498839684271,3,left
6.4910000000000005,1.0387656949680135,0.612156011521363,0.3399216174320473,-1.5305355598014951,4.69379263497381,-2.8050354439667373,-2.0466984436607625,0.26817097888273494,1.9939313403924337,3,left
6.496,1.0452278194819553,0.5961292104542539,0.3423220030061559,-1.4647970878878007,4.739976489489314,-2.795670213303489,-2.0568720951005064,0.25733310341993076,1.9712388442600242,3,left
6.497000000000001,1.0514156994559343,0.580020362149318,0.3446781506601891,-1.3981395252455,4.7840559926290664,-2.7855798476089317,-2.0665792490924284,0.24616108073172974,1.9474201061880343,3,left
6.5,1.0573211595917726,0.5638486781403337,0.3469895418683629,-1.33057541250112,4.82592562307401,-2.774770623466904,-2.0758057258325393,0.23466387271723796,1.9224748493809314,3,left
6.501,1.062936348470239,0.5476334279021708,0.349255699443766,-1.2621176523619388,4.865479107028094,-2.763249616780096,-2.0845375035875273,0.22285102995301825,1.8964037770214273,3,left
6.506,1.0682537633426346,0.5313938965240265,0.3514761819428686,-1.1927795854344883,4.902609634175869,-2.7510247019388125,-2.0927607398077694,0.2107326693367659,1.8692085822844478,3,left
6.507999999999999,1.0732662739612409,0.5151493431443993,0.35365057761835494,-1.122575069022669,4.93721008958574,-2.738104547919467,-2.1004617927650022,0.19831944923293343,1.8408919566186452,3,left
6.51,1.0779671452685176,0.4989189603267349,0.3557784979414039,-1.051518558708849,4.969173301672259,-2.7244986112797216,-2.107627243739708,0.18562254208639123,1.8114575962205617,3,left
6.5120000000000005,1.0823500587840729,0.4827218345383781,0.35785957073424124,-0.979625192518784,4.9983923063239075,-2.7102171260151815,-2.114243919781811,0.17265360446933406,1.780910206623325,3,left
6.515,1.086409132551831,0.46657690787308037,0.35989343297010085,-0.9069108774687139,5.024760627295517,-2.695271090240536,-2.120298917066774,0.15942474452579772,1.7492555053185401,3,left
6.516,1.0901389395310757,0.4505029411337916,0.36187972330924884,-0.8333923782905376,5.048172572956938,-2.6796722496560905,-2.1257796248676577,0.14594848677733593,1.7165002223268242,3,left
6.52,1.0935345243344876,0.434518478369167,0.3638180744511767,-0.7590874081285739,5.06852354948165,-2.6634330777586843,-2.1306737501621154,0.13223773425262766,1.6826520986292486,3,left
6.522,1.0965914182373178,0.41864181293320357,0.3657081053979999,-0.6840147209990548,5.085710390550849,-2.646566752754078,-2.134969342891699,0.11830572790303827,1.6477198823687638,3,left
6.525,1.0993056524048834,0.40289095511311795,0.3675494137387602,-0.6081942058011899,5.099631703640031,-2.629087131126038,-2.138654821862847,0.10416600333729427,1.6117133227723142,3,left
6.526,1.1016737693083336,0.38728360134720957,0.3693415680687574,-0.5316469816663836,5.110188232946319,-2.6110087178154826,-2.141719001145556,0.08983234526698419,1.5746431619651153,3,left
6.527,1.1036928323189046,0.3718371050336481,0.37108410065103775,-0.454395494429985,5.1172832390056895,-2.592346632961278,-2.144151116586961,0.07531874070057114,1.5365211252485211,3,left
6.53,1.1053604334892708,0.3565684489177605,0.37277650042779487,-0.37646361400780404,5.120822895039878,-2.573116575152494,-2.145940851923597,0.06063933228223219,1.4973599106337272,3,left
6.531000000000001,1.106674699548939,0.34149421904230015,0.37441820650881863,-0.29787673232211864,5.120716699395952,-2.5533347812267637,-2.1470783641060343,0.0458083728120573,1.4571731781965926,3,left
6.532,1.1076342961549765,0.32663058024601527,0.3760086022781915,-0.21866186074276853,5.116877900096013,-2.5330179830804505,-2.147554307684812,0.0308401813370158,1.4159755394127913,3,left
6.535,1.108238430443075,0.31199325319448534,0.37754701024760584,-0.13884772478817445,5.109223921500205,-2.512183362733585,-2.1473598582364546,0.015749100842396637,1.3737825464056055,3,left
6.535,1.1084868519209483,0.29759749292772164,0.3790326877631712,-0.058464853152133886,5.097676779740099,-2.4908485073237023,-2.146486734832818,0.0005494575011477118,1.3306106809909486,3,left
6.54,1.108379851746455,0.2834580689157289,0.38046482366222817,0.022454341202445452,5.082163476904472,-2.469031365268439,-2.14492722155511,-0.014744478561854495,1.2864773434013004,3,left
6.54,1.1079182604376956,0.2695892466215772,0.3818425359642366,0.10387548892462782,5.062616369952572,-2.446750204056333,-2.1426741880520126,-0.030118531033926706,1.2414008405673806,3,left
6.545,1.107103444067184,0.2560047705762156,0.38316487065025645,0.18576220149761857,5.0389735136544465,-2.424023569691139,-2.1397211091393826,-0.04555865375072591,1.1954003738335768,3,left
6.546,1.105937298997269,0.24271784897015655,0.3844308015464843,0.26807601803440545,5.0111789775136,-2.4008702477270134,-2.1360620834370265,-0.06105096564832656,1.1484960259803834,3,left
6.55,1.104422245222622,0.22974113976535426,0.38563923129081334,0.35077636188069455,4.979183136615706,-2.377309225830602,-2.1316918510360763,-0.07658178437536325,1.1007087474244006,3,left
6.5520000000000005,1.1025612183982987,0.21708673832697042,0.3867889933311964,0.4338205072602972,4.942942936335332,-2.353359657804788,-2.1266058101884586,-0.09213765860956435,1.0520603414637886,3,left
6.553999999999999,1.1003576606454895,0.20476616657168772,0.3878788548809745,0.5171635561993461,4.902422130820726,-2.3290408290076217,-2.1208000330079417,-0.10770539912315222,1.0025734484344788,3,left
6.555,1.097815510237969,0.19279036362874663,0.3889075207400928,0.6007584259668239,4.857591495164649,-2.3043721230987937,-2.1142712801701906,-0.12327210864169733,0.9522715286399092,3,left
6.559,1.094939190278965,0.1811696780112847,0.3898736378831705,0.6845558472698725,4.808429011157072,-2.279372990044889,-2.107017014597215,-0.1388252105410854,0.9011788439145773,3,left
6.559,1.091733596481427,0.1699138612975833,0.39077580071422047,0.7685043734432022,4.754920026503277,-2.2540629153136043,-2.0990354141095224,-0.15435247642729202,0.8493204376793019,3,left
6.564,1.088204084164944,0.1590320633237009,0.3916125568888369,0.8525504008726427,4.69705738737851,-2.228461390186102,-2.090325383027217,-0.1698420526436564,0.7967221133437378,3,left
6.565,1.0843564545783684,0.14853282888914687,0.39238241360357984,0.9366382008934495,4.634841544177938,-2.202587883115731,-2.0808865626992015,-0.18528248575030812,0.7434104109094246,3,left
6.57,1.0801969406461702,0.13842409597369978,0.3930838442487396,1.0207099634044159,4.568280630308179,-2.176461812060441,-2.070719340937547,-0.20066274702032708,0.6894125816244491,3,left
6.571000000000001,1.0757321922183702,0.12871319545512608,0.3937152953167421,1.104705852439109,4.497390513854167,-2.150102517715389,-2.0598248603320126,-0.21597225599710893,0.6347565605386766,3,left
6.574,1.070969260880766,0.1194068523044865,0.39427519345560424,1.1885640739356695,4.422194821942661,-2.1235292375714563,-2.0482050254175963,-0.23120090315726896,0.5794709368064607,3,left
6.575,1.0659155843571295,0.11051118821796789,0.39476195255890106,1.2722209559465614,4.3427249376111945,-2.0967610807246557,-2.0358625086659163,-0.24633907172324518,0.523584921581769,3,left
6.579,1.0605789705128474,0.10203172562057342,0.39517398079621896,1.3556110415294338,4.259019968978897,-2.0698170033607544,-2.022800755269126,-0.26137765866955814,0.4671283133487752,3,left
6.58,1.0549675809572165,0.09397339294682568,0.39550968750954724,1.4386671945598644,4.171126690503214,-2.0427157848388124,-2.0090239866829913,-0.27630809496645575,0.41013146052916044,3,left
6.585,1.0490899142443573,0.08634053107039194,0.3957674899244174,1.5213207187061655,4.079099456094331,-2.0154760042967808,-1.9945372028936779,-0.29112236510441053,0.3526252212056401,3,left
6.586,1.0429547886882935,0.0791369007266941,0.3959458196467715,1.6035014898056648,3.9830000838469273,-1.988116017701795,-1.9793461833707362,-0.30581302594265297,0.2946409197995986,3,left
6.5889999999999995,1.0365713248277195,0.07236569075884444,0.396043128937991,1.6851381018809108,3.882897712136886,-1.9606539352673513,-1.963457486666718,-0.3203732249246155,0.23621030053916048,3,left
6.59,1.0299489275902973,0.06602952702074133,0.3960578967792341,1.766158027033095,3.7788686268187357,-1.9331075991591533,-1.94687844862182,-0.33479671770282715,0.17736547755256662,3,left
6.593999999999999,1.023097268206904,0.06013048178884125,0.3959886347464795,1.8464877894486216,3.6709960592478796,-1.9054945614110663,-1.9296171791299268,-0.349077885215448,0.11813888142034927,3,left
6.593999999999999,1.0160262659102297,0.05467008356112052,0.39583389271409475,1.9260531537531869,3.559369954840238,-1.8778320619723314,-1.9116825574204301,-0.3632117502562565,0.058563202018520034,3,left
6.595,1.0087460694259727,0.049649327153174806,0.3955922643894556,2.004779327945958,3.444086711870612,-1.8501370068069374,-1.8930842258271994,-0.37719399354231964,-0.001328672382223404,3,left
6.598,1.001267038241947,0.045068684031566095,0.3952623926659576,2.0825911807448083,3.3252488908279507,-1.8224259460182484,-1.8738325821090909,-0.39102096909720435,-0.0615037191274541,3,left
6.6,0.9935997236297355,0.040928112848506976,0.3948429747777547,2.159413471173108,3.202964897774228,-1.7947150522337192,-1.853938770555363,-0.4046897184324291,-0.12192884646148627,3,left
6.6,0.9857548493922134,0.03722707015947876,0.394332767245663,2.2351710846193074,3.0773486507939136,-1.7670200999558459,-1.8334146722024212,-0.41819798282345727,-0.1825709575737096,3,left
6.603,0.9777432923105006,0.03396452132106023,0.39373059061272186,2.3097892675996565,2.9485192417501445,-1.73935644684734,-1.8122728943914879,-0.4315442131620521,-0.2433970115718591,3,left
6.603,0.9695760622630422,0.031138951584034607,0.3930353339795829,2.3831938554498215,2.816600602414489,-1.7117390176566225,-1.7905267597240146,-0.4447275772010998,-0.304374080751845,3,left
6.608,0.9612642819901434,0.02874837741523676,0.3922459593674853,2.455311490764966,2.681721178376884,-1.6841822910183828,-1.7681902943749006,-0.4577479641935074,-0.36546940420429824,3,left
6.609,0.9528191664818949,0.026790358095865073,0.39136150595612734,2.526069832402845,2.5440136109937703,-1.6567002891021378,-1.745278215702811,-0.47060598696351597,-0.4266504379324979,3,left
6.6129999999999995,0.9442520019781867,0.025262007650757645,0.3903810942567377,2.5953977552606204,2.4036144269957513,-1.6293065700294875,-1.7218059190951533,-0.48330298144829986,-0.4878849016567811,3,left
6.614,0.9355741245880212,0.024160007162567852,0.3893039302840148,2.663225541032421,2.26066373536757,-1.6020142229809353,-1.6977894639835758,-0.49584100374725826,-0.5491408224808755,3,left
6.619,0.9267968985604802,0.02348061752003246,0.3881293097878194,2.7294850601507603,2.115304931105115,-1.5748358659133512,-1.6732455589642035,-0.5082228247159392,-0.6103865755958418,3,left
6.62,0.9179316942696527,0.023219692644654386,0.3868566226014812,2.7941099451108284,1.9676844054464215,-1.5477836458094112,-1.648191545955214,-0.520451922141075,-0.6715909221974675,3,left
6.622000000000001,0.9089898660081529,0.023372693236960694,0.3854853571611074,2.857035755372357,1.8179512621663214,-1.5208692413806375,-1.6226453833227992,-0.5325324705327557,-0.7327230447930166,3,left
6.622999999999999,0.8999827297092942,0.023934701078995424,0.3840151052464631,2.9182001340292616,1.6662570395174718,-1.4941038681459917,-1.5966256279050375,-0.5444693285693134,-0.7937525800732091,3,left
6.627000000000001,0.8909215407243863,0.024900433918187498,0.3824455669802316,2.977542956432577,1.5127554373940189,-1.4674982858083265,-1.5701514158617482,-0.5562680242300632,-0.8546496495251891,3,left
6.627999999999999,0.8818174717690309,0.026264260937188057,0.38077655609329447,3.0350064709473106,1.357602049288074,-1.4410628078514076,-1.5432424422769722,-0.5679347376506094,-0.9153848879620327,3,left
6.632000000000001,0.8726815911346325,0.028020218788141423,0.379008005423184,3.090535432018807,1.200954098603558,-1.414807313280638,-1.5159189394393815,-0.5794762817350255,-0.9759294701440507,3,left
6.632999999999999,0.8635248412511246,0.030162028143376204,0.3771399725701871,3.1440772257189646,1.0429701788867785,-1.3887412604310738,-1.488201653724601,-0.5909000805588117,-1.0362551356667664,3,left
6.638,0.8543580176854181,0.03268311069185183,0.37517264559931135,3.1955819879372633,0.8838099975283646,-1.3628737027668143,-1.4601118210021848,-0.6022141455961626,-1.0963342122899806,3,left
6.638,0.8451917486610265,0.035576606494392045,0.3731063486540459,3.2450027153760166,0.7236341224868947,-1.3372133065963583,-1.4316711404887996,-0.6134270498047155,-1.1561396378817943,3,left
6.643,0.8360364751816304,0.03883539160181267,0.37094154734437074,3.2922953695035475,0.5626037315807125,-1.3117683706290661,-1.4029017469680363,-0.6245478996006153,-1.2156449811508248,3,left
6.644,0.8269024318342048,0.04245209583835233,0.3686788537853648,3.3374189736131474,0.4008803638910544,-1.2865468472984385,-1.3738261812962003,-0.6355863047564152,-1.2748244613391508,3,left
6.647,0.8177996283398722,0.04641912065637092,0.36631903118842557,3.380335703129693,0.23862567281669222,-1.2615563657785105,-1.3444673591124274,-0.6465523462540452,-1.3336529670477366,3,left
6.648,0.8087378319170523,0.05072865697327059,0.3638629979388107,3.4210109692996955,0.07600118031784177,-1.2368042566202828,-1.3148485376705272,-0.6574565421248172,-1.3921060743652163,3,left
6.652,0.7997265505225003,0.05537270290584414,0.3613118311251825,3.4594134963943324,-0.08683196811490301,-1.2122975779357537,-1.2849932807090754,-0.6683098113081976,-1.450160064469999,3,left
6.654,0.7907750170388504,0.06034308132223453,0.35866676951299997,3.4955153925486644,-0.2497132482323766,-1.188043143057774,-1.2549254212754675,-0.6791234355608726,-1.5077919408746339,3,left
6.6579999999999995,0.7818921744787217,0.06563145713860677,0.35592921596956817,3.529292214353831,-0.41248300200621896,-1.1640475496046356,-1.2246690224188939,-0.6899090194474561,-1.5649794464803084,3,left
6.659,0.7730866622725713,0.07122935429518285,0.3531007393534238,3.560723025312477,-0.5749826832832537,-1.1403172098790064,-1.1942483356665266,-0.7006784484440393,-1.6217010806082042,3,left
6.662000000000001,0.7643668036988972,0.07712817235355705,0.35018307587720293,3.589790448261071,-0.7370551045824385,-1.1168583825315497,-1.1636877571965871,-0.7114438451856768,-1.6779361161732191,3,left
6.664,0.7557405945011382,0.08331920266545643,0.34717812994578817,3.616480711856108,-0.898544685501639,-1.093677205420308,-1.1330117817025345,-0.7222175239426968,-1.7336646171002872,3,left
6.664,0.7472156927175235,0.08979364407425654,0.34408797446467587,3.6407836912144416,-1.059297703200708,-1.0707797295976962,-1.1022449543476365,-0.7330119436800914,-1.7888674557621158,3,left
6.666,0.7387994097321391,0.09654261812383805,0.34091485060928617,3.662692942757767,-1.2191625450987176,-1.0481719543035937,-1.0714118219387008,-0.7438396605391635,-1.8435263296396651,3,left
6.667999999999999,0.7304987025421759,0.10355718376034016,0.33766116704375837,3.6822057331371525,-1.377989962284493,-1.025859862573189,-1.040536884852911,-0.7547132808500424,-1.8976237760851615,3,left
6.667999999999999,0.7223201672296281,0.1108283515173276,0.33432949857612787,3.6993230618055546,-1.535633319190827,-1.0038494565818779,-1.0096445508459484,-0.765645415514331,-1.9511431843860043,3,left
6.671,0.7142700336234681,0.11834709717340607,0.33092258423482135,3.7140496766320705,-1.691948833443172,-0.9821467915797131,-0.9787590911394807,-0.7766486361123048,-2.004068804902472,3,left
6.671,0.7063541611371521,0.12610437486536386,0.32744332474944,3.7263940821121206,-1.8467958014276762,-0.9607580075393917,-0.9479045987804788,-0.7877354328198116,-2.056385755370587,3,left
6.676,0.6985780357639725,0.1340911296339888,0.3238947794177103,3.736368540021986,-2.0000368080666706,-0.9396893581297918,-0.9171049491836648,-0.7989181741663008,-2.108080024523857,3,left
6.6770000000000005,0.6909467682084661,0.14229830937755295,0.3202801623406706,3.7439890625265746,-2.1515379209229657,-0.9189472368985978,-0.8863837627684198,-0.8102090686656219,-2.1591384731858887,3,left
6.682,0.6834650931256733,0.1507168761895802,0.3166028380097622,3.749275397775897,-2.301168869077482,-0.8985382006025827,-0.8557643696015654,-0.8216201283514654,-2.209548832984154,3,left
6.682,0.6761373694320528,0.1593378170620774,0.3128663162326837,3.7522510080189475,-2.448803207220156,-0.878468989625038,-0.8252697759575913,-0.8331631342495982,-2.2592997028333697,3,left
6.686,0.6689675816433005,0.1681521539420921,0.30907424638948733,3.752943040256918,-2.5943184653890574,-0.8587465454207767,-0.7949226327081238,-0.8448496038193574,-2.3083805433351485,3,left
6.687,0.6619593421859311,0.1771509531362811,0.30523041101660475,3.7513822894509854,-2.7375962847873017,-0.8393780249300958,-0.7647452054527256,-0.8566907603972036,-2.3567816692387136,3,left
6.69,0.6551158946220345,0.1863253340643332,0.30133871872499546,3.7476031542932793,-2.878522540101598,-0.8203708119040592,-0.7347593463034708,-0.8686975046755248,-2.4044942401055684,3,left
6.691,0.6484401177211137,0.19566647736897583,0.29740319646946844,3.741643585543084,-3.0169874487402164,-0.8017325250844592,-0.7049864672361653,-0.8808803882502826,-2.4515102493191048,3,left
6.696000000000001,0.6419345303100128,0.2051656323983295,0.2934279811980032,3.7335450269238635,-3.1528856674017165,-0.7834710231828311,-0.6754475149215671,-0.8932495892715425,-2.4978225115781667,3,left
6.697,0.6356012968320806,0.21481412408347647,0.2894173109204675,3.723352348570336,-3.286116376379053,-0.7655944066039371,-0.6461629469505118,-0.9058148902314027,-2.5434246490116266,3,left
6.7,0.6294422335499213,0.22460335923844585,0.28537551524457816,3.7111137730085666,-3.416583351996598,-0.7481110158601906,-0.6171527093674586,-0.9185856579243413,-2.5883110760490133,3,left
6.7010000000000005,0.6234588153309426,0.23452483231202126,0.28130700543312404,3.6968807936459105,-3.5441950275702645,-0.7310294266245795,-0.5884362154276424,-0.931570825615538,-2.6324769831802257,3,left
6.705,0.6176521829598263,0.24457013062197897,0.2772162640397562,3.6807080857416286,-3.668864543273265,-0.7143584413707511,-0.5600323254937496,-0.9447788774532841,-2.6759183197353247,3,left
6.706,0.6120231509268962,0.25473093910220773,0.27310783418096113,3.6626534098231285,-3.790509785282095,-0.698107077550054,-0.5319593279888207,-0.9582178351621908,-2.718631775813337,3,left
6.71,0.6065722156461637,0.2649990445913505,0.2689863085006514,3.6427775075070654,-3.909053414569158,-0.682284552256481,-0.5042349213229246,-0.9718952470545136,-2.760614763486938,3,left
6.711,0.6012995640607416,0.2753663396894606,0.2648563178833197,3.6211439896789597,-4.02442288569999,-0.6669002633316454,-0.47687619671204773,-0.9858181793975557,-2.801865397407806,3,left
6.716,0.5962050825958426,0.28582482620832445,0.26072251997316986,3.597819216979599,-4.136550455984379,-0.6519637668631214,-0.44989962180858994,-0.999993210175772,-2.8423824749353424,3,left
6.7170000000000005,0.5912883664213665,0.29636661824140287,0.2565895875599542,3.572872172541267,-4.245373185321755,-0.6374847510307177,-0.4233210250638587,-1.0144264252868809,-2.88216545590936,3,left
6.721,0.5865487289880091,0.3069839448789913,0.2524621968968038,3.546374326911789,-4.350832927072148,-0.6234730062565073,-0.3971555807440027,-1.029123417211994,-2.921214442185246,3,left
6.722,0.5819852118029506,0.31766915259270967,0.24834501601971928,3.518399495099543,-4.452876310274674,-0.6099383916157283,-0.37141779452192325,-1.0440892862005016,-2.9595301570479826,3,left
6.725,0.5775965944127065,0.32841470731272643,0.24424269314080535,3.489023685667918,-4.551454713526051,-0.5968907974669809,-0.3461214895688424,-1.059328644011182,-2.9971139246193155,3,left
6.726,0.5733814045609619,0.3392131962220907,0.24015984518727285,3.458324941803259,-4.646524230821991,-0.5843401042614891,-0.32127979307039234,-1.074845620251773,-3.033967649370253,3,left
6.73,0.5693379284886579,0.3500573292934089,0.23610104655474626,3.426383174276101,-4.738045629654497,-0.5722961374925694,-0.29690512312113904,-1.0906438712957718,-3.070093795821767,3,left
6.732,0.5654642213440235,0.3609399405929594,0.23207081813369518,3.3932799862114678,-4.825984301648167,-0.5607686187478436,-0.2730091760918234,-1.1067265914348563,-3.105495368378453,3,left
6.732,0.561758117672538,0.37185398937736147,0.2280736166534948,3.359098489580222,-4.910310206008532,-0.549767112828162,-0.24960291481529095,-1.1230965253480263,-3.140175890993022,3,left
6.736000000000001,0.5582172419589394,0.38279256100806425,0.22411382437865862,3.3239231135609315,-4.990997806087755,-0.5393009710078966,-0.22669655807752712,-1.139755980648203,-3.17413938622137,3,left
6.737,0.5548390191939522,0.3937488677083006,0.22019573918922355,3.2878394061236556,-5.06802599957526,-0.5293792710589201,-0.20429957176248406,-1.156706839589005,-3.2073903533619283,3,left
6.737,0.5516206854388022,0.4047162491864069,0.21632356507460238,3.2509338323534567,-5.141378043192947,-0.5200107556452249,-0.18242066175040483,-1.1739505695933403,-3.239933745615721,3,left
6.74,0.5485592983594905,0.41568817314880613,0.21250140306557697,3.2132935742338335,-5.211041472976707,-0.511203771242848,-0.16106776853168212,-1.1914882325874407,-3.271774946337497,3,left
6.7410000000000005,0.5456517476970038,0.42665823572446804,0.20873324262742937,3.175006335402416,-5.277008021002989,-0.5029662091951536,-0.14024806347192972,-1.20932049318904,-3.302919744473484,3,left
6.745,0.5428947656316141,0.43762016182096153,0.20502295353643307,3.136160152219411,-5.339273529026055,-0.49530544953199185,-0.11996794666543172,-1.2274476257992328,-3.3333743092792485,3,left
6.746,0.5402849369946703,0.4485678054319778,0.20137427825718648,3.096843211281918,-5.397837859268579,-0.4882283076366876,-0.10023304631564332,-1.2458695206483983,-3.3631451644091577,3,left
6.749,0.5378187092806472,0.4594951499168371,0.1977908248309343,3.0571436732742963,-5.4527048025550515,-0.4817409837372087,-0.08104821958294813,-1.264585688847414,-3.3922391614669247,3,left
6.75,0.535492402413393,0.47039630827239653,0.19427606027852629,3.017149503043204,-5.503881983966875,-0.47584901519952283,-0.062417554841424104,-1.2835952664962376,-3.4206634531047304,3,left
6.754,0.5333022182227029,0.4812655234173403,0.1908333045174739,2.9769483057845343,-5.55138076618739,-0.47055723160282537,-0.044344375287936014,-1.3028970179027723,-3.4484254657564715,3,left
6.755,0.5312442495912604,0.4920971685091807,0.1874657247906903,2.9366271692283976,-5.5952161506944815,-0.46586971257801263,-0.026831243848449936,-1.3224893379657856,-3.4755328720887255,3,left
6.76,0.5293144892384231,0.5028857473147333,0.1841763306036243,2.896272511707446,-5.635406676947792,-0.46178974839248627,-0.009879969328056263,-1.3423702537764841,-3.5019935632511,3,left
6.76,0.5275088381161702,0.5136258946538064,0.18096796916487426,2.855969935993238,-5.671974319707027,-0.4583198032660944,0.0065083862472127794,-1.3625374254941924,-3.527815621005741,3,left
6.763999999999999,0.5258231134024496,0.5243123769328268,0.1778433213226561,2.8158040887850015,-5.704944384607335,-0.45546148140475173,0.02233349914707776,-1.3829881465524125,-3.5530072898138885,3,left
6.763999999999999,0.5242530560870124,0.5349400927804924,0.17480489798723803,2.7758585257350457,-5.734345402107249,-0.45321549574002257,0.037595774360912985,-1.4037193432523754,-3.5775769489555094,3,left
6.769,0.5227943381542866,0.5455040737925637,0.17185503702908042,2.7362155818952307,-5.7602090199143055,-0.4515816393647019,0.052296334975932494,-1.4247275738020089,-3.6015330847562055,3,left
6.77,0.5214425693760651,0.5559994853892439,0.16899590064366501,2.696956247469289,-5.782569893983102,-0.45055875965618514,0.06643701055512324,-1.4460090268590684,-3.6248842629937896,3,left
6.775,0.5201933037334413,0.5664216277860411,0.16622947317587924,2.6581600487564203,-5.801465578170333,-0.45014473508117414,0.08002032455877237,-1.467559519637979,-3.6476391015551193,3,left
6.776,0.5190420454937602,0.5767659370759377,0.16355755939852465,2.6199049341724465,-5.816936412621183,-0.4503364546770229,0.09304948085182324,-1.489374495640726,-3.6698062434120327,3,left
6.779,0.5179842549744456,0.5870279864169576,0.16098178324056442,2.582267165235931,-5.829025410951381,-0.45112980020678045,0.10552834933768823,-1.5114490220729282,-3.6913943299834906,3,left
6.78,0.5170153540294901,0.5972034873162799,0.15850358696139094,2.5453212124079627,-5.837778146279303,-0.45251963098673453,0.11746145075754613,-1.533777787006987,-3.712411974949303,3,left
6.785,0.5161307312955645,0.6072882910004984,0.1561242307678486,2.509139655675881,-5.843242636152628,-0.45449977138699715,0.12885394069256215,-1.5563550963549733,-3.732867738579144,3,left
6.7860000000000005,0.5153257472339938,0.6172783898602509,0.153844792870184,2.4737930897729785,-5.845469226404422,-0.4570630010074018,0.13971159280488823,-1.5791748707146518,-3.752770102638892,3,left
6.789,0.5145957390029884,0.6271699189552995,0.15166616997078577,2.439350033928199,-5.8445104739638465,-0.46020104753268976,0.150040781351736,-1.6022306421527777,-3.77212744593469,3,left
6.79,0.5139360251918433,0.6369591575639737,0.1495890781762103,2.405876846042046,-5.840421028637332,-0.4639045822726598,0.1598484630052618,-1.62551555099051,-3.7909480205535027,3,left
6.794,0.5133419104459145,0.6466425307597055,0.1476140543206369,2.3734376411873024,-5.833257513866709,-0.46816321839462566,0.16914215800946883,-1.6490223426564834,-3.809239928857374,3,left
6.794,0.512808690008998,0.6562166109972132,0.14574145768895616,2.3420942143357673,-5.823078406461669,-0.4729655118571776,0.17792993070381494,-1.672743364673757,-3.827011101287,3,left
6.797999999999999,0.5123316542085358,0.6656781196917606,0.14397147212897934,2.31190596721498,-5.809943915294936,-0.47829896505586306,0.18622036944632583,-1.6966705638427289,-3.8442692750211784,3,left
6.7989999999999995,0.511906092907184,0.6750239287782653,0.14230410854301506,2.2829298392018837,-5.793915858939669,-0.48415003319299704,0.19402256599058973,-1.7207954836588206,-3.8610219734995006,3,left
6.8,0.5115272999406346,0.6842510622429342,0.14073920774957868,2.255220242163505,-5.775057542220011,-0.4905041333853707,0.2013460944110433,-1.7451092619612862,-3.8772764867463803,3,left
6.803,0.511190577558902,0.6933566976231269,0.13927644370652764,2.2288289991580563,-5.753433631637182,-0.4973456565251498,0.20820098969258233,-1.7696026287861644,-3.8930398523953715,3,left
6.803999999999999,0.5108912408891753,0.7023381674665439,0.13791532708576867,2.203805286913339,-5.729110029625188,-0.5046579819107412,0.21459772607607838,-1.794265904420885,-3.9083188373489386,3,left
6.803999999999999,0.510624622439978,0.7111929607339051,0.13665520918608662,2.1801955820356627,-5.7021537476922735,-0.5124234946517394,0.22054719520852126,-1.8190889977016516,-3.923119920075201,3,left
6.809,0.510386076664689,0.7199187241289057,0.13549528616700862,2.15804361106986,-5.6726327790469435,-0.520623605782924,0.22606068412211106,-1.8440614046191515,-3.9374492735794115,3,left
6.81,0.5101709845977719,0.7285132633445961,0.13443460358492607,2.137390304829301,-5.640615972290911,-0.5292387748966584,0.23114985306070016,-1.8691722073034285,-3.951312749094079,3,left
6.813,0.5099747585721321,0.7369745442164565,0.1334720612104948,2.118273757582444,-5.6061729083044325,-0.5382485350338039,0.2358267131707005,-1.8944100734592,-3.964715860530271,3,left
6.814,0.5097928470219455,0.7453006937639798,0.1326064181009887,2.1007291915230835,-5.569373781891436,-0.5476315196450448,0.24010360407231995,-1.919763256323339,-3.9776637697312656,3,left
6.817,0.5096207393707447,0.7534900010906018,0.13183629789565027,2.084788926661305,-5.530289288753448,-0.5573654915626832,0.24399317132577358,-1.9452195952166305,-3.9901612725683995,3,left
6.819,0.5094539709988019,0.7615409181038731,0.13116019430094525,2.0704823561130405,-5.488990517803662,-0.5674273739946325,0.24750834380593148,-1.9707665167622785,-4.002212785917621,3,left
6.822,0.5092881282779985,0.7694520600148027,0.13057647673686487,2.057835926737877,-5.44554884871559,-0.5777932835675149,0.2506623109977172,-1.9963910368439726,-4.013822335553955,3,left
6.8229999999999995,0.5091188536575465,0.777222205575374,0.13008339612302428,2.0468731250794,-5.400035854594162,-0.5884385654467799,0.25346850022345785,-2.022079763376613,-4.024993544999792,3,left
6.827000000000001,0.5089418507809724,0.7848502970153596,0.12967909079259227,2.0376144685670234,-5.352523209650797,-0.5993378305626936,0.25594055381231295,-2.0478188999630595,-4.03572962536164,3,left
6.827999999999999,0.5087528896141653,0.7923354396431483,0.1293615925310838,2.0300775019430315,-5.303082601757799,-0.6104649949719264,0.2580923062208708,-2.0735942505104834,-4.046033366188669,3,left
6.832999999999999,0.5085478115644396,0.7996769010807371,0.12912883274234271,2.02427679888338,-5.251785649751479,-0.6217933213852647,0.25993776111300393,-2.0993912248800943,-4.055907127385188,3,left
6.832999999999999,0.508322534569157,0.8068741101117157,0.12897864874363682,2.020223968785696,-5.198703825347681,-0.6332954628927016,0.2614910684061143,-2.1251948456441485,-4.065352832207867,3,left
6.837000000000001,0.5080730581289311,0.8139266551329418,0.12890879018741433,2.0179276687028644,-5.143908379527821,-0.6449435089178137,0.2627665012899803,-2.1509897560242557,-4.074371961377331,3,left
6.837999999999999,0.5077954682559254,0.8208342822135557,0.12891692560205892,2.0173936204055476,-5.087470273248247,-0.6567090334339096,0.2637784332235376,-2.1767602290850614,-4.082965548332485,3,left
6.8420000000000005,0.5074859423041386,0.8275968927775339,0.12900064903970754,2.0186246325620303,-5.029460112320561,-0.6685631454749305,0.26454131491408595,-2.202490178257395,-4.091134175654711,3,left
6.843999999999999,0.50714075364763,0.8342145409374051,0.1291574868158567,2.021620628028794,-4.969948086305667,-0.680476541974506,0.2650696512826178,-2.2281631692649535,-4.098877972687844,3,left
6.848,0.5067562761745428,0.8406874305159662,0.12938490432252933,2.026378676250295,-4.909003911259548,-0.6924195629669004,0.26537797841820665,-2.253762433528515,-4.106196614378628,3,left
6.849,0.5063289885683829,0.8470159117986589,0.1296803128949214,2.032893030771489,-4.846696776164292,-0.7043622491838397,0.26548084052367793,-2.279270883121569,-4.113089321361099,3,left
6.854,0.505855478352555,0.853200478061765,0.13004107671193205,2.0411551718716923,-4.783095292873534,-0.7162744020813806,0.2653927668541109,-2.304671127351072,-4.119554861307164,3,left
6.855,0.5053324456798907,0.8592417619221903,0.13046451971300965,2.051153854333445,-4.718267449397403,-0.7281256463310664,0.2651282486490898,-2.329945491036833,-4.125591551564375,3,left
6.856,0.5047567068558998,0.8651405315540696,0.13094793251475456,2.062875160365065,-4.652280566348126,-0.7398854948096115,0.2647017160590298,-2.3550760345627753,-4.131197263100711,3,left
6.857,0.5041251975914034,0.870897686814606,0.13148857930898966,2.0763025577006067,-4.58520125636372,-0.7515234161212709,0.2641275150653568,-2.3800445757729976,-4.136369425774942,3,left
6.862,0.5034349759853519,0.8765142553159581,0.13208370472023628,2.0914169629059205,-4.517095386323694,-0.7630089046868735,0.26341988439381175,-2.404832713785207,-4.141105034949889,3,left
6.8629999999999995,0.5026832252419637,0.8819913884735066,0.1327305405969292,2.108196809924444,-4.4480280421673335,-0.7743115534332368,0.26259293241968557,-2.429421854793672,-4.145400659464707,3,left
6.867000000000001,0.5018672561290918,0.887330357555119,0.13342631270879127,2.126618123901259,-4.378063496122007,-0.7854011291163293,0.2616606140633656,-2.4537932399333955,-4.149252450981027,3,left
6.867999999999999,0.5009845091871206,0.8925325497506903,0.13416824732241034,2.146654600328795,-4.307265176145991,-0.7962476503111119,0.2606367076893042,-2.4779279752237273,-4.1526561547013685,3,left
6.869,0.5000325566982119,0.8975994642760713,0.1349535776281839,2.168277689562318,-4.235695637387546,-0.8068214681004602,0.25953479209674335,-2.501807063344383,-4.155607121381046,3,left
6.872000000000001,0.49900910442309193,0.9025327085214657,0.1357795499951243,2.1914566866268412,-4.163416535487777,-0.8170933493794509,0.25836822382624675,-2.5254114365197555,-4.158100320416856,3,left
6.872999999999999,0.49791199310801965,0.9073339942516662,0.1366434300344763,2.216158825585512,-4.090488601694539,-0.8270345621130429,0.25715011508139135,-2.5487219895220288,-4.1601303537185945,3,left
6.874,0.4967391997611488,0.9120051338628622,0.13754250845609356,2.242349376562945,-4.016971620008103,-0.8366169608448041,0.25589331248918173,-2.571719612067564,-4.161691470144117,3,left
6.877000000000001,0.49548883869673016,0.9165480366964214,0.1384741067017026,2.269991742865242,-3.9429244067193308,-0.8458130701759118,0.2546103767865435,-2.5943852203566924,-4.162777580413957,3,left
6.877999999999999,0.4941591623464405,0.9209647054033308,0.13943558233764577,2.299047556298987,-3.8684047925571954,-0.8545961645102647,0.2533135634445374,-2.616699787770897,-4.16338227249616,3,left
6.881,0.4927485618378885,0.9252572323457179,0.1404243341895849,2.3294767699769596,-3.7934696074050507,-0.862940343400108,0.2520148042267105,-2.6386443747934116,-4.163498827465789,3,left
6.882000000000001,0.49125556734013287,0.9294277960168701,0.14143780720455867,2.361237748558637,-3.718174667401466,-0.870820602403023,0.2507256896779255,-2.6602001582183075,-4.1631202358422135,3,left
6.8870000000000005,0.4896788481750996,0.933478657459655,0.14247349702945167,2.394287356008883,-3.642574764211685,-0.8782128994754557,0.2494574525399689,-2.681348459712125,-4.162239214405903,3,left
6.888,0.48801721269330217,0.9374121566642216,0.14352895429702964,2.4285810409621402,-3.566723656254546,-0.8850942169267018,0.24822095209023098,-2.702070773791063,-4.16084822349505,3,left
6.891,0.48626960791321494,0.9412307089274778,0.14460178861133405,2.4640729197832743,-3.490674061668695,-0.8914426189559341,0.24702665939977972,-2.7223487952755976,-4.158939484780905,3,left
6.892,0.4844351189262296,0.9449368011584629,0.14568967222388285,2.500715857419921,-3.414477652801011,-0.8972373047934582,0.2458846435072075,-2.74216444628325,-4.156504999519301,3,left
6.896,0.48251296807315186,0.9485329881158796,0.14679034339063385,2.538461546144749,-3.338185051999472,-0.9024586574659189,0.24480455850472227,-2.761499902818993,-4.15353656727433,3,left
6.897,0.4805025139032592,0.9520218885667024,0.1479016093972746,2.5772605822895014,-3.2618458284920986,-0.9070882882036484,0.24379563153307293,-2.780337621021507,-4.15002580510868,3,left
6.901,0.4784032499325915,0.9554061813574298,0.14902134923797344,2.6170625410759714,-3.1855084961331865,-0.9111090765067609,0.24286665168204966,-2.7986603631221776,-4.14596416723363,3,left
6.902,0.47621480322384035,0.9586886013920449,0.1501475159308548,2.657816049652241,-3.109220511797775,-0.9145052058849543,0.24202595979347583,-2.8164512231723418,-4.141342965110144,3,left
6.906000000000001,0.47393693281538884,0.9618719355130234,0.1512781384529142,2.6994688584455346,-3.033028274205149,-0.9172621952842818,0.24128143916381228,-2.8336936525928573,-4.136153387990967,3,left
6.907,0.4715695280316499,0.9649590182840895,0.15241132327952295,2.741967910945919,-2.95697712295218,-0.9193669262124079,0.24064050714372343,-2.850371485598599,-4.130386523892039,3,left
6.91,0.4691126067109867,0.9679527276762565,0.15354525551941817,2.7852594120378042,-2.88111133753745,-0.9208076655720766,0.24011010763220658,-2.8664689645489507,-4.124033380979922,3,left
6.912000000000001,0.46656631339102106,0.9708559806617967,0.15467819964194576,2.829288894998799,-2.805474136157381,-0.9215740842106825,0.23969670446316216,-2.8819707652737967,-4.117084909360321,3,left
6.915,0.46393091749367493,0.9736717287239611,0.15580849979605899,2.874001287287883,-2.7301076740559886,-0.9216572711919657,0.23940627568257825,-2.8968620224228854,-4.1095320232511146,3,left
6.916,0.4612068115536627,0.9764029532933407,0.1569345797215304,2.9193409752471484,-2.6550530412104036,-0.9210497437939466,0.23924430871481955,-2.911128354884775,-4.101365623521623,3,left
6.92,0.4583945095346052,0.9790526611234758,0.15805494225527345,2.965251867843481,-2.5803502591349763,-0.9197454532352839,0.2392157964168465,-2.92475589131987,-4.0925766205781215,3,left
6.921,0.45549464527632066,0.9816238796180932,0.15916816843929849,3.011677459578494,-2.5060382765875415,-0.9177397861302802,0.2393252340195418,-2.9377312958502846,-4.083155957573902,3,left
6.926,0.45250797111414787,0.9841196521217375,0.16027291623928516,3.0585608926968644,-2.432154963962318,-0.9150295616707727,0.2395766169556896,-2.9500417939474888,-4.0730946339203875,3,left
