time,gFx,gFy,gFz,ax,ay,az,wx,wy,wz,subject_number,foot
2.088,-0.32389492550728816,1.043451230462889,-0.09892792072896137,0.12391586018777671,2.6146542723447026,-0.08633393361605436,0.10224152632784603,0.26613133892366997,-0.6950222795872442,1,right
2.089,-0.3193425489249921,1.0396026307274076,-0.10021102923250605,0.03868388914928688,2.601991791977107,-0.07812906107582726,0.10174803910278798,0.24909406146260454,-0.679208288546704,1,right
2.089,-0.3145815340158101,1.0358086941394824,-0.10152207108554248,-0.04660369731624482,2.587834662117604,-0.07012037780690568,0.10117610894568746,0.2322891868222451,-0.6633063814021591,1,right
2.094,-0.30961962210710686,1.0320718356709673,-0.10285925706391673,-0.13182417635355673,2.572210803672603,-0.06231780592599676,0.10052782607112347,0.21572417414897893,-0.6473321600971864,1,right
2.095,-0.3044646724697812,1.0283943650498921,-0.10422074525609158,-0.21685412755909225,2.5551501550502156,-0.05473106227484391,0.0998052470954422,0.19940633517546413,-0.631301235860282,1,right
2.096,-0.2991246502871789,1.0247784844536791,-0.1056046483232354,-0.3015698254429833,2.5366845158439313,-0.04736968038044019,0.09901039336294755,0.18334282857754436,-0.6152292035364171,1,right
2.099,-0.29360761557035514,1.021226286241872,-0.10700904101697543,-0.38584762713278975,2.516847390444291,-0.040243031763746134,0.09814524943403374,0.1675406548273118,-0.5991316172153157,1,right
2.099,-0.2879217129701082,1.0177397507666548,-0.10843196788474523,-0.4695643460115405,2.495673835715709,-0.03336034545254961,0.09721176173318848,0.15200665149545736,-0.5830239671104357,1,right
2.103,-0.2820751624105336,1.014320744310318,-0.10987145107502136,-0.5525976077125918,2.4732003143599015,-0.02673072522830565,0.0962118373545875,0.1367474889567766,-0.5669216576425157,1,right
2.104,-0.2760762504417974,1.010971017201526,-0.1113254981433624,-0.6348261880763812,2.449464554188082,-0.020363164511663878,0.09514734302279958,0.12176966645345126,-0.5508399866814779,1,right
2.108,-0.2699333221847999,1.007692202155748,-0.11279210975798476,-0.7161303333093101,2.4245054132411825,-0.014266558866931065,0.09402010420592412,0.1070795084714952,-0.5347941259004463,1,right
2.11,-0.2636547737219516,1.0044858128738214,-0.11426928720820032,-0.7963920625830259,2.398362750693613,-0.00844971610644304,0.0928319043782933,0.09268316138654342,-0.5187991021956542,1,right
2.113,-0.257249044779495,1.0013532429206935,-0.11575503962960866,-0.875495453310067,2.3710773034724606,-0.0029213639765728453,0.09158448442968432,0.07858659033597061,-0.5028697801260789,1,right
2.114,-0.2507246115472738,0.998295764896132,-0.1172473908752071,-0.9533269093291814,2.342690568520511,0.0023098445921198034,0.09027954221780726,0.0647955762751512,-0.48702084532673695,1,right
2.119,-0.2440899794893771,0.9953145299015866,-0.11874438597666229,-1.029775412230641,2.313244690628085,0.007235328687289213,0.08891873226065936,0.051315713176517355,-0.47126678884972484,1,right
2.119,-0.23735367601137272,0.9924105673036999,-0.1202440971500983,-1.1047327560485476,2.28278235575539,0.011846579085617374,0.0875036655651654,0.03815240533093136,-0.45562189238727424,1,right
2.123,-0.2305242428658074,0.989584784795622,-0.1217446293063542,-1.178093765543483,2.251346689763928,0.01613516040704999,0.08603590958835942,0.02531086471176665,-0.4401002143313251,1,right
2.124,-0.22361022819825505,0.9868379687600626,-0.12324412503071824,-1.2497564982948852,2.218981162472466,0.020092715766586118,0.08451698832720167,0.012796108362985057,-0.4247155766243888,1,right
2.128,-0.21662017816221565,0.9841707849397039,-0.12474076900392717,-1.3196224308182554,2.1857294969501537,0.023710973936850187,0.08294838253296914,0.0006129557734068203,-0.4094815523567884,1,right
2.129,-0.20956262806114817,0.9815837794191399,-0.12623279184447145,-1.3875966289177264,2.151635583956568,0.026981759033748297,0.08133153004600671,-0.011233973799706162,-0.39441145406571637,1,right
2.133,-0.20244609300739067,0.9790773799176435,-0.12771847336177433,-1.4535879024796456,2.1167434014358073,0.029897002736560003,0.07966782624647828,-0.022740264093695003,-0.37951832269194263,1,right
2.134,-0.19527905811780072,0.9766518973846384,-0.12919614522068873,-1.5175089449076733,2.0810969389692042,0.032448759052842266,0.07795862461661504,-0.03390170472516544,-0.364814917150439,1,right
2.138,-0.1880699682916363,0.9743075278809452,-0.13066419302950374,-1.5792764573944755,2.044740127088811,0.034629221637524306,0.07620523740981906,-0.04471429423028992,-0.35031370447165483,1,right
2.138,-0.18082721763572016,0.9720443547207613,-0.13212105787561398,-1.6388112582193957,2.0077167713515136,0.036430743674550965,0.07440893642184575,-0.05517424329379567,-0.33602685047068775,1,right
2.145,-0.17355913861440259,0.9698623508447629,-0.13356523734325287,-1.6960383772555523,1.9700704910714686,0.03784586032838827,0.07257095385915782,-0.06527797819869385,-0.32196621090213823,1,right
2.146,-0.16627399100685178,0.9677613813944979,-0.1349952860531748,-1.7508871358636398,1.9318446626065118,0.038867313771638566,0.0706924832994166,-0.07502214452780342,-0.30814332305901426,1,right
2.148,-0.1589799507537046,0.9657412064602322,-0.1364098157647004,-1.803291212343291,1.8930823670922756,0.03948808079392457,0.06877468073895306,-0.08440361114711063,-0.29456939777467084,1,right
2.149,-0.151685098773669,0.9638014839767846,-0.13780749507943943,-1.8531886931062538,1.8538263425159618,0.03970140299609189,0.06681866572194095,-0.09341947449998224,-0.28125531178741614,1,right
2.1519999999999997,-0.1443974098319882,0.9619417727446715,-0.13918704878615315,-1.9005221097288005,1.814118940020047,0.03950081957264928,0.06482552254587844,-0.10206706324021819,-0.26821160042809883,1,right
2.1519999999999997,-0.1371247415469704,0.9601615355568925,-0.1405472568887643,-1.9452384620337828,1.7740020843246607,0.038880202684215354,0.06279630153787104,-0.1103439432308878,-0.2554484505917063,1,right
2.154,-0.12987482362439315,0.95846014241386,-0.14188695336354934,-1.987289227345548,1.733517238155956,0.037833795420570714,0.06073202039588391,-0.11824792291641811,-0.24297569396541757,1,right
2.157,-0.12265524740535645,0.9568368738101158,-0.14320502469238514,-2.0266303560535794,1.692705370566493,0.03635625235372608,0.05863366558794696,-0.12577705898221606,-0.23080280053967933,1,right
2.158,-0.1154734557996514,0.9552909240775207,-0.14450040821385723,-2.063222253613216,1.6516069290324809,0.0344426826792112,0.056502193800254,-0.1329296620492083,-0.2189388725257031,1,right
2.162,-0.10833673366580025,0.9538214047703676,-0.14577209032859154,-2.0970297492716967,1.6102618151846262,0.03208869584333192,0.05433853342391858,-0.13970430205748327,-0.20739263885696407,1,right
2.1630000000000003,-0.10125219869654714,0.9524273480775326,-0.14701910459373596,-2.1280220526377285,1.568709363893227,0.029290449056730443,0.05214358607112907,-0.14609981308427203,-0.19617245039979395,1,right
2.1630000000000003,-0.09422679286454362,0.9511077102461705,-0.1482405297412692,-2.1561727007127547,1.5269883251840028,0.0260446952002173,0.04991822811328869,-0.15211529750625744,-0.18528627590302182,1,right
2.167,-0.08726727447687667,0.9498613750015316,-0.14943548765660433,-2.1814594988318565,1.485136848325272,0.022348829131404527,0.04766331223471177,-0.15775012950724474,-0.17474169866418157,1,right
2.168,-0.08038021088903607,0.9486871569485287,-0.1506031413608279,-2.2038644581164006,1.4431924675616639,0.018200930895569636,0.04537966899557228,-0.16300395794956427,-0.16454591388006987,1,right
2.174,-0.0735719719334103,0.9475838049434021,-0.15174269304394006,-2.2233737305245183,1.4011920892123817,0.013599805236010697,0.04306810839771389,-0.16787670862648577,-0.1547057266503985,1,right
2.174,-0.06684872411250778,0.9465500054275031,-0.15285338218661382,-2.239977541739564,1.359171979986836,0.008545017294036101,0.04072942144684536,-0.1723685859118313,-0.1452275506042645,1,right
2.178,-0.06021642559448843,0.9455843857178333,-0.15393448378714786,-2.253670121960884,1.317167756397232,0.0030369244866706928,0.038364381704562814,-0.17648007382187883,-0.13611740712016335,1,right
2.1790000000000003,-0.05368082203585308,0.944685517250027,-0.15498530669210916,-2.2644496346529213,1.275214375147533,-0.002923295451140467,0.0359737468235601,-0.18021193650355563,-0.12738092511129007,1,right
2.1830000000000003,-0.04724744324656579,0.9438519187698833,-0.1560051920227139,-2.2723181033003366,1.2333461243781685,-0.009333620274350979,0.03355826005931049,-0.18356521816182608,-0.11902334134891379,1,right
2.184,-0.04092160070632178,0.9430820594705859,-0.15699351169233478,-2.2772813362084867,1.1915966156458853,-0.01619116290147536,0.031118651751427147,-0.18654124243808703,-0.11104950129766633,1,right
2.188,-0.03470838593426302,0.9423743620755348,-0.15794966701646893,-2.279348849380224,1.1499987765183057,-0.02349215497121244,0.028655640767836443,-0.18914161125029333,-0.10346386043765858,1,right
2.189,-0.028612669702904787,0.941727205870611,-0.15887308741992162,-2.278533787491635,1.108584843662981,-0.0312319343004388,0.026169935904826448,-0.19136820310444946,-0.09627048604942617,1,right
2.191,-0.02263910206693488,0.9411389296923338,-0.1597632292452916,-2.274852842980997,1.06738635631108,-0.03940493626326403,0.02366223723596403,-0.19322317088602067,-0.08947305943880722,1,right
2.193,-0.016792113151400858,0.9406078348783534,-0.1606195746627205,-2.2683261732569218,1.0264341499762808,-0.04800468911211159,0.021133237402806336,-0.19470893913873685,-0.08307487857996937,1,right
2.197,-0.011075914617793779,0.9401321881844235,-0.1614416306758558,-2.2589773160233744,0.9857583503099642,-0.05702381326304756,0.018583622840267513,-0.19582820083719096,-0.07707886115592949,1,right
2.197,-0.005494501705449598,0.9397102246684202,-0.16222892821680643,-2.2468331027110495,0.9453883669744203,-0.06645402456882225,0.016014074929438113,-0.1965839136585658,-0.07148754797704579,1,right
2.201,-5.165573206148338e-05,0.939340150538393,-0.16298102132483472,-2.231923569996391,0.9053528874164904,-0.0762861416043135,0.013425271070593598,-0.19697929575776305,-0.06630310675910857,1,right
2.201,0.005249053067820647,0.9390201459593158,-0.16369748640552498,-2.214281869381466,0.8656798704248576,-0.0865100969902634,0.01081788566906901,-0.1970178210491562,-0.06152733624380998,1,right
2.206,0.010404262484136105,0.9387483678126963,-0.1643779215645158,-2.1939441747998663,0.826396539355073,-0.09711495278237918,0.00819259102661965,-0.196703213997146,-0.05716167064553518,1,right
2.206,0.015410815159396232,0.9385229524041655,-0.16502194600480835,-2.1709495882058802,0.7875293749073686,-0.10808891995402163,0.005550058130832283,-0.19603944391666037,-0.05320718440958515,1,right
2.2119999999999997,0.020265755390955587,0.9383420181154883,-0.16562919947533103,-2.1453400430963327,0.7491041073433444,-0.11941938200182799,0.0028909573350979754,-0.19503071878371891,-0.049664597268114896,1,right
2.213,0.024966325968821524,0.9382036679976984,-0.16619934176226034,-2.1171602059067487,0.7111457080287374,-0.13109292270470932,0.00021595892160625982,-0.19368147855516582,-0.04653427958124786,1,right
2.217,0.02950996508424603,0.93810599230163,-0.16673205221953816,-2.086457375215879,0.6736783801906714,-0.14309535806771995,-0.0024742664602292364,-0.19199638799567387,-0.04381625795200793,1,right
2.218,0.033894303323592855,0.9380470709432077,-0.16722702933694522,-2.0532813786851123,0.6367255487790574,-0.1554117724833197,-0.005179047487551131,-0.18998032900913098,-0.04151022110489293,1,right
2.221,0.03811716074611161,0.9380249759037446,-0.16768399034199918,-2.0176844676519208,0.6003098493231519,-0.16802655914353357,-0.007897711997727723,-0.18763839247054373,-0.039615526019097104,1,right
2.222,0.042176544031168856,0.9380377735678879,-0.1681026708277451,-1.9797212092892493,0.5644531156756881,-0.1809234647374561,-0.01062958696532926,-0.1849758695668867,-0.0381312043053599,1,right
2.222,0.04607064367162637,0.9380835270023121,-0.16848282439518786,-1.9394483762356498,0.5291763665384761,-0.1940856384694491,-0.01337399860432512,-0.18199824272067375,-0.03705596880053179,1,right
2.225,0.049797831186621754,0.9381602981766828,-0.16882422229840188,-1.8969248335940239,0.49449979066490424,-0.2074956854342362,-0.01613027253867393,-0.17871117628842706,-0.03638822032620407,1,right
2.226,0.053356656322870115,0.9382661501244444,-0.16912665308069574,-1.8522114231900322,0.4604427306363816,-0.22113572438590767,-0.018897733962971144,-0.17512050729159587,-0.03612605454285836,1,right
2.231,0.05674584420229101,0.9383991490354471,-0.1693899221885823,-1.8053708449746058,0.4270236651114231,-0.2349874499386092,-0.021675707736400044,-0.1712322363702755,-0.03626726884823543,1,right
2.2319999999999998,0.05996429236113504,0.9385573662681608,-0.169613851546387,-1.756467535565568,0.394260189521902,-0.24903219910687455,-0.02446351839204817,-0.16705251902985285,-0.036809369298717864,1,right
2.233,0.0630110676239052,0.9387388802685408,-0.16979827907129294,-1.7055675445022411,0.3621689955632634,-0.2632510214415947,-0.027260490065228807,-0.16258765718353585,-0.03774957754975465,1,right
2.235,0.06588540276522287,0.9389417783847721,-0.16994305810912402,-1.6527384098341078,0.3307658504942108,-0.2776247508434953,-0.03006594634878647,-0.1578440909796099,-0.03908483781572813,1,right
2.2359999999999998,0.06858669292211508,0.9391641585700408,-0.17004805677415155,-1.5980490352438288,0.3000655776337544,-0.29213407648392214,-0.032879210083393506,-0.1528283909014281,-0.040811823850814555,1,right
2.241,0.07111449172008028,0.9394041309691346,-0.17011315718079095,-1.5415695703140304,0.27008203907494116,-0.3067596109158592,-0.03569960309087137,-0.14754725012732237,-0.042926945953532775,1,right
2.242,0.07346850707598765,0.9396598193906194,-0.17013825456345721,-1.483371294488441,0.24082812096967998,-0.3214819546332783,-0.038526445858594424,-0.14200747713682296,-0.04542635799880952,1,right
2.245,0.07564859664879849,0.9399293626745443,-0.17012325629286534,-1.4235265046874506,0.21231572137059512,-0.3362817569899345,-0.041359057183056554,-0.1362159885487917,-0.04830596450251493,1,right
2.246,0.0776547629249739,0.9402109159743344,-0.17006808080830887,-1.3621084064159967,0.1845557405438013,-0.351139773519581,-0.04419675378070138,-0.13017980217631253,-0.051561427724536056,1,right
2.25,0.07948714794388587,0.9405026519782975,-0.16997265649235913,-1.2991910081967444,0.15755807366858732,-0.3660369196998542,-0.04703884987413533,-0.12390603028243986,-0.05518817481755984,1,right
2.251,0.08114602768516858,0.9408027620986085,-0.16983692051517452,-1.2348490191567996,0.1313316058421232,-0.38095432120230477,-0.049884656761859505,-0.11740187302018235,-0.05918140502982843,1,right
2.255,0.08263180615357421,0.9411094576525224,-0.16966081766968558,-1.1691577495916792,0.10588420930946539,-0.395873360671216,-0.0527334823796708,-0.11067461203939737,-0.06353609697120909,1,right
2.256,0.08394500920909995,0.9414209710519496,-0.16944429920965787,-1.1021930143259515,0.0812227428413216,-0.4107757210739642,-0.055584630861895246,-0.10373160424258852,-0.06824701595298704,1,right
2.26,0.08508627820141193,0.9417355570047772,-0.1691873216965358,-1.034031038685873,0.05735305318425086,-0.42564342566573554,-0.058437402110627513,-0.09658027567093722,-0.07330872141284203,1,right
2.26,0.08605636347658309,0.942051493718073,-0.1688898458627488,-0.9647483668954709,0.034279978510209974,-0.4404588746114171,-0.061291091381158916,-0.0892281155012586,-0.07871557443750692,1,right
2.265,0.08685611783004919,0.9423670840844789,-0.16855183550827332,-0.8944217727038632,0.012007353794613054,-0.45520487830743533,-0.06414498889178294,-0.08168267013395249,-0.08446174539663018,1,right
2.265,0.08748648998198164,0.9426806568321804,-0.168173256458934,-0.8231281720481722,-0.009461981945656584,-0.4698646874462139,-0.06699837946617215,-0.0739515373514214,-0.09054122170237086,1,right
2.27,0.08794851814965671,0.9429905676258372,-0.1677540756236839,-0.7509445375531627,-0.03012617662055678,-0.484422019865775,-0.06985054221652269,-0.06604236052585126,-0.09694781571024587,1,right
2.271,0.08824332378659436,0.9432952001172856,-0.16729426019024618,-0.6779478146657456,-0.049984354305496324,-0.49886108422680997,-0.07270075027566343,-0.057962822854695,-0.10367517277772396,1,right
2.274,0.08837210555109633,0.9435929669560936,-0.1667937769928789,-0.6042148392197001,-0.06903660281191584,-0.5131666005592969,-0.07554827058632523,-0.04972064160166623,-0.11071677949801777,1,right
2.275,0.08833613355758138,0.943882310778716,-0.1662525920742609,-0.5298222562234187,-0.08728395964920066,-0.5273238177204514,-0.07839236375576224,-0.04132356232053831,-0.11806597212746454,1,right
2.279,0.08813674395328938,0.9441617052006828,-0.16567067044976996,-0.4548464396611407,-0.10472839643497298,-0.5413185278054572,-0.08123228398391148,-0.03277935303855531,-0.1257159452258078,1,right
2.28,0.08777533385170277,0.9444296558379612,-0.16504797607154795,-0.37936341309602284,-0.12137280180849777,-0.5551370775520388,-0.08406727907326939,-0.02409579837579375,-0.1336597605295938,1,right
2.285,0.08725335664422054,0.944684701380228,-0.16438447198454176,-0.3034487708615023,-0.13722096289962626,-0.5687663767795197,-0.08689659052865402,-0.015280693576369499,-0.14189035607978057,1,right
2.286,0.08657231770469972,0.9449254147312419,-0.16368012066674315,-0.22717759962573003,-0.15227754540339658,-0.5821939039025353,-0.08971945375500956,-0.006341838426961211,-0.15040055562552096,1,right
2.289,0.08573377049719931,0.9451504042224592,-0.16293488454850794,-0.15062440011239406,-0.1665480723081147,-0.595407708559072,-0.09253509836139572,0.0027129689622784,-0.15918307832692513,1,right
2.29,0.0847393130942367,0.9453583148986185,-0.16214872670851477,-0.07386300876001277,-0.18003890132245284,-0.6083964113919572,-0.09534274857554917,0.011875938527377347,-0.16823054876384977,1,right
2.291,0.08359058511048965,0.9455478298707728,-0.1613216117449229,0.00303348089924839,-0.1927572010448315,-0.6211492010223509,-0.09814162375469057,0.021139294722310832,-0.17753550717565994,1,right
2.294,0.08228926505544934,0.9457176717328974,-0.1604535068186368,0.0799927973609947,-0.20471092591609344,-0.6336558282531705,-0.10093093894457826,0.030495282933583338,-0.18709041970846166,1,right
2.295,0.08083706810817733,0.9458666040399105,-0.1595443828613244,0.15694357099061215,-0.21590878999424146,-0.6459065975397411,-0.10370990542009192,0.039936175616877304,-0.19688768836415876,1,right
2.3,0.07923574431734258,0.9459934328452448,-0.1585942159353993,0.2338154148066169,-0.22636023958779225,-0.6578923557642845,-0.10647773115929914,0.049454277997071486,-0.20691966042933257,1,right
2.3,0.07748707722835647,0.9460970082947854,-0.15760298872857922,0.31053900642627436,-0.23607542478210614,-0.6696044783501525,-0.10923362123658187,0.05904193328437309,-0.21717863731189052,1,right
2.301,0.07559288293515222,0.9461762262717746,-0.15657069216339775,0.38704617125269275,-0.24506516991331065,-0.6810348527940032,-0.11197677813906558,0.06869152742131557,-0.2276568827970311,1,right
2.303,0.07355500954842166,0.9462300300847483,-0.15549732710336361,0.46326996627386213,-0.2533409431544426,-0.6921758599084757,-0.11470640201430027,0.07839549338794846,-0.2383466307513275,1,right
2.3040000000000003,0.07137533706790151,0.9462574121873848,-0.15438290614210687,0.5391447625683679,-0.2609148255781878,-0.703020353454345,-0.1174216908571086,0.08814631509274579,-0.24924009230438493,1,right
2.309,0.06905577764291167,0.9462574159135585,-0.15322745546725006,0.6146063239033764,-0.2677994801706632,-0.7135616390554522,-0.12012184064348001,0.09793653087693732,-0.260329462538156,1,right
2.31,0.06659827619917216,0.9462291372020506,-0.15203101679554828,0.689591879518193,-0.27400812115648865,-0.7237934530737549,-0.12280604541935022,0.10775873666012349,-0.27160692671460585,1,right
2.313,0.06400481139913598,0.9461717262761775,-0.15079364938159534,0.7640401904610066,-0.27955448379151115,-0.7337099417337763,-0.12547349735206512,0.11760558875516915,-0.28306466607300496,1,right
2.314,0.06127739688773903,0.9460843892387014,-0.1495154321087343,0.8378916095537678,-0.2844527946654183,-0.7433056405697508,-0.12812338675228377,0.12746980638048544,-0.2946948632286887,1,right
2.318,0.0584180827566019,0.9459663895437869,-0.14819646567303227,0.9110881352004814,-0.2887177425321058,-0.7525754542248392,-0.1307549020740299,0.13734417389789993,-0.30648970720566493,1,right
2.318,0.055428957140008436,0.9458170493133525,-0.146836874865293,0.9835734592526519,-0.2923644496837631,-0.7615146366308962,-0.1333672299005531,0.14722154280438707,-0.3184413981359664,1,right
2.324,0.052312147838822626,0.9456357504713764,-0.1454368109442671,1.0552930091439172,-0.29540844388278004,-0.7701187715963416,-0.13595955492361025,0.15709483350598066,-0.33054215165914347,1,right
2.325,0.04906982385699026,0.9454219356751435,-0.14399645408231862,1.1261939845040199,-0.2978656308637599,-0.7783837538287535,-0.1385310599237251,0.16695703690221927,-0.3427842030557622,1,right
2.3280000000000003,0.04570419673212515,0.9451751090276636,-0.14251601585588508,1.1962253884602319,-0.29975226741614713,-0.7863057704178581,-0.14108092575892892,0.1768012158094844,-0.3551598111492257,1,right
2.3280000000000003,0.04221752154848105,0.9448948365607037,-0.140995741746895,1.2653380538321473,-0.3010849350562497,-0.7938812828036201,-0.1436083313694273,0.1866205062515797,-0.36766126201066457,1,right
2.335,0.03861209753697945,0.9445807464822878,-0.13943591361752042,1.3334846644234146,-0.3018805142957494,-0.8011070092531717,-0.14611245380557888,0.19640811864586777,-0.3802808725020473,1,right
2.336,0.034890268190506515,0.9442325291860617,-0.13783685211935132,1.4006197716114863,-0.30215615951215546,-0.8079799078693288,-0.14859246828650896,0.20615733891322938,-0.3930109936930461,1,right
2.338,0.031054420850946816,0.9438499370230393,-0.13619891900015374,1.4666998064338215,-0.30192927442506656,-0.814497160152451,-0.15104754829661704,0.21586152954003876,-0.4058440141875547,1,right
2.339,0.027106985756057266,0.9434327838384416,-0.13452251927830333,1.5316830873662128,-0.30121748818056354,-0.8206561551363941,-0.15347686572717015,0.22551413062025782,-0.41877236339609536,1,right
2.345,0.023050434566030842,0.9429809442776543,-0.13280810326592418,1.5955298239860072,-0.30003863204456255,-0.8264544741182965,-0.15587959107010438,0.23510866090564136,-0.43178851479066716,1,right
2.346,0.018887278415059543,0.9424943528684153,-0.13105616843199785,1.6582021167099583,-0.2984107167045138,-0.8318898760009127,-0.15825489367108608,0.24463871889191746,-0.4448849891788874,1,right
2.347,0.0146200655483713,0.9419730028935357,-0.12926726110119321,1.7196639527933042,-0.2963519101774408,-0.8369602832651847,-0.16060194204880926,0.25409798396865807,-0.45805435803454764,1,right
2.3480000000000003,0.01025137861235789,0.9414169450785909,-0.12744197798185922,1.7798811987734051,-0.29388051632097145,-0.841663768589701,-0.16291990428743003,0.26348021766038837,-0.471289246921961,1,right
2.353,0.005783831668902085,0.9408262861292408,-0.1255809675108594,1.838821589537905,-0.29101495394272403,-0.8459985421326549,-0.16520794850895992,0.27277926498629884,-0.48458233905170767,1,right
2.355,0.0012200670065358257,0.940201187160917,-0.12368493099913556,1.8964547141939039,-0.2877737365021724,-0.8499629394908637,-0.16746524343235863,0.28198905596572044,-0.497926379005594,1,right
2.358,-0.003437248178844214,0.9395418620673942,-0.1217546235640236,1.952751998911063,-0.2841754523979318,-0.8535554103493556,-0.1696909590259833,0.2911036072963024,-0.5113141766688307,1,right
2.358,-0.008185425161894124,0.9388485758723899,-0.11979085484104668,2.0076866869078933,-0.2802387458322714,-0.8567745078339754,-0.17188426725673367,0.30011702422295267,-0.5247386113931978,1,right
2.359,-0.013021757057481423,0.9381216430998266,-0.11779448947370873,2.061233815746735,-0.275982298243584,-0.8596188785783918,-0.17404434292298512,0.30902350257214095,-0.5381926363430886,1,right
2.362,-0.01794352212515263,0.9373614261866117,-0.11576644738164685,2.1133701920990946,-0.2714248102965154,-0.8620872535158263,-0.17617036452922388,0.31781733084812663,-0.5516692828468187,1,right
2.363,-0.022947986956545888,0.9365683339513093,-0.11370770380654434,2.1640743641390965,-0.2665849844184841,-0.8641784394047448,-0.17826151514404756,0.32649289224417827,-0.5651616645036671,1,right
2.367,-0.0280324094874318,0.9357428201246352,-0.11161928913192477,2.21332659173662,-0.2614815078658493,-0.8658913110979011,-0.18031698319925676,0.33504466646474995,-0.5786629808692221,1,right
2.3680000000000003,-0.03319404177139623,0.9348853819411734,-0.10950228846698623,2.2611088147065757,-0.2561330362793381,-0.867224804569114,-0.18233596321675258,0.34346723133201945,-0.5921665206713091,1,right
2.369,-0.03843013246110612,0.9339965587844827,-0.10735784097889467,2.3074046195267672,-0.2505581776465294,-0.8681779107220349,-0.1843176564660137,0.3517552641930588,-0.6056656645808418,1,right
2.372,-0.04373792895493684,0.9330769308692927,-0.10518713895629116,2.3521992050215603,-0.2447754765656541,-0.8687496700101482,-0.18626127155805638,0.35990354315219336,-0.619153887576366,1,right
2.373,-0.049114679171328904,0.9321271179339039,-0.10299142659098516,2.395479347415411,-0.23880339872704745,-0.8689391678900823,-0.1881660249816755,0.3679069481527322,-0.6326247609410769,1,right
2.377,-0.05455763292040401,0.9311477779042132,-0.10077199847569367,2.4372333649959543,-0.2326603155689422,-0.8687455311182636,-0.19003114158765763,0.37576046193186907,-0.6460719539310723,1,right
2.378,-0.060064042861873265,0.93013960548134,-0.09853019783050776,2.4774510825330935,-0.2263644890864751,-0.8681679248937726,-0.1918558550265483,0.38345917087214976,-0.6594892351535777,1,right
2.381,-0.06563116506408051,0.9291033306007337,-0.09626741448278063,2.516123795578397,-0.21993405677678887,-0.8672055508479426,-0.1936394081454436,0.39099826577248853,-0.6728704736938269,1,right
2.3819999999999997,-0.07125625920101096,0.9280397167130685,-0.0939850826308482,2.553244234764725,-0.2133870167026226,-0.8658576458801441,-0.19538105334916175,0.3983730425612815,-0.6862096400292158,1,right
2.388,-0.07693658843846626,0.9269495588455656,-0.09168467842410276,2.5888065302216137,-0.20674121265634282,-0.8641234818380933,-0.19708005293103614,0.4055789029737247,-0.6995008067692599,1,right
2.388,-0.08266941906793611,0.9258336814155116,-0.08936771739257003,2.622806176217483,-0.20001431940598105,-0.862002366039919,-0.19873567937845077,0.4126113552149846,-0.7127381492597831,1,right
2.392,-0.08845201994901801,0.9246929357847756,-0.08703575175576311,2.6552399961353026,-0.19322382800450907,-0.8594936426341143,-0.20034721565812033,0.41946601463039546,-0.7259159460896456,1,right
2.3930000000000002,-0.09428166182102711,0.9235281975641083,-0.08469036763209616,2.6861061078838633,-0.18638703114329758,-0.8565966947923881,-0.20191395548599417,0.4261386044033761,-0.7390285795381799,1,right
2.397,-0.10015561654326058,0.9223403636977248,-0.08233318216239943,2.7154038898423227,-0.1795210085304714,-0.8533109477293237,-0.2034352035865386,0.4326249563012579,-0.7520705360013499,1,right
2.399,-0.10607115632107715,0.9211303493805818,-0.0799658405608236,2.7431339474311884,-0.17264261227469205,-0.8496358725416359,-0.20491027594602548,0.4389210114887066,-0.7650364064344759,1,right
2.401,-0.11202555297091367,0.9198990848804819,-0.07759001311314222,2.7692980803984133,-0.1657684522547632,-0.8455709908587014,-0.20633850006432675,0.44502282142789745,-0.7779208868491865,1,right
2.4019999999999997,-0.1180160772718408,0.9186475123517585,-0.07520739215057035,2.7938992509047647,-0.1589148814553713,-0.8411158802949247,-0.2077192152095831,0.4509265488840694,-0.7907187789020481,1,right
2.406,-0.12403999844427822,0.9173765827350673,-0.07281968903262818,2.8169415524881343,-0.15209798124923776,-0.8362701806933794,-0.20905177267998348,0.45662846905453547,-0.8034249906121103,1,right
2.406,-0.13009458378784014,0.9160872528390825,-0.07042863117488361,2.8384301799819607,-0.14533354660596992,-0.8310336011490471,-0.21033553607675592,0.4621249708386709,-0.8160345372443674,1,right
2.412,-0.13617709850107113,0.9147804826954625,-0.06803595915745136,2.8583714004584397,-0.13863707120795699,-0.8254059277988558,-0.21156988159233558,0.46741255826583,-0.8285425423958922,1,right
2.412,-0.14228480569656962,0.913457233268303,-0.06564342394669585,2.876772525262734,-0.1320237324537621,-0.8193870323645934,-0.21275419831753667,0.4724878520975648,-0.8409442393211325,1,right
2.416,-0.14841496661378675,0.9121184645836447,-0.06325278425342262,2.893641883199923,-0.12550837632961095,-0.812976881433658,-0.21388788857141416,0.47734759161992724,-0.8532349725325818,1,right
2.417,-0.15456484101723497,0.9107651343242491,-0.0608658040365877,2.9089887949319957,-0.1191055021297732,-0.8061755464614728,-0.21497036825736057,0.4819886366410381,-0.8654101997127498,1,right
2.421,-0.1607316877515617,0.9093981969110034,-0.058484250145933676,2.9228235486377634,-0.11282924700686943,-0.7989832144782781,-0.21600106724883864,0.4864079697084953,-0.8774654939730447,1,right
2.4219999999999997,-0.16691276541098948,0.9080186030671498,-0.056109890084412146,2.93515737698418,-0.10669337033341876,-0.7914001994818836,-0.21697942980800505,0.4906026985605755,-0.8893965464948703,1,right
2.425,-0.1731053330747554,0.9066272998387949,-0.05374448986556679,2.9460024354531735,-0.1007112378562634,-0.7834269544968443,-0.2179049150394814,0.4945700588159457,-0.9011991695721904,1,right
2.426,-0.17930665106710855,0.9052252310301072,-0.05138981194311344,2.9553717820637577,-0.09489580562586993,-0.7750640842794,-0.21877699737711429,0.4983074168629195,-0.9128692999959231,1,right
2.427,-0.18551398171725225,0.903813338005534,-0.04904761319602511,2.9632793585248884,-0.08925960368290921,-0.7663123586463931,-0.2195951670937423,0.5018122728311634,-0.9244030025787778,1,right
2.431,-0.19172459011139792,0.9023925608055868,-0.046719642957410996,2.969739972850233,-0.08381471948495797,-0.7571727264052631,-0.22035893081956975,0.5050822634850597,-0.9357964735402233,1,right
2.432,-0.19793574484114326,0.9009638395091741,-0.0444076410775922,2.974769283461815,-0.07857278105664259,-0.7476463298610925,-0.22106781205885895,0.5081151649203198,-0.9470460435494543,1,right
2.435,-0.20414471876388265,0.8995281157592796,-0.04211333601184378,2.9783837848052688,-0.07354493984706008,-0.7377345198755678,-0.22172135170217327,0.5109088950222557,-0.9581481803652162,1,right
2.436,-0.21034878980289223,0.8980863343608253,-0.039838442921536536,2.9806007944628456,-0.06874185330385674,-0.7274388714353255,-0.2223191085355115,0.5134615156864883,-0.9690994910895011,1,right
2.436,-0.21654524182176013,0.8966394448653129,-0.03758466177484066,2.98143844158388,-0.06417366729891345,-0.716761199604663,-0.22286065974836855,0.5157712348108034,-0.9798967240674266,1,right
2.4419999999999997,-0.22273136560913076,0.8951884030729823,-0.035353675432589174,2.980915656156204,-0.05984999876617605,-0.7057035755900081,-0.22334560144259902,0.5178364080661734,-0.9905367704651801,1,right
2.444,-0.22890446001130293,0.8937341723979265,-0.03314714770718142,2.9790521584756897,-0.0557799190377998,-0.694268342561056,-0.2237735491438002,0.5196555404542768,-1.001016665557486,1,right
2.4459999999999997,-0.23506183325502567,0.8922777250486476,-0.030966721386489135,2.975868448329427,-0.051971938240464956,-0.6824581309537686,-0.22414413831676921,0.5212272876581456,-1.0113335897556017,1,right
2.447,-0.24120080450737877,0.8908200429850609,-0.028814016222733496,2.9713857936963133,-0.04843399088944553,-0.6702758731258193,-0.2244570248864263,0.5225504571918703,-1.0214848694064067,1,right
2.45,-0.247318705720648,0.8893621186318864,-0.02669062690079837,2.965626218927283,-0.04517342269375468,-0.6577248173153616,-0.22471188576543358,0.5236240093545858,-1.031467977392681,1,right
2.451,-0.2534128838075009,0.8879049553543882,-0.024598121016894344,2.9586124923960764,-0.04219697856144462,-0.6448085408692038,-0.2249084193895721,0.5244470579932508,-1.041280533564208,1,right
2.455,-0.2594807031857006,0.8864495677281021,-0.02253803710699761,2.9503681136077193,-0.0395107917949131,-0.6315309627053973,-0.2250463462617763,0.5250188710780191,-1.0509203050288565,1,right
2.456,-0.26551954872198497,0.8849969816548157,-0.02051188275817531,2.940917299748209,-0.03712037446686433,-0.6178963549741913,-0.225125409505557,0.5253388710932858,-1.0603852063323145,1,right
2.46,-0.27152682909229175,0.883548234389478,-0.018521132814622986,2.9302849716553223,-0.03503060896838706,-0.603909353880257,-0.2251453754283768,0.5254066352467703,-1.0696732995546612,1,right
2.461,-0.2774999805605453,0.8821043745444701,-0.016567227660581836,2.9184967391869003,-0.033245740721444914,-0.5895749696280496,-0.22510603409537336,0.5252218954982784,-1.078782794351465,1,right
2.465,-0.2834364711596987,0.8806664621279755,-0.014651571539841129,2.9055788859595233,-0.03176937204892251,-0.5748985954511455,-0.22500719991365795,0.5247845384090605,-1.0877120479665907,1,right
2.467,-0.28933380523758145,0.8792355686552823,-0.01277553087661956,2.89155835342708,-0.03060445719623318,-0.559886015685389,-0.22484871222724542,0.5240946048119616,-1.096459565243398,1,right
2.469,-0.2951895283143994,0.8778127773541847,-0.010940432599590355,2.8764627242654317,-0.029753298499368554,-0.544543412844678,-0.22463043592250242,0.5231522893018316,-1.1050239986604933,1,right
2.47,-0.3010012322006418,0.8763991834774877,-0.009147562513028267,2.860320205026111,-0.029217543695155185,-0.5288773736572416,-0.22435226204382983,0.521957939544939,-1.1134041484176864,1,right
2.474,-0.306766560345461,0.874995894738691,-0.0073981637709844015,2.8431596080188433,-0.02899818437037668,-0.512894894019295,-0.22401410841912348,0.5205120554054067,-1.1215989625972762,1,right
2.475,-0.31248321340976803,0.8736040318935441,-0.0056934354853939205,2.825010332379586,-0.029095555547319723,-0.4966033828220107,-0.22361592029438598,0.5188152878859641,-1.129607537425266,1,right
2.479,-0.3181489550634484,0.8722247294915076,-0.004034531462573827,2.8059023442777664,-0.02950933640420706,-0.4800106646068174,-0.2231576709766906,0.516868437879585,-1.1374291176565823,1,right
2.48,-0.3237616179838143,0.8708591368148212,-0.002422559040267612,2.785866156213498,-0.030238552129888015,-0.4631249810031284,-0.22263936248452507,0.5146724547278596,-1.1450630971078335,1,right
2.485,-0.3293191099914217,0.8695084190112631,-0.0008585779928131246,2.76493280535269,-0.03128157691306553,-0.4459549909017151,-0.22206102620437224,0.5122284345812267,-1.1525090193606173,1,right
2.4859999999999998,-0.33481942021565164,0.868173758411957,0.0006564005238769555,2.743133830845223,-0.03263613806724635,-0.4285097693160782,-0.2214227235522102,0.5095376185554774,-1.1597665786578408,1,right
2.49,-0.3402606251482765,0.8668563560080181,0.0021214150070483564,2.720501250068711,-0.03429932129350567,-0.41079880488332543,-0.22072454663844385,0.5066013906782227,-1.1668356210149848,1,right
2.49,-0.3456408944239365,0.8655574330400312,0.0035355546266353836,2.6970675337377674,-0.036267577084057756,-0.3928319959552517,-0.21996661893460584,0.5034212756183065,-1.1737161455677025,1,right
2.495,-0.35095849616494407,0.8642782326366534,0.004897960218636285,2.672865579816231,-0.03853672827051739,-0.37461964522952657,-0.2191490959403219,0.4999989361962461,-1.1804083061643582,1,right
2.496,-0.35621180174789,0.8630200214308464,0.006207825232387044,2.647928686167401,-0.0411019787216226,-0.35617245287013044,-0.2182721658505005,0.496336170702118,-1.1869124131503728,1,right
2.496,-0.36139928988592485,0.8617840910859784,0.007464396612341007,2.6222905218750356,-0.043957923196063724,-0.3375015080654495,-0.21733605022548505,0.49243491009888213,-1.1932289351805327,1,right
2.5,-0.36651954995258257,0.8605717596677348,0.008666975597322433,2.595985097165655,-0.04709855835692737,-0.3186182789717317,-0.21634100466837444,0.488297215217482,-1.1993585008336793,1,right
2.5,-0.3715712844874543,0.8593843727917941,0.009814918416439885,2.5690467318605883,-0.05051729495511273,-0.2995346009889349,-0.21528731951190758,0.48392527402032837,-1.2053018998648526,1,right
2.504,-0.3765533108331758,0.8582233044697315,0.010907636853079666,2.541510022329716,-0.05420697116119345,-0.28026266335415384,-0.21417532051418975,0.4793213989568127,-1.2110600840395949,1,right
2.505,-0.381464561871281,0.8570899575801343,0.011944598645066579,2.513409807144573,-0.0581598668824228,-0.26081499423120563,-0.21300536956073035,0.47448802440477705,-1.2166341675557846,1,right
2.506,-0.3863040858487025,0.8559857639082218,0.012925327693900314,2.484781132036445,-0.06236771864391266,-0.24120444482357464,-0.21177786536976598,0.4694277041853871,-1.2220254270700766,1,right
2.509,-0.3910710453116642,0.8549121837133994,0.013849404065023507,2.4556592149909715,-0.06682173447020175,-0.22144417323137766,-0.2104932441976749,0.4641431091381856,-1.2272353013454917,1,right
2.51,-0.395764715192243,0.8538707047923061,0.014716463771196432,2.426079412081549,-0.07151260834777567,-0.2015476285785073,-0.20915198054112338,0.4586370247424493,-1.232265390536171,1,right
2.513,-0.40038448012803574,0.8528628410095634,0.015526198345524857,2.3960771842325284,-0.07643053410829775,-0.1815285355864451,-0.2077545878324176,0.4529123487703164,-1.237117455124785,1,right
2.5140000000000002,-0.40492983113403025,0.8518901302773703,0.016278354230934832,2.3656880648741554,-0.08156521871660743,-0.16140087957680754,-0.20630161912437245,0.4469720889565097,-1.241793414527574,1,right
2.519,-0.40940036178209444,0.8509541319796645,0.016972732030908044,2.3349476284043535,-0.08690589497694066,-0.14117889184549615,-0.2047936677608452,0.4408193606688447,-1.246295345381462,1,right
2.52,-0.41379576407258123,0.8500564238542775,0.01760918567189919,2.303891459371237,-0.09244133367147805,-0.12087703535097324,-0.2032313680289207,0.4344573845630829,-1.250625479527198,1,right
2.523,-0.4181158241993701,0.8491985983656498,0.0181876215186334,2.272555122289138,-0.09815985514594823,-0.1005099906588722,-0.2016153957885753,0.42788948420507267,-1.254786201701956,1,right
2.524,-0.42236041840972244,0.8483822586203031,0.018707997464782324,2.240974131999903,-0.10404934035760444,-0.08009264208488073,-0.19994646907548944,0.4211190836425095,-1.2587800469543322,1,right
2.528,-0.4265295091433363,0.8476090138955087,0.01917032200230585,2.2091839244903295,-0.11009724140145126,-0.05964006397760751,-0.19822534867252167,0.414149704908046,-1.262609697794186,1,right
2.529,-0.43062314160525955,0.8468804748669463,0.0195746532621752,2.177219828075795,-0.11629059153112298,-0.03916750708295469,-0.19645283864520377,0.4069849654348924,-1.2662779810892792,1,right
2.533,-0.4346414408909671,0.8461982486332499,0.019921098021773442,2.1451170348594286,-0.12261601469130538,-0.018690384931375516,-0.19462978683646392,0.39962857536546414,-1.2697878647201961,1,right
2.533,-0.43858460974387314,0.845563933643083,0.020209810687568882,2.1129105723755774,-0.12905973457904743,0.001775739810705259,-0.19275708531563596,0.3920843347330644,-1.2731424540045504,1,right
2.5380000000000003,-0.4424529269883789,0.8449791146332909,0.02044099227868163,2.080635275325824,-0.13560758325172545,0.02221516908408689,-0.1908356707766637,0.38435613049602585,-1.276344987901023,1,right
2.539,-0.4462467466472075,0.8444453576878642,0.02061488944898435,2.048325757315402,-0.14224500929980163,0.04261208333339603,-0.18886652488026587,0.3764479334031882,-1.279398835003321,1,right
2.545,-0.4499664977226017,0.8439642055306069,0.020731793585701472,2.016016382497565,-0.14895708560285748,0.06295055561585784,-0.1868506745346834,0.36836379466904656,-1.2823074893337023,1,right
2.546,-0.4536126845966144,0.8435371731692249,0.020792040010824204,1.9837412370332677,-0.15572851668768073,0.08321456598091784,-0.18478919210949185,0.36010784243637817,-1.2850745659452718,1,right
2.548,-0.4571858879822467,0.8431657440123496,0.020796007293207394,1.9515341002734137,-0.16254364570744156,0.10338801617927498,-0.18268319557682391,0.3516842780036386,-1.28770379634183,1,right
2.549,-0.4606867663312225,0.8428513665817109,0.020744116659264674,1.9194284155709311,-0.16938646106120675,0.12345474475971854,-0.18053384857421415,0.34309737179391187,-1.2901990237236385,1,right
2.553,-0.46411605757541374,0.8425954519365572,0.02063683147273894,1.8874572606300257,-0.17624060267321104,0.14339854261194726,-0.1783423603831451,0.3343514590417068,-1.2925641980670575,1,right
2.555,-0.46747458104875844,0.8423993719110882,0.020474656743791037,1.8556533173001646,-0.18308936795142894,0.16320316901328882,-0.1761099858172481,0.32545093517341045,-1.2948033710456195,1,right
2.5580000000000003,-0.4707632394073765,0.8422644582321912,0.020258138627897646,1.8240488407226312,-0.18991571744506922,0.18285236823693113,-0.17383802501398693,0.31640025085673995,-1.2969206907997126,1,right
2.559,-0.4739830203412114,0.8421920025320522,0.019987863884047177,1.7926756277378741,-0.19670228022064656,0.20232988677892358,-0.17152782312353085,0.30720390669407704,-1.29892039656168,1,right
2.562,-0.47713499785604147,0.8421832572014755,0.01966445927460431,1.761564984462357,-0.20343135897626802,0.22161949126080693,-0.16918076988840747,0.2978664475341265,-1.3008068131427737,1,right
2.563,-0.48022033290765614,0.8422394369574376,0.019288590900885545,1.730747692944187,-0.21008493491370733,0.24070498706428337,-0.16679829911037364,0.2883924563923903,-1.3025843452898669,1,right
2.563,-0.483240273198759,0.842361720948663,0.018860963474635686,1.7002539768074612,-0.21664467238772517,0.25957023775384563,-0.16438188801564615,0.2787865480529423,-1.3042574719285283,1,right
2.5669999999999997,-0.4861961519999956,0.8425512552084053,0.018382319526089055,1.670113465796027,-0.22309192335192662,0.2781991853427444,-0.1619330565561904,0.2690533625719238,-1.305830740325024,1,right
2.568,-0.48908938590787543,0.8428091552518053,0.017853438548964623,1.6403551591281886,-0.22940773162023118,0.2965758714570866,-0.15945336669947557,0.2591975589852006,-1.30730876020854,1,right
2.572,-0.4919214714906139,0.8431365085797479,0.017275136085450282,1.611007387632814,-0.23557283698272447,0.3146844594136135,-0.1569444217441966,0.24922380943982972,-1.3086961978855765,1,right
2.573,-0.4946939808064559,0.8435343768297354,0.016648262758672597,1.5820977749282505,-0.24156767931416526,0.33250925703297224,-0.15440786567270529,0.23913679382027989,-1.3099977703618961,1,right
2.574,-0.49740855581573074,0.8440037973412091,0.015973703262409843,1.5536531984284574,-0.24737240299273208,0.35003473966206783,-0.15184538253599397,0.22894119485758443,-1.3112182394780914,1,right
2.58,-0.5000669017483558,0.84454578393964,0.015252375316483853,1.52569975125188,-0.25296686204598856,0.3672455726852566,-0.1492586958640273,0.21864169369278533,-1.312362406062767,1,right
2.5810000000000004,-0.5026707795342147,0.8451613267507239,0.01448522859347842,1.4982627058199085,-0.25833062634072823,0.38412663299638355,-0.14664956809413882,0.2082429658657007,-1.313435104107086,1,right
2.582,-0.5052219974493449,0.8458513908574364,0.013673243620481635,1.471366479411195,-0.26344298895312424,0.4006630292503079,-0.1440198000101352,0.19774967769973664,-1.3144411949641976,1,right
2.582,-0.5077224021664132,0.8466169136412882,0.012817430659316514,1.4450346016495677,-0.2682829747551764,0.4168401209047164,-0.14137123018468056,0.18716648305316597,-1.3153855615768428,1,right
2.5869999999999997,-0.5101738694220399,0.8474588006977841,0.011918828570558775,1.4192896838467832,-0.27282935023281973,0.43264353610068595,-0.13870573441746967,0.17649802040701099,-1.3162731027362307,1,right
2.588,-0.5125782945298519,0.8483779202655365,0.010978503669842404,1.3941533901228897,-0.2770606345503363,0.4480591884294685,-0.1360252251616393,0.1657489102593958,-1.3171087273750839,1,right
2.591,-0.5149375829787025,0.8493750961513318,0.009997548586775899,1.3696464102286172,-0.2809551118749279,0.46307329263194097,-0.13333165093081345,0.15492375279597598,-1.3178973488975816,1,right
2.592,-0.5172536413605807,0.8504510991692537,0.008977081134689754,1.3457884339958752,-0.28449084497446414,0.4776723792760877,-0.13062699567912853,0.14402712580580698,-1.3186438795487534,1,right
2.597,-0.5195283688716109,0.8516066371420392,0.007918243193498603,1.3225981273441958,-0.2876456901005146,0.4918433084567719,-0.1279132781465433,0.13306358281178277,-1.3193532248257414,1,right
2.597,-0.5217636496212389,0.8528423435392474,0.006822199599608148,1.3000931097727633,-0.2903973131678054,0.5055732825608971,-0.12519255116169908,0.12203765138455615,-1.3200302779332034,1,right
2.6010000000000004,-0.5239613459694993,0.8541587648500948,0.005690137028424433,1.2782899332695299,-0.2927232072402099,0.518849858139871,-0.1224669008945653,0.11095383160864797,-1.3206799142850127,1,right
2.602,-0.5261232930914221,0.8555563468065546,0.0045232628514116765,1.2572040625708378,-0.2946007113322881,0.5316609569300527,-0.1197384460510788,0.09981659466925896,-1.3213069860543039,1,right
2.6069999999999998,-0.5282512949419309,0.8570354195816567,0.0033228039552970047,1.2368498567069337,-0.2960070305342315,0.5439948760605995,-0.11700933700196568,0.08863038152812018,-1.3219163167738177,1,right
2.6069999999999998,-0.5303471217644009,0.8585961820900437,0.002090005525527505,1.2172405517707712,-0.2969192574668455,0.5558402974868266,-0.11428175483791997,0.07739960165655008,-1.3225126959884257,1,right
2.612,-0.532412509252724,0.8602386855190557,0.0008261298142763375,1.198388244849561,-0.2973143950719147,0.5671862966858587,-0.11155791034330574,0.06612863179373393,-1.3231008739616426,1,right
2.612,-0.5344491594428875,0.8619628162285281,-0.00046754506981680266,1.180303879060623,-0.297169380741941,0.5780223506499796,-0.10884004288054727,0.05482181469809986,-1.3236855564378882,1,right
2.617,-0.5364587433773056,0.8637682781850614,-0.001789726299320723,1.162997229635235,-0.2964611117918258,0.5883383452116855,-0.10613041917737655,0.04348345785953789,-1.3242713994622246,1,right
2.6180000000000003,-0.5384429055516519,0.865654575145069,-0.0031391073335176913,1.1464768909963439,-0.29516647227358234,0.5981245817330142,-0.10343133200911804,0.032117832140093026,-1.324863004259265,1,right
2.6210000000000004,-0.5404032701151961,0.8676209928657111,-0.004514368731380975,1.1307502647782077,-0.2932623611336104,0.6073717831902571,-0.10074509876820767,0.020729170310660048,-1.3254649121729474,1,right
2.6210000000000004,-0.5423414487463015,0.869666581693065,-0.0059141787197751925,1.1158235487382722,-0.2907257217104508,0.6160710996836672,-0.09807405991316726,0.009321665451117133,-1.3260815996688602,1,right
2.627,-0.5442590500613387,0.8717901399399792,-0.007337193479942259,1.1017017265138367,-0.287533572569249,0.624214113400258,-0.09542057728928532,-0.002100530818742919,-1.3267174734008371,1,right
2.628,-0.5461576903401069,0.8739901985120528,-0.008782057137597443,1.088388558178346,-0.2836630396674093,0.6317928430562375,-0.0927870323132927,-0.013533310310191489,-1.3273768653435536,1,right
2.6310000000000002,-0.5480390052709946,0.8762650072633361,-0.010247401472818132,1.0758865715544366,-0.2790913898441022,0.6387997478440514,-0.0901758240143648,-0.024972610471214688,-1.3280640279929097,1,right
2.6319999999999997,-0.5499046623407112,0.8786125235605632,-0.011731845404146015,1.0641970542431805,-0.2737960656244066,0.6452277309074096,-0.08758936692383289,-0.03641441685963978,-1.3287831296360324,1,right
2.633,-0.5517563734292575,0.881030403500322,-0.01323399433743446,1.0533200463312822,-0.26775472132691774,0.6510701423660521,-0.08503008880920854,-0.04785476590096499,-1.3295382496902544,1,right
2.636,-0.5535959071531649,0.8835159961488753,-0.014752439487021127,1.043254333740321,-0.2609452604616398,0.6563207819103684,-0.08250042826401222,-0.059289747870103965,-1.3303333740977512,1,right
2.637,-0.5554251005344064,0.8860663410689313,-0.016285757266029693,1.0339974421844556,-0.25334587440290257,0.6609739009843215,-0.08000283219344836,-0.07071550989580036,-1.331172390739672,1,right
2.64,-0.5572458695857239,0.8886781692954397,-0.01783250881670645,1.0255456317053415,-0.24493508231990005,0.6650242045734466,-0.07753975325187008,-0.08212825870842864,-1.3320590848209486,1,right
2.641,-0.5590602183477409,0.8913479078381338,-0.019391239727433885,1.017893891787799,-0.23569177233660982,0.6684668526148808,-0.07511364727223899,-0.09352426292991717,-1.3329971341898326,1,right
2.642,-0.5608702458752591,0.8940716877063375,-0.02096047996245817,1.0110359372243738,-0.2255952438474266,0.6712974610540929,-0.07272697069939774,-0.10489985484496636,-1.3339901045792812,1,right
2.645,-0.5626781507299331,0.8968453553601715,-0.022538744013465988,1.0049642051913605,-0.21462525083482703,0.6735121025882144,-0.07038217802324913,-0.11625143167073276,-1.335041444770199,1,right
2.6460000000000004,-0.5644862326298071,0.899664487374013,-0.02412453127519618,0.9996698541634438,-0.20276204598983444,0.6751073071435572,-0.06808171920487749,-0.12757545635770876,-1.3361544816792341,1,right
2.6510000000000002,-0.5662968909620693,0.9025244079348475,-0.02571632665101833,0.9951427651340987,-0.1899864254767604,0.676080062123721,-0.06582803708876137,-0.1388684579544691,-1.3373324153739947,1,right
2.6519999999999997,-0.5681126199324453,0.9054202086237975,-0.027312601400787867,0.9913715453190348,-0.17627977425887664,0.6764278124459548,-0.0636235647943469,-0.15012703156888696,-1.338578314018708,1,right
2.656,-0.569936000260375,0.9083467698045591,-0.028911814241369647,0.9883435343599103,-0.16162411194226445,0.6761484603722349,-0.061470723080378535,-0.16134783795834265,-1.339895108753527,1,right
2.657,-0.571769687507136,0.9112987828921227,-0.03051241269306129,0.986044813015285,-0.14600213910110024,0.6752403651378468,-0.05937191767551787,-0.17252760278135942,-1.3412855885108799,1,right
2.661,-0.5736163972944108,0.9142707727900425,-0.032112834635831394,0.9844602143279528,-0.12939728404496387,0.6737023423784686,-0.057329536568923305,-0.18366311554300258,-1.342752394772443,1,right
2.661,-0.5754788878130375,0.9172571198486957,-0.03371151000800148,0.9835733372599239,-0.11179374998602956,0.6715336633549459,-0.055345947254610985,-0.19475122826626848,-1.3442980162705247,1,right
2.6660000000000004,-0.5773599401357775,0.920252080792888,-0.0353068625566365,0.9833665627884213,-0.09317656256122683,0.6687340539731499,-0.05342349392357285,-0.20578885392157348,-1.3459247836378676,1,right
2.667,-0.5792623369379125,0.923249808176814,-0.03689731154211244,0.9838210724583043,-0.07353161766163559,0.6653036935944977,-0.051564494597789674,-0.2167729646463253,-1.34763486401008,1,right
2.6689999999999996,-0.581188840294026,0.9262443680327822,-0.038481273315901066,0.9849168693883315,-0.05284572951851314,0.661243213630904,-0.04977123820044584,-0.22770058978642335,-1.3494302555851467,1,right
2.67,-0.5831421692507541,0.9292297554779877,-0.04005716272829353,0.9866328017306298,-0.031106678992440528,0.6565536959161219,-0.04804598155682824,-0.23856881379138944,-1.351312782144696,1,right
2.675,-0.5851249778660802,0.932199908127316,-0.041623394366678286,0.9889465885846346,-0.008303262009124906,0.6512366708436212,-0.0463909463205736,-0.24937477399467742,-1.3532840875419383,1,right
2.675,-0.5871398343528206,0.9351487172297261,-0.0431783836565928,0.991834848368598,0.015574661917593156,0.6452941152593399,-0.04480831582011783,-0.26011565831054695,-1.3553456301614417,1,right
2.679,-0.589189201871061,0.9380700365033794,-0.044720547867525884,0.9952731296535517,0.04053612113800216,0.6387284500958414,-0.043300231820395725,-0.27078870287871726,-1.357498677356151,1,right
2.68,-0.5912754213945421,0.9409576886940085,-0.04624830705663123,0.9992359444663191,0.06658898335958191,0.6315425377326074,-0.04186879119504134,-0.2813911896878371,-1.3597442998673206,1,right
2.685,-0.5934006969479384,0.9438054699254159,-0.04776008496743777,1.0036968040698202,0.09373990724947982,0.6237396790653992,-0.04051604250454722,-0.2919204442086213,-1.3620833662332834,1,right
2.6860000000000004,-0.5955670833916458,0.9466071519522831,-0.0492543098892361,1.0086282572304923,0.12199429421812587,0.6153236102658338,-0.03924398247605463,-0.30237383306730786,-1.364516537193245,1,right
2.6889999999999996,-0.5977764768289701,0.9493564824656149,-0.05072941548320068,1.0140019309841553,0.15135624045884338,0.6062984992105384,-0.0380545523806671,-0.3127487617898891,-1.3670442600925568,1,right
2.69,-0.6000306076334472,0.9520471836437179,-0.05218384159382077,1.0197885739130739,0.18182848932146475,0.596668941557474,-0.03694963430440537,-0.32304267264735753,-1.3696667632961845,1,right
2.695,-0.6023310360402645,0.9546729491893038,-0.05361603508182117,1.0259581019483266,0.21341238410112806,0.5864399564452625,-0.03593104730915378,-0.33325304263199207,-1.372384050617369,1,right
2.696,-0.6046791502074045,0.9572274401453665,-0.05502445072414734,1.032479646712851,0.2461078213266096,0.5756169817895986,-0.035000543480185164,-0.3433773815944827,-1.3751958957687351,1,right
2.699,-0.6070761666193133,0.9597042798364749,-0.056407552215474714,1.039321606421728,0.2799132046357342,0.564205869149095,-0.03415980385709403,-0.3534132305714602,-1.3781018368433902,1,right
2.7,-0.6095231326763232,0.9620970483280747,-0.057763813275433874,1.0464516993573603,0.3148253993285943,0.5522128781311872,-0.03341043424994671,-0.3633581603252469,-1.3811011708381222,1,right
2.701,-0.6120209312988808,0.9643992768072559,-0.05909171883534991,1.0538370199382088,0.35083968769250046,0.5396446703070193,-0.03275396096636524,-0.37320977007985207,-1.3841929482526623,1,right
2.705,-0.6145702873810284,0.9666044422603804,-0.06038976626716131,1.0614440974006807,0.38794972519576987,0.5265083026025421,-0.03219182651809865,-0.38296568636939277,-1.3873759678380606,1,right
2.7060000000000004,-0.6171717759212987,0.9687059628197853,-0.06165646662639842,1.069238957114572,0.42614749765063725,0.5128112201313871,-0.03172538539955288,-0.3926235618773161,-1.3906487715890608,1,right
2.71,-0.6198258316108257,0.9706971942223549,-0.06289034590145653,1.077187184553213,0.46542327944873146,0.49856124843342503,-0.03135590000736214,-0.4021810741820738,-1.3940096400540543,1,right
2.7110000000000003,-0.6225327595848054,0.9725714279124266,-0.06408994628640034,1.0852539919400979,0.5057655929757102,0.483766585081288,-0.031084536727775825,-0.41163592439221536,-1.397456587997641,1,right
2.7110000000000003,-0.6252927469838923,0.9743218913467393,-0.06525382751428604,1.0934042875221488,0.5471611693490068,0.46843579064016677,-0.03091236219525494,-0.42098583569112824,-1.400987360429505,1,right
2.714,-0.6281058749570463,0.9759417509948686,-0.0663805682900792,1.1016027470593934,0.5895949107969565,0.4525777790878203,-0.030840339721218926,-0.43022855181887754,-1.404599429009256,1,right
2.714,-0.6309721307626326,0.977424118404842,-0.06746876784525717,1.1098138864716922,0.6330498553088242,0.4362018080219554,-0.030869325892165747,-0.4393618355183001,-1.4082899888371374,1,right
2.719,-0.6338914196259174,0.9787620595831552,-0.06851704760896213,1.1180021342225719,0.6775071443594983,0.41931746910380713,-0.031000067336672717,-0.44838346697220915,-1.4120559556407333,1,right
2.721,-0.6368635759406305,0.9799486078522216,-0.06952405296419613,1.1261319023811855,0.7229459943443719,0.4019346790620242,-0.03123319766107293,-0.4572912422582565,-1.4158939633680472,1,right
2.7239999999999998,-0.6398883733115874,0.9809767802553253,-0.07048845504408577,1.1341676559529243,0.7693436720546689,0.38406367135769304,-0.03156923455389225,-0.4660829718476842,-1.4198003621975506,1,right
2.725,-0.6429655328981905,0.9818395974432059,-0.07140895253066548,1.1420739804299629,0.8166754743551289,0.3657149884866587,-0.03200857705942374,-0.474756479173878,-1.423771216976008,1,right
2.7289999999999996,-0.6460947295462866,0.9825301068219292,-0.07228427344191368,1.1498156475850185,0.8649147121945345,0.3468994748692302,-0.032551503021110366,-0.48330959929630807,-1.4278023060950975,1,right
2.73,-0.6492755952720323,0.9830414086084904,-0.07311317691560894,1.157357679531331,0.9140326990823168,0.3276282702759538,-0.03319816669570228,-0.49174017768510797,-1.4318891208180418,1,right
2.735,-0.6525077197791632,0.9833666843451866,-0.0738944550069351,1.1646654110714982,0.9639987441671514,0.30791280373676605,-0.03394859653945126,-0.5000460691512039,-1.4360268650676487,1,right
2.736,-0.6557906478435221,0.9834992273657144,-0.07462693450806582,1.1717045503573376,1.0147801500560643,0.2877647878794991,-0.034802693167902375,-0.508225136946561,-1.4402104556873279,1,right
2.738,-0.6591238735693147,0.9834324746794313,-0.07530947877689491,1.1784412378823579,1.0663422155150828,0.2671962136424025,-0.03576022749114072,-0.5162752520587606,-1.4444345231868185,1,right
2.739,-0.6625068316874969,0.9831600397383227,-0.07594098953561229,1.1848421038277663,1.1186482431948996,0.24621934530406853,-0.036820839026648594,-0.5241942927237634,-1.4486934129844993,1,right
2.7439999999999998,-0.6659388862093323,0.9826757455663183,-0.07652040857751968,1.1908743237821569,1.1716595525273588,0.22484671577290732,-0.03798403439222638,-0.5319801441803524,-1.4529811871582907,1,right
2.745,-0.6694193168590471,0.9819736577546377,-0.07704671931141827,1.19650567285416,1.2253354979408073,0.20309112207711041,-0.03924918598172707,-0.539630698689375,-1.4572916267172684,1,right
2.748,-0.6729473037872852,0.9810481168536707,-0.07751894807926232,1.2017045781963744,1.2796334925444897,0.18096562099486826,-0.04061553082665013,-0.5471438558405289,-1.4616182344062139,1,right
2.7489999999999997,-0.6765219111132157,0.9798937697186447,-0.0779361651979838,1.2064401699578364,1.334509037434186,0.15848352476347186,-0.04208216964693502,-0.5545175231690567,-1.4659542380554036,1,right
2.753,-0.6801420698619883,0.9785055993922805,-0.07829748569019947,1.2106823306811383,1.3899157567731992,0.13565839680482822,-0.04364806609458709,-0.5617496171043185,-1.4702925944880074,1,right
2.7539999999999996,-0.6838065608640065,0.976878953135396,-0.07860206967544056,1.2144017431590652,1.445805438804578,0.11250404740385822,-0.04531204619405905,-0.5688380642718252,-1.4746259939975086,1,right
2.758,-0.6875139981720968,0.9750095682547335,-0.07884912239658715,1.2175699367642883,1.5021280829521193,0.08903452927522042,-0.04707279798359915,-0.5757808031699077,-1.4789468654075884,1,right
2.759,-0.6912628135348522,0.9728935954374214,-0.07903789386251041,1.2201593322642363,1.5588319531692136,0.06526413295282046,-0.04892887136206186,-0.5825757862417944,-1.4832473817269218,1,right
2.762,-0.6950512424323196,0.9705276193881849,-0.07916767810268377,1.2221432851317737,1.6158636376959838,0.0412073819356199,-0.050878678145958325,-0.5892209823634579,-1.487519466411317,1,right
2.763,-0.6988773121214686,0.9679086766720073,-0.07923781205220984,1.2234961273607219,1.6731681153864058,0.016879027522353488,-0.05292049234180182,-0.5957143797671666,-1.4917548002455918,1,right
2.7680000000000002,-0.7027388320468237,0.9650342707719977,-0.07924767410939594,1.2241932077936084,1.7306888287681887,-0.007705956733099591,-0.055052450636697677,-0.6020539894089136,-1.4959448288502941,1,right
2.7680000000000002,-0.7066333868548735,0.9619023844504854,-0.07919668242268983,1.2242109309672877,1.7883677639991362,-0.03253238101476757,-0.05727255309850132,-0.6082378487307234,-1.5000807707820998,1,right
2.7689999999999997,-0.7105583321293073,0.9585114895377222,-0.07908429296723375,1.2235267944802641,1.846145537884484,-0.057584845755917574,-0.05957866405572142,-0.6142640256662762,-1.5041536261315074,1,right
2.773,-0.7145107928508572,0.9548605542944644,-0.0789099974773792,1.2221194248836726,1.9039614921203336,-0.08284774873926014,-0.0619685131157085,-0.6201306226811122,-1.5081541854851281,1,right
2.7739999999999996,-0.7184876644800371,0.9509490485315588,-0.07867332132265109,1.2199686120959177,1.9617537949287491,-0.10830529285731329,-0.06443969629181766,-0.6258357806949653,-1.5120730391559025,1,right
2.778,-0.7224856164710591,0.9467769467042934,-0.07837382143702012,1.2170553423288002,2.0194595500600614,-0.13394149458003943,-0.0669896772318913,-0.6313776828354523,-1.515900586649507,1,right
2.779,-0.7265010979797446,0.9423447291972497,-0.07801108440852966,1.213361829460102,2.0770149121865056,-0.15974019305336118,-0.0696157885525432,-0.6367545580286176,-1.519627046371188,1,right
2.78,-0.7305303455363236,0.9376533819814269,-0.07758472480541936,1.2088715446940395,2.1343552059985016,-0.1856850595293216,-0.07231523328633757,-0.6419646844427201,-1.5232424655842607,1,right
2.782,-0.7345693924708625,0.9327043948020048,-0.07709438378015834,1.2035692442980201,2.1914150453631103,-0.21175960670505534,-0.07508508644918252,-0.647006392801178,-1.5267367306312465,1,right
2.783,-0.7386140798666561,0.9274997580650833,-0.0765397279747364,1.1974409952526945,2.248128449855291,-0.2379471976723152,-0.07792229673547622,-0.651878069580114,-1.5300995774283315,1,right
2.787,-0.7426600687975731,0.9220419586068235,-0.07592044874773067,1.1904741987414196,2.3044289576847126,-0.2642310544031182,-0.08082368834875434,-0.6565781601054661,-1.533320602243515,1,right
2.7880000000000003,-0.7467028536060656,0.9163339745158513,-0.075236261745739,1.1826576114537168,2.360249734991584,-0.2905942658215583,-0.08378596297578891,-0.6611051715641426,-1.5363892727684587,1,right
2.792,-0.7507377759875019,0.9103792691423279,-0.07448690684313565,1.1739813646850914,2.4155236816742915,-0.3170197955369788,-0.08680570191228272,-0.6654576759432128,-1.5392949394936777,1,right
2.793,-0.7547600396492616,0.9041817843812565,-0.07367214847210107,1.1644369812131745,2.4701835339104288,-0.3434904893139763,-0.08987936834848657,-0.6696343129106336,-1.5420268473963021,1,right
2.7969999999999997,-0.7587647253135718,0.8977459332703801,-0.07279177635750461,1.154017389927714,2.5241619635314345,-0.36998908235493194,-0.09300330982324248,-0.6736337926505127,-1.5445741479492054,1,right
2.798,-0.7627468058381514,0.8910765918950687,-0.0718456066589221,1.1427169381894684,2.5773916744094847,-0.39649820647094763,-0.09617376085511961,-0.67745489866541,-1.546925911459818,1,right
2.801,-0.7667011612409571,0.884179090546449,-0.07083348350724887,1.1305314018905723,2.6298054960135104,-0.4230003972171934,-0.09938684575946495,-0.6810964905576713,-1.5490711397464536,1,right
2.802,-0.7706225934353499,0.8770592040413256,-0.0697552809085745,1.1174579931864275,2.681336474289267,-0.4494781010687513,-0.10263858166033521,-0.684557506801283,-1.550998779159446,1,right
2.8080000000000003,-0.7745058405088199,0.8697231410899907,-0.06861090497487828,1.1034953658666484,2.731917960016224,-0.47591368271307244,-0.10592488170640911,-0.6878369675152206,-1.5526977339538224,1,right
2.8080000000000003,-0.77834559041038,0.8621775325938102,-0.06740029642953634,1.0886436183300487,2.7814836947917008,-0.5022894325351426,-0.10924155850010196,-0.6909339772487512,-1.5541568800196544,1,right
2.8110000000000004,-0.7821364939489215,0.8544294187680214,-0.06612343332489753,1.0729042941261107,2.82996789479014,-0.5285875743713817,-0.11258432774921492,-0.6938477277886307,-1.5553650789756017,1,right
2.812,-0.7858731770482591,0.8464862350136955,-0.06478033390115842,1.056280380022826,2.877305332442685,-0.5547902736081827,-0.11594881215055103,-0.6965775009976134,-1.5563111926305053,1,right
2.8160000000000003,-0.7895502522530146,0.8383557965014098,-0.06337105951409125,1.038776301558247,2.923431416179308,-0.5808796457008194,-0.11933054551501608,-0.6991226716931703,-1.5569840978171963,1,right
2.8169999999999997,-0.7931623295265255,0.830046281471203,-0.06189571756442923,1.020397916030539,2.968282268372622,-0.6068377651882356,-0.12272497714379851,-0.7014827105747844,-1.5573727016019667,1,right
2.823,-0.7967040264184772,0.8215662132925063,-0.06035446437082346,1.001152502878789,3.011794801619248,-0.6326466752789478,-0.1261274764652832,-0.7036571872076646,-1.5574659568723983,1,right
2.824,-0.8001699777011466,0.8129244413600358,-0.05874750793900345,0.9810487514042963,3.0539067934910746,-0.6582883980829723,-0.1295333379424047,-0.7056457730701858,-1.5572528783054587,1,right
2.827,-0.803554844580976,0.8041301209258096,-0.05707511059094399,0.9600967457795649,3.0945569598851512,-0.6837449455643079,-0.13293778626018127,-0.7074482446718391,-1.556722558716954,1,right
2.8280000000000003,-0.8068533235913673,0.7951926919837597,-0.055337591426126674,0.9383079472897328,3.133685027097062,-0.7089983312880775,-0.13633598180319345,-0.7090644867479325,-1.5558641857925855,1,right
2.833,-0.8100601552678681,0.7861218573330226,-0.053535328589120974,0.9156951737487019,3.1712318027386295,-0.7340305830359531,-0.13972302643278192,-0.710494495536759,-1.554667059199975,1,right
2.8339999999999996,-0.8131701327012499,0.7769275599504297,-0.05166876131542973,0.8922725760298088,3.207139245616592,-0.7588237563629532,-0.14309396957373346,-0.711738382144406,-1.55312060808011,1,right
2.8360000000000003,-0.816178110055733,0.7676199598030362,-0.049738391726567424,0.8680556116484665,3.2413505346845417,-0.7833599491681212,-0.14644381462020709,-0.7127963760018513,-1.5512144089157205,1,right
2.8369999999999997,-0.8190790111249566,0.7582094102262776,-0.04774478635007761,0.8430610153318497,3.273810137175847,-0.8076213173509583,-0.14976752566106774,-0.7136688284067254,-1.5489382037549368,1,right
2.8369999999999997,-0.8218678379775158,0.7487064339771601,-0.04568857735014661,0.8173067665083689,3.304463876020598,-0.8315900916247939,-0.1530600344769896,-0.7143562160829391,-1.5462819186766381,1,right
2.841,-0.8245396797220503,0.7391216990470474,-0.04357046346610608,0.7908120536473998,3.3332589966447395,-0.8552485955575434,-0.15631624767566368,-0.7148591445852858,-1.543235682219172,1,right
2.842,-0.8270897214041961,0.7294659943044404,-0.04139121066782155,0.7635972353775076,3.360144233244506,-0.8785792649095103,-0.15953105378361057,-0.7151783513169483,-1.5397898434021242,1,right
2.845,-0.8295132530360481,0.7197502050471872,-0.03915165254835141,0.7356837983092159,3.3850698746241243,-0.9015646683370516,-0.1626993301607676,-0.7153147079859538,-1.5359349890606662,1,right
2.846,-0.831805678751398,0.7099852885610691,-0.03685269048258022,0.7070943114862589,3.40798782967938,-0.9241875295300308,-0.16581594968988309,-0.7152692224316504,-1.531661960374582,1,right
2.847,-0.8339625260747002,0.70018224978715,-0.034495293582823654,0.6778523774761637,3.4288516925717696,-0.9464307507950698,-0.1688757872403899,-0.7150430398103953,-1.5269618685638662,1,right
2.8510000000000004,-0.8359794552891183,0.6903521171879226,-0.03208049847857513,0.6479825805539525,3.4476168074702613,-0.9682774378207294,-0.17187372591584915,-0.7146374431408486,-1.5218261097397996,1,right
2.852,-0.8378522688896152,0.6805059188801755,-0.029609408941038164,0.6175104332316941,3.464240332440217,-0.9897109248649195,-0.17480466309390588,-0.7140538532087444,-1.51624637889921,1,right
2.8560000000000003,-0.8395769211062686,0.6706546590893631,-0.027083195369926635,0.5864623228297015,3.4786813018910614,-1.0107147993288597,-0.177663516267536,-0.7132938278304909,-1.5102146830483951,1,right
2.8569999999999998,-0.8411495274758055,0.6608092949869486,-0.024503094162386413,0.5548654593384352,3.4909006871503308,-1.0312729249556611,-0.18044522869618543,-0.7123590604744412,-1.503723353441934,1,right
2.861,-0.8425663744283968,0.6509807139868976,-0.021870406986710944,0.5227478250175548,3.500861455017282,-1.051369463385208,-0.18314477487521091,-0.7112513782381573,-1.4967650569203474,1,right
2.862,-0.8438239288492071,0.6411797115852244,-0.019186499982539015,0.4901381257319706,3.50852862430507,-1.07098889407066,-0.185757165831824,-0.7099727391794893,-1.489332806329257,1,right
2.865,-0.8449188475732756,0.6314169698267557,-0.016452802906132772,0.457065743934187,3.513869320406495,-1.0901160326156063,-0.18827745425551817,-0.7085252289987892,-1.4814199700013813,1,right
2.866,-0.8458479867756319,0.621703036481418,-0.013670808237104948,0.42356069320073503,3.516852827911871,-1.1087360475895631,-0.19070073947072413,-0.7069110570690815,-1.4730202802813652,1,right
2.87,-0.8466084112226734,0.6120483050104207,-0.010842070262130412,0.3896535742290772,3.5174506413009716,-1.1268344758781474,-0.19302217225918664,-0.7051325518105199,-1.4641278410720788,1,right
2.8710000000000004,-0.8471974033542423,0.602462995400383,-0.007968204150567445,0.355375532200041,3.5156365137243197,-1.144397236622843,-0.19523695953929301,-0.7031921554049785,-1.4547371343796358,1,right
2.875,-0.8476124721683539,0.5929571359406074,-0.005050885035460435,0.32075821540959654,3.5113865038823424,-1.161410643803814,-0.19734036890930393,-0.701092417846144,-1.4448430258329952,1,right
2.875,-0.8478513618822509,0.5835405460153725,-0.002091847111407587,0.28583373507263926,3.5046790210040477,-1.1778614175177304,-0.199327733061145,-0.6988359903200067,-1.434440769152583,1,right
2.88,-0.8479120603443694,0.5742228199783588,0.0009071172409410898,0.2506346262003737,3.4954948679199527,-1.1937366940010288,-0.201194454071112,-0.6964256179101801,-1.4235260095409488,1,right
2.8810000000000002,-0.8477928071704536,0.5650133121688133,0.003944158295870151,0.21519380945192151,3.4838172822170157,-1.2090240344474545,-0.20293600757352132,-0.6938641316220238,-1.412094785967025,1,right
2.885,-0.8474921015709274,0.5559211231184144,0.0070173697842752,0.17954455385989504,3.4696319754562617,-1.2237114326671164,-0.20454794682300564,-0.6911544397190923,-1.4001435323140932,1,right
2.886,-0.8470087098252194,0.5469550869843287,0.01012478965653425,0.14372044032888953,3.452927170426679,-1.2377873216326314,-0.20602590665080767,-0.6882995183649928,-1.387669077360097,1,right
2.891,-0.8463416723455347,0.5381237602270242,0.0132644008159812,0.10775532580515394,3.4336936364018094,-1.2512405789562526,-0.20736560732006465,-0.6853024015632986,-1.374668643557453,1,right
2.891,-0.8454903102633825,0.529435411529529,0.01643413184397448,0.07168330801510149,3.411924722358258,-1.2640605313401454,-0.20856285828470592,-0.6821661703877404,-1.3611398445780196,1,right
2.8939999999999997,-0.8444542314722955,0.520898012930349,0.019631857747522522,0.03553869066982003,3.3876163881081136,-1.2762369580402255,-0.2096135618561992,-0.6788939414944825,-1.3470806815873841,1,right
2.895,-0.8432333360724893,0.5125192321239704,0.022855400767324913,-0.0006440509676625108,3.3607672332900087,-1.2877600933821853,-0.21051371678198588,-0.6754888549078774,-1.3324895382111155,1,right
2.9,-0.841827821183875,0.5043064258779145,0.02610253129017135,-0.036830304255909316,3.3313785241562806,-1.298620628366512,-0.21125942173903528,-0.6719540610706994,-1.3173651741541106,1,right
2.9010000000000002,-0.8402381851107955,0.4962666345198565,0.02937096891182141,-0.07298535319316178,3.2994542180863986,-1.308809711397457,-0.21184687874552807,-0.6682927071494613,-1.3017067174326493,1,right
2.905,-0.8384652308435842,0.48840657745305394,0.03265838368653471,-0.10907441238385152,3.2650009857495217,-1.31831894816904,-0.2122723964932462,-0.664507922585039,-1.2855136551772315,1,right
2.905,-0.8365100688691806,0.4807326496599411,0.03596239757718894,-0.14506266105741586,3.228028230831779,-1.327140400739267,-0.21253239360204468,-0.6606028039135995,-1.2687858230056075,1,right
2.906,-0.834374119248375,0.4732509191552921,0.03928058609753681,-0.18091527724320589,3.1885481072365716,-1.3352665858218167,-0.21262340179353365,-0.6565803990581699,-1.2515233931781653,1,right
2.909,-0.8320591129109391,0.46596712535286183,0.04261048012569726,-0.216597472205086,3.146575533658942,-1.342690472322494,-0.21254206897380645,-0.6524436916071047,-1.233726862132016,1,right
2.91,-0.8295670921172633,0.4588866783090138,0.045949567862426814,-0.2520745252390348,3.1021282054278276,-1.3494054781457765,-0.2122851622107816,-0.6481955857710727,-1.215397038202877,1,right
2.912,-0.8269004100287802,0.4520146588006471,0.04929529690445824,-0.2873118189366676,3.055226603502812,-1.3554054662947832,-0.21184957059503437,-0.6438388925341391,-1.1965350301280273,1,right
2.917,-0.8240617293247923,0.44535581918527184,0.05264507640720863,-0.3222748750171109,3.0058940005048336,-1.3606847402859779,-0.21123230797932538,-0.6393763171979139,-1.1771422365363586,1,right
2.918,-0.8210540198084618,0.4389145849828564,0.055996279325593985,-0.35692939082907027,2.9541564636532134,-1.365238038897885,-0.21043051559532328,-0.6348104483417123,-1.1572203364157234,1,right
2.9189999999999996,-0.8178805549575509,0.4326950571146774,0.059346244739055025,-0.39124127659635266,2.9000428544703993,-1.369060530290065,-0.2094414645462639,-0.6301437481862153,-1.1367712805033985,1,right
2.923,-0.8145449073897489,0.4267010147355454,0.06269228027848663,-0.4251766933398538,2.843584825089247,-1.3721478056216387,-0.20826255817376602,-0.6253785443478174,-1.1157972835439594,1,right
2.924,-0.8110509432257031,0.4209359186019343,0.06603166467684743,-0.4587020911571042,2.784816810955499,-1.374495872467781,-0.2068913342964949,-0.6205170229705502,-1.094300817357335,1,right
2.926,-0.8074028153454055,0.41540291492374837,0.06936165046535749,-0.4917842474000203,2.7237760196917016,-1.3761011484256003,-0.20532546731782633,-0.615561223222181,-1.0722846046583066,1,right
2.927,-0.8036049555450058,0.41010483964679556,0.07267946683590527,-0.5243903044298894,2.660502415901663,-1.3769604552036214,-0.20356277019911967,-0.6105130331408006,-1.0497516135672018,1,right
2.932,-0.7996620656101041,0.4050442231099701,0.07598232268636146,-0.5564878068784718,2.595038701723199,-1.3770710133157373,-0.20160119629465534,-0.6053741868179408,-1.0267050527500357,1,right
2.9330000000000003,-0.7955791073281954,0.40022329502117654,0.07926740985914062,-0.5880447384822926,2.5274302929499814,-1.3764304374032628,-0.1994388410437341,-0.6001462629039862,-1.0031483671248604,1,right
2.9360000000000004,-0.7913612914693627,0.39564398969959635,0.08253190657826746,-0.6190295585837223,2.457725290540814,-1.3750367321875472,-0.19707394351486962,-0.5948306844213859,-0.9790852340695976,1,right
2.937,-0.7870140657726374,0.39130795153724496,0.08577298108814542,-0.6494112383909851,2.3859744473283646,-1.3728882890534633,-0.19450488779643524,-0.5894287198709016,-0.9545195600651529,1,right
2.9410000000000003,-0.7825431019857535,0.3872165406385339,0.08898779549714349,-0.6791592970876807,2.3122311297332487,-1.3699838832619258,-0.19173020422754924,-0.5839414856158803,-0.9294554777061519,1,right
2.9419999999999997,-0.7779542820171823,0.3833708386017992,0.09217350983056567,-0.7082438378807651,2.2365512742833222,-1.3663226717874333,-0.18874857046240148,-0.5783699495292818,-0.9038973430101767,1,right
2.946,-0.7732536832707356,0.3797716544116215,0.09532728629922392,-0.7366355840742014,2.158993338732181,-1.361904191774457,-0.18555881236063812,-0.5727149358879462,-0.8778497329549413,1,right
2.947,-0.7684475632437904,0.37641953041572684,0.0984462937886831,-0.7643059152536765,2.079618247565138,-1.3567283596043347,-0.18215990469583057,-0.5669771314983401,-0.8513174431714147,1,right
2.951,-0.7635423434778449,0.37331474836473705,0.10152771256967794,-0.7912269036658721,1.9984893316754009,-1.350795470562147,-0.17855097167346043,-0.5611570930377763,-0.8243054857194763,1,right
2.951,-0.7585445929524489,0.3704573354962412,0.10456873922454997,-0.8173713508737886,1.9156722619877737,-1.3441061990908842,-0.17473128724925524,-0.5552552555948657,-0.7968190868712899,1,right
2.9560000000000004,-0.7534610110109317,0.36784707064708533,0.10756659177937453,-0.8427128247675546,1.8312349768020029,-1.3366615996180378,-0.17070027523810916,-0.5492719423927165,-0.768863684826185,1,right
2.957,-0.748298409900474,0.36548349038026784,0.11051851502614764,-0.8672256970079966,1.7452476026228374,-1.32846310793757,-0.16645750920321878,-0.5432073756781647,-0.7404449272794579,1,right
2.9619999999999997,-0.7430636970017871,0.36336589511555784,0.11342178601256679,-0.8908851809780205,1.6577823682390458,-1.3195125431280528,-0.16200271211446077,-0.5370616887600805,-0.7115686687661447,1,right
2.9619999999999997,-0.7377638568163997,0.36149335525623283,0.11627371966836333,-0.9136673703145484,1.5689135118089697,-1.3098121099855873,-0.15733575576442968,-0.530834939179564,-0.6822409676994688,1,right
2.965,-0.7324059327725032,0.35986471730849723,0.11907167452805772,-0.9355492780913759,1.4787171807057575,-1.299364401947959,-0.15245665992994745,-0.5245271229946074,-0.652468083022337,1,right
2.966,-0.7269970089032142,0.35847860999406445,0.12181305850174028,-0.956508876720866,1.3872713238711654,-1.2881724044843208,-0.1473655912662466,-0.5181381901615693,-0.6222564703889426,1,right
2.97,-0.7215441914445068,0.3573334503586884,0.12449533463975745,-0.9765251386398771,1.2946555764227994,-1.2762394989225403,-0.14206286192042042,-0.5116680609955742,-0.5916127777922386,1,right
2.971,-0.7160545903949858,0.3564274498800665,0.1271160268359788,-0.9955780778427389,1.2009511362558534,-1.2635694666842086,-0.1365489278501241,-0.5051166436917146,-0.5605438405517662,1,right
2.9760000000000004,-0.710535301077476,0.3557586205780629,0.1296727254174698,-1.0136487923214421,1.1062406323768172,-1.2501664938951607,-0.13082438683290226,-0.49848385288870367,-0.5290566755750609,1,right
2.977,-0.704993385743406,0.35532478112931704,0.13216309257449196,-1.0307195074705,1.010607984703267,-1.23603517633724,-0.12488997616141384,-0.491769629230872,-0.49715847484344833,1,right
2.978,-0.6994358552613118,0.3551235629874392,0.13458486759423952,-1.046773620511176,0.9141382550607297,-1.2211805247049172,-0.11874657007173614,-0.48497395975658103,-0.46485659826595277,1,right
2.9819999999999998,-0.6938696509281659,0.35515241650965224,0.1369358718737064,-1.06179574598695,0.8169174891047221,-1.2056079701282691,-0.11239517704585625,-0.4780968987112295,-0.4321585663932807,1,right
2.983,-0.6883016264445257,0.3554086170923949,0.13921401369588263,-1.0757717623792291,0.7190325488934242,-1.1893233699217343,-0.10583693718137227,-0.47113858825520455,-0.39907205367679643,1,right
2.985,-0.6827385301084762,0.35588927132263776,0.14141729275536433,-1.0886888598893867,0.6205709358340353,-1.172333013515981,-0.09907311976830936,-0.464099278664487,-0.365604882762113,1,right
2.986,-0.6771869873010575,0.35659132315642567,0.14354380441751788,-1.1005355894302553,0.5216206037237169,-1.1546436285281698,-0.0921051211178282,-0.45697934785104777,-0.3317650199563432,1,right
2.987,-0.6716534833451387,0.3575115601386227,0.145591743693697,-1.1113019127866959,0.42226976196633126,-1.136262386923105,-0.08493446263449175,-0.44977932015752775,-0.29756057181280565,1,right
2.99,-0.6661443468150895,0.35864661967712386,0.14755940891522784,-1.1209792534993301,0.3226066708556656,-1.1171969112120945,-0.07756278911266276,-0.4424998844059807,-0.26299978273705993,1,right
2.991,-0.6606657333592955,0.3599929953824943,0.14944520509017392,-1.1295605472979544,0.22271943407444142,-1.0974552806277418,-0.06999186723701799,-0.4351419111802259,-0.2280910335170767,1,right
2.995,-0.655223610085491,0.3615470434821353,0.15124764692559453,-1.1370402905055605,0.12269579536838862,-1.0770460372072461,-0.062223584266583296,-0.4277064693211286,-0.19284284067929938,1,right
2.9960000000000004,-0.6498237405606863,0.36330498931670585,0.1529653614928648,-1.1434145852332542,0.02262294454263889,-1.0559781917184878,-0.05425994688111669,-0.420194841613899,-0.1572638565713314,1,right
3.0,-0.6444716704853007,0.36526293392393955,0.1545970905096518,-1.1486811809077186,-0.07741266533297322,-1.034261229367812,-0.04610308016809407,-0.4126085396462732,-0.12136287007098466,1,right
3.0,-0.6391727141033058,0.36741686071061347,0.15614169221400206,-1.1528395120722004,-0.17732548943463,-1.0119051152301688,-0.03775522672798573,-0.40494931781622007,-0.0851488078204483,1,right
3.0060000000000002,-0.6339319414073381,0.3697626422091558,0.15759814281422285,-1.1558907324793253,-0.27703105169856773,-0.9889202993411088,-0.02921874587495087,-0.39721918646759774,-0.048630735883388315,1,right
3.0060000000000002,-0.6287541661955452,0.37229604691323254,0.15896553751146422,-1.157837745490873,-0.37644609462562284,-0.965317721388267,-0.020496112909522423,-0.3894204241319702,-0.011817861721863072,1,right
3.01,-0.6236439350362927,0.37501274618622527,0.16024309110575177,-1.1586852307964584,-0.4754887186631278,-0.941108814938135,-0.011589918439306096,-0.38155558885458535,0.025280463610959078,1,right
3.011,-0.6186055171946694,0.37790832123564244,0.16143013820450072,-1.158439667459889,-0.5740785114504052,-0.9163055111321163,-0.002502867723175934,-0.37362752858231335,0.06265474316716685,1,right
3.014,-0.6136428955683332,0.38097827014344865,0.1625261330538886,-1.1571093532988064,-0.672136667213276,-0.8909202417840854,0.006762219986085781,-0.36563939059114586,0.10029533179529128,1,right
3.015,-0.6087597586697875,0.38421801493700225,0.16353064901262288,-1.1547044206000563,-0.7695860965919326,-0.8649659418099297,0.016202412126283632,-0.3575946299306702,0.1381924339328623,1,right
3.0189999999999997,-0.6039594936797704,0.3876229086792401,0.16444337768932743,-1.1512368481701007,-0.8663515271852292,-0.8384560509178494,0.02581466356353776,-0.3494970168627489,0.17633610160768204,1,right
3.02,-0.5992451805844966,0.3911882425512569,0.16526412776905372,-1.1467204697166737,-0.962359595092918,-0.8114045144865157,0.03559581740985594,-0.341350643271465,0.21471623275592566,1,right
3.0239999999999996,-0.5946195873992461,0.39490925289615114,0.16599282355776399,-1.1411709785547965,-1.0575389277356144,-0.7838257835565592,0.0455426059476617,-0.33315992802123,0.25332256996591557,1,right
3.025,-0.590085166471806,0.39878112819054873,0.16662950327313658,-1.134605928627221,-1.1518202182303172,-0.75573481385926,0.055651651688885,-0.32492962123980196,0.2921446997571251,1,right
3.028,-0.585644051851756,0.40279901590957995,0.1671743171064052,-1.1270447318263603,-1.245136291597133,-0.727147063804762,0.0659194685967072,-0.31666480750281983,0.33117205250464427,1,right
3.029,-0.581298057707241,0.4069580292519021,0.1676275250761236,-1.1185086516018041,-1.33742216307048,-0.698078491350614,0.0763424634985275,-0.3083709078963357,0.3703939031199918,1,right
3.035,-0.5770486777697096,0.4112532536942082,0.16798949469248126,-1.1090207928345968,-1.4286150887854754,-0.6685455496699741,0.08691693771918375,-0.3000536809337113,0.4097993725997758,1,right
3.035,-0.5728970857870779,0.4156797533503933,0.1682606984492894,-1.0986060879566077,-1.518654609107435,-0.6385651815373897,0.09763908896391703,-0.2917192223031487,0.449377430554295,1,right
3.04,-0.5688441369660012,0.4202325771183399,0.16844171115884135,-1.0872912792905185,-1.607482584869464,-0.6081548123486764,0.10850501348101389,-0.2833739634220407,0.4891168988287319,1,right
3.0410000000000004,-0.5648903703845966,0.42490676460495425,0.16853320714318853,-1.0751048975832247,-1.6950432267799795,-0.577332341690098,0.11951070853449634,-0.2750246687742618,0.5290064563301143,1,right
3.045,-0.5610360123574284,0.4296973518262361,0.16853595729454376,-1.0620772367027933,-1.781283118258703,-0.5461161333707555,0.1306520752052101,-0.26667843201384017,0.569034645127738,1,right
3.0460000000000003,-0.5572809807347072,0.43459937668371895,0.16845082601586328,-1.0482403244665304,-1.8661512319561795,-0.5145250038308643,0.14192492147686236,-0.25834267085527474,0.6091898776652951,1,right
3.0469999999999997,-0.5536248901179461,0.4396078842218659,0.16827876804925612,-1.033627889565218,-1.9495989402082463,-0.48257820883741503,0.15332496545197882,-0.2500251208370819,0.6494604445095523,1,right
3.049,-0.5500670579739413,0.4447179316728195,0.16802082519661582,-1.0182753245461642,-2.031580019673086,-0.45029542837758113,0.16484783848092657,-0.24173382808201885,0.6898345218309092,1,right
3.049,-0.5466065116262049,0.4499245932957763,0.16767812293520812,-1.0022196448153862,-2.1120506503945644,-0.4176967496591625,0.17648908804973948,-0.23347714114060877,0.7303001780414409,1,right
3.054,-0.5432419960983425,0.455222965019529,0.16725186693026745,-0.9854994436409671,-2.1909694095504615,-0.3848026481689626,0.18824418038483096,-0.22526370193831402,0.770845379430197,1,right
3.055,-0.5399719827804303,0.4606081688986041,0.16674333944604064,-0.9681548432571876,-2.268297260234971,-0.3516339669521728,0.20010850279524386,-0.21710243580992625,0.8114579948657347,1,right
3.055,-0.5367946788880359,0.466075357394919,0.16615389565559352,-0.9502274423824608,-2.3439975357914133,-0.31821189465859184,0.21207736578587047,-0.2090025405974729,0.852125799682103,1,right
3.0580000000000003,-0.5337080376794511,0.47161971749737497,0.16548495984853526,-0.9317602605818854,-2.418035920301619,-0.2845579431138031,0.22414600497540105,-0.2009734747880644,0.8928364788647308,1,right
3.0589999999999997,-0.5307097693865835,0.4772364746908716,0.16473802153638312,-0.9127976797837477,-2.4903804257389233,-0.25069392495949955,0.23630958285307477,-0.193024944668257,0.9335776296528621,1,right
3.063,-0.5277973528024645,0.4829208967839887,0.16391463145813737,-0.893385383042192,-2.561001366116112,-0.21664193152276273,0.2485631904086057,-0.18516689047168242,0.9743367636753373,1,right
3.0639999999999996,-0.5249680474580745,0.48866829760218067,0.16301639749238428,-0.8735702905170424,-2.6298713288599287,-0.18242431086029298,0.26090184866994304,-0.1774094714968997,1.0151013087366465,1,right
3.068,-0.5222189063137344,0.4944740405515898,0.16204498048605234,-0.8534004926164003,-2.6969651436199134,-0.14806364588035503,0.2733205101837989,-0.16976305017265733,1.055858610370266,1,right
3.069,-0.5195467888854396,0.5003335420573682,0.16100209001422477,-0.8329251802463515,-2.762259848714383,-0.1135827324446657,0.28581406047413255,-0.16223817504801263,1.0965959332763406,1,right
3.072,-0.5169483747241178,0.5062422748796122,0.15988948009004458,-0.8121945721109634,-2.825734655411346,-0.07900455735197426,0.298377319514028,-0.15484556268504646,1.13730046276079,1,right
3.073,-0.514420177165148,0.5121957713092694,0.1587089448469403,-0.7912598390047351,-2.8873709102370464,-0.04435227610467498,0.31100504324662737,-0.14759607843222916,1.1779593062928975,1,right
3.0789999999999997,-0.5119585572665664,0.5181896262445783,0.15746231421562187,-0.7701730250387899,-2.9471520554996635,-0.00964919035944729,0.32369192519100054,-0.14050071605684417,1.2185594952983796,1,right
3.08,-0.5095597378575516,0.5242195001455838,0.1561514496163365,-0.7489869657413655,-3.005063588210475,0.02508127503736058,0.33643259816903115,-0.13357057621525587,1.2590879873048457,1,right
3.082,-0.5072198176231467,0.5302811218612643,0.15477823968412038,-0.7277552029725747,-3.0610930175795126,0.05981559552910101,0.34922163618958274,-0.12681684374021923,1.2995316685564149,1,right
3.083,-0.5049347851559023,0.5363702913213153,0.15334459604202097,-0.7065318965929732,-3.1152298212574148,0.09453017094259178,0.3620535565263796,-0.12025076372487216,1.3398773572141032,1,right
3.088,-0.5027005329108496,0.5424828820830832,0.15185244913568796,-0.6853717328251884,-3.167465400489809,0.12920135029599686,0.3749228220261917,-0.1138836163835261,1.3801118072583742,1,right
3.089,-0.5005128710069311,0.548614843724629,0.15030374414294306,-0.6643298292477328,-3.2177930343451657,0.16380545742055494,0.38782384368405065,-0.10772669066987779,1.4202217132100137,1,right
3.092,-0.49836754082411006,0.5547622040769026,0.14870043697303034,-0.64346163636015,-3.266207833171626,0.19831881749583027,0.4007509835223485,-0.10179125663380324,1.460193715785199,1,right
3.093,-0.4962602283502418,0.5609210712894781,0.1470444903713698,-0.6228228356588246,-3.3127066914328367,0.23271778459803624,0.4136985578107765,-0.09608853649846777,1.5000144086003162,1,right
3.097,-0.49418657723635134,0.5670876357248784,0.14533787014641172,-0.6024692341631291,-3.3572882400673723,0.26697877036078854,0.4266608406641527,-0.09062967444008878,1.5396703460417256,1,right
3.0980000000000003,-0.4921422015237658,0.5732581716776134,0.1435825415347594,-0.5824566553320771,-3.3999527985108142,0.30107827384738517,0.4396320680552632,-0.08542570505332453,1.5791480524152721,1,right
3.102,-0.4901226980117818,0.5794290389163894,0.14178046571867767,-0.5628408263123141,-3.440702326514067,0.33499291273338133,0.45260644227989855,-0.08048752048593064,1.6184340324899067,1,right
3.103,-0.48812365824010057,0.5855966840505887,0.13993359650789416,-0.5436772614590957,-3.4795403758859758,0.3686994558978312,0.4655781369113116,-0.07582583622702617,1.6575147835493136,1,right
3.108,-0.4861406800648751,0.5917576417238384,0.13804387719689057,-0.5250211420728818,-3.5164720422828193,0.40217485752110554,0.4785413022813459,-0.0714511555340431,1.6963768090649167,1,right
3.109,-0.4841693788100743,0.5979085356382005,0.13611323760903787,-0.5069271922953165,-3.5515039171617477,0.4353962927866617,0.49149007152549434,-0.06737373248419616,1.7350066341030999,1,right
3.113,-0.48220539797815554,0.6040460794136862,0.13414359133799875,-0.48944955110965893,-3.584644040009749,0.4683411952835478,0.5044185672056283,-0.06360353369363836,1.7733908225137176,1,right
3.114,-0.4802444195068974,0.6101670772907303,0.13213683319408775,-0.4726416403921901,-3.6159018509542444,0.500987296205756,0.5173209084065548,-0.06015019903096407,1.8115159956205371,1,right
3.115,-0.47828217356235336,0.6162684246867041,0.13009483685993609,-0.4565560289627333,-3.6452881438559803,0.5333126654438145,0.5301912179909154,-0.05702300216138513,1.849368851547128,1,right
3.1180000000000003,-0.47631444786082894,0.6223471086187456,0.12801945275758084,-0.4412442925841938,-3.6728150199794283,0.5652957546632115,0.5430236295793226,-0.05423081204146001,1.8869361839852123,1,right
3.1189999999999998,-0.47433709651579364,0.6284002080037245,0.12591250612800034,-0.42675686986294636,-3.6984958423305216,0.5969154424633863,0.5558122939401138,-0.05178205620249298,1.9242048995375345,1,right
3.1239999999999997,-0.47234604840844374,0.6344248938445715,0.12377579532228764,-0.4131429142115997,-3.7223451907312057,0.6281510816091384,0.5685513846846137,-0.049684686152845645,1.961162033353002,1,right
3.125,-0.4703373150821349,0.6404184293122914,0.12161109030047916,-0.40045014307601956,-3.7443788176201873,0.6589825478204786,0.5812351032812453,-0.04794614494769245,1.9977947630968236,1,right
3.125,-0.4683069981607048,0.6463781697333585,0.11942013133115476,-0.3887246874995012,-3.7646136044293264,0.6893902886972026,0.5938576834252149,-0.04657333691920252,2.034090421362683,1,right
3.1260000000000003,-0.4662512962902097,0.652301562490493,0.11720462788334944,-0.37801094613762015,-3.7830675183051103,0.7193553708485194,0.606413394800356,-0.04557259956113874,2.070036506633084,1,right
3.127,-0.46416651160416145,0.6581861468412092,0.11496625770126312,-0.3683514468018014,-3.799759569014191,0.7488595238017521,0.6188965462695539,-0.04494967756289449,2.105620692893083,1,right
3.134,-0.46204905571306426,0.664029553655257,0.11270666605070631,-0.3597867167437768,-3.814709766001422,0.7778851801716161,0.6313014885300035,-0.04470969898903805,2.140830838001642,1,right
3.134,-0.45989545521814534,0.6698295050704014,0.11042746512435425,-0.3523551618578746,-3.82793907563849,0.8064155120751489,0.6436226162693544,-0.04485715360150212,2.1756549909238427,1,right
3.137,-0.45770235674719184,0.6755838140654973,0.10813023359165728,-0.34609295477347607,-3.839469378711135,0.8344344638770144,0.6558543698585934,-0.045395873322639994,2.2100813979261598,1,right
3.138,-0.45546653150958294,0.681290383949514,0.10581651627928952,-0.34103393181312086,-3.849323428187959,0.8619267813485245,0.6679912366172875,-0.04632901483846879,2.2440985078359197,1,right
3.141,-0.45318487936860447,0.6869472077642166,0.10348782396950496,-0.33720949879498685,-3.8575248073088604,0.8888780373223062,0.6800277516865721,-0.04765904434253137,2.277694976464951,1,right
3.141,-0.4508544324313326,0.6925523675968354,0.1011456333066898,-0.3346485456618304,-3.8640978880262855,0.9152746539230706,0.6919584985450085,-0.04938772442193157,2.3108596702963093,1,right
3.1460000000000004,-0.44847235815994985,0.698104033797907,0.09879138680602871,-0.33337736992191946,-3.869067789827638,0.9411039214534331,0.7037781092021682,-0.05151610308822846,2.3435816695317695,1,right
3.147,-0.4460359620133325,0.7036004640980706,0.09642649296199726,-0.33341960889103667,-3.8724603389624734,0.9663540140121761,0.7154812641045087,-0.05404450495701454,2.3758502705965756,1,right
3.1510000000000002,-0.44354268963336485,0.7090400026157033,0.09405232645890566,-0.3347961807282507,-3.8743020280934015,0.9910140019207605,0.7270626917878006,-0.05697252458114587,2.4076549881966987,1,right
3.1510000000000002,-0.440990128596286,0.7144210787467503,0.09167022849038804,-0.33752523426185627,-3.874619976385048,1.015073861032259,0.7385171683100537,-0.06029902194373933,2.4389855570225802,1,right
3.157,-0.4383760097549049,0.7197422059308184,0.08928150719691869,-0.3416221076056487,-3.8734418900408576,1.0385244789952248,0.7498395164985473,-0.0640221201181994,2.4698319331920366,1,right
3.157,-0.4356982082017796,0.725001980292532,0.08688743822846094,-0.347099295569526,-3.8707960232931033,1.061357658543318,0.7610246050442251,-0.06813920510368347,2.500184295523674,1,right
3.162,-0.43295474388635413,0.7301990791617154,0.08448926543395996,-0.3539664258722926,-3.866711139847065,1.083566117879782,0.7720673474763493,-0.07264692784555787,2.5300330467307903,1,right
3.162,-0.430143781920714,0.7353322594801072,0.08208820167240402,-0.3622302441684601,-3.861216474776065,1.1051434882241267,0.7829627010499284,-0.0775412084515343,2.559368814624362,1,right
3.165,-0.4272636326088067,0.7404003561082005,0.07968542973306764,-0.37189460790479983,-3.8543416968598065,1.1260843085865913,0.79370566557804,-0.08281724261530679,2.5881824534122826,1,right
3.1660000000000004,-0.4243127512330135,0.7454022800529267,0.07728210334580468,-0.38296048902639035,-3.846116871354358,1.1463840178341744,0.8042912822407602,-0.08846951026063006,2.61646504518059,1,right
3.1710000000000003,-0.42128973763036914,0.7503370166420734,0.07487934825685175,-0.3954259855559072,-3.836572423178052,1.1660389441102044,0.8147146324019885,-0.0944917864198886,2.644207901640925,1,right
3.1710000000000003,-0.4181933355883277,0.7552036236736038,0.07247826334293925,-0.40928634207391984,-3.8257391004936214,1.1850462916675983,0.824970836465019,-0.1008771543623014,2.671402566226983,1,right
3.176,-0.4150224320867998,0.7600012295688289,0.07007992173618804,-0.42453397913198215,-3.8136479386630056,1.2034041251741168,0.8350550527972582,-0.1076180209879864,2.6980408166211913,1,right
3.177,-0.4117760564097411,0.7647290315586164,0.06768537193337021,-0.44115853163431534,-3.8003302245474755,1.2211113515460732,0.8449624767540195,-0.1147061345051701,2.72411466779128,1,right
3.18,-0.40845337914624874,0.7693862939311255,0.06529563886605753,-0.45914689622788396,-3.785817461122022,1.2381676993650952,0.8546883398308507,-0.12213260440886947,2.7496163756148664,1,right
3.181,-0.4050537110981689,0.7739723463670312,0.062911724912808,-0.4784832877446459,-3.770141332369346,1.2545736959306721,0.8642279089696392,-0.12988792373347774,2.7745384411388008,1,right
3.182,-0.4015765021079683,0.7784865823838584,0.060534610839470836,-0.4991493047437057,-3.7533336684152534,1.270330641999358,0.8735764860246733,-0.13796199331810524,2.798873615369696,1,right
3.185,-0.39802133981625565,0.7829284579058587,0.058165256658063054,-0.521124004205013,-3.7354264108638358,1.2854405842596286,0.8827294073609091,-0.1463441474022591,2.822614904222675,1,right
3.1860000000000004,-0.3943879483544213,0.7872974899697661,0.055804602398192585,-0.5443839854301143,-3.716451578287465,1.2999062855895251,0.8916820435375937,-0.1550231796358125,2.8457555731050053,1,right
3.19,-0.3906761869758836,0.7915932555687442,0.05345356878727161,-0.568903483209282,-3.6964412318233992,1.3137311931423559,0.9004297990484096,-0.16398736882270523,2.868289150758307,1,right
3.1910000000000003,-0.3868860486273083,0.7958153906279685,0.05111305783680465,-0.5946544701237518,-3.6754274408603096,1.3269194043458936,0.9089681121221524,-0.17322450414093873,2.8902094322490535,1,right
3.1910000000000003,-0.38301765845660507,0.7999635890992924,0.04878395333235734,-0.6216067668837644,-3.6534422489684433,1.3394756311087965,0.9172924546059363,-0.18272190981685824,2.911510481144076,1,right
3.195,-0.3790712722483379,0.8040376021601474,0.046467121225041305,-0.6497281578576137,-3.6305176405364055,1.3514051629043862,0.9253983319560495,-0.19246646927944694,2.932186630935798,1,right
3.195,-0.3750472747706132,0.8080372374977005,0.04416340992421211,-0.6789845079787163,-3.60668550874811,1.3627138296102188,0.9332812833609764,-0.2024446488211412,2.95223248578015,1,right
3.2,-0.3709461780099085,0.8119623586496559,0.04187365049672544,-0.709339878192883,-3.581977625357205,1.3734079647699455,0.9409368820204937,-0.21264252079242116,2.971642920608352,1,right
3.201,-0.36676861926175375,0.8158128843627469,0.0395986567870909,-0.7407566383604381,-3.5564256124013447,1.3834943695639017,0.9483607356041124,-0.22304578635814257,2.9904130806719436,1,right
3.205,-0.3625153590379593,0.8195887879249474,0.03733922548260086,-0.7731955775028069,-3.5300609158225984,1.3929802775629576,0.9555484869115037,-0.23363979784424274,3.008538380578639,1,right
3.205,-0.35818727874768647,0.8232900964287745,0.03509613615647026,-0.8066160114806946,-3.502914780923093,1.4018733202963627,0.9624958147568942,-0.24440958070408736,3.0260145028747596,1,right
3.21,-0.3537853781112227,0.8269168899298008,0.03287015132970596,-0.8409758881940241,-3.475018229582547,1.4101814936625783,0.9691984350987429,-0.2553398551343111,3.042837396228151,1,right
3.21,-0.34931077227180435,0.830469300475185,0.030662016597113966,-0.8762318903967329,-3.446402039162026,1.4179131252103636,0.9756521024353446,-0.26641505737055415,3.05900327326365,1,right
3.214,-0.34476468858101916,0.8339475109894263,0.028472460861836545,-0.9123395362223484,-3.4170967230160043,1.4250768423156792,0.981852611486304,-0.2776193606940004,3.074508608101293,1,right
3.215,-0.34014846304498586,0.8373517540169512,0.026302196715103542,-0.9492532775189526,-3.387132512532663,1.4316815412782942,0.987795799179128,-0.28893669618008344,3.0893501336455875,1,right
3.219,-0.33546353643029314,0.840682310332861,0.02415192098522189,-0.9869265960947232,-3.3565393406202726,1.4377363573603257,0.9934775469594662,-0.30035077322114256,3.103524838672281,1,right
3.22,-0.330711450040669,0.8439395074435335,0.022022315464017585,-1.0253120979776802,-3.3253468265555517,1.443250635787309,0.998893783442805,-0.31184509985518066,3.1170299647571564,1,right
3.2239999999999998,-0.32589384118672476,0.8471237180060857,0.019914047800758054,-1.06436160579558,-3.2935842621079776,1.4482339037307939,1.0040404874246764,-0.32340300293320123,3.1298630030894894,1,right
3.225,-0.32101243837999105,0.8502353581986841,0.017827772534909005,-1.104026249384084,-3.261280598852228,1.452695843289879,1.0089136912656973,-0.3350076481578783,3.142021691210878,1,right
3.2289999999999996,-0.3160690562888975,0.8532748860728666,0.015764132223042977,-1.1442565547333639,-3.2284644365792183,1.4566462654875438,1.0135094846669888,-0.3466420600265435,3.1535040097182407,1,right
3.23,-0.31106559049979027,0.8562427999156718,0.013723758604276383,-1.1850025313852215,-3.1951640127145366,1.4600950852961192,1.0178240188507541,-0.3582891417116569,3.1643081789678376,1,right
3.235,-0.3060040121298028,0.8591396366442672,0.011707273743607345,-1.2262137583945614,-3.1614071926515535,1.4630522977047362,1.0218535111600024,-0.36993169491206157,3.1744326558152447,1,right
3.236,-0.3008863623386397,0.8619659702493764,0.009715291092703759,-1.2678394689706787,-3.127221460904981,1.4655279548401152,1.0255942500906159,-0.38155243970840874,3.18387613042426,1,right
3.239,-0.29571474678417153,0.864722410296359,0.0077484164119144255,-1.309828633915306,-3.092633912989291,1.4675321441506322,1.0290426007681455,-0.3931340344561739,3.1926375231757764,1,right
3.239,-0.2904913300642754,0.8674096004851789,0.005807248505217708,-1.352130043975701,-3.057671247925067,1.469074967662177,1.0321950108809035,-0.40465909574967435,3.2007159817057036,1,right
3.245,-0.28521833018375065,0.8700282172646766,0.0038923797320792484,-1.3946923912322413,-3.022359761275145,1.4701665223129359,1.035048017080089,-0.41611021849043256,3.208110878099065,1,right
3.2460000000000004,-0.27989801307874995,0.8725789684930866,0.002004396277108286,-1.4374643496410429,-2.986725338611243,1.4708168813728777,1.0375982518568483,-0.42746999609311964,3.214821806265435,1,right
3.2489999999999997,-0.27453268722262436,0.8750625921341336,0.0001438781768569437,-1.4803946548530094,-2.9507934493106958,1.4710360769523994,1.0398424508939323,-0.4387210408475301,3.220848579512163,1,right
3.2489999999999997,-0.26912469832778046,0.8774798549764369,-0.0016886008838005256,-1.5234321834314752,-2.9145891405819073,1.4708340836032858,1.041777460831844,-0.44984600438172984,3.2261912282960346,1,right
3.25,-0.2636764241494795,0.8798315513646923,-0.003492473988548587,-1.566526031591201,-2.8781370316162094,1.470220803013877,1.0434002472860417,-0.46082759803967943,3.2308499980711907,1,right
3.2539999999999996,-0.2581902693917552,0.8821185019318085,-0.005267181600032337,-1.6096255935819415,-2.841461307762958,1.4692060497990904,1.04470790289398,-0.4716486129132276,3.234825347115317,1,right
3.255,-0.2526686607133951,0.8843415523183298,-0.007012172337003538,-1.6526806398401102,-2.804585714623916,1.467799538384742,1.0456976552267894,-0.4822919393411027,3.2381179442480064,1,right
3.258,-0.24711404183014332,0.8865015718610074,-0.008726903882517989,-1.6956413950322289,-2.767533551962258,1.4660108709844246,1.04636687450195,-0.4927405858186961,3.240728666414066,1,right
3.259,-0.24152886870535575,0.8885994522308666,-0.010410843983201853,-1.7384586160327151,-2.7303276673552683,1.4638495266626232,1.0467130810893301,-0.5029776973350665,3.24265859613645,1,right
3.26,-0.23591560481671564,0.8906361060040845,-0.012063471502531058,-1.781083669472652,-2.6929904496911488,1.4613248514594999,1.046733952813423,-0.5129865731677041,3.243909018848267,1,right
3.263,-0.2302767164842522,0.8926124651552063,-0.013684277498957325,-1.8234686077655347,-2.655543822919287,1.4584460495208584,1.0464273320537032,-0.5227506841650353,3.2444814201113643,1,right
3.264,-0.2246146682460239,0.8945294794684944,-0.015272766306879614,-1.8655662421097945,-2.6180092406348177,1.4552221751585994,1.0457912326440895,-0.532253689546038,3.244377482727042,1,right
3.2680000000000002,-0.2189319182717297,0.8963881148662954,-0.016828456601628572,-1.907330211373124,-2.5804076819060047,1.4516621257830677,1.04482384657157,-0.5414794532456882,3.2435990837424833,1,right
3.2689999999999997,-0.21323091380976944,0.898189351654645,-0.018350882432085252,-1.948715046493339,-2.542759648443218,1.4477746356784833,1.0435235504731046,-0.5504120598342499,3.24214829135456,1,right
3.273,-0.2075140866694838,0.8999341826901305,-0.01983959421026645,-1.989676230435452,-2.5050851630360995,1.4435682706087958,1.041888911928974,-0.5590358300376738,3.2400273617107076,1,right
3.2739999999999996,-0.2017838487484856,0.9016236114785996,-0.021294159655611707,-2.0301702538248434,-2.4674037691509527,1.439051423243752,1.0399186955497919,-0.567335335885574,3.2372387356046493,1,right
3.278,-0.1960425876256431,0.9032586502227862,-0.022714164699466723,-2.070154666375314,-2.429734531580238,1.4342323093940246,1.0376118688534424,-0.5752954155124094,3.2337850350627924,1,right
3.279,-0.1902926622517251,0.9048403178414348,-0.024099214359945983,-2.109588124229603,-2.3920960380359917,1.429118965043342,1.0349676079272447,-0.5829011876366103,3.229669059815222,1,right
3.282,-0.1845363987785403,0.9063696379871846,-0.025448933600024353,-2.148430433328603,-2.3545064015789623,1.4237192441646578,1.0319853028696815,-0.5901380657414611,3.2248937836432825,1,right
3.283,-0.1787760865704469,0.907847637093595,-0.02676296818502399,-2.186642588924052,-2.316983263775283,1.4180408173065298,1.0286645630050626,-0.5969917719805732,3.21946235059383,1,right
3.2889999999999997,-0.17301397443936595,0.90927534248326,-0.028040985559656246,-2.2241868113478938,-2.2795437984726044,1.4120911709350439,1.0250052218635288,-0.6034483508297653,3.213378071048338,1,right
3.29,-0.167252267139424,0.9106537805698139,-0.029282675766907556,-2.261026578149807,-2.242204716087733,1.4058776075157813,1.021007341917824,-0.6094941825061116,3.206644417633148,1,right
3.292,-0.1614931221529984,0.9119839751869102,-0.0304877524295241,-2.2971266527125995,-2.2049822682980205,1.3994072463195353,1.016671219067298,-0.6151159961738152,3.1992650209552624,1,right
3.293,-0.15573864679580657,0.9132669460767909,-0.03165595381007822,-2.332453109453238,-2.1678922530289833,1.3926870249347003,1.0119973868586263,-0.6203008829554262,3.1912436651462173,1,right
3.298,-0.14999089566373733,0.9145037075701024,-0.03278704395883434,-2.36697335571527,-2.1309500196309323,1.3857237014685013,1.0069866204317648,-0.6250363087657445,3.1825842831946933,1,right
3.298,-0.14425186843881355,0.9156952674872768,-0.03388081395037545,-2.4006561504562702,-2.094170474137706,1.378523857418486,1.0016399401786822,-0.6293101269845278,3.173290952046676,1,right
3.302,-0.13852350806671102,0.9168426262896336,-0.03493708320061673,-2.433471619831728,-2.0575680845009927,1.3710939011949943,0.9959586151014466,-0.6331105909828755,3.1633678874501308,1,right
3.303,-0.13280769931401404,0.9179467765050092,-0.035955700846443915,-2.4653912697744707,-2.0211568856941504,1.3634400722746118,0.9899441658552713,-0.6364263665168614,3.1528194385193222,1,right
3.307,-0.12710626770931008,0.9190087024481455,-0.036936547161995646,-2.496387995666324,-1.9849504845799,1.3555684459639399,0.9835983674611656,-0.6392465440006726,3.141650081992091,1,right
3.3080000000000003,-0.12142097886698645,0.9200293802507803,-0.03787953497990436,-2.5264360891962196,-1.9489620644367696,1.347484938752349,0.9769232516718717,-0.6415606506701445,3.1298644161515954,1,right
3.313,-0.11575353818665889,0.9210097782107932,-0.03878461108361011,-2.5555112424963813,-1.913204389039717,1.3391953142317452,0.9699211089738146,-0.6433586626461938,3.117467154382217,1,right
3.315,-0.11010559091624633,0.9219508574632899,-0.03965175753804186,-2.5835905496455887,-1.8776898061909553,1.330705189560745,0.9625944902068384,-0.6446310169062309,3.1044631183275664,1,right
3.318,-0.10447872256267368,0.9228535729692464,-0.04048099292948762,-2.61065250562578,-1.8424302505976173,1.322020042450052,0.9549462077890989,-0.645368623163245,3.090857230640845,1,right
3.319,-0.09887445963044571,0.9237188748116103,-0.0412723734908513,-2.6366770028154694,-1.807437245993566,1.3131452186452324,0.9469793365662413,-0.645562875616125,3.0766545074367073,1,right
3.32,-0.09329427066566313,0.924547709785695,-0.04202599409590806,-2.6616453251006003,-1.7727219064033515,1.3040859398825129,0.938697214361923,-0.645205664470895,3.0618600507691025,1,right
3.325,-0.08773956758101095,0.9253410232670912,-0.04274198911352596,-2.6855401396805325,-1.7382949364470501,1.2948473122926585,0.9301034423385132,-0.6442893870963535,3.046479041578454,1,right
3.325,-0.08221170723426195,0.9260997613332208,-0.043420533116555006,-2.7083454866438825,-1.704166630585481,1.285434335227451,0.9212018852431919,-0.6428069587107024,3.030516733429226,1,right
3.326,-0.07671199322942855,0.9268248731060169,-0.04406184144071288,-2.730046766385908,-1.6703468712060994,1.2758519104827533,0.9119966715549014,-0.6407518225565385,3.0139784471401105,1,right
3.327,-0.07124167790776731,0.927517313276532,-0.0446661705898327,-2.7506307249417214,-1.6368451255015601,1.2661048518843596,0.9024921935140114,-0.6381179595546302,2.9968695662867955,1,right
3.3280000000000003,-0.0658019644960387,0.9281780447702275,-0.045233818486074266,-2.770085437334854,-1.6036704413482146,1.2561978951660044,0.8926931070091364,-0.6348998974322072,2.979195533531451,1,right
3.332,-0.06039400938023701,0.9288080415145114,-0.045765124565523105,-2.788400289088582,-1.570831442850583,1.246135708002999,0.8826043312946679,-0.6310927193198449,2.960961847731454,1,right
3.333,-0.055018924471137085,0.929408291271931,-0.046260469720290076,-2.805565956072615,-1.5383363264731518,1.2359229000281684,0.87223104851173,-0.6266920718093671,2.942174061778206,1,right
3.338,-0.04967777962219445,0.9299797984985481,-0.046720276088200036,-2.821574382826088,-1.5061928584274045,1.2255640326926294,0.8615787029844181,-0.6216941724635113,2.9228377811152777,1,right
3.34,-0.044371605053949034,0.9305235871825711,-0.04714500669059107,-2.8364187594435206,-1.4744083735250315,1.2150636288989118,0.8506530002623487,-0.6160958167664082,2.90295866288352,1,right
3.342,-0.03910139373567204,0.9310407036195935,-0.04753516491696395,-2.8500934970786886,-1.442989775454866,1.2044261823698261,0.8394599058797336,-0.6098943845022288,2.882542415639179,1,right
3.343,-0.03386810367472866,0.931532219086566,-0.047891293851622996,-2.862594202112402,-1.4119435383912222,1.1936561667233283,0.8280056438003885,-0.6030878455476316,2.8615947995894744,1,right
3.347,-0.028672660065572196,0.9319992323836934,-0.04821397543250531,-2.873917649026801,-1.3812757098423447,1.1827580442232308,0.8162966945173029,-0.5956747650619241,2.8401216272885557,1,right
3.3480000000000003,-0.023515957251703634,0.9324428722203791,-0.04850382942732742,-2.88406175202546,-1.3509919146487235,1.1717362741752047,0.8043397927746296,-0.5876543080571164,2.818128764735189,1,right
3.3510000000000004,-0.01839886045438195,0.932864299427689,-0.04876151220859295,-2.8930255354352017,-1.3210973600421008,1.1605953209371482,0.7921419248792028,-0.5790262433283139,2.795622132812015,1,right
3.352,-0.013322207222989504,0.9332647089861225,-0.048987715309164515,-2.9008091029221306,-1.2915968416770798,1.1493396615126215,0.7797103255679612,-0.569790946723147,2.7726077090047023,1,right
3.3560000000000003,-0.008286808566161336,0.9336453318637894,-0.049183163745575395,-2.9074136055510476,-1.2624947505483513,1.1379737926956945,0.7670524743969459,-0.5599494037272018,2.7490915293378304,1,right
3.3569999999999998,-0.0032934497306082123,0.9340074366653203,-0.04934861410585886,-2.912841208713985,-1.233795080707669,1.1265022377352154,0.7541760916168433,-0.5495032113406627,2.7250796904628576,1,right
3.362,0.001657109394099188,0.9343523310958753,-0.04948485241015059,-2.917095057950222,-1.205501437695835,1.1149295524861682,0.7410891334993785,-0.5384545792196397,2.7005783518320747,1,right
3.362,0.006564134251465279,0.934681363248261,-0.04959269176474064,-2.9201792436767646,-1.1776170476061028,1.1032603310154872,0.7277997870782131,-0.5268063300539114,2.6755937378910017,1,right
3.366,0.011426915963966203,0.9349959227249778,-0.04967296984223125,-2.9220987648448795,-1.1501447666965565,1.0914992106293764,0.7143164642673749,-0.5145618991510809,2.6501321402202587,1,right
3.366,0.016244772021190738,0.9352974416109496,-0.04972654622942633,-2.9228594915349246,-1.123087091470198,1.0796508762889017,0.7006477953196393,-0.5017253331954084,2.6241999195565424,1,right
3.37,0.021017047268391997,0.9355873953160687,-0.049754299689411835,-2.9224681264983383,-1.0964461691426384,1.0677200643803404,0.6868026215867054,-0.4883012881478675,2.5978035076209443,1,right
3.3710000000000004,0.025743115143654745,0.9358673033091887,-0.04975712538540138,-2.920932165652316,-1.0702238084184816,1.0557115658065168,0.672789987542452,-0.47429502625225767,2.5709494086814817,1,right
3.375,0.03042237910680323,0.9361387297664806,-0.04973593211208951,-2.91825985752937,-1.0444214904986744,1.0436302283650916,0.6586191320300253,-0.45971241211050806,2.5436442007753595,1,right
3.3760000000000003,0.03505427420272931,0.9364032841567217,-0.04969163957718269,-2.91446016168067,-1.0190403802422947,1.031480958379544,0.6442994786930035,-0.44455990778861965,2.5158945365151433,1,right
3.38,0.03963826870443057,0.9366626217845644,-0.04962517577326437,-2.9095427060287657,-0.9940813374074516,1.0192687215483596,0.6298406255504061,-0.42884456691302175,2.4877071434017184,1,right
3.3810000000000002,0.04417386578472451,0.9369184443104712,-0.04953747447842538,-2.903517743162043,-0.9695449278971766,1.0069985429777286,0.615252333674856,-0.4125740277154659,2.4590888235656068,1,right
3.386,0.048660605168857965,0.937172500261631,-0.04942947292213954,-2.89639610556,-0.945431434937394,0.9946755063628614,0.6005445149327807,-0.39575650498294174,2.430046452856936,1,right
3.386,0.05309806472297948,0.9374265855416737,-0.049302109649317014,-2.8881891597352625,-0.9217408701152722,0.9823047522828514,0.58572721877302,-0.3784007808902124,2.4005869792381413,1,right
3.387,0.05748586193835755,0.9376825439406135,-0.04915632260929828,-2.878908759275034,-0.8984729842074669,0.9698914755738475,0.5708106181892536,-0.3605161948046025,2.3707174206074324,1,right
3.39,0.06182365527929723,0.9379422676412438,-0.048993047488247565,-2.8685671967615565,-0.8756272777289894,0.9574409217451451,0.555804995232272,-0.34211263235563477,2.3404448624951866,1,right
3.391,0.06611114536715355,0.9382076977124917,-0.04881321629508961,-2.8571771545480282,-0.8532030111346394,0.9449583824026709,0.5407207265872146,-0.3232005141741981,2.3097764562494163,1,right
3.395,0.07034807596800687,0.9384808245730166,-0.0486177562039801,-2.8447516543633444,-0.83119921460616,0.932449189644211,0.5255682695911982,-0.30379078459078024,2.2787194181501005,1,right
3.3960000000000004,0.07453423474467075,0.9387636884014637,-0.048407588649327954,-2.8313040057892236,-0.8096146973647035,0.9199187094172887,0.5103581488155515,-0.28389490037627574,2.247281029575657,1,right
3.3960000000000004,0.07866945373564159,0.9390583794664416,-0.04818362866290806,-2.8168477540164703,-0.788448056475508,0.9073723339638226,0.49510094319722986,-0.26352481949378886,2.2154686381685083,1,right
3.4010000000000002,0.08275360953326572,0.9393670383496625,-0.047946784438352194,-2.8013966279433316,-0.7676976851598774,0.8948154737155761,0.4798072736759018,-0.2426929898056972,2.183289659910537,1,right
3.4019999999999997,0.08678662314005922,0.9396918560344392,-0.0476979571048524,-2.784964490042163,-0.7473617806568603,0.8822535491376667,0.46448779129303797,-0.2214123376788464,2.1507515820181378,1,right
3.405,0.09076845948110303,0.9400350738248248,-0.04743804068687976,-2.767565289051529,-0.7274383516521221,0.8696919828840413,0.44915316570919356,-0.19969625642938502,2.1178619665654823,1,right
3.406,0.09469912654839481,0.94039898305164,-0.047167922221971845,-2.7492130158888286,-0.7079252252457189,0.8571361923888325,0.43381407409557354,-0.17755859454742254,2.084628454743587,1,right
3.411,0.0985786741558821,0.940785924515733,-0.0468884820070989,-2.7299216628095024,-0.6888200534055685,0.8445915828841853,0.41848119035589415,-0.15501364364040654,2.0510587716617112,1,right
3.412,0.10240719229032541,0.9411982876175917,-0.04660059394555096,-2.709705185762885,-0.6701203188493805,0.8320635408084737,0.4031651746345122,-0.1320761260328636,2.017160731596629,1,right
3.415,0.10618480905112666,0.9416385091247297,-0.04630512596872237,-2.6885774698919964,-0.6518233402989828,0.8195574275688569,0.3878766630667793,-0.10876118195893955,1.9829422435943187,1,right
3.4160000000000004,0.10991168818154207,0.9421090715320779,-0.04600294050923112,-2.666552298121888,-0.6339262770521562,0.8070785736221447,0.3726262577275969,-0.08508435628300505,1.9484113173276456,1,right
3.42,0.11358802620334624,0.9426125009756182,-0.045694895003720384,-2.643643322778501,-0.6164261328182514,0.7946322728379944,0.3574245167341967,-0.06106158468246565,1.9135760691126817,1,right
3.42,0.11721404917580537,0.9431513646671921,-0.04538184240632085,-2.6198640401773674,-0.5993197587650206,0.7822237771085255,0.3422819444592491,-0.03670917922583229,1.8784447279853729,1,right
3.424,0.12079000910673196,0.9437282678289081,-0.045064631696852674,-2.5952277681189146,-0.5826038557252432,0.7698582911685149,0.32720898181051167,-0.012043813278069334,1.8430256417393793,1,right
3.426,0.12431618004786725,0.9443458501175399,-0.04474410837100251,-2.569747626224586,-0.5662749755128654,0.7575409675904268,0.31221599653337045,0.0129174943357558,1.8073272828250264,1,right
3.43,0.12779285391001502,0.9450067815420415,-0.04442111490366015,-2.5434365190455,-0.5503295212995045,0.7452769019186452,0.2973132734927953,0.03815739597844338,1.7713582540084685,1,right
3.431,0.1312203360365995,0.9457137578898892,-0.044096491181610166,-2.5163071218729,-0.5347637470032913,0.7330711279073953,0.28251100489143155,0.06365823273107295,1.735127293689329,1,right
3.4360000000000004,0.13459894057684835,0.9464694956886799,-0.04377107490673784,-2.4883718691772234,-0.5195737556431326,0.7209286128269811,0.2678192803807793,0.08940205287752552,1.6986432807742864,1,right
3.437,0.13792898570039555,0.9472767267378579,-0.043445701974918836,-2.459642945600238,-0.5047554966125798,0.7088542528031188,0.2532480770226699,0.11537063141558587,1.6619152390032974,1,right
3.4389999999999996,0.14121078869405515,0.9481381922527943,-0.0431212068385585,-2.4301322794223315,-0.49030476182857885,0.6968528681543131,0.2388072490585396,0.14154549066784328,1.6249523406243882,1,right
3.44,0.14444466097929431,0.9490566366692826,-0.04279842286220288,-2.399851538424729,-0.47621718071145575,0.6849291986924042,0.2245065174443155,0.1679079220663068,1.5877639093122304,1,right
3.446,0.14763090308557103,0.9500348011586932,-0.04247818268096269,-2.368812128064142,-0.4624882139535596,0.6730878989516079,0.21035545910907638,0.1944390091852959,1.5503594222250088,1,right
3.447,0.1507697996106411,0.95107541690257,-0.042161318570739716,-2.337025191875087,-0.44911314603504043,0.6613335333115862,0.1963634958960247,0.22111965209775963,1.5127485110934162,1,right
3.449,0.15386161419473374,0.9521811981732612,-0.04184866283752188,-2.3045016140129184,-0.4360870764462829,0.6496705709803,0.1825398831447075,0.24793059313071578,1.4749409622349663,1,right
3.449,0.15690658453152512,0.9533548352659161,-0.04154104823147664,-2.271252023848424,-0.42340490957754573,0.6381033808026425,0.16889369787385536,0.27485244409598575,1.4369467153861875,1,right
3.4560000000000004,0.1599049174355391,0.9545989873256854,-0.04123930839172534,-2.2372868025227017,-0.41106134323737226,0.6266362258610894,0.15543382652466298,0.3018657150728299,1.3987758612446755,1,right
3.457,0.16285678398286993,0.955916275110586,-0.040944278329893134,-2.2026160913688977,-0.3990508557623426,0.6152732578348755,0.14216895224962486,0.3289508447603512,1.36043863765676,1,right
3.458,0.16576231473910924,0.9573092737245187,-0.040656794963034315,-2.167249802105317,-0.38736769168172225,0.6040185110844767,0.12910754185656792,0.3560882321222991,1.3219454246077167,1,right
3.458,0.1686215950847974,0.9587805053468962,-0.04037769770646043,-2.1311976287023517,-0.37600584590153524,0.5928758964284614,0.11625783274129767,0.3832582685151686,1.283306738570041,1,right
3.4589999999999996,0.17143466064538437,0.9603324319782739,-0.0401078291337632,-2.094469060823657,-0.3649590463735475,0.5818491945800811,0.1036278202668545,0.4104413691951396,1.2445332269865461,1,right
3.465,0.17420149283059982,0.9619674482173716,-0.03984803570645806,-2.0570733987356453,-0.3542207352642723,0.5709420492297804,0.09122524592393998,0.43761800339511087,1.2056356634428709,1,right
3.466,0.17692201448789158,0.9636878740818562,-0.03959916857001544,-2.0190197695557193,-0.3437840488834755,0.5601579598526667,0.07905758638444191,0.46476872269517044,1.1666249436844847,1,right
3.466,0.17959608567552235,0.965495947881083,-0.03936208440673556,-1.9803171446686338,-0.33364179707075686,0.5495002744868701,0.06713204343659684,0.4918741877054399,1.1275120824111704,1,right
3.468,0.18222349956163886,0.9673938191446756,-0.03913764632737373,-1.9409743581167773,-0.32378644298311043,0.5389721828216021,0.0554555347661765,0.5189151931393219,1.0883082107372652,1,right
3.469,0.18480397845597982,0.9693835416073973,-0.03892672476962479,-1.9010001257899614,-0.31421008398379363,0.5285767098415399,0.04403468554875913,0.5458726913551065,1.0490245742056152,1,right
3.4739999999999998,0.18733716998094768,0.9714670662484332,-0.038730198353820945,-1.8604030652775116,-0.30490443389548094,0.5183167101079675,0.03287582081884214,0.5727278144437614,1.009672531242909,1,right
3.4739999999999998,0.1898226433873248,0.9736462343827251,-0.0385489546312907,-1.81919171626532,-0.29586080663806297,0.508194862664942,0.021984958582266446,0.5994618949405461,0.9702635519437911,1,right
3.4789999999999996,0.19225988601654287,0.9759227708032132,-0.03838389065480139,-1.777374561363039,-0.2870701012235623,0.4982136665406279,0.011367803639157278,0.6260564852378523,0.9308092170709278,1,right
3.48,0.19464829990773344,0.9782982769741583,-0.038235913304077246,-1.7349600472448148,-0.27852278808141484,0.48837543681433176,0.0010297420853378786,0.6524933757763762,0.891321217158002,1,right
