time,gFx,gFy,gFz,ax,ay,az,wx,wy,wz,subject_number,foot
5.507000000000001,-0.16771778273329882,0.8401457823523617,-0.03510853691388375,-0.13938941103211183,-0.04627271416139798,0.3780668528625031,-0.1088716226528437,-0.023892789774592003,-0.7757016400767132,3,right
5.507999999999999,-0.1708794671116616,0.8411353865883023,-0.03586486796483494,-0.07820818751919889,-0.08923013351709481,0.38092346748552813,-0.11029479843382217,-0.027175488657697578,-0.7875415552412988,3,right
5.51,-0.17419334390859054,0.842226970071298,-0.036593670271582994,-0.016207359056250155,-0.1314326036192495,0.38317077105274017,-0.11175899623614621,-0.030538948182573175,-0.799723360501623,3,right
5.511,-0.17765501802598843,0.8434207664970907,-0.03729397666143684,0.046551630895840954,-0.1728449441355711,0.38481643574494,-0.1132639473192311,-0.033987737710798736,-0.812240166980578,3,right
5.513999999999999,-0.18126010770656595,0.8447169330181334,-0.03796487004293951,0.11000649840294043,-0.213432540510891,0.38586870117200156,-0.11480937343040441,-0.03752615625877297,-0.8250850690130286,3,right
5.515,-0.18500425259688294,0.846115547593838,-0.03860548377668239,0.1740942042517594,-0.25316136541141604,0.3863363344619544,-0.11639498890022992,-0.04115822814104906,-0.8382511501182462,3,right
5.519,-0.1888831199372152,0.8476166060329156,-0.03921500198283431,0.2387510374443543,-0.2919979982790867,0.38622859165793927,-0.11802050265622953,-0.044887698975792464,-0.8517314882360242,3,right
5.52,-0.19289240900109694,0.8492200185579836,-0.03979265977120098,0.30391269717519453,-0.32990964311256366,0.38555518042607917,-0.11968562015944216,-0.04871803206253459,-0.865519160263355,3,right
5.523,-0.19702785397173891,0.850925605742343,-0.0403377433710466,0.36951437347476734,-0.36686414458890176,0.3843262240756294,-0.12139004526837399,-0.05265240514266421,-0.8796072459294808,3,right
5.524,-0.2012852255021682,0.8527330936945828,-0.04084959013256412,0.43549082670532324,-0.4028300026374073,0.3825522268911172,-0.12313348203500923,-0.05669370755337796,-0.8939888310480257,3,right
5.528,-0.205660331258522,0.8546421083937973,-0.041327588369508735,0.5017764660958147,-0.43777638557452025,0.38024404077455964,-0.12491563643766404,-0.06084453778610024,-0.9086570101858028,3,right
5.529,-0.21014901578949416,0.8566521691036083,-0.04177117701191325,0.5683054275043434,-0.47167314190581333,0.3774128331942506,-0.1267362180555795,-0.0651072014606812,-0.9236048887887541,3,right
5.5329999999999995,-0.2147471600970578,0.8587626808136555,-0.04217984503844001,0.6350116505975074,-0.504490810898362,0.37407005643504404,-0.12859494169026134,-0.06948370972698796,-0.938825584806321,3,right
5.534,-0.21945068130040032,0.860972925670316,-0.04255313065950145,0.7018289556369284,-0.5362006320238122,0.3702274181435277,-0.13049152893868543,-0.07397577810581818,-0.9543122298563705,3,right
5.539,-0.22425553278490057,0.8632820533661918,-0.04289062022390156,0.7686911200639347,-0.5667745533694586,0.3658968531599783,-0.13242570972359852,-0.078584825781386,-0.9700579699736019,3,right
5.54,-0.22915770521420462,0.8656890704680812,-0.04319194682411918,0.8355319550738896,-0.5961852391115477,0.36109049662751924,-0.13439722378625307,-0.0833119753579564,-0.986055965985144,3,right
5.542999999999999,-0.23415322875869796,0.868192828686483,-0.04345678858083183,0.9022853823719669,-0.6244060761418395,0.35582065836747023,-0.1364058221470244,-0.08815805309353565,-1.002299393557818,3,right
5.544,-0.23923817685469254,0.8707920121352879,-0.04368486659656644,0.9688855113023128,-0.6514111799352,0.35009979850847145,-0.13845126853946543,-0.09312358962386083,-1.0187814429622848,3,right
5.5489999999999995,-0.24440867175076272,0.8734851237012213,-0.04387594258068827,1.0352667165424643,-0.6771753997426551,0.34394050435560336,-0.1405333408234626,-0.09820882119027004,-1.0354953186000193,3,right
5.551,-0.2496608920208445,0.8762704707337002,-0.04402981616289909,1.1013637165546468,-0.7016743231909213,0.33735546848439024,-0.14265183238326243,-0.10341369138537593,-1.05243423833976,3,right
5.553,-0.25499108213042093,0.8791461503652743,-0.044146321928423674,1.167111652985137,-0.7248842803659391,0.33035746804327815,-0.14480655351624408,-0.10873785343080758,-1.0695914327107687,3,right
5.553999999999999,-0.2603955640343582,0.8821100348654944,-0.04422532622233525,1.232446171202243,-0.7467823474543687,0.32295934524692305,-0.14699733281841906,-0.11418067300162946,-1.0869601440008987,3,right
5.559,-0.26587075066689614,0.8851597575027256,-0.04426672378368556,1.2973035021626425,-0.7673463500133744,0.31517398904139776,-0.14922401857274328,-0.11974123161238857,-1.10453362530812,3,right
5.56,-0.27141316106327046,0.8882926994312648,-0.04427043428752188,1.3616205457948176,-0.786554865935329,0.3070143179212429,-0.15148648014643115,-0.12541833058008361,-1.1223051395947734,3,right
5.563,-0.27701943673562024,0.8915059781337789,-0.04423639889674825,1.425334956087136,-0.8043872281702922,0.29849326387713626,-0.1537846094035649,-0.1312104955796897,-1.1402679587944342,3,right
5.565,-0.2826863588193788,0.8947964379309651,-0.04416457694712282,1.4883852280667593,-0.8208235272652964,0.2896237574518439,-0.1561183221393954,-0.13711598180821022,-1.1584153630218565,3,right
5.568,-0.28841086541664906,0.8981606430181264,-0.04405494288760065,1.5507107868540126,-0.8358446137755743,0.2804187138810393,-0.15848755954283386,-0.14313277977356142,-1.176740639937035,3,right
5.568,-0.29419006850666046,0.9015948733993735,-0.04390748355943977,1.612252078975116,-0.8494321005989106,0.2708910202945405,-0.16089228968795927,-0.14925862171011722,-1.1952370842922662,3,right
5.569,-0.30002126980721117,0.9050951239712065,-0.04372219583310704,1.6729506661142755,-0.8615683652802992,0.26105352395251286,-0.16333250902658386,-0.15549098854902643,-1.2138979975780761,3,right
5.5729999999999995,-0.3059019750565793,0.9086571068746024,-0.0434990845636087,1.732749321484049,-0.8722365523300136,0.25091902149022166,-0.16580824380203008,-0.16182711723846202,-1.2327166874800262,3,right
5.574,-0.3118299062529093,0.9122762570950594,-0.04323816078859212,1.7915921289906513,-0.881420575594087,0.24050024914399193,-0.16831955127548892,-0.1682640081352334,-1.2516864667453518,3,right
5.575,-0.31780301137771905,0.915947741143766,-0.04293944008171001,1.8494245851789606,-0.8891051207400017,0.2298098739254021,-0.1708665206853166,-0.17479843226353933,-1.2708006511724121,3,right
5.577999999999999,-0.3238194711291468,0.9196664685335306,-0.04260294099366712,1.9061937029919611,-0.8952756480560435,0.21886048568618555,-0.17344927391172063,-0.1814269383702087,-1.2900525566407444,3,right
5.577999999999999,-0.3298777022796812,0.9234271056990756,-0.042228683562308,1.9618481146712201,-0.8999183960102669,0.20766458997283654,-0.1760679658482728,-0.1881458597801058,-1.3094354952134988,3,right
5.585,-0.33597635738921355,0.9272240919456033,-0.0418166879323809,2.0163381701746603,-0.9030203861505793,0.19623460154543707,-0.17872278448756593,-0.194951321070464,-1.3289427703671488,3,right
5.586,-0.3421143206802004,0.9310516568822714,-0.04136697317618537,2.069616028432277,-0.9045694297832436,0.18458283845817663,-0.1814139507284346,-0.20183924458318228,-1.3485676714037655,3,right
5.587000000000001,-0.3482906999601567,0.9349038386677493,-0.04087955642843525,2.12163574046264,-0.9045541366109429,0.17272151664098875,-0.18414171791226325,-0.20880535679437753,-1.3683034671015275,3,right
5.587000000000001,-0.3545048146109134,0.9387745023539001,-0.040354452424842,2.1723533243171307,-0.9029639253672702,0.16066274494475552,-0.18690637109600772,-0.21584519456073445,-1.3881433986594878,3,right
5.5920000000000005,-0.360756179841659,0.9426573576675211,-0.03979167346243673,2.2217268320048618,-0.8997890364520654,0.14841852061663408,-0.18970822606966284,-0.22295411126243067,-1.4080806719929615,3,right
5.5920000000000005,-0.36704448758936686,0.9465459756811353,-0.039191229699453045,2.26971640854763,-0.8950205465675338,0.13600072517145653,-0.19254762812601256,-0.23012728286263978,-1.4281084494362184,3,right
5.596,-0.37336958462267034,0.950433803963054,-0.03855312962189025,2.316284343310506,-0.8886503853505582,0.12342112062458774,-0.19542495059060505,-0.23735971390382515,-1.4482198409094544,3,right
5.597,-0.3797314485437976,0.9543141799394902,-0.03787738046552041,2.361395113749812,-0.8806713539920625,0.11069134605109207,-0.19834059312000293,-0.24464624346123687,-1.4684078946073071,3,right
5.602,-0.3861301624695753,0.9581803423240552,-0.037163988413985126,2.4050154217162696,-0.871077145829713,0.09782291443556154,-0.20129497977646593,-0.251981551074207,-1.4886655872664305,3,right
5.603,-0.39256588919564145,0.9620254405595245,-0.036412958473866656,2.4471142224470137,-0.8598623688956394,0.08482720977649233,-0.20428855688733283,-0.2593601626760096,-1.5089858140698953,3,right
5.608,-0.3990388456073084,0.9658425422731256,-0.03562429401323826,2.4876627463760035,-0.8470225703962443,0.07171548440866547,-0.20732179069747944,-0.26677645654320553,-1.5293613782463864,3,right
5.609,-0.4055492780077763,0.9696246387793604,-0.034797996008088444,2.5266345138880557,-0.8325542630965226,0.058498856506588585,-0.21039516482334067,-0.2742246692855333,-1.549784980422383,3,right
5.611000000000001,-0.4120974389106496,0.9733646486877574,-0.033934062061930455,2.564005343137394,-0.816454953576669,0.04518830773168962,-0.2135091775170978,-0.28169890189752983,-1.5702492077856784,3,right
5.612,-0.418683565710449,0.977055419699402,-0.03303248525735901,2.599753351047131,-0.7987231723240793,0.03179468098562017,-0.2166643387497448,-0.28919312589317536,-1.5907465231187552,3,right
5.617000000000001,-0.4253078615174757,0.9806897287112465,-0.032093252881842615,2.633858947601593,-0.7793585056191753,0.01832867823172411,-0.21986116712186474,-0.29670118954494434,-1.6112692537606783,3,right
5.617000000000001,-0.4319704783319221,0.9842602803889668,-0.031116345059414633,2.6663048235387885,-0.7583616291688018,0.004800858346457342,-0.22310018661106232,-0.30421682424872243,-1.6318095805562693,3,right
5.621,-0.4386715026434537,0.9877597044099228,-0.030101733321568916,2.6970759315456867,-0.7357343434362568,-0.008778365037694774,-0.22638192316511827,-0.3117336510361046,-1.652359526851434,3,right
5.622000000000001,-0.445410943480157,0.9911805516088393,-0.02904937915928776,2.726159461054229,-0.7114796106123263,-0.022398725736463645,-0.22970690115005007,-0.3192451872556299,-1.6729109475935817,3,right
5.627999999999999,-0.45218872289269685,0.9945152892752893,-0.02795923260248376,2.7535448067312602,-0.6856015931670102,-0.0360501073040468,-0.23307563966238473,-0.32674485344452886,-1.693455518596128,3,right
5.629,-0.4590046688374275,0.9977562958555113,-0.026831230866259523,2.7792235307507447,-0.6581056939169413,-0.04972254544834767,-0.2364886487150725,-0.3342259804125643,-1.7139847260260903,3,right
5.632000000000001,-0.46585851040468834,1.0008958553096725,-0.025665297087687527,2.8031893189317967,-0.6289985975388309,-0.06340623061031178,-0.23994642530659446,-0.3416818165595292,-1.734489856173806,3,right
5.632000000000001,-0.47274987531574686,1.0039261513799669,-0.024461339160845256,2.8254379308211743,-0.5982883134546112,-0.07709151074655453,-0.24344944938294286,-0.3491055354479325,-1.7549619855637728,3,right
5.636,-0.47967828957740816,1.0068392620410755,-0.023219248670083365,2.8459671437939953,-0.565984220009301,-0.09076889435453682,-0.24699817970227914,-0.35649024365234894,-1.7753919714655586,3,right
5.636,-0.48664317914008864,1.0096271544255302,-0.021938899924344665,2.864776691241506,-0.5320971098579949,-0.10442905377957729,-0.25059304960959694,-0.36382898890110094,-1.7957704428551378,3,right
5.6370000000000005,-0.4936438733731657,1.012281680519047,-0.020620149103079567,2.8818681949098206,-0.4966392364737728,-0.11806282884299475,-0.2542344627158061,-0.37111476849716474,-1.8160877918341847,3,right
5.641,-0.5006796101592641,1.014794573897873,-0.019262833530689298,2.897245091448601,-0.45962436168375476,-0.13166123083065245,-0.2579227884523154,-0.3783405379534528,-1.8363341654378706,3,right
5.642,-0.507749542377598,1.017157447774327,-0.01786677110385441,2.9109125532237186,-0.42106780413597494,-0.1452154468811262,-0.26165835745928334,-0.3854992197488099,-1.8564994577188447,3,right
5.642,-0.5148527454694304,1.0193617946566402,-0.016431759908914302,2.9228774035833625,-0.3809864885346854,-0.158716844788032,-0.2654414567788799,-0.3925837121395909,-1.8765733020376176,3,right
5.646,-0.5219882257176067,1.021398987960263,-0.014957578078081372,2.933148027463976,-0.33939899517442335,-0.17215697810789155,-0.26927232484850905,-0.399586898013143,-1.8965450635662364,3,right
5.646,-0.5291549288819277,1.0232602858805557,-0.013443983935294236,2.941734279480753,-0.29632560875370273,-0.18552759124328558,-0.27315114630211473,-0.4065016537980059,-1.9164038320546142,3,right
5.652,-0.5363517488516936,1.024936837797706,-0.011890716480588991,2.9486473923443874,-0.25178836514201236,-0.19882062404783787,-0.27707804659043983,-0.413320858451167,-1.9361384149171608,3,right
5.654,-0.5435775359357913,1.0264196934822225,-0.010297496263887195,2.953899887739057,-0.2058110950722806,-0.21202821562245375,-0.2810530864312431,-0.42003740254247385,-1.9557373306970653,3,right
5.656000000000001,-0.5508311043504257,1.027699815362626,-0.008664026699600771,2.957505490528525,-0.158419464271752,-0.22514270719353782,-0.2850762561006168,-0.42664419745605253,-1.9751888029652516,3,right
5.656000000000001,-0.5581112384512469,1.028768094051404,-0.006989995863963352,2.9594790464506087,-0.10964100984282238,-0.23815664408675077,-0.28914746957668663,-0.433134184728308,-1.9944807547106778,3,right
5.662000000000001,-0.5654166972890474,1.0296153672061654,-0.0052750787966164715,2.9598364433151283,-0.05950517276180736,-0.2510627768342302,-0.2932665585471129,-0.4395003455417838,-2.0136008032782553,3,right
5.662999999999999,-0.572746217123336,1.0302324416622184,-0.0035189403009180604,2.9585945357157377,-0.008043326359560064,-0.2638540614529337,-0.2974332662919506,-0.4457357103938472,-2.0325362559102405,3,right
5.665,-0.5800985116045144,1.0306101186327143,-0.0017212382118375741,2.95577107326133,0.04471119935612603,-0.2765236589314752,-0.30164724145356286,-0.4518333689588277,-2.0512741059464923,3,right
5.666,-0.5874722694374219,1.0307392216475937,0.00011837291588473155,2.9513846323280846,0.09872309768028831,-0.2890649339625132,-0.3059080317054208,-0.4577864801618829,-2.069801029738496,3,right
5.67,-0.5948661494631063,1.0306106268046442,0.002000237754695706,2.945454551328627,0.15395506964050476,-0.30147145295742456,-0.31021507733175885,-0.46358828248248846,-2.0881033843315207,3,right
5.671,-0.602278773232122,1.0302152948430865,0.003924695852815775,2.9380008694902324,0.21036781302801583,-0.31373698137964373,-0.31456770473018986,-0.4692321045050553,-2.106167205968713,3,right
5.675,-0.6097087152787515,1.0295443045236208,0.00589207707474991,2.9290442691295073,0.2679200161853397,-0.32585548043268336,-0.31896511984951914,-0.4747113757337603,-2.1239782094703195,3,right
5.676,-0.6171544914291702,1.0285888868040858,0.007902696956229716,2.918606021406563,0.3265683567089634,-0.3378211031384618,-0.3234064015751291,-0.4800196376882442,-2.1415217885405826,3,right
5.681,-0.6246145455788648,1.0273404593302053,0.009956852120930093,2.9067079355373058,0.38626750522907893,-0.34962818984116073,-0.3278904950744364,-0.4851505552963746,-2.1587830170541755,3,right
5.681,-0.6320872354486787,1.0257906608100462,0.012054815912015576,2.8933723114381755,0.4469701344316039,-0.3612712631714137,-0.33241620511505227,-0.490097928599802,-2.175746651373309,3,right
5.685,-0.639570817867924,1.0239313849024874,0.014196834379262047,2.878621895773367,0.5086269334908695,-0.3727450225051873,-0.3369821893684028,-0.4948557047875432,-2.1923971337458763,3,right
5.686,-0.6470634341339399,1.0217548133195846,0.016383122738596843,2.8624798413704275,0.5711866280843743,-0.3840443379512616,-0.3415869517116876,-0.49941799057231856,-2.2087185968341916,3,right
5.69,-0.6545630959635433,1.0192534479181714,0.01861386238767093,2.8449696699659572,0.6345960061638787,-0.39516424390074595,-0.34622883554117534,-0.5037790649238438,-2.2246948694230166,3,right
5.691,-0.6620676724883493,1.016420141635717,0.020889198518781103,2.8261152382390886,0.6987999496598551,-0.40609993217158064,-0.35090601710994995,-0.5079333921727299,-2.240309483354681,3,right
5.695,-0.6695748786577734,1.0132481282063064,0.0232092383249557,2.805940707086431,0.7637414722988952,-0.41684674478047246,-0.35561649890333175,-0.511875635498086,-2.255545681738137,3,right
5.696000000000001,-0.6770822653085566,1.0097310506687474,0.02557404975617899,2.7844705140882193,0.8293617637161136,-0.42740016637419925,-0.3603581030653052,-0.5156006708113415,-2.270386428477824,3,right
5.7010000000000005,-0.6845872110499092,1.0058629887405561,0.027983660754605934,2.7617293491115626,0.8956002400468671,-0.4377558163516892,-0.36512846488938483,-0.5191036010482102,-2.284814419167149,3,right
5.702000000000001,-0.6920869160107469,1.0016384851678717,0.030438058876758392,2.737742132992884,0.9623946011842216,-0.4479094407077365,-0.3699250263874462,-0.5223797708801093,-2.2988120933903238,3,right
5.705,-0.6995783974077041,0.9970525711651027,0.03293719119617145,2.7125339992379343,1.0296808948905467,-0.45785690362866166,-0.3747450299501383,-0.5254247818557258,-2.312361648475156,3,right
5.706,-0.7070584868266431,0.9921007910311873,0.035480964378556544,2.6861302786740957,1.097393587953389,-0.46759417886965726,-0.37958551211525676,-0.5282345079662764,-2.3254450547169823,3,right
5.707000000000001,-0.7145238290777796,0.9867792259847568,0.038069244838715495,2.6585564869861256,1.165465644577366,-0.47711734094297764,-0.38444329747392775,-0.530805111544836,-2.3380440719866478,3,right
5.71,-0.7219708824820723,0.9810845172131498,0.04070185891647397,2.629838315062976,1.2338286122052404,-0.4864225561455409,-0.38931499276863984,-0.5331330592609018,-2.350140267443208,3,right
5.711,-0.7293959204375086,0.9750138880809281,0.04337859303236292,2.6000016220798967,1.3024127149625482,-0.4955060734539071,-0.3941969812506164,-0.5352151378881607,-2.3617150339646393,3,right
5.711,-0.7367950340769621,0.9685651653876359,0.046099193800090546,2.5690724312030624,1.3711469547029227,-0.504364215319175,-0.3990854173506725,-0.5370484696052664,-2.3727496090145053,3,right
5.715,-0.7441641358049591,0.9617367995182105,0.048863368092455096,2.5370769276327003,1.4399592185407954,-0.5129933684196812,-0.4039762216936204,-0.5386305267372783,-2.383225093852012,3,right
5.7170000000000005,-0.7514989635257174,0.9545278833105483,0.05167078308184011,2.5040414583950947,1.5087763897944353,-0.5213899744754895,-0.40886507647292253,-0.5399591459272316,-2.3931224730974487,3,right
5.72,-0.7587950854176038,0.9469381694534866,0.05452106629678518,2.4699925331227233,1.5775244581714165,-0.5295505212539752,-0.4137474211996232,-0.5410325417431012,-2.4024226346846755,3,right
5.72,-0.766047905131878,0.9389680862027627,0.05741380574533577,2.4349568252267093,1.646128626120136,-0.5374715338691882,-0.41861844883960264,-0.541849319724699,-2.411106390230703,3,right
5.724,-0.7732526673127799,0.9306187511861086,0.06034855015167235,2.3989611731651546,1.714513410235346,-0.5451495664302679,-0.42347310235318536,-0.5424084888743173,-2.4191544958507625,3,right
5.725,-0.7804044633772153,0.9218919830901796,0.06332480934073859,2.3620325816760004,1.7826027376967781,-0.5525811940675383,-0.42830607165112017,-0.542709473594199,-2.4265476734455373,3,right
5.731,-0.7874982375486294,0.9127903110703641,0.06634205479812871,2.3241982228738265,1.8503200379377758,-0.5597630053590317,-0.43311179098091307,-0.5427521250731794,-2.4332666324854664,3,right
5.732,-0.7945287931934948,0.903316981773127,0.06939972043348556,2.2854854371072424,1.9175883297402245,-0.5666915951794907,-0.4378844367574475,-0.5425367321241035,-2.439292092315193,3,right
5.734,-0.8014907995509172,0.8934759638954864,0.07249720357714451,2.245921733470842,1.9843303039512183,-0.5733635579931894,-0.4426179258517645,-0.5420640314728844,-2.4446048049993525,3,right
5.734,-0.8083787989709229,0.8832719502261525,0.07563386623135705,2.2055347898630906,2.0504684020158264,-0.5797754816111983,-0.44730591435179556,-0.5413352174993248,-2.4491855787289714,3,right
5.74,-0.8151872147823073,0.8727103571250187,0.07880903657557584,2.164352452478996,2.1159248905190404,-0.5859239414329903,-0.451941796808745,-0.5403519514290854,-2.453015301805734,3,right
5.7410000000000005,-0.8219103598992245,0.8617973214132459,0.0820220106942464,2.1224027346239613,2.180621931928467,-0.5918054951915451,-0.45651870598270794,-0.5391163699754453,-2.456074967219341,3,right
5.742999999999999,-0.8285424462536429,0.850539694672026,0.0852720544624025,2.079713814732867,2.244481651727596,-0.5974166782203667,-0.4610295131009741,-0.537631093428762,-2.4583456978310814,3,right
5.744,-0.8350775951138409,0.8389450349823538,0.08855840549608163,2.0363140334761285,2.3074262021275107,-0.6027539992600688,-0.46546682864232364,-0.5358992331908133,-2.459808772174574,3,right
5.749,-0.8415098483191248,0.8270215961729487,0.09188027505838313,1.9922318898322864,2.3693778225427384,-0.6078139368214155,-0.46982300366044505,-0.5339243987504765,-2.460445650882433,3,right
5.751,-0.8478331804268808,0.8147783146733963,0.09523684981228205,1.94749603600455,2.4302588970145185,-0.612592936120931,-0.4740901316594194,-0.5317107040964841,-2.460238003745333,3,right
5.752999999999999,-0.8540415117289982,0.8022247940955676,0.0986272933248813,1.9021352710566837,2.4899920087621448,-0.6170874066044023,-0.47826005103400115,-0.5292627735622899,-2.4591677374076446,3,right
5.754,-0.8601287220550271,0.7893712876892647,0.1020507472454384,1.8561785331416625,2.5484999920401856,-0.6212937200728035,-0.4823243480871918,-0.5265857470973795,-2.4572170237014226,3,right
5.757999999999999,-0.8660886652485232,0.7762286788335292,0.10550633209399693,1.8096548901946417,2.6057059814763144,-0.6252082094243625,-0.48627436063734847,-0.5236852849586774,-2.454368328618119,3,right
5.7589999999999995,-0.8719151841864192,0.7628084597284749,0.10899314760918925,1.7625935289599932,2.661533459061175,-0.628827168025674,-0.4901011822267871,-0.520567571815029,-2.4506044419149013,3,right
5.763,-0.8776021262053698,0.7491227084452845,0.11251027261831235,1.7150237422204535,2.715906298958198,-0.6321468497239344,-0.49379566694353877,-0.517239320257079,-2.445908507349941,3,right
5.763999999999999,-0.8831433587970183,0.7351840644800935,0.11605676441346406,1.666974914094793,2.768748810297541,-0.635163469511536,-0.49734843486758545,-0.5137077737042276,-2.440264053538444,3,right
5.768,-0.8885327854332542,0.7210057029461433,0.1196316576405408,1.6184765032688748,2.8199857781143636,-0.6378732048534077,-0.5007498781525503,-0.5099807086997226,-2.433655025418582,3,right
5.769,-0.8937643613840749,0.7066013075304307,0.12323396272457482,1.569558024023516,2.8695425025874752,-0.6402721976866329,-0.5039901677534351,-0.5060664365843415,-2.4260658163137925,3,right
5.773,-0.8988321093967824,0.6919850423374653,0.12686266386061482,1.5202490249211758,2.9173448367299963,-0.6423565571009999,-0.50705926081059,-0.5019738045385356,-2.4174813005752025,3,right
5.775,-0.903730135118531,0.677171522741359,0.13051671659847586,1.4705790650122144,2.9633192226790595,-0.6441223627082624,-0.5099469086955284,-0.4977121959720004,-2.4078868667637945,3,right
5.775,-0.9084526421670972,0.6621757853580792,0.13419504504850585,1.420577687420258,3.007392726726758,-0.6455656687069924,-0.5126426657030406,-0.49329153018736904,-2.397268451222347,3,right
5.778,-0.9129939467824417,0.6470132572298143,0.13789653873607613,1.3702743901650825,3.049493073229502,-0.6466825086490059,-0.5151358983363253,-0.48872226115109696,-2.385612571692092,3,right
5.779,-0.9173484920111791,0.6316997243022653,0.14162004913609605,1.319698594195412,3.0895486776133554,-0.6474689008995198,-0.5174157951106391,-0.48401537515238996,-2.372906360519363,3,right
5.779,-0.921510861383644,0.6162512992813142,0.14536438592543818,1.2688796091782177,3.1274886791157583,-0.6479208547177486,-0.5194713768211087,-0.479182387182304,-2.359137597101348,3,right
5.782,-0.9254757920493389,0.600684388959905,0.14912831299756582,1.2178465986254592,3.1632429746692603,-0.6480343767675686,-0.5212915072570137,-0.474235335957836,-2.3442947394092872,3,right
5.7829999999999995,-0.9292381873453384,0.5850156611106091,0.15291054429148218,1.166628546513562,3.196742255755334,-0.647805477802402,-0.522864904364926,-0.46918677756716265,-2.3283669545312375,3,right
5.787000000000001,-0.9327931287793694,0.5692620110629979,0.15670973950044934,1.1152542269750965,3.227918049621954,-0.6472301793320393,-0.5241801518665887,-0.46404977772216865,-2.3113441481948183,3,right
5.789,-0.936135887416524,0.5534405281164934,0.1605244997389805,1.0637521776062722,3.2567027654814424,-0.6463045201942853,-0.5252257113367375,-0.45883790260408114,-2.293216993227282,3,right
5.792000000000001,-0.9392619346682943,0.5375684619543877,0.1643533632496326,1.0121506763582,3.2830297458703335,-0.6450245630178618,-0.525989934745361,-0.4535652082877342,-2.273976956907128,3,right
5.792999999999999,-0.9421669524912101,0.5216631892212674,0.16819480122400637,0.9604777218643981,3.3068333232606615,-0.6433864005749028,-0.5264610774681531,-0.4482462287297361,-2.2536163271583356,3,right
5.797000000000001,-0.9448468430084245,0.5057421804126269,0.17204721380313287,0.9087610170566519,3.3280488820052305,-0.6413861620203756,-0.5266273117681349,-0.4428959623055962,-2.2321282375351297,3,right
5.797999999999999,-0.9472977375735622,0.4898229672050452,0.17590892631811547,0.8570279559210505,3.3466129256923467,-0.6390200190147418,-0.5264767407506187,-0.4375298568806972,-2.209506690941985,3,right
5.801,-0.9495160053012743,0.47392311033035595,0.1797781858332616,0.805305613245817,3.362463149978256,-0.6362841917251452,-0.5259974127928393,-0.43216379339986366,-2.185746582030365,3,right
5.8020000000000005,-0.9514982610893115,0.4580601680732575,0.18365315805622692,0.7536207372124228,3.375538520958101,-0.6331749546993705,-0.5251773364487072,-0.42681406798019167,-2.160843718210456,3,right
5.806,-0.9532413731516831,0.4422516654539181,0.18753192467682703,0.7019997446814298,3.3857793591285845,-0.629688642605769,-0.5240044958282228,-0.4214973724917566,-2.1347948392128946,3,right
5.807,-0.9547424700753432,0.426515064146999,0.19141248118422968,0.6504687190245313,3.3931274289877558,-0.6258216558312822,-0.5224668664501507,-0.41623077361082095,-2.107597635132229,3,right
5.812,-0.9559989474063008,0.4108677331842501,0.19529273519303786,0.5990534103543756,3.397526034309336,-0.6215704659286256,-0.5205524315655716,-0.41103169033020753,-2.079250762880561,3,right
5.813,-0.9570084737640286,0.3953269204852993,0.1991705052904474,0.5477792380039325,3.3989201191208926,-0.6169316209026072,-0.5182491989489163,-0.4059178699116038,-2.049753860976539,3,right
5.819,-0.9577689964751508,0.3799097252569973,0.20304352040605753,0.4966712951074218,3.397256374406838,-0.6119017503244664,-0.51554521815204,-0.40090736226470275,-2.0191075625915635,3,right
5.82,-0.958278746709944,0.36463307129456407,0.20690941970217622,0.4457543551351605,3.3924833505487735,-0.6064775702620121,-0.5124285982158099,-0.39601849273828565,-1.9873135067717764,3,right
5.821000000000001,-0.9585362440976126,0.34951368120856247,0.21076575298139216,0.39505288023508156,3.38455157550707,-0.6006558880122274,-0.5088875258325644,-0.3912698333085923,-1.954374347751091,3,right
5.822,-0.9585403007864081,0.33456805159248343,0.21460998160709308,0.34459103123416074,3.3734136787388005,-0.5944336066218827,-0.5049102839516509,-0.3866801721506265,-1.9202937622672385,3,right
5.8260000000000005,-0.9582900249034282,0.3198124291381523,0.21843947992890034,0.29439267915353134,3.3590245208381884,-0.5878077291805713,-0.5004852708190636,-0.38226848157839105,-1.885076454789489,3,right
5.8260000000000005,-0.9577848233606611,0.3052627876997168,0.22225153719647392,0.24448141809168936,3.3413413288767018,-0.5807753628694325,-0.49560101944098156,-0.37805388434045134,-1.8487281605634405,3,right
5.831,-0.9570244039508934,0.29093480630080193,0.22604335993292451,0.194880579330875,3.3203238374106956,-0.5733337227476848,-0.4902462174597598,-0.3740556182576843,-1.8112556463749725,3,right
5.832000000000001,-0.9560087766786967,0.27684384807464596,0.2298120747265717,0.14561324652247606,3.295934435115168,-0.5654801352579255,-0.484409727429634,-0.37029299919057906,-1.7726667089322121,3,right
5.836,-0.9547382542769608,0.2630049401252879,0.2335547313898162,0.0967022718081218,3.268138316992753,-0.5572120414299908,-0.4780806074780841,-0.36678538232402413,-1.7329701707611065,3,right
5.837000000000001,-0.9532134518685605,0.24943275429911005,0.23726830642868754,0.04817029273402582,3.236903642097483,-0.5485269997619909,-0.47124813233745105,-0.3635521217581366,-1.6921758735069707,3,right
5.8420000000000005,-0.9514352857460997,0.23614158885927633,0.24094970676861371,3.974981709685612e-05,3.2022016967031863,-0.5394226887559549,-0.4639018147300149,-0.36061252839436586,-1.6502946685311723,3,right
5.843,-0.9494049712584967,0.2231453510599385,0.24459577369150307,-0.04766709537764311,3.1640070628366024,-0.5298969090843274,-0.45603142708833044,-0.3579858261068369,-1.6073384046889385,3,right
5.843999999999999,-0.9471240198064803,0.2104575406208415,0.24820328695344596,-0.09492814178770394,3.1222977920854182,-0.5199475853623621,-0.44762702358408996,-0.3556911062434529,-1.5633199132435467,3,right
5.846,-0.9445942349552381,0.19809123410306095,0.2517689690674678,-0.14172143017005398,3.077055584581486,-0.5095727675002537,-0.43867896240191717,-0.3537472807709414,-1.5182529902311808,3,right
5.847,-0.941817707671312,0.18605907018180104,0.25528948974782306,-0.18802512432132984,3.02826597304945,-0.4987706316076381,-0.4291779281292811,-0.3521730348628164,-1.4721523772395126,3,right
5.847,-0.9387968106859496,0.17437323580612726,0.25876147051757703,-0.23381749236796806,2.975918511487186,-0.487539480453866,-0.4191149540967944,-0.35098677999900474,-1.425033741922164,3,right
5.851,-0.9355341919820325,0.16304545323124559,0.262181489480524,-0.279076888446143,2.9200069664655848,-0.4758777436461849,-0.40848144453699153,-0.35020660837806666,-1.3769136592060394,3,right
5.852,-0.9320327673981124,0.15208696790395207,0.2655460862572007,-0.32378173536824906,2.860529506201367,-0.46378397797465326,-0.397269196491802,-0.3498502489601201,-1.327809593493709,3,right
5.855,-0.9282957123423062,0.1415085371737495,0.26885176708509206,-0.3679105090257864,2.7974888809776677,-0.45125686853133107,-0.3854704214327127,-0.34993502519086256,-1.277739881797946,3,right
5.856,-0.9243264526125082,0.13132041979253087,0.2720950100827643,-0.41144172512238814,2.730892590045629,-0.43829523105010143,-0.3730777665630559,-0.3504778144044889,-1.2267237176702137,3,right
5.861000000000001,-0.9201286543288331,0.12153236615764103,0.2752722706765561,-0.4543539285508744,2.660753032953687,-0.4248980156243205,-0.36008433577019494,-0.3514950089045185,-1.1747811357820876,3,right
5.862,-0.9157062130001843,0.11215360924966745,0.27837998718861856,-0.49662568557197606,2.5870876448097233,-0.41106431179829855,-0.3464837101936973,-0.3530024787228115,-1.1219329970158105,3,right
5.865,-0.9110632417689126,0.10319285622039813,0.2814145865855288,-0.5382355789197337,2.5099190152848005,-0.3967933549953735,-0.3322699683738799,-0.3550155360583681,-1.0682009739174703,3,right
5.8660000000000005,-0.9062040589022373,0.0946582805986826,0.2843724903855264,-0.579162205956803,2.4292749911570195,-0.382084534244088,-0.3174377059433861,-0.3575489013988685,-1.013607536363628,3,right
5.871,-0.9011331746208023,0.08655751509980437,0.2872501207206499,-0.6193841800010541,2.3451887621839345,-0.3669374011627292,-0.30198205482271023,-0.3606166713293159,-0.9581759372896248,3,right
5.872000000000001,-0.8958552773700819,0.07889764504354031,0.2900439065491864,-0.658880134942954,2.2576989300818946,-0.35135168016123175,-0.2858987018788258,-0.36423228803359736,-0.9019301983252563,3,right
5.876,-0.8903752196497863,0.07168520240487448,0.29275029001277597,-0.6976287332712577,2.1668495603807183,-0.3353272798181896,-0.2691839070042985,-0.36840851049627127,-0.8448950951810354,3,right
5.877000000000001,-0.8846980035208427,0.0649261605379791,0.2953657329296565,-0.735608677622507,2.0726902169122234,-0.31886430538946203,-0.25183452057247324,-0.37315738741342314,-0.787096142625852,3,right
5.88,-0.8788287659090851,0.05862592962730315,0.29788672341250455,-0.7727987259677543,1.9752759786813758,-0.3019630724035996,-0.23384800022252597,-0.37849023182300284,-0.7285595788945052,3,right
5.881,-0.8727727638210517,0.05278935292870361,0.3003097825979698,-0.80917771054778,1.8746674388591782,-0.28462412129805725,-0.21522242692635457,-0.3844175974666675,-0.6693123493613161,3,right
5.886,-0.8665353595831392,0.04742070386810522,0.3026314714727055,-0.8447245606658618,1.770930685626917,-0.26684823304890115,-0.19595652028746433,-0.3909492568967961,-0.6093820893138382,3,right
5.8870000000000005,-0.8601220062118234,0.042523684064547776,0.30484839777415473,-0.8794183294448906,1.664137264592059,-0.2486364457454575,-0.17604965302017264,-0.3980941813440194,-0.5487971056585608,3,right
5.89,-0.853538233017971,0.03810142233833753,0.306957222935364,-0.9132382246532917,1.5543641224869165,-0.22999007206009478,-0.15550186455562448,-0.40586052236231185,-0.4875863573884653,3,right
5.891,-0.8467896315409267,0.03415647475370838,0.30895466903622426,-0.946163643701825,1.4416935318522262,-0.21091071756207666,-0.13431387371927112,-0.41425559527043093,-0.4257794346403311,3,right
5.895,-0.839881841898508,0.030690825730682995,0.31083752572109224,-0.9781742129108836,1.3262129963990186,-0.19140029982317075,-0.11248709042262518,-0.42328586441024524,-0.36340653616780916,3,right
5.896,-0.832820539627704,0.027705890246135047,0.3126026570449801,-1.009249831145404,1.208015136733609,-0.17146106826145047,-0.09002362631026517,-0.43295693024427834,-0.30049844505448464,3,right
5.899,-0.8256114230770549,0.025202517131967077,0.3142470082175748,-1.0393707179119285,1.0871975561222214,-0.1510956246684841,-0.06692630430122518,-0.44327351831659934,-0.23708650248943872,3,right
5.9,-0.8182602013953936,0.02318099346878197,0.31576761222497957,-1.068517466009735,0.9638626859637035,-0.13030694436386797,-0.043198666962071704,-0.4542394701030132,-0.17320257942619594,3,right
5.904,-0.8107725831454591,0.02164105006556375,0.31716159631879276,-1.096671098825262,0.8381176106309909,-0.10909839791982893,-0.018844983647142207,-0.465857735778344,-0.10887904594440542,3,right
5.906000000000001,-0.8031542655580649,0.020581868009365636,0.31842618836611813,-1.12381313235632,0.7100738713344632,-0.08747377339739863,0.006129743660399491,-0.47813036893045563,-0.04414873813215933,3,right
5.909,-0.7954109244333578,0.02000208626292603,0.319558723051263,-1.1499256420497757,0.5798472486531162,-0.06543729903444578,0.03171977587484486,-0.4910585232525192,0.020955077694502864,3,right
5.91,-0.7875482046882272,0.019899810280210678,0.32055664791202276,-1.1749913345335463,0.4475575233725579,-0.04299366632464872,0.05791863377151036,-0.504642451246907,0.08639874361961833,3,right
5.9110000000000005,-0.7795717115412604,0.020272621599570464,0.3214175291835478,-1.1989936243208437,0.31332821526224125,-0.020148053425295163,0.08471909643236064,-0.518881504942114,0.15214825168701254,3,right
5.914,-0.7714870023187338,0.02111758836789595,0.3221390574170372,-1.2219167153824015,0.17728629996924242,0.003093851191940761,0.11211320108537803,-0.5337741384567,0.21816928796832172,3,right
5.915,-0.7632995788586088,0.022431276754317726,0.32271905284428304,-1.2437456865832448,0.03956190695575511,0.026725825047040547,0.1400922440084081,-0.5493179119414046,0.2844272778014297,3,right
5.916,-0.7550148804844459,0.02420976322042151,0.32315547046612003,-1.264466578364375,-0.0997119936376845,0.050741088318451075,0.1686467820350992,-0.5655094962631814,0.3508874303536919,3,right
5.919,-0.7466382775144048,0.026448647605772764,0.32344640484077736,-1.2840664771504708,-0.24039990457064675,0.07513228138852548,0.19776663433709632,-0.5823446779660603,0.41751478117370766,3,right
5.921,-0.7381750652614523,0.029143066959557866,0.3235900945385375,-1.3025335948577397,-0.3823641076509448,0.09989144367380057,0.2274408844010386,-0.5998183643503355,0.48427423231157685,3,right
5.925,-0.7296304584742557,0.03228771001902206,0.3235849262253438,-1.3198573424860012,-0.5254649595453251,0.12500999394441709,0.2576578822554003,-0.6179245886827275,0.5511305900967662,3,right
5.926,-0.7210095861681886,0.035876832216534094,0.3234294383452313,-1.336028397672046,-0.6695611771054176,0.15047871222529044,0.28840524703080495,-0.6366565155858706,0.618048600764913,3,right
5.928999999999999,-0.7123174868028863,0.039904271089069764,0.3231223243840303,-1.3510387662573,-0.8145101126164709,0.1762877233501399,0.3196698699390346,-0.6560064466573113,0.6849929841252711,3,right
5.93,-0.7035591037748595,0.044363461962680824,0.32266243570948233,-1.3648818379195389,-0.9601680193796577,0.20242648224051532,0.3514379177575121,-0.6759658263700161,0.7519284654607858,3,right
5.935,-0.6947392812069189,0.0492474537881304,0.3220487839944326,-1.3775524359150901,-1.106390308041595,0.22888376098296503,0.3836948369075576,-0.6965252483081837,0.818819805852957,3,right
5.936,-0.6858627600267547,0.054548925011382345,0.32128054323926747,-1.3890468609746314,-1.253031794087169,0.25564763777846444,0.4164253582162042,-0.717674461793933,0.8856318311237292,3,right
5.94,-0.6769341743346238,0.0602601993736121,0.3203570514155063,-1.3993629293923409,-1.399946936913786,0.2827054878391706,0.4496135024528024,-0.7394023789621803,0.9523294595866212,3,right
5.942,-0.6679580480671922,0.06637326154991671,0.31927781175413955,-1.4085000053447887,-1.5469900709068,0.3100439763084827,0.48324258673304693,-0.7616970823427487,1.0188777287991777,3,right
5.944,-0.6589387919721768,0.07287977255370845,0.31804249370124144,-1.416459027472588,-1.694015628937061,0.33764905328126543,0.5172952318844158,-0.7845458330104415,1.0852418215086046,3,right
5.945,-0.649880700914581,0.07977108485354042,0.316650933560454,-1.4232425297544387,-1.8408783587023214,0.3655059510019374,0.5517533708683282,-0.8079350793654707,1.1513870909821133,3,right
5.9479999999999995,-0.6407879515380889,0.08703825716897014,0.31510313483765323,-1.4288546566998144,-1.9874335323346008,0.39359918331893035,0.5865982583555899,-0.8318504666082623,1.217279085913077,3,right
5.949,-0.6316646003047429,0.09467206893106167,0.3133992682979573,-1.4333011728831608,-2.1335371496955613,0.42191254747478957,0.6218104815529121,-0.8562768469742454,1.2828835750935688,3,right
5.952999999999999,-0.6225145819338352,0.10266303441120767,0.3115396717392339,-1.4365894668391022,-2.279046135781481,0.450429128311907,0.6573699723794524,-0.8811982907957862,1.348166572043227,3,right
5.954,-0.613341708258693,0.11100141653878699,0.30952484948000997,-1.4387285493347939,-2.4238185326585286,0.47913130497455686,0.6932560210934358,-0.9065980984599359,1.4130943597836634,3,right
5.957999999999999,-0.6041496675184705,0.11967724044313198,0.307355471554585,-1.4397290460322054,-2.5677136863477483,0.5080007601885341,0.7294472914699677,-0.9324588133321319,1.4776335159468044,3,right
5.959,-0.5949420240994673,0.12868030676767483,0.30503237260517024,-1.4396031845498045,-2.7105924290774523,0.5370184922002784,0.7659218376321477,-0.9587622357174043,1.5417509384046346,3,right
5.9639999999999995,-0.5857222187349587,0.13800020481220068,0.30255655046068297,-1.4383647759298035,-2.8523172573186217,0.5661648294578981,0.8026571226385298,-0.9854894379320204,1.6054138716067905,3,right
5.965,-0.5764935691642883,0.14762632556110458,0.2999291643948124,-1.4360291905138762,-2.992752506016379,0.595419448116986,0.8396300389308475,-1.0126207805598177,1.668589933811336,3,right
5.968,-0.5672592712421363,0.15754787465254866,0.2971515330611738,-1.4326133282270097,-3.131764519427694,0.6247613924545469,0.8768169307467399,-1.0401359299687476,1.7312471453928417,3,right
5.968,-0.558022400478297,0.16775388533795546,0.29422513210943496,-1.428135583265965,-3.269221818972162,0.6541690982747215,0.9141936186029576,-1.0680138771643672,1.7933539584105886,3,right
5.975,-0.5487859139780658,0.17823323147386297,0.29115159149249564,-1.4226158031856768,-3.404995268499006,0.6836204193903026,0.9517354259552103,-1.096232958058177,1.8548792876183078,3,right
5.976,-0.5395526527441211,0.18897464057829105,0.28793269248055653,-1.416075242373818,-3.5389582373693638,0.713092657264289,0.9894172081414343,-1.1247708752298033,1.915792543095392,3,right
5.977,-0.5303253442923722,0.1999667069725163,0.2845703644034616,-1.4085365099007061,-3.6709867617484515,0.7425625938959095,1.027213383715798,-1.1536047212630622,1.9760636646779262,3,right
5.978,-0.5211066055272211,0.21119790501953284,0.2810666811480822,-1.4000235117287434,-3.8009597044973873,0.772006528035673,1.0650979682132373,-1.1827110037003628,2.035663158268853,3,right
5.979,-0.5118989458186681,0.22265660246585978,0.2774238574394167,-1.390561387262649,-3.928758914049236,0.8014003148140639,1.1030446100446967,-1.2120656714779907,2.0945621336180196,3,right
5.985,-0.5027047702256414,0.2343310738939735,0.2736442449292311,-1.3801764403352679,-4.0542693824503955,0.8307194087860439,1.1410266276115537,-1.2416441423765894,2.1527323422847324,3,right
5.986000000000001,-0.49352638281344613,0.24620951429466692,0.26973032810799896,-1.3688960653028992,-4.1773794017530586,0.8599389099812368,1.1790170463879435,-1.2714213308391071,2.210146214006711,3,right
5.987,-0.4843659900147932,0.25828005276828564,0.26568472005211113,-1.356748669968878,-4.297980716157129,0.889033611807541,1.2169886350598884,-1.3013716756920233,2.2667768901841314,3,right
5.987,-0.47522570398286806,0.27053076635848633,0.2615101580225243,-1.3437635976334479,-4.41596866630391,0.9179780492434799,1.2549139404222749,-1.3314691676353776,2.322598254061623,3,right
5.9879999999999995,-0.46610754588244024,0.28294969401069486,0.25720949894019224,-1.3299710499834372,-4.531242323106503,0.9467465461665333,1.2927653210747452,-1.3616873765505295,2.37758495767574,3,right
5.994,-0.4570134490639624,0.295524850633668,0.25278571477058115,-1.3154020114852523,-4.6437046102757416,0.9753132614063175,1.3305149800255327,-1.391999478711628,2.4317124457305326,3,right
5.994,-0.44794526206827323,0.30824424123254746,0.24824188785027698,-1.3000881753603384,-4.753262415682492,1.0036522335232658,1.368134996312128,-1.4223782839871995,2.4849569765615223,3,right
5.997000000000001,-0.4389047514147017,0.3210958750771397,0.24358120618610882,-1.2840618711035554,-4.859826691887258,1.0317374243953987,1.4055973557474535,-1.4527962631186013,2.5372956403459948,3,right
5.997999999999999,-0.4298936041309575,0.33406777986814096,0.2388069587557366,-1.2673559935026797,-4.963312546159968,1.0595427616951911,1.4428739808999296,-1.4832255751623649,2.5887063747150463,3,right
6.002999999999999,-0.42091342998905246,0.34714801586519406,0.2339225308388279,-1.2500039331151132,-5.063639320304492,1.0870421803378918,1.479936760415448,-1.5136380951836363,2.639167977920295,3,right
6.004,-0.41196576341904534,0.3603246899427189,0.22893139940715457,-1.232039508155828,-5.160730660593813,1.1142096629819196,1.5167575777888074,-1.5440054422880418,2.688660119705569,3,right
6.007000000000001,-0.40305206508319735,0.37358596954117707,0.2238371285972875,-1.2134968977486311,-5.254514578112994,1.1410192796611576,1.5533083396916365,-1.5742990080793242,2.7371633500312083,3,right
6.007999999999999,-0.39417372310726767,0.38692009648220543,0.2186433652808356,-1.1944105764909676,-5.344923499797963,1.1674452266280881,1.5895610039632204,-1.604489985630066,2.7846591057959,3,right
6.013,-0.38533205398153575,0.40031540061509463,0.21335383473755765,-1.1748152502807343,-5.43189431044889,1.1934618644857584,1.6254876073699411,-1.634549399052669,2.8311297156981894,3,right
6.013999999999999,-0.3765283031596853,0.41376031325860796,0.20797233643006158,-1.1547457933519092,-5.51536838598744,1.2190437556855358,1.6610602932382736,-1.6644481337575538,2.876558403376954,3,right
6.019,-0.3677636453966139,0.42724338039712845,0.2025027398771634,-1.1342371864642404,-5.595291618217455,1.2441657014665148,1.6962513390654217,-1.694156967485251,2.9209292889672547,3,right
6.02,-0.35903918487417585,0.44075327558539773,0.1969489806257192,-1.1133244561907782,-5.671614431338813,1.2688027783112588,1.7310331842107434,-1.723646602198669,2.964227389205019,3,right
6.022,-0.35035595516662105,0.45427881251188845,0.19131505632427756,-1.0920426152456701,-5.744291790454135,1.2929303739913105,1.765378457770093,-1.752887696921372,3.006438616211029,3,right
6.022,-0.3417149190973325,0.46780895716729015,0.1856050229009336,-1.0704266037933812,-5.8132832022978205,1.3165242232745897,1.7992600067341167,-1.7818509016071473,3.0475497750816447,3,right
6.027,-0.33311696853799583,0.48133283956316475,0.17982299083919143,-1.048511231679336,-5.8785527084065885,1.3395604433653978,1.8326509245303646,-1.8105068921255132,3.0875485604106245,3,right
6.028,-0.3245629242024195,0.4948397649472435,0.17397312153068661,-1.0263311215209214,-5.940068870940213,1.3620155691462912,1.8655245800478208,-1.83882640644711,3.1264235518632653,3,right
6.032,-0.3160535354902149,0.5083192244659187,0.1680596236668415,-1.0039206525968276,-5.9978047513505555,1.383866588289549,1.8978546472411295,-1.8667802821121133,3.1641642089209436,3,right
6.0329999999999995,-0.30758948043861767,0.5217609052314827,0.1620867496189,-0.9813139054718457,-6.051737882086349,1.4050909763043624,1.9296151354103803,-1.8943394950639256,3.2007608649109387,3,right
6.0360000000000005,-0.2991713658410597,0.5351546997612894,0.1560587917519313,-0.9585446072934772,-6.101850231510386,1.4256667315842069,1.9607804202508363,-1.9214751999294408,3.2362047204331894,3,right
6.037000000000001,-0.29079972758709494,0.5484907147673825,0.14998007862459584,-0.9356460776960512,-6.148128162194914,1.4455724105171124,1.991325275765422,-1.9481587718261195,3.2704878362923844,3,right
6.041,-0.2824750312700341,0.5617592792875414,0.14385497104084471,-0.9126511752474772,-6.190562382750153,1.464787162719766,2.0212249071311583,-1.974361849774988,3.3036031260405023,3,right
6.042000000000001,-0.27419767309683546,0.574950952160698,0.13768785793785232,-0.8895922443732946,-6.229147893329852,1.4832907664545034,2.0504549846090163,-2.0000563817974464,3.335544348231602,3,right
6.046,-0.26596798112007075,0.5880565288597314,0.13148315211066489,-0.8665010626923115,-6.263883924946809,1.5010636642863309,2.0789916785281677,-2.02521467169943,3.3663060984631987,3,right
6.047000000000001,-0.2577862167957211,0.6010670477029392,0.12524528578355787,-0.8434087886978405,-6.294773872720249,1.5180869990351302,2.1068116950901596,-2.04980942717979,3.395883801154569,3,right
6.047000000000001,-0.2496525768566433,0.613973795473001,0.11897870604081844,-0.8203459097183602,-6.321825223165907,1.5343426500761639,2.133892312226158,-2.0738138082407884,3.4242737007917565,3,right
6.055,-0.2415671954825985,0.6267683124789563,0.11268787013193717,-0.7973421900913332,-6.3450494756286036,1.5498132700398928,2.1602114144548152,-2.0972014745117824,3.45147285224503,3,right
6.056,-0.23353014674226727,0.6394423971016611,0.10637724067214775,-0.7744266195441476,-6.364462058027612,1.564482321905766,2.1857475259698513,-2.11994663046083,3.4774791098817777,3,right
6.056,-0.22554144727814865,0.6519881098650308,0.10005128076258743,-0.7516273620774159,-6.380082237481681,1.578334116211383,2.210479841694792,-2.142024068124781,3.502291115411615,3,right
6.057,-0.21760105920248518,0.6643977770741182,0.0937144490491726,-0.7289717061881773,-6.391933027103418,1.5913538476082978,2.2343882563237023,-2.1634092073519247,3.5259082845176963,3,right
6.057,-0.20970889317175279,0.6766639940592891,0.08737119473138154,-0.7064860175719851,-6.400041090649346,1.6035276297223817,2.2574533914212283,-2.1840781336224757,3.5483307923489433,3,right
6.06,-0.20186481160664424,0.6887796280656242,0.08102595252790845,-0.6841956951420061,-6.404436646293497,1.614842527545368,2.2796566206529567,-2.2040076335102814,3.569559557944463,3,right
6.06,-0.19406863202405727,0.7007378208269305,0.07468313760202805,-0.6621251306615316,-6.4051533700477865,1.6252865870696898,2.300980093214732,-2.223175227847117,3.589596227658001,3,right
6.066,-0.1863201304500657,0.7125319908620291,0.06834714044128203,-0.6402976719855968,-6.402228298934066,1.634848862147351,2.3214067555271467,-2.241559202648904,3.608443157646851,3,right
6.067,-0.1786190448891757,0.7241558355273167,0.06202232167708846,-0.6187355898477258,-6.395701733920543,1.6435194386053045,2.340920371258955,-2.2591386378610543,3.626103395486202,3,right
6.072,-0.1709650788350877,0.7356033328550537,0.0557130068249985,-0.5974600481284508,-6.385617142624722,1.6512894556473208,2.35950553974063,-2.2758934339779566,3.6425806609664946,3,right
6.072,-0.1633579048212261,0.7468687432017068,0.049423480927143444,-0.5764910775429489,-6.372021061774534,1.6581511245697937,2.3771477128267082,-2.291804336589369,3.6578793261279317,3,right
6.075,-0.15579716802337248,0.7579466107251791,0.043157983084547026,-0.5558475526859007,-6.354962999409004,1.6640977448163723,2.3938332102629443,-2.3068529589041833,3.672004394582884,3,right
6.0760000000000005,-0.1482824899393197,0.7688317647045463,0.03692070087660588,-0.5355471723724924,-6.334495336789595,1.6691237173937241,2.4095492336116373,-2.321021802299639,3.6849614801735373,3,right
6.081,-0.14081347218023216,0.7795193207118828,0.03071576467568179,-0.5156064432153669,-6.310673229983263,1.6732245556681267,2.4242838787857783,-2.334294274941672,3.6967567850087417,3,right
6.081,-0.13338970041423975,0.7900046816432276,0.02454724187506149,-0.49604066637825595,-6.283554511068348,1.6763968935599594,2.4380261472399276,-2.3466547085195733,3.7073970769206444,3,right
6.085,-0.1260107485038907,0.8002835386129539,0.01841913105752159,-0.47686392744801354,-6.253199588904611,1.6786384911505217,2.4507659558629418,-2.358088373135638,3.7168896663783535,3,right
6.086,-0.11867618287554775,0.8103518717111594,0.012335356137440013,-0.4580890893677971,-6.21967134939911,1.6799482377129524,2.4624941456148552,-2.368581490387895,3.7252423828925245,3,right
6.091,-0.11138556715074113,0.8202059506182686,0.0062997605101593425,-0.4397277883752215,-6.183035055190138,1.680326152176363,2.473202488947372,-2.3781212446813917,3.7324635509414548,3,right
6.091,-0.10413846705758747,0.8298423350660664,0.000316101239182818,-0.42179043289042206,-6.143358244662165,1.6797733810296114,2.4828836960445493,-2.3866957928008534,3.7385619654459696,3,right
6.097,-0.09693445562669799,0.8392578751293911,-0.005611956691904551,-0.4042862053001186,-6.100710630195593,1.678292193668491,2.4915314199173406,-2.3942942717748306,3.743546866817118,3,right
6.097,-0.0897731186620104,0.8484497113275639,-0.011480846038268174,-0.38722306658495376,-6.055163995546229,1.675885975187413,2.4991402603827546,-2.4009068050587183,3.747427915597434,3,right
6.1,-0.08265406046307164,0.8574152745099152,-0.01728710284000908,-0.37060776373859755,-6.006792092240664,1.6725592166140075,2.505705766955419,-2.40652450706125,3.7502151667133137,3,right
6.1,-0.07557690976160197,0.8661522854960001,-0.023027371831774248,-0.35444583992834944,-5.955670534865166,1.6683175025823875,2.5112244406763873,-2.411139486036281,3.7519190433528378,3,right
6.105,-0.06854132582126221,0.8746587544399427,-0.028698411690092067,-0.3387416473482351,-5.901876695117417,1.663167496438178,2.5156937349010273,-2.41474484535883,3.7525503104802174,3,right
6.107,-0.061547004636349434,0.8829329798915019,-0.0342971000921715,-0.32349836271687893,-5.8454895944822995,1.657116922765766,2.5191120550648542,-2.417334683201506,3.7521200479948877,3,right
6.109,-0.054593685155688264,0.8909735475326241,-0.03982043856109694,-0.3087180053737318,-5.786589795385045,1.650174547325597,2.5214787574431536,-2.418904090624563,3.7506396235401724,3,right
6.11,-0.047681155453328426,0.8987793285748222,-0.045265557071941034,-0.2944014579285474,-5.725259290667361,1.642350154386742,2.5227941469172315,-2.4194491480899214,3.7481206649633547,3,right
6.114,-0.040809258765847595,0.9063494778091999,-0.05062971838935766,-0.2805484894203215,-5.661581391224745,1.633654521437372,2.5230594737571015,-2.4189669204065907,3.7445750324259417,3,right
6.115,-0.03397789931706997,0.913683431307913,-0.055910322103562796,-0.2671577809432365,-5.595640611635947,1.6240993912532184,2.5222769294315017,-2.4174554501295544,3.7400147901905907,3,right
6.115,-0.027187047858256094,0.9207809037825291,-0.061104908334205434,-0.25422695369848247,-5.527522553608579,1.613697441301563,2.520449641473493,-2.4149137495190294,3.7344521782616824,3,right
6.12,-0.02043674686516874,0.9276418856094719,-0.06621116108058678,-0.24175259943215663,-5.457313787058123,1.6024622504558033,2.5175816674636162,-2.4113417913221054,3.7278995843298377,3,right
6.121,-0.013727115345992635,0.9342666395344764,-0.07122691120437293,-0.22973031322076787,-5.385101728631083,1.5904082629931717,2.513677988209965,-2.406740498723614,3.720369516621268,3,right
6.121,-0.007058353221549781,0.9406556970677824,-0.07615013903196118,-0.2181547285272026,-5.310974517618051,1.5775507499086838,2.5087445001811384,-2.4011117347223188,3.7118745780964684,3,right
6.125,-0.0004307452450517463,0.9468098545822855,-0.08097897656266548,-0.20701955425137128,-5.235020889902693,1.5639057678906247,2.50278800720833,-2.394458291027522,3.702427442163657,3,right
6.125,0.006155335563640115,0.9527301691293587,-0.08571170927141937,-0.19631761314114668,-5.157330051858196,1.549490116866879,2.4958162114494233,-2.386783876480437,3.6920408299160337,3,right
6.13,0.012699424985036978,0.9584179539905747,-0.09034677749755746,-0.18604088073054018,-5.077991556803495,1.5343212973437235,2.487837703600942,-2.3780931049841594,3.6807274888684964,3,right
6.131,0.01920096517483814,0.9638747739867829,-0.09488277741009958,-0.17618052417327174,-4.997095185920059,1.518417468441818,2.4788619523407593,-2.3683914829231316,3.668500173166698,3,right
6.135,0.02565930274527799,0.9691024405680346,-0.0993184615378815,-0.1667269407010361,-4.914730834253778,1.5017974069655802,2.4688992929815576,-2.357685396050068,3.6553716252386383,3,right
6.135,0.03207368734672449,0.9741030067081662,-0.10365273885464711,-0.15766979563693553,-4.83098840171547,1.4844804675253305,2.457960915312136,-2.34598209581538,3.6413545588563077,3,right
6.141,0.038443270740348444,0.9788787616272049,-0.10788467441453471,-0.148998059935731,-4.745957688847811,1.466486543666562,2.446058850600805,-2.333289685111253,3.6264616435722954,3,right
6.142,0.04476710635011664,0.9834322253648958,-0.11201348853960157,-0.14070004722373278,-4.65972829712227,1.4478360299586284,2.4332059577322727,-2.3196171033996227,3.6107054904936677,3,right
6.144,0.05104414927962312,0.9877661432295763,-0.11603855556723512,-0.13276345031228748,-4.572389533525674,1.4285497849931506,2.4194159084466214,-2.304974111190464,3.594098639352882,3,right
6.145,0.05727325677713747,0.9918834801463037,-0.11995940217134808,-0.12517537715992533,-4.48403031919233,1.4086490952404929,2.4047031716462177,-2.2893712738339342,3.5766535468329703,3,right
6.149,0.06345318913088298,0.9957874149253908,-0.12377570527579713,-0.11792238625930264,-4.394739101834173,1.3881556397107733,2.3890829967336566,-2.2728199445871233,3.5583825761017738,3,right
6.149,0.06958261097556115,0.9994813344688029,-0.1274872895798646,-0.11099052142611224,-4.304603771718227,1.367091455364051,2.3725713959411574,-2.2553322469133668,3.539297987507528,3,right
6.153,0.07566009299073626,1.0029688279288578,-0.13109412471443596,-0.10436534596813436,-4.213711580937763,1.345478903212571,2.3551851256091827,-2.2369210559693196,3.519411930385723,3,right
6.155,0.08168411397204135,1.0062536808309817,-0.13459632204627747,-0.09803197621356215,-4.122149065720794,1.323340635056236,2.3369416663694356,-2.217599979232273,3.498736435924773,3,right
6.1579999999999995,0.08765306325628233,1.0093398691687347,-0.13799413114788525,-0.09197511437865709,-4.0300019715172,1.3006995607908467,2.317859202184839,-2.197383336217505,3.4772834110356956,3,right
6.159,0.09356524348049632,1.0122315534753004,-0.14128793595080427,-0.08617908075567017,-3.937355180603525,1.2775788162270691,2.2979565981965946,-2.1762861372327995,3.455064633168706,3,right
6.165,0.09941887365327341,1.014933072872856,-0.14447825060013633,-0.08062784520280156,-3.8442926419426273,1.2540017313565812,2.277253377325946,-2.154324061114668,3.432091746017345,3,right
6.166,0.10521209251501133,1.0174489390999903,-0.14756571502731933,-0.0753050579187654,-3.750897303033628,1.229991799000408,2.255769695575868,-2.131513431888216,3.408376256048551,3,right
6.167999999999999,0.11094296216287727,1.0197838305159717,-0.15055109025820954,-0.07019407948527473,-3.6572510434862013,1.205572643773075,2.233526315975554,-2.1078711942900967,3.383929529794858,3,right
6.169,0.11660947191610127,1.0219425860788889,-0.15343525347468673,-0.06527801016146391,-3.563434610052038,1.180767991294902,2.2105445811082656,-2.083414888091488,3.358762791842762,3,right
6.175,0.12220954239636003,1.023930199294111,-0.1562191928489812,-0.060539718414922165,-3.469527552845364,1.1556016375835088,2.18684638416087,-2.0581626211555943,3.332887123449146,3,right
6.176,0.12774102979529525,1.0257518121300973,-0.15890400216903278,-0.05596186867461895,-3.3756081624836525,1.1300974185544395,2.1624541384312215,-2.0321330411618095,3.3063134617155576,3,right
6.178,0.13320173029782453,1.0274127088982576,-0.16149087527175993,-0.05152694829156193,-3.2817534078792066,1.104279179559698,2.137390745227406,-2.0053453059263076,3.2790525992480717,3,right
6.178999999999999,0.13858938462710418,1.028918310092005,-0.16398110030137394,-0.04721729369353832,-3.188038874412004,1.0781707448919486,2.1116795600908165,-1.9778190522465673,3.2511151842284214,3,right
6.183,0.14390168267420342,1.0302741661786825,-0.16637605381150866,-0.04301511572075096,-3.094538702214168,1.0517958871811666,2.085344357273044,-1.9495743631950908,3.2225117208200826,3,right
6.185,0.14913626817341438,1.0314859513366998,-0.1686771947312353,-0.038902524129570654,-3.001325524296605,1.0251782966096208,2.0584092924542645,-1.9206317338412071,3.1932525698544705,3,right
6.186,0.15429074338661167,1.0325594571290915,-0.17088605821474603,-0.034861551251986096,-2.9084704042487495,0.9983415498702397,2.0308988639871286,-1.8910120356567182,3.1633479498576755,3,right
6.189,0.15936267376873603,1.0335005861052495,-0.17300424939246534,-0.030874174820217908,-2.8160427733605538,0.971309078829263,2.0028378734850976,-1.8607364803612634,3.1328079386872547,3,right
6.19,0.16434959259601203,1.034315345324441,-0.1750334370389468,-0.0269223400741053,-2.7241103676045433,0.9441041390365035,1.9742513868706222,-1.8298265842402728,3.101642476163927,3,right
6.191,0.16924900554272823,1.0350098397952576,-0.1769753471716788,-0.022987981463271755,-2.6327391659749826,0.9167497785555181,1.945164696698729,-1.7983041336874428,3.0698613679639566,3,right
6.193,0.1740583951896831,1.0355902658225609,-0.17883175659525868,-0.019053044364114573,-2.5419933322702857,0.8892688077685377,1.9156032860332757,-1.766191152219593,3.037474290825176,3,right
6.193,0.1787752254397959,1.036062904248654,-0.18060448640665763,-0.015099507123880694,-2.451935161818349,0.8616837706273953,1.8855927938534411,-1.7335098689309558,3.004490799000577,3,right
6.1979999999999995,0.1833969458090458,1.0364341135712543,-0.18229539547802018,-0.011109403549949022,-2.3626250335879138,0.8340169174916582,1.8551589819069516,-1.7002826882963922,2.9709203318681974,3,right
6.199,0.18792099555889027,1.036710322918591,-0.183906373932615,-0.007064845854553399,-2.274121367542978,0.8062901795116895,1.8243277029251725,-1.666532161231326,2.936772222604288,3,right
6.202999999999999,0.19234480763983866,1.0368980248604003,-0.1854393366273958,-0.0029480480435500056,-2.186480586981681,0.7785251444774429,1.793124870113912,-1.6322809573145625,2.902055707825017,3,right
6.204,0.19666581242150635,1.0370037680329356,-0.18689621665252762,0.001258650262271811,-2.099757085603214,0.7507430340535575,1.7615764278325592,-1.5975518380785878,2.8667799381003074,3,right
6.207000000000001,0.20088144118930595,1.0370341495582365,-0.18827895885458032,0.005572759584992523,-2.014003199048636,0.7229646823211479,1.7297083233730475,-1.562367631270439,2.83095398924171,3,right
6.207999999999999,0.20498912939175484,1.0369958072423289,-0.18958951338698027,0.010011615938343734,-1.9292691806639397,0.695210515546576,1.6975464797490591,-1.526751205984802,2.7945868742646214,3,right
6.212000000000001,0.20898631962645192,1.0368954115415927,-0.19082982928996536,0.014592355779590246,-1.8456031812363525,0.6675005330974343,1.665116769404898,-1.4907254485696169,2.7576875559235114,3,right
6.212999999999999,0.21287046435598275,1.0367396572912206,-0.19200184810337434,0.01933189057694351,-1.7630512324576257,0.6398542894259887,1.6324449887525354,-1.4543132392031646,2.7202649597172717,3,right
6.218,0.21663902834442011,1.0365352551962805,-0.19310749751990375,0.024246881005295037,-1.6816572338710047,0.6122908770403915,1.5995568334444958,-1.4175374290403735,2.6823279872602255,3,right
6.218,0.2202894908006662,1.036288923094823,-0.19414868509521047,0.029353710783465384,-1.6014629430616243,0.5848289103841059,1.5664778742894723,-1.3804208178248942,2.643885529912822,3,right
6.222,0.22381934720992694,1.0360073770128693,-0.19512729204383863,0.0346684601666201,-1.5225079688532734,0.5574865105441588,1.533233533716872,-1.342986131862395,2.6049464825645234,3,right
6.223,0.22722611083231822,1.0356973220427688,-0.1960451671625157,0.040206879108007285,-1.4448297672777992,0.5302812907090836,1.4998490626958694,-1.3052560022494784,2.5655197574599216,3,right
6.227,0.23050731384889994,1.0353654430890054,-0.1969041209312802,0.045984360104722045,-1.3684636400868564,0.5032303422976983,1.4663495180139912,-1.2672529432516408,2.5256142979576746,3,right
6.228,0.23366050813870376,1.0350183955360286,-0.19770591984861757,0.05201591074279955,-1.2934427355792677,0.47635022168021096,1.4327597398197869,-1.2289993307227862,2.4852390921104117,3,right
6.231,0.23668326567385592,1.034662795896751,-0.1984522810612782,0.058316125957580234,-1.2197980515209226,0.44965693741353585,1.3991043293337353,-1.1905173804579519,2.4444031859523716,3,right
6.232,0.239573178524283,1.034305212496921,-0.19914486735246562,0.06489916002597675,-1.1475584399379037,0.42316593791314494,1.3654076266312045,-1.1518291263701215,2.4031156963801537,3,right
6.236000000000001,0.24232785847090496,1.033952156241987,-0.19978528255190423,0.07177869830800099,-1.0767506135673968,0.39689209948427057,1.3316936884010229,-1.1129563983812831,2.361385823510609,3,right
6.237,0.2449449362388531,1.0336100715010714,-0.20037506742724534,0.07896792875568054,-1.0073991537548803,0.3708497146358098,1.2979862655830308,-1.0739207999172282,2.319222862398589,3,right
6.2410000000000005,0.247422060381431,1.0332853271281321,-0.20091569610986315,0.08647951320830545,-0.9395265195901326,0.34505248060086036,1.2643087807878661,-1.0347436848950011,2.2766362139959555,3,right
6.242000000000001,0.2497568958709698,1.0329842076253655,-0.20140857310154098,0.09432555849379656,-0.8731530580786907,0.31951348798844215,1.2306843054021792,-0.9954461340913712,2.233635395232,3,right
6.247000000000001,0.25194712248196094,1.0327129044404173,-0.20185503090057938,0.10251758735687573,-0.8082970151495869,0.29424520949162025,1.1971355362824976,-0.9560489307802367,2.1902300480941617,3,right
6.247000000000001,0.25399043307997116,1.0324775073777315,-0.2022563282712217,0.11106650923564251,-0.7449745473044237,0.26925948857794885,1.1636847719410437,-0.9165725355264606,2.1464299475867343,3,right
6.251,0.25588453194888633,1.0322839960962116,-0.202613649157197,0.11998259090912178,-0.6831997337171539,0.24456752808889728,1.130353888177906,-0.8770370600962621,2.10224500848869,3,right
6.252000000000001,0.25762713328946274,1.0321382316623646,-0.20292810221661983,0.1292754270393395,-0.6229845885982864,0.2201798786756936,1.0971643133689113,-0.8374622408088633,2.0576852910538146,3,right
6.252000000000001,0.25921596000544,1.0320459481304871,-0.20320072093980726,0.13895391063250717,-0.5643390736416413,0.19610642699983305,1.0641370040773426,-0.7978674123106068,2.012761006197011,3,right
6.256,0.2606487428794096,1.0320127441243077,-0.20343246429871897,0.14902620344494927,-0.5072711103762135,0.1723563836273406,1.0312924219127217,-0.7582714831174503,1.967482520932746,3,right
6.257000000000001,0.26192322024062314,1.0320440743934554,-0.20362421786040127,0.15949970638614605,-0.45178659230993323,0.14893827060415485,0.9986505123055482,-0.718692913906773,1.9218603646073096,3,right
6.257999999999999,0.2630371382235446,1.0321452413171073,-0.20377679528717693,0.17038103010065514,-0.3978893970553263,0.1258599089879285,0.9662306854088355,-0.6791496988826177,1.8759052360637218,3,right
6.261,0.2639882516946992,1.032321386331658,-0.20389094015081807,0.18167596614271986,-0.3455813991693072,0.10312840712911549,0.9340517990830817,-0.6396593501736324,1.829628011653881,3,right
6.2620000000000005,0.264774325898998,1.0325774812674882,-0.20396732799088674,0.19338945928680779,-0.29486248474259685,0.08075015078219346,0.9021321438709438,-0.600238885150054,1.7830397539669134,3,right
6.266,0.2653931388575499,1.032918319589065,-0.20400656853452168,0.2055255813902075,-0.24573056848009592,0.05873079584181872,0.870489429868524,-0.5609048165461709,1.7361517211417343,3,right
6.267,0.2658424845289843,1.033348507544202,-0.20400920797667402,0.21808750699408483,-0.19818161348040944,0.0370752639830573,0.8391407754008635,-0.5216731452748589,1.6889753766308992,3,right
6.271,0.26612017671671195,1.033872455243023,-0.20397573121306983,0.2310774907223136,-0.15220965362856048,0.015787741198822952,0.8081026974099893,-0.4825593558209801,1.6415223992819368,3,right
6.272,0.2662240536696202,1.03449436770251,-0.20390656392818746,0.24449684651295164,-0.10780681846074118,-0.005128320828722987,0.7773911034646445,-0.44357841410068294,1.5938046936014867,3,right
6.275,0.26615198329083917,1.0352182359063482,-0.20380207446641793,0.2583459287184541,-0.06496336036449274,-0.02567020058501148,0.7470212853016868,-0.40474476767393486,1.5458344000667488,3,right
6.276,0.2659018688425689,1.0360478279416185,-0.2036625754532989,0.2726241151119435,-0.023667683982232145,-0.04583589986929136,0.7170079138100219,-0.36607234819795653,1.4976239053479439,3,right
6.28,0.2654716550180371,1.0369866802832663,-0.2034883251774017,0.28732979183808827,0.016093622309452542,-0.06562413429032099,0.6873650353688794,-0.3275745760096069,1.4491858523047347,3,right
6.281000000000001,0.26485933424667685,1.0380380893030137,-0.20327952878204117,0.30246034034837127,0.05433575296784146,-0.08503432117053306,0.6581060694532181,-0.28926436672518974,1.4005331496188287,3,right
6.285,0.2640629531043151,1.03920510308029,-0.20303633934290388,0.3180121263617646,0.09107565001811704,-0.10406656491660038,0.6292438074200721,-0.251154139746616,1.3516789809242915,3,right
6.2860000000000005,0.26308061871362753,1.0404905135887481,-0.20275885892103304,0.33398049089304904,0.12633196606764915,-0.12272163991324786,0.6007904123907079,-0.21325582856335526,1.3026368132964516,3,right
6.291,0.26191050503948554,1.0418968493240846,-0.20244713967998518,0.3503597433922362,0.16012502571042744,-0.14100097099607092,0.5727574201445687,-0.1755808927401481,1.253420404959657,3,right
6.292000000000001,0.26055085900779185,1.0434263684283915,-0.20210118514240305,0.36714315703976047,0.1924767854272249,-0.15890661155803704,0.5451557409421194,-0.13814033148102492,1.2040438120735673,3,right
6.297000000000001,0.25900000640214377,1.0450810523538074,-0.20172095163922,0.3843229662433008,0.22341079208281825,-0.17644121934326387,0.5179956621948753,-0.10094469866078405,1.1545213944571282,3,right
6.297999999999999,0.2572563575163622,1.0468626000945633,-0.20130634997930907,0.4018903663832709,0.25295214011739114,-0.19360802998059062,0.4912868519021083,-0.06400411921572217,1.1048678201088702,3,right
6.3,0.255318412560414,1.0487724230027764,-0.2008572473413804,0.41983551585517603,0.2811274275251087,-0.2104108283083862,0.465038362774961,-0.027328306786084004,1.0550980683817188,3,right
6.301,0.25318476683219876,1.0508116401907108,-0.2003734693662465,0.4381475404581694,0.3079647107087829,-0.22685391754097364,0.43925863696996476,0.009073417496600665,1.0052274316700822,3,right
6.305,0.2508541156777857,1.052981074511278,-0.19985480241025466,0.4568145401802544,0.3334934582955498,-0.24294208632599398,0.4139555113552546,0.04519210518339188,0.955271515466607,3,right
6.305,0.24832525926873725,1.0552812490993633,-0.1993009959121789,0.47582359843166044,0.3577445039945605,-0.2586805737409895,0.3891362232340945,0.08101915974836627,0.9052462366456602,3,right
6.309,0.24559710723004471,1.0577123844491503,-0.19871176482713754,0.4951607937789725,0.3807499985738434,-0.27407503227645325,0.36480741645167053,0.11654631500014861,0.8551678198303058,3,right
6.311,0.24266868315746595,1.0602743959975207,-0.1980867920922015,0.5148112142336114,0.40254336102974414,-0.28913148885157225,0.3409751478124796,0.15176561276828926,0.805052791699301,3,right
6.316,0.2395391290669745,1.0629668921823208,-0.19742573110664302,0.5347589741492437,0.4231592290186773,-0.30385630390789026,0.3176448937370278,0.18666937996739094,0.7549179730904356,3,right
6.316,0.2362077098195395,1.0657891729481355,-0.19672820823131662,0.5549872337836385,0.44263340861735095,-0.31825612862512603,0.29482155708796204,0.22125020514102797,0.7047804687563907,3,right
6.32,0.2326738175602396,1.0687402286807113,-0.19599382533264,0.5754782215813887,0.4610028234741462,-0.33233786030241497,0.27250947411288856,0.25550091458973234,0.6546576546949925,3,right
6.321000000000001,0.22893697620106124,1.0718187395617231,-0.19522216241068338,0.5962132592347641,0.4783054634109506,-0.3461085959472886,0.25071242153110174,0.2894145482019901,0.6045671633047225,3,right
6.321000000000001,0.2249968459651182,1.0750230753446206,-0.19441278035472873,0.6171727895807683,0.4945803325314718,-0.359575584113773,0.22943362393425387,0.32298433513430136,0.5545268672086108,3,right
6.325,0.22085322800358234,1.078351295557914,-0.19356522387190325,0.6383364073932253,0.5098673968888815,-0.3727461750300752,0.2086757617509929,0.3562036695009845,0.5045548629187209,3,right
6.3260000000000005,0.21650606909764764,1.0818011501461942,-0.19267902464347236,0.6596828931294195,0.5242075317625804,-0.3856277690554327,0.18844097994854456,0.38906608621786065,0.4546694551844901,3,right
6.327000000000001,0.21195546646131974,1.085370080563942,-0.1917537047718577,0.6811902496175185,0.5376424685746927,-0.3982277635685948,0.16873089750435102,0.4215652371149337,0.40488914227605877,3,right
6.329,0.20720167266092518,1.0890552213421174,-0.19078878057813364,0.7028357413019096,0.5502147413929082,-0.4105534987083804,0.14954661760384433,0.45369486741659576,0.35523260212488067,3,right
6.33,0.20224510066260246,1.0928534021513776,-0.1897837667978452,0.7245959349986706,0.5619676328174931,-0.42261220295982094,0.1308887385062295,0.48544879268375,0.30571867917834594,3,right
6.335,0.19708632901333445,1.0967611503908006,-0.18873818121513083,0.74644674074417,0.5729451189665368,-0.43441093989741325,0.1127573650216576,0.516820876311199,0.2563663718254526,3,right
6.336,0.19172610715768929,1.100774694339047,-0.187651549774269,0.7683634516898756,0.5831918133521808,-0.4459565570773943,0.09515212054467859,0.5478050076725849,0.20719482025091554,3,right
6.34,0.18616536088894226,1.1048899669130392,-0.18652341220568258,0.7903207826622067,0.5927529095843027,-0.45725563749628506,0.07807215959037529,0.5783950810040885,0.15822329457551518,3,right
6.34,0.1804051979259714,1.1091026100841652,-0.18535332819718234,0.8122929073762112,0.6016741229170536,-0.4683144537133821,0.061516180781091105,0.608584975116998,0.1094711831409495,3,right
6.343999999999999,0.17444691359656367,1.1134079800033168,-0.18414088413539023,0.8342534943659758,0.6100016306677841,-0.47913892467037705,0.04548244023317419,0.6383685340281429,0.06095798079797563,3,right
6.345,0.16829199659603614,1.1178011528823983,-0.18288570043955538,0.8561757416947913,0.6177820115359235,-0.48973457524057634,0.029968765294669495,0.6677395485960577,0.01270327705719956,3,right
6.349,0.1619421347797391,1.1222769316684835,-0.18158743951140907,0.8780324105081326,0.6250621838475391,-0.5001064985395036,0.014972568586393762,0.6966917392495896,-0.035273256037495315,3,right
6.35,0.15539922093622932,1.1268298535292494,-0.1802458143292197,0.8997958574924875,0.6318893427496002,-0.5102593210279925,0.0004908623003281206,0.7252187398944967,-0.08295187645220437,3,right
6.354,0.14866535846234108,1.1314541981552433,-0.17886059771479076,0.9214380663029489,0.6383108963763967,-0.520197170438219,-0.013479727289243761,0.7533140830823982,-0.13031278526152304,3,right
6.355,0.1417428668096653,1.1361439968897011,-0.17743163229217343,0.9429306780223017,0.6443744010091303,-0.5299236465524787,-0.026942945144938633,0.7809711865252343,-0.17733614044011461,3,right
6.359,0.13463428649780185,1.140893042724799,-0.1759588411354287,0.9642450207140627,0.6501274952483912,-0.539441794863885,-0.03990289265742699,0.8081833410371747,-0.22400207148424972,3,right
6.36,0.12734238341811102,1.145694901243064,-0.1744422390678525,0.9853521381315861,0.6556178332180699,-0.5487540831475441,-0.052364012748678676,0.8349436999846683,-0.2702906949993301,3,right
6.3629999999999995,0.11987015211883453,1.1505429226127062,-0.17288194451940553,1.006222817644915,0.6608930168182281,-0.557862380970156,-0.06433107492598573,0.8612452703240749,-0.31618213138843954,3,right
6.365,0.11222081779509402,1.15543025474746,-0.17127819176764686,1.0268276174465456,0.666000527043556,-0.5667679421653885,-0.07580916032400271,0.8870809053050344,-0.36165652277593763,3,right
6.37,0.10439783680147668,1.1603498577088665,-0.1696313432869789,1.047136893096678,0.6709876543832908,-0.5754713903017806,-0.08680364677061193,0.9124432989164339,-0.4066940522990288,3,right
6.37,0.09640489562299953,1.1652945193681803,-0.16794190183057373,1.0671208234678462,0.675901428317855,-0.5839727071693439,-0.09732019391100308,0.9373249821505192,-0.4512749648990974,3,right
6.374,0.08824590833221026,1.1702568722683904,-0.16621052179026655,1.0867494361480536,0.6807885459269868,-0.592271224310446,-0.10736472842295205,0.9617183211593466,-0.4953795897434021,3,right
6.375,0.07992501259405882,1.1752294115466089,-0.16443801933345292,1.1059926323606966,0.6856952996237904,-0.6003656176199798,-0.11694342935489546,0.985615517376425,-0.5389883644064681,3,right
6.38,0.07144656425913665,1.1802045137062527,-0.16262538080072847,1.1248202114586139,0.690667504028925,-0.6082539050392376,-0.12606271361702484,1.009008609675006,-0.5820818609392034,3,right
6.38,0.06281513054645622,1.185174455978582,-0.16077376885414688,1.1432018950485923,0.6957504219990698,-0.6159334473673279,-0.1347292216542691,1.0318894786330823,-0.6246408139523976,3,right
6.3839999999999995,0.05403548181295073,1.1901314359880297,-0.15888452589274552,1.1611073508015386,0.7009886898238593,-0.6234009522133831,-0.14294980332869617,1.054249852973728,-0.6666461508398388,3,right
6.385,0.04511258198024184,1.1950675914313689,-0.15695917432832404,1.1785062160023414,0.7064262416056715,-0.6306524811122133,-0.15073150403754543,1.0760813182479645,-0.7080790242648034,3,right
6.388,0.036051577829508116,1.1999750194946568,-0.15499941347548268,1.195368120892162,0.7121062328369651,-0.6376834598254604,-0.1580815510892569,1.0973753277871598,-0.7489208469435794,3,right
6.388,0.02685778750557505,1.2048457957697836,-0.15300711303091227,1.211662711854528,0.7180709631903107,-0.6444886918496971,-0.16500734034585796,1.1181232157569454,-0.7891533283153161,3,right
6.388999999999999,0.017536688636493138,1.2096719924917094,-0.15098430334964646,1.2273596744951458,0.7243617985368281,-0.6510623751522915,-0.17151642311590165,1.1383162117947614,-0.8287585118888384,3,right
6.394,0.008093906535044102,1.2144456959732064,-0.14893316300703865,1.2424287566638075,0.7310190922094385,-0.6573981221552238,-0.1776164932681861,1.1579454565180767,-0.8677188116125818,3,right
6.395,-0.0014647969330412942,1.2191590231526923,-0.14685600449855632,1.256839791465133,0.7380821055281548,-0.6634889829863944,-0.18331537454799127,1.1770020173822786,-0.9060170460548415,3,right
6.395,-0.01113353313252059,1.22380413721212,-0.14475525923195087,1.2705627203208851,0.745588927666612,-0.6693274719773517,-0.18862100809927845,1.1954769047139928,-0.943636469976732,3,right
6.398,-0.020906294455292296,1.2283732622753736,-0.14263346298902418,1.2835676162332939,0.7535763952452907,-0.6749055971859872,-0.1935414402078474,1.2133610879374959,-0.9805608033211877,3,right
6.399,-0.03077695966969621,1.2328586972516797,-0.14049324274273967,1.2958247075562783,0.7620800125874246,-0.680214892362579,-0.19808481028184025,1.2306455120489475,-1.0167742577279875,3,right
6.404,-0.04073929658015578,1.2372528289531746,-0.13833730527833046,1.3073044026679872,0.7711338738800573,-0.6852464505771403,-0.20225933908485114,1.2473211143914944,-1.0522615606828405,3,right
6.405,-0.05078696197213211,1.2415481447070447,-0.1361684276298299,1.317977315847499,0.780770588178887,-0.6899909589249777,-0.20607331723579353,1.2633788417826042,-1.0870079774065708,3,right
6.4079999999999995,-0.060913499067545784,1.2457372447697126,-0.13398944897486925,1.3278142944970532,0.7910212076476495,-0.6944387340860548,-0.20953509398859593,1.2788096680432626,-1.1209993305884034,3,right
6.409,-0.07111233298926446,1.2498128548778817,-0.131803263476049,1.3367864477604265,0.8019151591191589,-0.6985797587126531,-0.2126530663037354,1.2936046119769185,-1.1542220180652607,3,right
6.412999999999999,-0.08137676494582585,1.2537678392280136,-0.12961281373901812,1.3448651765680542,0.8134801790057552,-0.7024037186589411,-0.21543566822258306,1.307754755844289,-1.186663028546859,3,right
6.414,-0.09169996594538844,1.2575952141071192,-0.12742108491539605,1.352022205137092,0.8257422515886724,-0.7059000410652057,-0.21789136055452554,1.3212512643783316,-1.2183099554842232,3,right
6.417000000000001,-0.10207497085769308,1.2612881623497938,-0.12523109967232687,1.358229613952132,0.8387255507176802,-0.709057933308621,-0.22002862088583666,1.3340854043818675,-1.2491510091770317,3,right
6.417000000000001,-0.11249467362563119,1.2648400487700253,-0.12304591411096705,1.3634598742497204,0.8524523849542784,-0.7118664228315158,-0.2218559339183119,1.3462485649484868,-1.2791750272129592,3,right
6.422000000000001,-0.12295182441841197,1.268244436675411,-0.1208686143607946,1.367685884027177,0.8669431461937235,-0.7143143978571614,-0.22338178214473778,1.357732278345487,-1.3083714833299045,3,right
6.422999999999999,-0.1334390294890826,1.2714951054798374,-0.11870231322890494,1.3708810055934884,0.8822162618032303,-0.7163906490021282,-0.22461463686735497,1.3685282415956974,-1.3367304947896792,3,right
6.4270000000000005,-0.14394875437160803,1.2745860692762332,-0.11655014609349122,1.373019104677241,0.8982881503158299,-0.7180839117932541,-0.22556294956458223,1.3786283387931106,-1.3642428283493835,3,right
6.428,-0.15447333075410105,1.277511596030845,-0.11441526524170903,1.3740745911036805,0.9151731807215477,-0.7193829100962341,-0.22623514361040287,1.3880246641852954,-1.3908999049143214,3,right
6.432,-0.16500496689616034,1.2802662268569671,-0.11230083203109648,1.3740224610500145,0.9328836353998146,-0.7202764004617701,-0.22663960634997396,1.396709546053585,-1.4166938029539056,3,right
6.433,-0.17553576091864767,1.282844794673398,-0.11021000651948473,1.3728383408850535,0.9514296767393116,-0.720753217394122,-0.22678468153420042,1.4046755714200403,-1.4416172607595679,3,right
6.436,-0.1860577158375341,1.2852424414933696,-0.10814593447808886,1.370498532596159,0.9708193174937828,-0.720802319545767,-0.2266786621152226,1.4119156116081633,-1.4656636776212355,3,right
6.437,-0.19656275497705844,1.28745463363782,-0.1061117319433476,1.366980060803301,0.9910583949247135,-0.7204128368407098,-0.22632978340399829,1.4184228486822952,-1.4888271139964575,3,right
6.442,-0.2070427364544926,1.2894771743170461,-0.10411046768947076,1.3622607213567761,1.012150548784168,-0.7195741185277905,-0.22574621659041305,1.4241908027885695,-1.5111022907437672,3,right
6.444,-0.2174894657657513,1.2913062132582713,-0.10214514422795518,1.3563191315118075,1.0340972031935038,-0.7182757821641075,-0.22493606262563215,1.4292133604181996,-1.5324845874893456,3,right
6.447,-0.22789470601098402,1.2929382533329785,-0.10021867814015231,1.3491347816698775,1.056897552476109,-0.7165077635274117,-0.22390734646570934,1.4334848036117847,-1.5529700401935143,3,right
6.4479999999999995,-0.23825018582215263,1.29437015439725,-0.09833388066627173,1.3406880886731856,1.0805485510047605,-0.7142603674550443,-0.22266801167479408,1.4369998401211896,-1.5725553379810437,3,right
6.452000000000001,-0.24854760545996077,1.2955991347466496,-0.09649343944046863,1.33096045063512,1.1050449071266455,-0.7115243196056621,-0.2212259153856266,1.439753634543414,-1.591237819296689,3,right
6.452999999999999,-0.25877864177945037,1.2966227706763922,-0.09469990205867676,1.319934303286065,1.13037908123154,-0.708290819138655,-0.21958882361438292,1.4417418404387097,-1.6090154674447967,3,right
6.456,-0.26893495281698654,1.2974389946264586,-0.09295566187435365,1.3075931778102332,1.1565412880310773,-0.7045515923047753,-0.217764406925325,1.4429606333909433,-1.6258869055673821,3,right
6.457000000000001,-0.27900818264677907,1.2980460922978923,-0.0912629461676934,1.2939217601455442,1.1835195031194596,-0.7002989469401029,-0.2157602364351251,1.4434067447055632,-1.6418513911031574,3,right
6.457000000000001,-0.2889899669560697,1.2984426989890174,-0.08962380668886887,1.278905951714838,1.2112994738883713,-0.6955258278540382,-0.2135837801371625,1.4430774949695127,-1.656908809750643,3,right
6.462000000000001,-0.29887193959324954,1.2986277952679295,-0.08804011249437224,1.2625329315529379,1.2398647348712248,-0.6902258731005649,-0.21124239952054935,1.4419708264347637,-1.6710596689465693,3,right
6.462999999999999,-0.30864574021039043,1.298600701996395,-0.08651354492550803,1.244791219723334,1.269196627563907,-0.6843934710369638,-0.20874334646312906,1.4400853334453945,-1.684305090877488,3,right
6.4639999999999995,-0.3183030230407382,1.298361074650318,-0.08504559453300965,1.2256707415798003,1.2992743246199776,-0.6780238176547246,-0.206093760386205,1.4374202905947078,-1.696646805056674,3,right
6.466,-0.3278354668062678,1.2979088968428347,-0.08363755975787959,1.2051628918220652,1.3300748580477981,-0.6711129729136073,-0.2033006656632883,1.4339756785571236,-1.708087140505111,3,right
6.4670000000000005,-0.3372347857413778,1.2972444729411736,-0.08229054720654194,1.1832605969561205,1.3615731508877489,-0.663657914390334,-0.2003709692757011,1.429752207589423,-1.7186290175746093,3,right
6.472,-0.34649274174168215,1.296368419668347,-0.08100547336988417,1.159958375100406,1.3937420520013513,-0.6556565869697931,-0.19731145870743824,1.4247513386936905,-1.728275939448524,3,right
6.474,-0.35560115769216183,1.2952816566068328,-0.07978306764292607,1.1352523926774112,1.4265523738789032,-0.6471079480573695,-0.19412880007127883,1.4189753024320617,-1.7370319833529368,3,right
6.476,-0.364551932079735,1.2939853955819278,-0.07862387652751464,1.109140517860847,1.459972933525753,-0.6380120082073929,-0.19082953645774636,1.4124271153811414,-1.7449017915085985,3,right
6.477,-0.3733370550229766,1.2924811289774587,-0.07752826893563315,1.0816223707114296,1.4939705965195624,-0.6283698671447164,-0.18742008649814196,1.4051105942117383,-1.7518905618513505,3,right
6.482,-0.3819486258343197,1.2907706171018762,-0.07649644253834703,1.0526993699303056,1.528510324332748,-0.6181837451548672,-0.18390674313252242,1.397030367377324,-1.7580040385461901,3,right
6.483,-0.390378872166466,1.2888558747709344,-0.07552843112015604,1.022374776155102,1.5635552250160334,-0.6074570098166414,-0.18029567257315882,1.3881918843924121,-1.7632485023176,3,right
6.487,-0.3986201707009708,1.286739157308055,-0.07462411289911332,0.9906537317195522,1.5990666073407083,-0.5961941980494496,-0.17659291345369443,1.3786014226798569,-1.7676307606162298,3,right
6.4879999999999995,-0.40666506923685974,1.2844229461898324,-0.07378321975562284,0.9575432967936163,1.635004038498736,-0.5844010334461562,-0.17280437615392333,1.3682660919638618,-1.7711581376395047,3,right
6.4910000000000005,-0.4145063099526266,1.2819099345822795,-0.07300534727702943,0.9230524818169953,1.6713254054612996,-0.5720844388606104,-0.1689358422898278,1.3571938361833285,-1.7738384642212457,3,right
6.492000000000001,-0.42213685355761377,1.2792030130200622,-0.07228996547938318,0.887192276134924,1.7079869800977179,-0.5592525442175228,-0.1649929643582511,1.3453934328980053,-1.7756800676029012,3,right
6.495,-0.4295499040164179,1.2763052554721033,-0.07163643002603186,0.8499756727411475,1.7449434881578736,-0.545914689510826,-0.16098126552533426,1.332874490157764,-1.7766917610965447,3,right
6.495,-0.43673893351268805,1.2732199060102192,-0.07104399373791886,0.8114176890290211,1.782148182222406,-0.5320814229551544,-0.1569061395476161,1.3196474408032157,-1.776882833647351,3,right
6.501,-0.4436977073076027,1.2699503662549858,-0.07051181818985783,0.7715353834477454,1.8195529187258896,-0.5177644942535994,-0.1527728508144809,1.305723534163787,-1.7762630393008667,3,right
6.502000000000001,-0.4504203081390447,1.2665001837210725,-0.07003898520920893,0.730347867956855,1.8571082391590605,-0.5029768429434481,-0.1485865345004415,1.2911148251173155,-1.7748425865779967,3,right
6.506,-0.4569011598008001,1.2628730411297948,-0.06962450812923299,0.6878763161682302,1.8947634555568695,-0.48773258178018997,-0.14435219681556224,1.275834160473192,-1.7726321277582768,3,right
6.506,-0.4631350495422054,1.259072746705451,-0.06926734268796841,0.6441439670611021,1.9324667403797067,-0.4720469751186921,-0.14007471534215876,1.259895162639074,-1.769642748069677,3,right
6.5089999999999995,-0.46911714894256146,1.255103225428761,-0.06896639749734705,0.5991761241517778,1.9701652208955773,-0.45593641224909226,-0.1357588394457592,1.2433122105292314,-1.7658859547808752,3,right
6.511,-0.47484303294128444,1.2509685111883413,-0.06872054403199425,0.5530001499961231,2.00780507817129,-0.4394183756436489,-0.1314091907481736,1.2261004176706582,-1.7613736661896757,3,right
6.515,-0.48030869674010546,1.2466727397502593,-0.06852862609845058,0.5056454558992288,2.0453316507808523,-0.42251140406952337,-0.12703026365039335,1.2082756074611916,-1.7561182004990112,3,right
6.515,-0.485510570334596,1.2422201424542914,-0.06838946874282309,0.4571434867031357,2.0826895433392574,-0.4052350505212512,-0.12262642589293245,1.189854285532031,-1.7501322645697581,3,right
6.52,-0.49044553047929934,1.2376150405395392,-0.0683018865462619,0.40752770052003406,2.119822739969676,-0.3876098349254892,-0.11820191914112464,1.17085360916525,-1.7434289425374316,3,right
6.521,-0.4951109099450412,1.2328618399988434,-0.06826469125423916,0.35683354327496514,2.1566747228117347,-0.36965719156951293,-0.11376085958280666,1.151291353715126,-1.7360216842776914,3,right
6.526,-0.49950450398574714,1.2279650268629092,-0.06827669869059369,0.30509841791876435,2.193188595678078,-0.3513994112038767,-0.10930723852986148,1.1311858760541367,-1.727924293709476,3,right
6.526,-0.5036245739867339,1.2229291628256416,-0.06833673491753436,0.25236164816879003,2.229307212965773,-0.3328595777686511,-0.10484492303561678,1.1105560754314283,-1.7191509169524664,3,right
6.527,-0.5074698483109528,1.2177588811403848,-0.06844364161788666,0.19866443663188685,2.26497331392829,-0.314061499691712,-0.10037765657709043,1.0894213527934908,-1.7097160304074441,3,right
6.53,-0.5110395204015739,1.2124588827338836,-0.06859628069691705,0.14404981716104784,2.3001296624128407,-0.2950296357066809,-0.09590905987161896,1.0678015699838452,-1.6996344288560759,3,right
6.532,-0.5143332442508827,1.2070339324980237,-0.0687935381242834,0.08856260129436475,2.334719192166704,-0.2757890151373088,-0.09144263187679968,1.0457170098684063,-1.6889212136447627,3,right
6.532,-0.5173511273998721,1.2014888557357168,-0.06903432705453827,0.03224931872151205,2.3686851575894066,-0.25636515275133015,-0.08698175098561706,1.0231883377682103,-1.677591780961414,3,right
6.535,-0.5200937216628483,1.1958285347567335,-0.06931759027050215,-0.02484184778257225,2.4019712886788165,-0.23678395907102986,-0.0825296764080403,1.000236564211165,-1.665661810182205,3,right
6.535,-0.5225620117669882,1.190057905633748,-0.06964230198725478,-0.0826611316249578,2.434521946888356,-0.21707164843995863,-0.07808954972626844,0.9768830089394274,-1.6531472522575716,3,right
6.54,-0.5247574020912821,1.1841819551393207,-0.07000746904295228,-0.14115725403641344,2.4662822774834026,-0.19725464792959146,-0.07366439661081475,0.9531492661077323,-1.6400643181049328,3,right
6.54,-0.5266817017120273,1.1782057178964866,-0.07041213149212527,-0.20027749676026893,2.497198355110345,-0.1773595093843889,-0.06925712868464813,0.9290571706067859,-1.6264294669739,3,right
6.544,-0.5283371079913834,1.1721342737835598,-0.07085536260626242,-0.2599677753579757,2.527217321318869,-0.15741282549055058,-0.06487054552264228,0.9046287654446802,-1.612259394748062,3,right
6.545,-0.5297261889488785,1.1659727456284446,-0.07133626827589028,-0.32017271319988644,2.556287513903128,-0.13744114996856657,-0.060507336773626845,0.8798862701181958,-1.5975710221457913,3,right
6.55,-0.5308518646347984,1.159726297209265,-0.07185398580503984,-0.38083571631097385,2.5843585881504945,-0.11747092183247036,-0.05617008439238561,0.8548520499048298,-1.582381482780945,3,right
6.551,-0.5317173876963248,1.1534001315535014,-0.07240768209846878,-0.44189904924284396,2.611381630084022,-0.09752839365854887,-0.051861264969006025,0.8295485860054219,-1.5667081110427856,3,right
6.553999999999999,-0.5323263233009494,1.1469994895042714,-0.07299655126174143,-0.5033039121448742,2.637309261782017,-0.07763956380619344,-0.047583252143051306,0.8039984464663457,-1.5505684297529614,3,right
6.556,-0.532682528559254,1.1405296485048717,-0.07361981165533152,-0.5649905192086213,2.6620957388552586,-0.057830112533578955,-0.04333831909010073,0.7782242578093981,-1.5339801375559545,3,right
6.559,-0.532790131572466,1.1339959215430826,-0.07427670245811936,-0.62689817866079,2.68569704015939,-0.03812534195093762,-0.03912864106828512,0.7522486772967474,-1.5169610959980029,3,right
6.559,-0.5326535102208827,1.127403656194407,-0.07496647980059987,-0.6889653744810349,2.7080709498168742,-0.018550119754347325,-0.03495629801253271,0.7260943657575861,-1.4995293162481722,3,right
6.563,-0.5322772708059543,1.1207582337064255,-0.0756884125258957,-0.7511298500216728,2.7291771316196156,0.0008711733168181148,-0.030823277164335743,0.6997839609024978,-1.4817029454139627,3,right
6.564,-0.5316662266591674,1.1140650680721973,-0.07644177763188745,-0.8133286937070181,2.7489771958799607,0.020114692355329956,-0.026731475724948807,0.6733400510509655,-1.4635002524025975,3,right
6.568,-0.5308253768338559,1.1073296050459656,-0.07722585544634115,-0.8754984269905092,2.767434758794264,0.039157173550618596,-0.022682703520037283,0.6467851491969346,-1.444939613277951,3,right
6.569,-0.5297598849999351,1.1005573210568438,-0.07803992459142703,-0.9375750947480718,2.784515494379574,0.05797597589810158,-0.018678685663906805,0.6201416673368985,-1.4260394960619567,3,right
6.575,-0.5284750586638737,1.0937537219751272,-0.07888325680145261,-0.9994943582862649,2.8001871790402326,0.0765491194085569,-0.014721065211563127,0.5934318909845857,-1.4068184449282293,3,right
6.5760000000000005,-0.5269763288366528,1.086924341683736,-0.0797551116650518,-1.061191591143667,2.8144197288173425,0.09485531987219693,-0.010811405786974954,0.566677953796016,-1.387295063734634,3,right
6.579,-0.5252692302719855,1.0800747404083109,-0.08065473137163168,-1.122601977863694,2.827185229370102,0.11287402023145689,-0.006951194176040843,0.5399018122284304,-1.367487998840537,3,right
6.579,-0.5233593823962198,1.0732105027672136,-0.08158133555143013,-1.183660615916589,2.838457958733963,0.1305854186158078,-0.0031418428728943633,0.5131252201564129,-1.3474159211535672,3,right
6.582999999999999,-0.5212524710496859,1.0663372355172938,-0.08253411630231709,-1.2443026209476813,2.8482144028964345,0.1479704930911385,0.0006153074316806946,0.4863697033683972,-1.3270975073498414,3,right
6.582999999999999,-0.5189542311546201,1.059460564988638,-0.08351223348656098,-1.3044632355281918,2.856433264227158,0.1650110231754269,0.004318985430811385,0.459656533866681,-1.3065514202107928,3,right
6.5889999999999995,-0.5164704304141521,1.0525861342160088,-0.08451481035947485,-1.3640779415838515,2.86309546279457,0.18168960817153992,0.007967986862013306,0.43300670389407464,-1.2857962880189815,3,right
6.59,-0.5138068541287778,1.0457195997836528,-0.08554092957213734,-1.423082576675399,2.868184130597156,0.19798968236706493,0.011561172258375482,0.40644089961036717,-1.2648506829545576,3,right
6.593,-0.5109692911932345,1.0388666284034247,-0.08658962958070665,-1.4814134543036466,2.8716845987328425,0.21389552715008892,0.015097464798194335,0.37997947438340435,-1.2437330984804749,3,right
6.593999999999999,-0.5079635213121226,1.032032893243638,-0.08765990149060712,-1.5390074884102327,2.8735843775256495,0.2293922800888022,0.018575848246165837,0.35364242186719624,-1.2224619259393612,3,right
6.595,-0.5047953034509853,1.0252240700206292,-0.08875068635982353,-1.5958023222434277,2.8738731296241764,0.24446594102171887,0.021995364953028135,0.3274493494131104,-1.2010554310081336,3,right
6.598,-0.5014703655221517,1.0184458328642265,-0.08986087298512765,-1.651736461756425,2.8725426360819575,0.2591033752041752,0.025355113865907754,0.30141945256794844,-1.1795317308913602,3,right
6.599,-0.497994395290852,1.0117038499742153,-0.09098929619931548,-1.706749413476427,2.8695867555595678,0.2732923135842717,0.02865424851593211,0.2755714912056169,-1.1579087728985253,3,right
6.6,-0.49437303247665776,1.0050037790874318,-0.09213473570875069,-1.7607818256454635,2.865001377456022,0.2870213504236012,0.031891974975558735,0.24992376746611916,-1.1362043146262282,3,right
6.603,-0.49061186201542933,0.998351262766513,-0.093295915495354,-1.8137756293883054,2.8587843709824097,0.30027993873495484,0.035067549792375814,0.22449410546862095,-1.114435905730606,3,right
6.603,-0.4867164084297584,0.9917519235086589,-0.09447150380222558,-1.8656741755251063,2.850935532858335,0.31305838415130227,0.03818027790884989,0.19929983272437443,-1.0926208712278975,3,right
6.608,-0.48269213122932075,0.985211358666869,-0.09566011372052975,-1.916422363778681,2.841456535634771,0.32534783769563236,0.041229510577320314,0.17435776317585966,-1.070776296260841,3,right
6.609,-0.4785444212384038,0.9787351351784112,-0.09686030439067018,-1.965966763166446,2.8303508774321893,0.33714028766178955,0.0442146432793614,0.14968418178912893,-1.0489190122684,3,right
6.6129999999999995,-0.47427859773718833,0.9723287841017205,-0.09807058281689242,-2.014255723498986,2.8176238332058716,0.348428550671674,0.04713511365845301,0.12529483062701316,-1.027065584496195,3,right
6.614,-0.4698999063036174,0.965997794970859,-0.09928940627327473,-2.061239478130918,2.803282407511187,0.3592062619440925,0.04999039947471785,0.10120489633157352,-1.0052323007849153,3,right
6.617999999999999,-0.4654135172454977,0.9597476099835494,-0.10051518526081436,-2.1068702381062665,2.7873352887369296,0.3694678648091212,0.052780016590299905,0.07742899894495191,-0.9834351615739632,3,right
6.619,-0.46082452451305755,0.9535836180415758,-0.10174628697233792,-2.1511022778369666,2.7697928047701823,0.37920859950039454,0.055503516993772324,0.05398118199858882,-0.9616898710575797,3,right
6.622000000000001,-0.45613794498020777,0.9475111486614779,-0.1029810392359311,-2.1938920124493624,2.7506668800515195,0.38842449125627015,0.05816048687177652,0.03087490380163585,-0.9400118294307719,3,right
6.622999999999999,-0.4513587179810152,0.9415354657735479,-0.10421773492359519,-2.235198066929686,2.7299709939747627,0.39711233775933813,0.06075054473590512,0.008123029860291559,-0.9184161261624516,3,right
6.627000000000001,-0.4464917049904003,0.9356617614315371,-0.10545463681346941,-2.2749813371954932,2.7077201405809186,0.4052696959422491,0.06327333961265176,-0.014262173639269838,-0.8969175342333566,3,right
6.627999999999999,-0.4415416893473507,0.9298951494626626,-0.10668998288076312,-2.3132050432158895,2.683930789491384,0.4128948681863277,0.06572854930405989,-0.03626904535072729,-0.8755305052765072,3,right
6.632000000000001,-0.4365133759344392,0.9242406590929225,-0.10792199197526109,-2.3498347742991212,2.658620848020997,0.41998688793792577,0.06811587872651009,-0.0578865333555329,-0.8542691655581932,3,right
6.632999999999999,-0.4314113907464042,0.9187032285836584,-0.10914886982873184,-2.3848385266617416,2.6318096244070497,0.42654550476594416,0.07043505833489278,-0.07910419888320479,-0.8331473127377627,3,right
6.638,-0.42624028030056915,0.9132876989136237,-0.11036881532451318,-2.418186733389082,2.603517792085958,0.43257116888242664,0.07268584263921862,-0.09991221922718875,-0.8121784133448021,3,right
6.638999999999999,-0.4210045108613513,0.9079988075394082,-0.11158002695429056,-2.449852286892191,2.573767354944925,0.4380650151465994,0.07486800882052436,-0.12030138991836764,-0.7913756009126623,3,right
6.642,-0.4157084674679623,0.9028411822657018,-0.11278070938419175,-2.4798105539617294,2.5425816134716235,0.443028846571197,0.07698135545273582,-0.14026312621714995,-0.7707516747076784,3,right
6.643,-0.4103564527665502,0.8978193352550878,-0.11396908005278152,-2.5080393835145673,2.5099851317206547,0.44746511734838873,0.07902570133695373,-0.15978946398389365,-0.7503190989938758,3,right
6.647,-0.4049526856553494,0.8929376572051694,-0.11514337572545888,-2.5345191071239896,2.4760037050113892,0.4513769154110906,0.08100088445443042,-0.1788730599862195,-0.7300900027734307,3,right
6.647,-0.39950129975601884,0.8882004117175022,-0.11630185893265574,-2.559232532419535,2.440664328267641,0.45476794454392827,0.08290676104430822,-0.1975071917005413,-0.710076179943661,3,right
6.652,-0.39400634172868676,0.8836117298776004,-0.11744282422566826,-2.582164929437513,2.4039951649055946,0.45764250605660217,0.08474320481199207,-0.2156857566638914,-0.6902890898118788,3,right
6.652,-0.3884717694534574,0.8791756050615437,-0.11856460419744096,-2.603304009998231,2.3660255161724204,0.46000548003089975,0.08651010627383023,-0.23340327143084905,-0.6707398579100167,3,right
6.657,-0.38290145010790205,0.8748958879859131,-0.11966557523467314,-2.622639900180898,2.326785790834121,0.4618623061511062,0.0882073722435778,-0.25065487018908905,-0.6514392770515584,3,right
6.6579999999999995,-0.3772991581785404,0.8707762820246197,-0.12074416298293117,-2.6401651059620557,2.2863074751073307,0.4632189641260813,0.08983492546591862,-0.2674363030857613,-0.6323978085739538,3,right
6.662000000000001,-0.37166857345187015,0.8668203388257247,-0.12179884750796618,-2.6558744720782395,2.2446231027260577,0.46408195370980326,0.09139270439906413,-0.2837439343052557,-0.6136255837234548,3,right
6.662999999999999,-0.36601327903118247,0.8630314542659643,-0.12282816812538479,-2.669765134168408,2.201766225030706,0.46445827432572556,0.09288066313296456,-0.2995747398859056,-0.5951324052053718,3,right
6.664,-0.36033675941817017,0.8594128647762359,-0.12383072785764898,-2.6818364642464663,2.1577713809631733,0.46435540429885913,0.09429877140195596,-0.31492630516883635,-0.5769277490411383,3,right
6.667000000000001,-0.3546423986928326,0.855967644065417,-0.12480519746514897,-2.6920900095490117,2.1126740668483373,0.4637812796980729,0.09564701463518285,-0.3297968217191439,-0.5590207669396939,3,right
6.667000000000001,-0.3489334788282211,0.8526987002702577,-0.1257503189844996,-2.700529424798199,2.0665107058389016,0.46274427278971075,0.09692539400321962,-0.34418508360988254,-0.5414202893261458,3,right
6.667999999999999,-0.34321317818068575,0.8496087735608117,-0.1266649087006085,-2.707160398042278,2.0193186169291355,0.461253170119254,0.09813392644662347,-0.3580904830509619,-0.524134829053856,3,right
6.671,-0.3374845701919646,0.8467004342263386,-0.1275478594903798,-2.7119905708704413,1.9711359835991775,0.4593171503214424,0.09927264468723568,-0.3715130053953364,-0.5071725857616025,3,right
6.671,-0.3317506223281202,0.843976081257262,-0.12839814250219034,-2.715029454944194,1.9220018224352067,0.45694576191100594,0.10034159722590337,-0.38445322356381906,-0.49054145082527195,3,right
6.676,-0.32601419527062797,0.8414379414311016,-0.12921480816527112,-2.7162883474215835,1.8719559522271043,0.454148901389894,0.10134084833009382,-0.3969122919284675,-0.4742490128544436,3,right
6.6770000000000005,-0.32027804237170476,0.83908806890795,-0.129996986549936,-2.7157802472061414,1.8210389638831217,0.4509367919205716,0.10227047801467258,-0.40889193969310156,-0.4583025636851546,3,right
6.682,-0.3145448093852498,0.8369283453426164,-0.13074388712032453,-2.7135197727964684,1.769292191211622,0.447319962660638,0.10313058201891634,-0.4203944638081294,-0.4427091048210855,3,right
6.683,-0.30881703448154574,0.8349604805231475,-0.1314547979302383,-2.7095230818679723,1.7167576824580715,0.4433092287677613,0.10392127178263143,-0.4314227214554769,-0.42747535427637867,3,right
6.687,-0.3030971485507559,0.8331860135479067,-0.13212908430414794,-2.7038077925853323,1.6634781724510987,0.4389156720657249,0.10464267442404851,-0.4419801221380399,-0.4126077537742942,3,right
6.689,-0.2973874758033829,0.8316063145553281,-0.13276618702429588,-2.6963929066392267,1.6094970552090564,0.43415062236121915,0.10529493272196475,-0.4520706194067093,-0.39811247625692187,3,right
6.69,-0.2916902346853436,0.8302225870205184,-0.13336562002485355,-2.6872987339958874,1.5548583568562624,0.429025639399879,0.10587820510440506,-0.4616987022566575,-0.383995433662201,3,right
6.691,-0.2860075391350172,0.8290358706289698,-0.1339269675862175,-2.676546819343096,1.499606708695954,0.4235524954489721,0.10639266564587521,-0.4708693862232226,-0.3702622849255504,3,right
6.696000000000001,-0.28034140021512066,0.8280470447280472,-0.13444988102855338,-2.6641598702113685,1.4437873202849771,0.417743158493073,0.10683850407508087,-0.47958820420638865,-0.3569184441644801,3,right
6.697,-0.2746937281532933,0.827256832341748,-0.13493407491795711,-2.6501616867442497,1.387445952353344,0.411609776028025,0.1072159257947885,-0.48786119705153086,-0.34396908900564277,3,right
6.7,-0.2690663348211934,0.8266658047161558,-0.13537932281240775,-2.634577093086877,1.3306288894100329,0.4051646594374947,0.10752515191530647,-0.4956949039127824,-0.33141916901488516,3,right
6.7010000000000005,-0.26346093667153747,0.8262743863456242,-0.1357854525832261,-2.6174318703572816,1.2733829118747788,0.39842026893545435,0.10776641930286769,-0.5030963524240835,-0.31927341419197675,3,right
6.706,-0.2578791581377331,0.826082860415658,-0.1361523413522968,-2.598752691160268,1.2157552675740932,0.3913891990570007,0.10793998064399828,-0.5100730487016915,-0.30753634349282627,3,right
6.707999999999999,-0.2523225354860979,0.8260913745889106,-0.13647991008749338,-2.5785670555991547,1.1577936424383992,0.38408416467902173,0.10804610452676115,-0.5166329672006735,-0.2962122733431446,3,right
6.711,-0.24679252109908417,0.826299947055327,-0.13676811789904667,-2.5569032287361844,1.0995461302359297,0.37651798755136284,0.10808507553956842,-0.522784540446658,-0.2853053261086707,3,right
6.711,-0.24129048815995763,0.8267084727657164,-0.13701695608084885,-2.5337901794479962,1.0410612011779437,0.3687035833183219,0.10805719438806143,-0.5285366486629055,-0.27481943848825424,3,right
6.715,-0.2358177357061478,0.8273167297705168,-0.13722644194451322,-2.5092575206182386,0.9823876692288522,0.36065394900951625,0.10796277803036398,-0.5338986093115621,-0.26475836979727124,3,right
6.716,-0.23037549402130086,0.8281243855918138,-0.1373966124953783,-2.4833354506051486,0.9235746579540338,0.3523821509784119,0.10780215983082167,-0.5388801665667853,-0.25512571011004914,3,right
6.721,-0.22496493034177534,0.8291310035621547,-0.13752751799163215,-2.4560546959177643,0.8646715647374293,0.3439013132660961,0.10757568973214748,-0.5434914807362886,-0.2459248882311866,3,right
6.722,-0.21958715485535782,0.8303360490618166,-0.1376192154128919,-2.427446455030356,0.8057280232004701,0.3352246063671961,0.10728373444570341,-0.547743117646727,-0.2371591794668722,3,right
6.726,-0.21424322696517006,0.8317388955756114,-0.13767176185860308,-2.397542343260681,0.7467938636534904,0.32636523637421,0.10692667765945732,-0.5516460380072572,-0.22883171316853773,3,right
6.727,-0.2089341617820539,0.8333388304779717,-0.13768520791379668,-2.3663743386337543,0.6879190714105218,0.31733643447591425,0.10650492026296526,-0.5552115867645434,-0.22094548002242165,3,right
6.732,-0.20366093679820804,0.8351350604509955,-0.13765959105219847,-2.3339747286490216,0.6291537427982415,0.30815144678495127,0.1060188805888826,-0.5584514824537368,-0.2135033390610936,3,right
6.733,-0.19842449868876175,0.8371267164507328,-0.13759492916702765,-2.3003760578650976,0.5705480386898863,0.2988235244691743,0.10546899467202582,-0.5613778065104241,-0.20650802438037535,3,right
6.733,-0.1932257701881432,0.8393128581573369,-0.13749121431235686,-2.2656110762125987,0.512152135395105,0.28936591416084134,0.10485571652989135,-0.5640029924382095,-0.1999621515573915,3,right
6.735,-0.1880656569877764,0.8416924778594363,-0.13734840671720402,-2.2297126879799203,0.4540161728432379,0.27979184861522177,0.10417951847005891,-0.566339814687121,-0.1938682237728834,3,right
6.736000000000001,-0.18294505459660226,0.8442645037264684,-0.13716642912034704,-2.1927139016026236,0.3961902005289554,0.27011453757937887,0.10344089142801766,-0.5684013771356716,-0.18822863763607814,3,right
6.737,-0.17786485510236433,0.8470278024256312,-0.13694516146732555,-2.154647780724427,0.3387241226455583,0.26034715881281323,0.10264034533570125,-0.5702011011379009,-0.18304568870066537,3,right
6.74,-0.17282595377102095,0.8499811810474999,-0.136684436009137,-2.1155473971837995,0.28166764436297875,0.2505028491909274,0.10177840951913143,-0.5717527131344319,-0.17832157665560652,3,right
6.74,-0.16782925541865568,0.8531233883108884,-0.1363840328461687,-2.0754457863877276,0.22507022067742297,0.24059469583236556,0.10085563312304935,-0.573070231833494,-0.17405841017458,3,right
6.745,-0.16287568048928844,0.856453115025487,-0.13604367596572858,-2.034375905190498,0.16898100830485888,0.23063572720972866,0.0998725855602361,-0.5741679549671118,-0.17025821140917854,3,right
6.746,-0.15796617078265285,0.8599689938055896,-0.13566302982038556,-1.9923705922030848,0.11344882056074468,0.22063890421333462,0.0988298569830474,-0.5750604456269474,-0.16692292011229118,3,right
6.749,-0.1531016947969616,0.8636695980455369,-0.1352416964892891,-1.9494625304180198,0.05852208506351465,0.21061711113958798,0.097728058774513,-0.5757625181836123,-0.16405439737942812,3,right
6.75,-0.14828325267312298,0.8675534401798117,-0.1347792134606619,-1.9056842120318291,0.004248804100797881,0.20058314657537774,0.0965678240561777,-0.5762892237926336,-0.1616544289970754,3,right
6.755,-0.14351188074133078,0.8716189692561348,-0.13427505207188709,-1.8610679053444366,-0.0493234825010547,0.1905497141498128,0.09534980820969012,-0.5766558354896691,-0.159724728388502,3,right
6.756,-0.13878865567629428,0.875864567851211,-0.1337286166423415,-1.8156456236123437,-0.1021477321618216,0.18052941312453277,0.0940746894089753,-0.576877832877023,-0.1582669391487824,3,right
6.76,-0.13411469826464426,0.8802885483592021,-0.13313924433012955,-1.7694490957298872,-0.15417743214245067,0.17053472879379614,0.09274316915965945,-0.5769708864030053,-0.15728263716214455,3,right
6.761,-0.129491176780591,0.8848891486843349,-0.1325062057338367,-1.7225097386104762,-0.20536663010408499,0.1605780226655502,0.09135597284224926,-0.576950841235224,-0.15677333229610257,3,right
6.763999999999999,-0.12491930995931631,0.889664527372814,-0.13182870624421328,-1.6748586311373905,-0.25566996278272497,0.15067152239472376,0.0899138502554044,-0.5768337007284796,-0.1567404696681901,3,right
6.766,-0.12040036955705827,0.8946127582266427,-0.13110588813207774,-1.6265264895514986,-0.30504268292889464,0.14082731144005686,0.08841757615547934,-0.5766356094875652,-0.1571854304824699,3,right
6.769,-0.11593568249369846,0.8997318244517519,-0.1303368333419457,-1.577543644141112,-0.3534406846592674,0.13105731841589147,0.08686795078835158,-0.5763728360249467,-0.15810953243435952,3,right
6.77,-0.11152663258512198,0.9050196124028296,-0.12952056694795688,-1.527940017097162,-0.4008205273646634,0.12137330611048973,0.08526580040939451,-0.5760617550130237,-0.1595140296836817,3,right
6.775,-0.10717466188460864,0.9104739049971758,-0.128656061219641,-1.4777451013949132,-0.44713945831615765,0.1117868601426264,0.08361197778729866,-0.5757188291304365,-0.16140011239722085,3,right
6.775,-0.10288127166155296,0.9160923748786148,-0.12774224023920783,-1.4269879405615633,-0.4923554341082404,0.10230937722841366,0.08190736268729122,-0.5753605905016982,-0.1637689058634426,3,right
6.778,-0.09864802304960646,0.921872577416432,-0.12677798500877754,-1.3756971091872958,-0.5364271410750465,0.092952053030564,0.08015286232915331,-0.5750036217292953,-0.16662146918341392,3,right
6.779,-0.09447653739487911,0.9278119436228384,-0.1257621389851778,-1.323900694035655,-0.5793140148126259,0.08372586956257633,0.07834941181528583,-0.5746645365173069,-0.16995879354334453,3,right
6.7829999999999995,-0.09036849633116784,0.9339077730692805,-0.12469351398154321,-1.2716262756074879,-0.6209762589370591,0.07464158212064301,0.0764979745239288,-0.5743599598855481,-0.17378180007555674,3,right
6.784,-0.08632564160760639,0.9401572268791054,-0.12357089637869505,-1.2189009100111705,-0.6613748632049377,0.06570970571642056,0.07459954246249614,-0.5741065079732502,-0.17809133731608034,3,right
6.789,-0.08234977469721307,0.946557320870276,-0.12239305359397798,-1.1657511109903824,-0.7004716211193251,0.0569405009841827,0.07265513657584724,-0.573920767431336,-0.1828881782684619,3,right
6.79,-0.07844275622240991,0.9531049189163225,-0.12115874075708166,-1.1122028319593142,-0.7382291471407995,0.04834395953628176,0.07066580700417842,-0.5738192744024544,-0.18817301708477294,3,right
6.794,-0.07460650524386972,0.9597967265886023,-0.11986670753609649,-1.0582814478939018,-0.7746108936195489,0.039929788741281565,0.0686326332850832,-0.5738184930880799,-0.19394646537619878,3,right
6.795,-0.07084299846928964,0.9666292851402857,-0.11851570504072687,-1.004011736926457,-0.8095811675607564,0.031707395899591685,0.06655672449419762,-0.57393479390218,-0.2002090481669891,3,right
6.797999999999999,-0.06715426944478631,0.9735989658903766,-0.11710449270964098,-0.9494178614899184,-0.8431051473316589,0.023685871791928492,0.06443921932133499,-0.5741844312209832,-0.20696119950273015,3,right
6.7989999999999995,-0.06354240778829168,0.9807019650602857,-0.115631845079973,-0.8945233488568758,-0.8751488994147227,0.015873973576451563,0.06228128609197321,-0.5745835207876192,-0.21420325770418233,3,right
6.8,-0.06000955851181685,0.9879342991062298,-0.11409655834730481,-0.8393510709175163,-0.9056793953073176,0.008280107010974246,0.06008412276738657,-0.5751480169188484,-0.22193546022131766,3,right
6.803,-0.05655792146831017,0.9952918005832679,-0.11249745664335414,-0.7839232230397107,-0.9346645286641222,0.0009123079772235974,0.05784895696967913,-0.5758936897104241,-0.2301579380224782,3,right
6.803999999999999,-0.05318975095707259,1.0027701145732395,-0.11083339797475786,-0.7282613018535905,-0.9620731327742452,-0.006221776715273763,0.0555770460647765,-0.5768361023891171,-0.23887070947610367,3,right
6.803999999999999,-0.04990735552224353,1.0103646957048658,-0.10910327978527207,-0.6723860819054168,-0.9878749984302587,-0.013114909215283743,0.05326967731276793,-0.5779905888717948,-0.24807367372189826,3,right
6.809,-0.046713097970952945,1.018070805786363,-0.10730604412798157,-0.6163175916410448,-1.0120408920897197,-0.01976028091392018,0.050928168081797245,-0.5793722315435215,-0.25776660355083336,3,right
6.811,-0.04360939561970577,1.0258835120594254,-0.10544068245126423,-0.5600750901078453,-1.0345425739512888,-0.026151532364232653,0.04855386611897891,-0.5809958392574195,-0.26794913781901586,3,right
6.813,-0.04059872075176421,1.033797686065738,-0.10350624000464745,-0.5036770462795663,-1.0553528154107557,-0.03228277181223457,0.04614814987171356,-0.5828759255596399,-0.2786207734218589,3,right
6.813,-0.0376836012369377,1.0418080030908565,-0.10150181986455777,-0.447141122391826,-1.0744454155097696,-0.03814859157553859,0.0437124288526794,-0.5850266871434444,-0.2897808568564003,3,right
6.818,-0.03486662123683505,1.0499089421242513,-0.0994265865730275,-0.3904841617461937,-1.0917952162592324,-0.04374408197478313,0.041248144041681575,-0.5874619825370948,-0.30142857540101775,3,right
6.819,-0.03215042190821378,1.0580947862631063,-0.09727976937391972,-0.3337221809241278,-1.107378116866642,-0.04906484278325784,0.03875676831745172,-0.5901953110309789,-0.31356294794319733,3,right
6.822,-0.02953770203388098,1.0663596234951183,-0.09506066501458135,-0.27687036624839434,-1.1211710869221807,-0.054106992211568256,0.03623980691240354,-0.5932397918501832,-0.3261828154874139,3,right
6.8229999999999995,-0.027031218548945943,1.074697347812051,-0.09276864005711018,-0.21994307432924082,-1.133152178593339,-0.05886717344340476,0.03369879788326838,-0.5966081435795375,-0.3392868313765804,3,right
6.827999999999999,-0.024633786971792023,1.083101660616811,-0.09040313262695361,-0.16295383653229525,-1.1433005378727874,-0.06334255873769233,0.03113531259045696,-0.6003126638490113,-0.35287345126192393,3,right
6.829,-0.022348281774461392,1.0915660723845775,-0.08796365353141758,-0.10591536720490201,-1.1515964149190776,-0.0675308511115988,0.028550956178920093,-0.6043652092882346,-0.3669409228575383,3,right
6.832999999999999,-0.020177636727680404,1.1000839045258473,-0.08544978670984138,-0.048839575497386295,-1.1580211735245391,-0.07143028361807016,0.025947368053212003,-0.608777175759848,-0.3814872755172549,3,right
6.834,-0.01812484523615967,1.1086482913850433,-0.08286118902431189,0.008262419384440356,-1.1625572997394902,-0.07503961623074468,0.023326222339395596,-0.6135594788823477,-0.39651030967285794,3,right
6.837000000000001,-0.016192960649808217,1.1172521823002055,-0.08019758944892177,0.06538026965936407,-1.1651884096765501,-0.07835813034827362,0.02068922832636899,-0.6187225348540923,-0.41200758617405214,3,right
6.837999999999999,-0.014385096504055188,1.1258883436496872,-0.07745878774455714,0.1225043773473817,-1.165899256513473,-0.08138562092924831,0.018038130879137592,-0.6242762415911706,-0.42797641557196675,3,right
6.843,-0.012704426614290255,1.134549360818629,-0.07464465270439166,0.17962586970685948,-1.1646757367074991,-0.08412238626810027,0.015374710816505398,-0.6302299601928889,-0.4444138473893468,3,right
6.843999999999999,-0.011154184931813443,1.1432276400281742,-0.07175512003539813,0.2367365718963009,-1.1615048954287488,-0.08656921542150738,0.01270078524561402,-0.6365924967497344,-0.46131665942194544,3,right
6.847,-0.00973766506567491,1.1519154099832338,-0.0687901899256075,0.29382897702480715,-1.1563749312146703,-0.08872737329400379,0.010018207845717338,-0.6433720845097849,-0.47868134711698584,3,right
6.848,-0.008458219387934436,1.1606047233117645,-0.0657499243462747,0.3508962137553073,-1.149275199842001,-0.09059858339065742,0.007328869093544386,-0.6505763664206913,-0.4965041130759053,3,right
6.853,-0.007319257667437449,1.1692874577905372,-0.06263444414782764,0.40793201162460535,-1.140196217407104,-0.09218500824384658,0.004634696422573,-0.6582123780655258,-0.5147808567299321,3,right
6.854,-0.006324245211239987,1.1779553173758734,-0.05944392601800359,0.4649306642442416,-1.1291296625999243,-0.09348922752033959,0.0019376543085119764,-0.6662865310119895,-0.5335071642383703,3,right
6.857,-0.005476700520410176,1.1865998330773968,-0.05617859937261061,0.5218869905460931,-1.1160683781511445,-0.09451421381405714,-0.0007602557267298671,-0.6748045965956905,-0.552678298660784,3,right
6.858,-0.004780192477661331,1.1952123637252077,-0.052838743244717844,0.5787962942365497,-1.1010063714264426,-0.09526330612908063,-0.0034569952003231353,-0.6837716901594412,-0.572289190455576,3,right
6.862,-0.00423833707665974,1.2037840966869646,-0.04942468323439434,0.6356543216229958,-1.083938814136047,-0.09574018105665937,-0.006150488850789372,-0.693192255771784,-0.5923344283587461,3,right
6.864,-0.0038547936838201676,1.2123060485946933,-0.04593678858294723,0.6924572179762101,-1.0648620411220502,-0.09594882164916851,-0.008838624925010637,-0.7030700514492256,-0.6128082506978906,3,right
6.8660000000000005,-0.00363326080244317,1.2207690661444863,-0.04237546943774865,0.7492014825921556,-1.0437735481802033,-0.09589348399317728,-0.011519255577719684,-0.7134081349079497,-0.6337045371977711,3,right
6.867000000000001,-0.0035774712936208794,1.2291638270356993,-0.038741174367521766,0.805883922716494,-1.0206719888671558,-0.0955786614830062,-0.014190197386683819,-0.724208849877294,-0.6550168013180547,3,right
6.867999999999999,-0.0036911870032851723,1.2374808411168874,-0.03503438817108249,0.8625016064949939,-0.9955571702383282,-0.0950090467953819,-0.0168492319641797,-0.7354738130346701,-0.6767381830802275,3,right
6.871,-0.003978192749878926,1.2457104518023872,-0.031255630001414215,0.9190518151128363,-0.9684300474558359,-0.09418949156504003,-0.01949410660465413,-0.747203901669868,-0.6988614421891892,3,right
6.872000000000001,-0.004442289635013491,1.2538428378213609,-0.02740545181088532,0.9755319942772349,-0.939292717269066,-0.09312496383931039,-0.022122534885837576,-0.7593992422140895,-0.721378951171399,3,right
6.872999999999999,-0.005087287644733972,1.2618680153623492,-0.02348443711614115,1.031939705155542,-0.9081484107095696,-0.0918205037836284,-0.024732197163143364,-0.7720591997443127,-0.7442826883374484,3,right
6.876,-0.005916997514709579,1.2697758406752229,-0.019493200080676888,1.0882725748051112,-0.8750014859568661,-0.09028117881955472,-0.027320740937825133,-0.785182368527981,-0.7675642305307971,3,right
6.877000000000001,-0.00693522184117834,1.277556013189385,-0.015432384917215259,1.1445282460889323,-0.8398574226708234,-0.08851203977082289,-0.029885781101918304,-0.7987665636482627,-0.7912147457103761,3,right
6.882000000000001,-0.008145745429542493,1.285198079208383,-0.011302665617905001,1.2007043271128974,-0.8027228187356752,-0.0865180791976035,-0.03242490006745741,-0.8128088137462487,-0.8152249854328326,3,right
6.882999999999999,-0.009552324884972301,1.2926914362442206,-0.00710474602331006,1.2567983402960556,-0.7636053897342715,-0.08430419238814428,-0.03493564778740022,-0.8273053549177809,-0.8395852773012831,3,right
6.888,-0.011158677463401464,1.300025338051964,-0.002839360239428886,1.3128076712270471,-0.722513971120589,-0.08187514108164254,-0.037415541675622305,-0.8422516258039324,-0.8642855174484935,3,right
6.888999999999999,-0.01296846921225431,1.3071889004152741,0.0014927265924114422,1.3687295174680871,-0.6794585229838355,-0.07923551991663261,-0.03986206643327072,-0.8576422639154659,-0.8893151631234417,3,right
6.89,-0.014985302436939596,1.31417110772044,0.0058907171730256174,1.4245608374676402,-0.6344501372917959,-0.07638972559853856,-0.04227267378868446,-0.8734711032329108,-0.9146632254512218,3,right
6.891,-0.017212702534984716,1.3209608203451368,0.010353780576033424,1.480298299742678,-0.5875010474953969,-0.07334192877942398,-0.04464478215800017,-0.8897311731251785,-0.9403182624372233,3,right
6.896,-0.01965410424684426,1.3275467828805279,0.014881050446430457,1.5359382324911612,-0.5386246403708262,-0.07009604864236553,-0.046975776233465806,-0.9064146986309192,-0.9662683722874668,3,right
6.896,-0.022312837379439197,1.3339176332006748,0.019471622898883174,1.5914765737951302,-0.4878354699699364,-0.06665573018228378,-0.04926300650638185,-0.9235131021480784,-0.9925011871178879,3,right
6.902,-0.025192112062633755,1.3400619123904995,0.024124554173292474,1.6469088225745074,-0.43514927354408833,-0.06302432417448445,-0.051503788731478796,-0.9410170065783433,-1.0190038671262451,3,right
6.903,-0.02829500360041865,1.3459680755428496,0.028838858130410004,1.702229990451454,-0.38058298930106027,-0.0592048698215933,-0.05369540333942145,-0.9589162399743906,-1.0457630953011723,3,right
