time,gFx,gFy,gFz,ax,ay,az,wx,wy,wz,subject_number,foot
6.647,-0.4049526856553494,0.8929376572051694,-0.11514337572545888,-2.5345191071239896,2.4760037050113892,0.4513769154110906,0.08100088445443042,-0.1788730599862195,-0.7300900027734307,3,right
6.647,-0.39950129975601884,0.8882004117175022,-0.11630185893265574,-2.559232532419535,2.440664328267641,0.45476794454392827,0.08290676104430822,-0.1975071917005413,-0.710076179943661,3,right
6.652,-0.39400634172868676,0.8836117298776004,-0.11744282422566826,-2.582164929437513,2.4039951649055946,0.45764250605660217,0.08474320481199207,-0.2156857566638914,-0.6902890898118788,3,right
6.652,-0.3884717694534574,0.8791756050615437,-0.11856460419744096,-2.603304009998231,2.3660255161724204,0.46000548003089975,0.08651010627383023,-0.23340327143084905,-0.6707398579100167,3,right
6.657,-0.38290145010790205,0.8748958879859131,-0.11966557523467314,-2.622639900180898,2.326785790834121,0.4618623061511062,0.0882073722435778,-0.25065487018908905,-0.6514392770515584,3,right
6.6579999999999995,-0.3772991581785404,0.8707762820246197,-0.12074416298293117,-2.6401651059620557,2.2863074751073307,0.4632189641260813,0.08983492546591862,-0.2674363030857613,-0.6323978085739538,3,right
6.662000000000001,-0.37166857345187015,0.8668203388257247,-0.12179884750796618,-2.6558744720782395,2.2446231027260577,0.46408195370980326,0.09139270439906413,-0.2837439343052557,-0.6136255837234548,3,right
6.662999999999999,-0.36601327903118247,0.8630314542659643,-0.12282816812538479,-2.669765134168408,2.201766225030706,0.46445827432572556,0.09288066313296456,-0.2995747398859056,-0.5951324052053718,3,right
6.664,-0.36033675941817017,0.8594128647762359,-0.12383072785764898,-2.6818364642464663,2.1577713809631733,0.46435540429885913,0.09429877140195596,-0.31492630516883635,-0.5769277490411383,3,right
6.667000000000001,-0.3546423986928326,0.855967644065417,-0.12480519746514897,-2.6920900095490117,2.1126740668483373,0.4637812796980729,0.09564701463518285,-0.3297968217191439,-0.5590207669396939,3,right
6.667000000000001,-0.3489334788282211,0.8526987002702577,-0.1257503189844996,-2.700529424798199,2.0665107058389016,0.46274427278971075,0.09692539400321962,-0.34418508360988254,-0.5414202893261458,3,right
6.667999999999999,-0.34321317818068575,0.8496087735608117,-0.1266649087006085,-2.707160398042278,2.0193186169291355,0.461253170119254,0.09813392644662347,-0.3580904830509619,-0.524134829053856,3,right
6.671,-0.3374845701919646,0.8467004342263386,-0.1275478594903798,-2.7119905708704413,1.9711359835991775,0.4593171503214424,0.09927264468723568,-0.3715130053953364,-0.5071725857616025,3,right
6.671,-0.3317506223281202,0.843976081257262,-0.12839814250219034,-2.715029454944194,1.9220018224352067,0.45694576191100594,0.10034159722590337,-0.38445322356381906,-0.49054145082527195,3,right
6.676,-0.32601419527062797,0.8414379414311016,-0.12921480816527112,-2.7162883474215835,1.8719559522271043,0.454148901389894,0.10134084833009382,-0.3969122919284675,-0.4742490128544436,3,right
6.6770000000000005,-0.32027804237170476,0.83908806890795,-0.129996986549936,-2.7157802472061414,1.8210389638831217,0.4509367919205716,0.10227047801467258,-0.40889193969310156,-0.4583025636851546,3,right
6.682,-0.3145448093852498,0.8369283453426164,-0.13074388712032453,-2.7135197727964684,1.769292191211622,0.447319962660638,0.10313058201891634,-0.4203944638081294,-0.4427091048210855,3,right
6.683,-0.30881703448154574,0.8349604805231475,-0.1314547979302383,-2.7095230818679723,1.7167576824580715,0.4433092287677613,0.10392127178263143,-0.4314227214554769,-0.42747535427637867,3,right
6.687,-0.3030971485507559,0.8331860135479067,-0.13212908430414794,-2.7038077925853323,1.6634781724510987,0.4389156720657249,0.10464267442404851,-0.4419801221380399,-0.4126077537742942,3,right
6.689,-0.2973874758033829,0.8316063145553281,-0.13276618702429588,-2.6963929066392267,1.6094970552090564,0.43415062236121915,0.10529493272196475,-0.4520706194067093,-0.39811247625692187,3,right
6.69,-0.2916902346853436,0.8302225870205184,-0.13336562002485355,-2.6872987339958874,1.5548583568562624,0.429025639399879,0.10587820510440506,-0.4616987022566575,-0.383995433662201,3,right
6.691,-0.2860075391350172,0.8290358706289698,-0.1339269675862175,-2.676546819343096,1.499606708695954,0.4235524954489721,0.10639266564587521,-0.4708693862232226,-0.3702622849255504,3,right
6.696000000000001,-0.28034140021512066,0.8280470447280472,-0.13444988102855338,-2.6641598702113685,1.4437873202849771,0.417743158493073,0.10683850407508087,-0.47958820420638865,-0.3569184441644801,3,right
6.697,-0.2746937281532933,0.827256832341748,-0.13493407491795711,-2.6501616867442497,1.387445952353344,0.411609776028025,0.1072159257947885,-0.48786119705153086,-0.34396908900564277,3,right
6.7,-0.2690663348211934,0.8266658047161558,-0.13537932281240775,-2.634577093086877,1.3306288894100329,0.4051646594374947,0.10752515191530647,-0.4956949039127824,-0.33141916901488516,3,right
6.7010000000000005,-0.26346093667153747,0.8262743863456242,-0.1357854525832261,-2.6174318703572816,1.2733829118747788,0.39842026893545435,0.10776641930286769,-0.5030963524240835,-0.31927341419197675,3,right
6.706,-0.2578791581377331,0.826082860415658,-0.1361523413522968,-2.598752691160268,1.2157552675740932,0.3913891990570007,0.10793998064399828,-0.5100730487016915,-0.30753634349282627,3,right
6.707999999999999,-0.2523225354860979,0.8260913745889106,-0.13647991008749338,-2.5785670555991547,1.1577936424383992,0.38408416467902173,0.10804610452676115,-0.5166329672006735,-0.2962122733431446,3,right
6.711,-0.24679252109908417,0.826299947055327,-0.13676811789904667,-2.5569032287361844,1.0995461302359297,0.37651798755136284,0.10808507553956842,-0.522784540446658,-0.2853053261086707,3,right
6.711,-0.24129048815995763,0.8267084727657164,-0.13701695608084885,-2.5337901794479962,1.0410612011779437,0.3687035833183219,0.10805719438806143,-0.5285366486629055,-0.27481943848825424,3,right
6.715,-0.2358177357061478,0.8273167297705168,-0.13722644194451322,-2.5092575206182386,0.9823876692288522,0.36065394900951625,0.10796277803036398,-0.5338986093115621,-0.26475836979727124,3,right
6.716,-0.23037549402130086,0.8281243855918138,-0.1373966124953783,-2.4833354506051486,0.9235746579540338,0.3523821509784119,0.10780215983082167,-0.5388801665667853,-0.25512571011004914,3,right
6.721,-0.22496493034177534,0.8291310035621547,-0.13752751799163215,-2.4560546959177643,0.8646715647374293,0.3439013132660961,0.10757568973214748,-0.5434914807362886,-0.2459248882311866,3,right
6.722,-0.21958715485535782,0.8303360490618166,-0.1376192154128919,-2.427446455030356,0.8057280232004701,0.3352246063671961,0.10728373444570341,-0.547743117646727,-0.2371591794668722,3,right
6.726,-0.21424322696517006,0.8317388955756114,-0.13767176185860308,-2.397542343260681,0.7467938636534904,0.32636523637421,0.10692667765945732,-0.5516460380072572,-0.22883171316853773,3,right
6.727,-0.2089341617820539,0.8333388304779717,-0.13768520791379668,-2.3663743386337543,0.6879190714105218,0.31733643447591425,0.10650492026296526,-0.5552115867645434,-0.22094548002242165,3,right
6.732,-0.20366093679820804,0.8351350604509955,-0.13765959105219847,-2.3339747286490216,0.6291537427982415,0.30815144678495127,0.1060188805888826,-0.5584514824537368,-0.2135033390610936,3,right
6.733,-0.19842449868876175,0.8371267164507328,-0.13759492916702765,-2.3003760578650976,0.5705480386898863,0.2988235244691743,0.10546899467202582,-0.5613778065104241,-0.20650802438037535,3,right
6.733,-0.1932257701881432,0.8393128581573369,-0.13749121431235686,-2.2656110762125987,0.512152135395105,0.28936591416084134,0.10485571652989135,-0.5640029924382095,-0.1999621515573915,3,right
6.735,-0.1880656569877764,0.8416924778594363,-0.13734840671720402,-2.2297126879799203,0.4540161728432379,0.27979184861522177,0.10417951847005891,-0.566339814687121,-0.1938682237728834,3,right
6.736000000000001,-0.18294505459660226,0.8442645037264684,-0.13716642912034704,-2.1927139016026236,0.3961902005289554,0.27011453757937887,0.10344089142801766,-0.5684013771356716,-0.18822863763607814,3,right
6.737,-0.17786485510236433,0.8470278024256312,-0.13694516146732555,-2.154647780724427,0.3387241226455583,0.26034715881281323,0.10264034533570125,-0.5702011011379009,-0.18304568870066537,3,right
6.74,-0.17282595377102095,0.8499811810474999,-0.136684436009137,-2.1155473971837995,0.28166764436297875,0.2505028491909274,0.10177840951913143,-0.5717527131344319,-0.17832157665560652,3,right
6.74,-0.16782925541865568,0.8531233883108884,-0.1363840328461687,-2.0754457863877276,0.22507022067742297,0.24059469583236556,0.10085563312304935,-0.573070231833494,-0.17405841017458,3,right
6.745,-0.16287568048928844,0.856453115025487,-0.13604367596572858,-2.034375905190498,0.16898100830485888,0.23063572720972866,0.0998725855602361,-0.5741679549671118,-0.17025821140917854,3,right
6.746,-0.15796617078265285,0.8599689938055896,-0.13566302982038556,-1.9923705922030848,0.11344882056074468,0.22063890421333462,0.0988298569830474,-0.5750604456269474,-0.16692292011229118,3,right
6.749,-0.1531016947969616,0.8636695980455369,-0.1352416964892891,-1.9494625304180198,0.05852208506351465,0.21061711113958798,0.097728058774513,-0.5757625181836123,-0.16405439737942812,3,right
6.75,-0.14828325267312298,0.8675534401798117,-0.1347792134606619,-1.9056842120318291,0.004248804100797881,0.20058314657537774,0.0965678240561777,-0.5762892237926336,-0.1616544289970754,3,right
6.755,-0.14351188074133078,0.8716189692561348,-0.13427505207188709,-1.8610679053444366,-0.0493234825010547,0.1905497141498128,0.09534980820969012,-0.5766558354896691,-0.159724728388502,3,right
6.756,-0.13878865567629428,0.875864567851211,-0.1337286166423415,-1.8156456236123437,-0.1021477321618216,0.18052941312453277,0.0940746894089753,-0.576877832877023,-0.1582669391487824,3,right
6.76,-0.13411469826464426,0.8802885483592021,-0.13313924433012955,-1.7694490957298872,-0.15417743214245067,0.17053472879379614,0.09274316915965945,-0.5769708864030053,-0.15728263716214455,3,right
6.761,-0.129491176780591,0.8848891486843349,-0.1325062057338367,-1.7225097386104762,-0.20536663010408499,0.1605780226655502,0.09135597284224926,-0.576950841235224,-0.15677333229610257,3,right
6.763999999999999,-0.12491930995931631,0.889664527372814,-0.13182870624421328,-1.6748586311373905,-0.25566996278272497,0.15067152239472376,0.0899138502554044,-0.5768337007284796,-0.1567404696681901,3,right
6.766,-0.12040036955705827,0.8946127582266427,-0.13110588813207774,-1.6265264895514986,-0.30504268292889464,0.14082731144005686,0.08841757615547934,-0.5766356094875652,-0.1571854304824699,3,right
6.769,-0.11593568249369846,0.8997318244517519,-0.1303368333419457,-1.577543644141112,-0.3534406846592674,0.13105731841589147,0.08686795078835158,-0.5763728360249467,-0.15810953243435952,3,right
6.77,-0.11152663258512198,0.9050196124028296,-0.12952056694795688,-1.527940017097162,-0.4008205273646634,0.12137330611048973,0.08526580040939451,-0.5760617550130237,-0.1595140296836817,3,right
6.775,-0.10717466188460864,0.9104739049971758,-0.128656061219641,-1.4777451013949132,-0.44713945831615765,0.1117868601426264,0.08361197778729866,-0.5757188291304365,-0.16140011239722085,3,right
6.775,-0.10288127166155296,0.9160923748786148,-0.12774224023920783,-1.4269879405615633,-0.4923554341082404,0.10230937722841366,0.08190736268729122,-0.5753605905016982,-0.1637689058634426,3,right
6.778,-0.09864802304960646,0.921872577416432,-0.12677798500877754,-1.3756971091872958,-0.5364271410750465,0.092952053030564,0.08015286232915331,-0.5750036217292953,-0.16662146918341392,3,right
6.779,-0.09447653739487911,0.9278119436228384,-0.1257621389851778,-1.323900694035655,-0.5793140148126259,0.08372586956257633,0.07834941181528583,-0.5746645365173069,-0.16995879354334453,3,right
6.7829999999999995,-0.09036849633116784,0.9339077730692805,-0.12469351398154321,-1.2716262756074879,-0.6209762589370591,0.07464158212064301,0.0764979745239288,-0.5743599598855481,-0.17378180007555674,3,right
6.784,-0.08632564160760639,0.9401572268791054,-0.12357089637869505,-1.2189009100111705,-0.6613748632049377,0.06570970571642056,0.07459954246249614,-0.5741065079732502,-0.17809133731608034,3,right
6.789,-0.08234977469721307,0.946557320870276,-0.12239305359397798,-1.1657511109903824,-0.7004716211193251,0.0569405009841827,0.07265513657584724,-0.573920767431336,-0.1828881782684619,3,right
6.79,-0.07844275622240991,0.9531049189163225,-0.12115874075708166,-1.1122028319593142,-0.7382291471407995,0.04834395953628176,0.07066580700417842,-0.5738192744024544,-0.18817301708477294,3,right
6.794,-0.07460650524386972,0.9597967265886023,-0.11986670753609649,-1.0582814478939018,-0.7746108936195489,0.039929788741281565,0.0686326332850832,-0.5738184930880799,-0.19394646537619878,3,right
6.795,-0.07084299846928964,0.9666292851402857,-0.11851570504072687,-1.004011736926457,-0.8095811675607564,0.031707395899591685,0.06655672449419762,-0.57393479390218,-0.2002090481669891,3,right
6.797999999999999,-0.06715426944478631,0.9735989658903766,-0.11710449270964098,-0.9494178614899184,-0.8431051473316589,0.023685871791928492,0.06443921932133499,-0.5741844312209832,-0.20696119950273015,3,right
6.7989999999999995,-0.06354240778829168,0.9807019650602857,-0.115631845079973,-0.8945233488568758,-0.8751488994147227,0.015873973576451563,0.06228128609197321,-0.5745835207876192,-0.21420325770418233,3,right
6.8,-0.06000955851181685,0.9879342991062298,-0.11409655834730481,-0.8393510709175163,-0.9056793953073176,0.008280107010974246,0.06008412276738657,-0.5751480169188484,-0.22193546022131766,3,right
6.803,-0.05655792146831017,0.9952918005832679,-0.11249745664335414,-0.7839232230397107,-0.9346645286641222,0.0009123079772235974,0.05784895696967913,-0.5758936897104241,-0.2301579380224782,3,right
6.803999999999999,-0.05318975095707259,1.0027701145732395,-0.11083339797475786,-0.7282613018535905,-0.9620731327742452,-0.006221776715273763,0.0555770460647765,-0.5768361023891171,-0.23887070947610367,3,right
6.803999999999999,-0.04990735552224353,1.0103646957048658,-0.10910327978527207,-0.6723860819054168,-0.9878749984302587,-0.013114909215283743,0.05326967731276793,-0.5779905888717948,-0.24807367372189826,3,right
6.809,-0.046713097970952945,1.018070805786363,-0.10730604412798157,-0.6163175916410448,-1.0120408920897197,-0.01976028091392018,0.050928168081797245,-0.5793722315435215,-0.25776660355083336,3,right
6.811,-0.04360939561970577,1.0258835120594254,-0.10544068245126423,-0.5600750901078453,-1.0345425739512888,-0.026151532364232653,0.04855386611897891,-0.5809958392574195,-0.26794913781901586,3,right
6.813,-0.04059872075176421,1.033797686065738,-0.10350624000464745,-0.5036770462795663,-1.0553528154107557,-0.03228277181223457,0.04614814987171356,-0.5828759255596399,-0.2786207734218589,3,right
6.813,-0.0376836012369377,1.0418080030908565,-0.10150181986455777,-0.447141122391826,-1.0744454155097696,-0.03814859157553859,0.0437124288526794,-0.5850266871434444,-0.2897808568564003,3,right
6.818,-0.03486662123683505,1.0499089421242513,-0.0994265865730275,-0.3904841617461937,-1.0917952162592324,-0.04374408197478313,0.041248144041681575,-0.5874619825370948,-0.30142857540101775,3,right
6.819,-0.03215042190821378,1.0580947862631063,-0.09727976937391972,-0.3337221809241278,-1.107378116866642,-0.04906484278325784,0.03875676831745172,-0.5901953110309789,-0.31356294794319733,3,right
6.822,-0.02953770203388098,1.0663596234951183,-0.09506066501458135,-0.27687036624839434,-1.1211710869221807,-0.054106992211568256,0.03623980691240354,-0.5932397918501832,-0.3261828154874139,3,right
6.8229999999999995,-0.027031218548945943,1.074697347812051,-0.09276864005711018,-0.21994307432924082,-1.133152178593339,-0.05886717344340476,0.03369879788326838,-0.5966081435795375,-0.3392868313765804,3,right
6.827999999999999,-0.024633786971792023,1.083101660616811,-0.09040313262695361,-0.16295383653229525,-1.1433005378727874,-0.06334255873769233,0.03113531259045696,-0.6003126638490113,-0.35287345126192393,3,right
6.829,-0.022348281774461392,1.0915660723845775,-0.08796365353141758,-0.10591536720490201,-1.1515964149190776,-0.0675308511115988,0.028550956178920093,-0.6043652092882346,-0.3669409228575383,3,right
6.832999999999999,-0.020177636727680404,1.1000839045258473,-0.08544978670984138,-0.048839575497386295,-1.1580211735245391,-0.07143028361807016,0.025947368053212003,-0.608777175759848,-0.3814872755172549,3,right
6.834,-0.01812484523615967,1.1086482913850433,-0.08286118902431189,0.008262419384440356,-1.1625572997394902,-0.07503961623074468,0.023326222339395596,-0.6135594788823477,-0.39651030967285794,3,right
6.837000000000001,-0.016192960649808217,1.1172521823002055,-0.08019758944892177,0.06538026965936407,-1.1651884096765501,-0.07835813034827362,0.02068922832636899,-0.6187225348540923,-0.41200758617405214,3,right
6.837999999999999,-0.014385096504055188,1.1258883436496872,-0.07745878774455714,0.1225043773473817,-1.165899256513473,-0.08138562092924831,0.018038130879137592,-0.6242762415911706,-0.42797641557196675,3,right
6.843,-0.012704426614290255,1.134549360818629,-0.07464465270439166,0.17962586970685948,-1.1646757367074991,-0.08412238626810027,0.015374710816505398,-0.6302299601928889,-0.4444138473893468,3,right
6.843999999999999,-0.011154184931813443,1.1432276400281742,-0.07175512003539813,0.2367365718963009,-1.1615048954287488,-0.08656921542150738,0.01270078524561402,-0.6365924967497344,-0.46131665942194544,3,right
6.847,-0.00973766506567491,1.1519154099832338,-0.0687901899256075,0.29382897702480715,-1.1563749312146703,-0.08872737329400379,0.010018207845717338,-0.6433720845097849,-0.47868134711698584,3,right
6.848,-0.008458219387934436,1.1606047233117645,-0.0657499243462747,0.3508962137553073,-1.149275199842001,-0.09059858339065742,0.007328869093544386,-0.6505763664206913,-0.4965041130759053,3,right
6.853,-0.007319257667437449,1.1692874577905372,-0.06263444414782764,0.40793201162460535,-1.140196217407104,-0.09218500824384658,0.004634696422573,-0.6582123780655258,-0.5147808567299321,3,right
6.854,-0.006324245211239987,1.1779553173758734,-0.05944392601800359,0.4649306642442416,-1.1291296625999243,-0.09348922752033959,0.0019376543085119764,-0.6662865310119895,-0.5335071642383703,3,right
6.857,-0.005476700520410176,1.1865998330773968,-0.05617859937261061,0.5218869905460931,-1.1160683781511445,-0.09451421381405714,-0.0007602557267298671,-0.6748045965956905,-0.552678298660784,3,right
6.858,-0.004780192477661331,1.1952123637252077,-0.052838743244717844,0.5787962942365497,-1.1010063714264426,-0.09526330612908063,-0.0034569952003231353,-0.6837716901594412,-0.572289190455576,3,right
6.862,-0.00423833707665974,1.2037840966869646,-0.04942468323439434,0.6356543216229958,-1.083938814136047,-0.09574018105665937,-0.006150488850789372,-0.693192255771784,-0.5923344283587461,3,right
6.864,-0.0038547936838201676,1.2123060485946933,-0.04593678858294723,0.6924572179762101,-1.0648620411220502,-0.09594882164916851,-0.008838624925010637,-0.7030700514492256,-0.6128082506978906,3,right
6.8660000000000005,-0.00363326080244317,1.2207690661444863,-0.04237546943774865,0.7492014825921556,-1.0437735481802033,-0.09589348399317728,-0.011519255577719684,-0.7134081349079497,-0.6337045371977711,3,right
6.867000000000001,-0.0035774712936208794,1.2291638270356993,-0.038741174367521766,0.805883922716494,-1.0206719888671558,-0.0955786614830062,-0.014190197386683819,-0.724208849877294,-0.6550168013180547,3,right
6.867999999999999,-0.0036911870032851723,1.2374808411168874,-0.03503438817108249,0.8625016064949939,-0.9955571702383282,-0.0950090467953819,-0.0168492319641797,-0.7354738130346701,-0.6767381830802275,3,right
6.871,-0.003978192749878926,1.2457104518023872,-0.031255630001414215,0.9190518151128363,-0.9684300474558359,-0.09418949156504003,-0.01949410660465413,-0.747203901669868,-0.6988614421891892,3,right
6.872000000000001,-0.004442289635013491,1.2538428378213609,-0.02740545181088532,0.9755319942772349,-0.939292717269066,-0.09312496383931039,-0.022122534885837576,-0.7593992422140895,-0.721378951171399,3,right
6.872999999999999,-0.005087287644733972,1.2618680153623492,-0.02348443711614115,1.031939705155542,-0.9081484107095696,-0.0918205037836284,-0.024732197163143364,-0.7720591997443127,-0.7442826883374484,3,right
6.876,-0.005916997514709579,1.2697758406752229,-0.019493200080676888,1.0882725748051112,-0.8750014859568661,-0.09028117881955472,-0.027320740937825133,-0.785182368527981,-0.7675642305307971,3,right
6.877000000000001,-0.00693522184117834,1.277556013189385,-0.015432384917215259,1.1445282460889323,-0.8398574226708234,-0.08851203977082289,-0.029885781101918304,-0.7987665636482627,-0.7912147457103761,3,right
6.882000000000001,-0.008145745429542493,1.285198079208383,-0.011302665617905001,1.2007043271128974,-0.8027228187356752,-0.0865180791976035,-0.03242490006745741,-0.8128088137462487,-0.8152249854328326,3,right
6.882999999999999,-0.009552324884972301,1.2926914362442206,-0.00710474602331006,1.2567983402960556,-0.7636053897342715,-0.08430419238814428,-0.03493564778740022,-0.8273053549177809,-0.8395852773012831,3,right
6.888,-0.011158677463401464,1.300025338051964,-0.002839360239428886,1.3128076712270471,-0.722513971120589,-0.08187514108164254,-0.037415541675622305,-0.8422516258039324,-0.8642855174484935,3,right
6.888999999999999,-0.01296846921225431,1.3071889004152741,0.0014927265924114422,1.3687295174680871,-0.6794585229838355,-0.07923551991663261,-0.03986206643327072,-0.8576422639154659,-0.8893151631234417,3,right
6.89,-0.014985302436939596,1.31417110772044,0.0058907171730256174,1.4245608374676402,-0.6344501372917959,-0.07638972559853856,-0.04227267378868446,-0.8734711032329108,-0.9146632254512218,3,right
6.891,-0.017212702534984716,1.3209608203451368,0.010353780576033424,1.480298299742678,-0.5875010474953969,-0.07334192877942398,-0.04464478215800017,-0.8897311731251785,-0.9403182624372233,3,right
6.896,-0.01965410424684426,1.3275467828805279,0.014881050446430457,1.5359382324911612,-0.5386246403708262,-0.07009604864236553,-0.046975776233465806,-0.9064146986309192,-0.9662683722874668,3,right
6.896,-0.022312837379439197,1.3339176332006748,0.019471622898883174,1.5914765737951302,-0.4878354699699364,-0.06665573018228378,-0.04926300650638185,-0.9235131021480784,-0.9925011871178879,3,right
6.902,-0.025192112062633755,1.3400619123904995,0.024124554173292474,1.6469088225745074,-0.43514927354408833,-0.06302432417448445,-0.051503788731478796,-0.9410170065783433,-1.0190038671262451,3,right
6.903,-0.02829500360041865,1.3459680755428496,0.028838858130410004,1.702229990451454,-0.38058298930106027,-0.0592048698215933,-0.05369540333942145,-0.9589162399743906,-1.0457630953011723,3,right
6.905,-0.0316244369811056,1.351624503437027,0.033613503681950575,1.7574345546848045,-0.3241547758491491,-0.05520008006900881,-0.05583509480400504,-0.9771998417390341,-1.0727650727437075,3,right
6.906000000000001,-0.03518317111554696,1.3570195151166973,0.038447412241357594,1.8125164123338229,-0.2658840331771485,-0.05101232957844691,-0.05792007097047428,-0.9958560704265342,-1.0999955146774063,3,right
6.91,-0.0389737828764569,1.3621413813968382,0.043339455257401245,1.8674688358101814,-0.20579142501348865,-0.0466436453486116,-0.059947502351255545,-1.0148724131974662,-1.1274396472238792,3,right
6.912000000000001,-0.04299865101340902,1.3669783393497739,0.04828845186196365,1.9222844299767428,-0.14389890240247602,-0.04209569997149175,-0.0619145213952427,-1.0342355969796433,-1.1550822050212954,3,right
6.915,-0.04725994001838488,1.3715186078484327,0.0532931666330577,1.976955090951364,-0.0802297283302808,-0.03736980751225807,-0.0638182217366203,-1.0539316013886653,-1.1829074297640432,3,right
6.915,-0.051759584018261716,1.3757504042747573,0.0583523074521145,2.0314719667735717,-0.014808503228090384,-0.032466922000214,-0.065655657429042,-1.073945673462691,-1.210899069742356,3,right
6.92,-0.056499270773212505,1.3796619625245916,0.06346452342686053,2.0858254200915596,0.05233880882532254,-0.027387638517738087,-0.06742384217080881,-1.0942623442670312,-1.2390403804612797,3,right
6.921,-0.061480425859013615,1.3832415524514687,0.0686284028511621,2.1400049930265457,0.12118485338446847,-0.022132196873643865,-0.06911974852650968,-1.1148654474251072,-1.2673141264188792,3,right
6.926,-0.0667041971017101,1.3864775008883317,0.07384247116775582,2.1939993743710784,0.19170085858932817,-0.016700487846873682,-0.0707403071503963,-1.1357381396332453,-1.2957025841240641,3,right
6.9270000000000005,-0.07217143931524402,1.3893582143679253,0.07910518888862896,2.2477963692774154,0.2638566079816956,-0.01109206198593568,-0.07228240601656521,-1.1568629232176277,-1.3241875464348345,3,right
6.931,-0.0778826993712375,1.3918722036293676,0.08441494941916007,2.3013828715915894,0.337620413383391,-0.005306140948986164,-0.07374288966081262,-1.1782216707925564,-1.3527503282981337,3,right
6.932,-0.08383820161193982,1.3940081099530999,0.08977007672485855,2.3547448389882506,0.41295908803885284,0.0006583686310474701,-0.07511855843881028,-1.1997956520799515,-1.3813717739728222,3,right
6.935,-0.09003783361198164,1.3957547333165343,0.09516882277405737,2.407867271060801,0.48983792022932465,0.006802858772416404,-0.07640616780502617,-1.2215655629507327,-1.410032265817561,3,right
6.936,-0.09648113230893048,1.3971010623182032,0.10060936470023756,2.4607341905207276,0.5682206475704684,0.013129001278196415,-0.07760242761584213,-1.2435115567002895,-1.4387117346945195,3,right
6.936,-0.10316727055020675,1.3980363057894318,0.10608980165935263,2.513328627659401,0.6480694322097584,0.019638726394767703,-0.0787040014563967,-1.265613277325313,-1.467389671884501,3,right
6.939,-0.11009504413448311,1.3985499259989562,0.11160815139650009,2.565632608224904,0.7293448371444297,0.026334199012783565,-0.07970750598380297,-1.2878498941278356,-1.4960451421293226,3,right
6.94,-0.11726285946723132,1.3986316733337956,0.11716234657395928,2.6176271448657396,0.8120058038850713,0.03321779242880544,-0.08060951027544815,-1.3102001367272682,-1.5246567972618394,3,right
6.941,-0.12466872200909863,1.3982716222938283,0.12275023095151537,2.6692922322434103,0.8960096316276307,0.04029205974686595,-0.08140653517448962,-1.332642329807232,-1.5532028900394965,3,right
6.945,-0.13231022574294649,1.397460208598134,0.12836955554191334,2.7206068456698387,0.9813119577680085,0.04755970330253735,-0.08209505263100662,-1.3551544273663565,-1.5816612880770973,3,right
6.946000000000001,-0.14018454389624896,1.3961882671954366,0.1340179748849743,2.771548942683301,1.0678667389985907,0.05502354303763045,-0.08267148504065466,-1.377714046488093,-1.6100094879298366,3,right
6.949,-0.14828842116341304,1.3944470709641086,0.1396930436207015,2.8220954667303926,1.1556262318972361,0.06268648505697888,-0.08313220458310498,-1.4002985006939659,-1.638224629408559,3,right
6.95,-0.1566181677104916,1.392228369839514,0.14539221361156543,2.872222352365744,1.2445409722556442,0.07055149129653758,-0.08347353256223924,-1.4228848329448869,-1.666283510208943,3,right
6.954,-0.16516965528105118,1.3895244300413208,0.15111283192577069,2.9219045318215264,1.3345597529964377,0.07862155068758142,-0.08369173874974732,-1.4454498483552867,-1.6941626009360031,3,right
6.955,-0.1739383157138473,1.3863280730310432,0.15685213999186273,2.97111594304286,1.4256296008644276,0.0868996518995802,-0.08378304073344424,-1.4679701466849004,-1.7218380606049117,3,right
6.959,-0.18291914213008645,1.3826327138130348,0.16260727415631168,3.0198295393330645,1.5176957521473784,0.09538875768435054,-0.08374360327127839,-1.4904221546730354,-1.7492857526986971,3,right
6.96,-0.19210669296378635,1.378432398186054,0.1683752677309142,3.068017300751429,1.6107016276847612,0.1040917808446742,-0.08356953765164982,-1.5127821582800964,-1.7764812618628525,3,right
6.966,-0.2014950988967048,1.3737218385530332,0.1741530544309442,3.1156502474048047,1.7045888074259927,0.11301156185116991,-0.08325690106029271,-1.535026334901014,-1.8033999113163113,3,right
6.9670000000000005,-0.2110780726245739,1.3684964479084216,0.17993747293451695,3.1626984547729116,1.7992970048025225,0.12215084813181208,-0.08280169595360032,-1.5571307856150187,-1.830016781057587,3,right
6.968999999999999,-0.22084892123661332,1.3627523716505183,0.18572527220664742,3.2091310712057166,1.8947640411808233,0.13151227505910387,-0.08219986943788381,-1.5790715675359508,-1.8563067269441462,3,right
6.968999999999999,-0.23080056085402775,1.3564865169092066,0.1915131172532362,3.254916337729665,1.9909258206658662,0.14109834866053456,-0.08144731265365826,-1.6008247263269508,-1.8822444007222947,3,right
6.975,-0.2409255330687437,1.3496965791298845,0.19729759506670982,3.30002161029785,2.087716305527021,0.15091143007858185,-0.08053986016363948,-1.6223663289429797,-1.9078042710839822,3,right
6.976,-0.2512160226721698,1.3423810657048991,0.20307522063817027,3.3444133846174444,2.1850674925204894,0.16095372180715734,-0.07947328934271378,-1.6436724966641516,-1.932960645825999,3,right
6.979,-0.2616638761734899,1.3345393164915298,0.20884244299765567,3.3880573236858442,2.2829093903843822,0.1712272557320382,-0.07824331976770997,-1.6647194384823119,-1.9576876951860174,3,right
6.98,-0.27226062067113527,1.326171521100739,0.21459565128852454,3.43091828816504,2.3811699987843435,0.18173388300348067,-0.07684561260435749,-1.6854834849026967,-1.9819594764288535,3,right
6.985,-0.2829974827440102,1.3172787328843012,0.22033118088617037,3.4729603697216582,2.479775288989233,0.19247526576986806,-0.07527576998835747,-1.7059411222218308,-2.0057499597551582,3,right
6.986000000000001,-0.2938654071511883,1.307862879589821,0.2260453195450618,3.514146927457979,2.578649186557794,0.20345287080191055,-0.07352933439702428,-1.7260690273420707,-2.029033055603518,3,right
6.99,-0.304855075250225,1.2979267706935762,0.23173431351676665,3.5544406275569798,2.6777135563184147,0.2146679650375832,-0.0716017880074724,-1.7458441031823948,-2.0517826434156317,3,right
6.9910000000000005,-0.3159569231490069,1.287474101459843,0.23739437354462684,3.5938034862620998,2.7768881899250877,0.22612161307866255,-0.06948855203682963,-1.7652435147441607,-2.073972601932857,3,right
6.992999999999999,-0.32716115968464604,1.276509453811522,0.243021680623829,3.632196916309967,2.876090796273444,0.23781467667040002,-0.06718498605944967,-1.7842447258895986,-2.0955768410909505,3,right
6.994,-0.33845778437230467,1.2650382941291398,0.24861239142285244,3.6695817769317567,2.9752369950612643,0.24974781619655248,-0.06468638729557695,-1.802825536889803,-2.1165693355783057,3,right
6.999,-0.34983660548865547,1.25306696812125,0.25416264328733634,3.705918427536175,3.0742403137781986,0.26192149422267536,-0.06198798986538298,-1.8209641227979025,-2.1369241601213687,3,right
7.0,-0.36128725845197124,1.2406026929256853,0.25966855878065753,3.741166785184279,3.1730121884094964,0.2743359811212701,-0.059084964001746426,-1.8386390727019448,-2.156615526559246,3,right
7.002999999999999,-0.3727992246379965,1.2276535466035903,0.2651262497479778,3.7752863859634482,3.2714619681383756,0.2869913628130683,-0.05597241522577919,-1.8558294298709772,-2.1756178227072738,3,right
7.004,-0.3843618507367186,1.2142284551698952,0.2705318209143871,3.8082364503648036,3.3694969243312585,0.2998875506594251,-0.05264538354447736,-1.8725147326072864,-2.193905652705086,3,right
7.005,-0.39596436872172847,1.2003371772689317,0.2758813730391671,3.839975952765244,3.4670222640894153,0.31302429354148453,-0.04909884282999985,-1.8886750552577702,-2.211453877998492,3,right
7.01,-0.40759591647741333,1.1859902865785885,0.28117100565063996,3.8704636951120315,3.5639411486496386,0.3264011921624734,-0.04532770059542639,-1.9042910486367763,-2.228237657800101,3,right
7.011,-0.41924555910546485,1.1711991520292577,0.2863968193860495,3.8996583849044972,3.6601547169153776,0.34001771561016914,-0.04132679832527935,-1.9193439793105473,-2.2442324881739717,3,right
7.0120000000000005,-0.43090231090472947,1.1559759159363057,0.2915549179598239,3.9275187174836215,3.755562114439785,0.3538732201426793,-0.03709091241775126,-1.933815767550556,-2.2594142394317647,3,right
7.013,-0.44255515799309225,1.1403334701387167,0.2966414097796411,3.9540034622350566,3.850060528387899,0.36796696978835075,-0.03261475573898357,-1.9476890239606923,-2.2737591918280846,3,right
7.013999999999999,-0.4541930815248365,1.1242854302135457,0.30165240922556447,3.9790715515844846,3.943545229376668,0.3822981576799048,-0.027892979777892044,-1.9609470848215125,-2.287244069600905,3,right
7.019,-0.4658050814395021,1.1078461078238395,0.30658403760780834,4.0026821712587894,4.035909621296722,0.3968659266705746,-0.02292017738935867,-1.9735740461930877,-2.2998460734006336,3,right
7.019,-0.4773802006437279,1.0910304812733498,0.3114324238245201,4.024794850684158,4.127045300009652,0.4116693881537097,-0.017690886112919857,-1.9855547968162661,-2.3115429111489916,3,right
7.022,-0.48890754948788256,1.073854164370694,0.31619370475134,4.0453695531111045,4.216842121438156,0.4267076386794091,-0.012199592053374786,-1.996875049850402,-2.3223128273663796,3,right
7.023,-0.5003763303742963,1.0563333737306688,0.3208640254080637,4.0643667654538245,4.305188279355644,0.44197977433542773,-0.00644073430901667,-2.0075213734837956,-2.3321346310038926,3,right
7.029,-0.511775862323915,1.0384848946596539,0.32543953896304856,4.081747587907314,4.391970393136872,0.4574849029348822,-0.0004087099324526501,-2.0174812204512294,-2.340987721813542,3,right
7.029,-0.5230956053247299,1.0203260457876167,0.3299164066539484,4.097473823401283,4.4770736057273375,0.47322215405395357,0.005902120591774647,-2.0267429564910904,-2.3488521152875714,3,right
7.0329999999999995,-0.5343251842856794,1.001874642619171,0.33429079772377945,4.111508066945349,4.560381692084973,0.48919068696345913,0.01249742736931966,-2.035295887772638,-2.355708466195042,3,right
7.034,-0.5454544124225466,0.9831489601800805,0.33855888948558116,4.123813794915361,4.641777178343212,0.5053896964988321,0.01938290463526107,-2.043130287322001,-2.3615380907410723,3,right
7.037000000000001,-0.5564733139030578,0.9641676949359304,0.3427168676224179,4.134355454325941,4.721141471939635,0.5218184169137174,0.026564263828565145,-2.05023742047349,-2.3663229873712885,3,right
7.037999999999999,-0.5673721455729052,0.9449499261590683,0.3467609267940725,4.143098552129497,4.798355002949279,0.5384761237630545,0.03404722622074412,-2.0566095693707744,-2.3700458562411386,3,right
7.042000000000001,-0.5781414175740823,0.9255150769192605,0.3506872715669847,4.150009744576974,4.873297376856167,0.5553621338621816,0.04183751511850198,-2.0622400565404106,-2.372690117366778,3,right
7.044,-0.5887719126580352,0.9058828748710124,0.35449211763586164,4.155056926670544,4.945847538990813,0.5724758033691543,0.049940847661010195,-2.067123267558122,-2.3742399274712365,3,right
7.047999999999999,-0.5992547039950583,0.8860733130035647,0.3581716932894871,4.158209321733293,5.015883950855244,0.5898165240381313,0.05836292623332223,-2.0712546728261207,-2.374680195536525,3,right
7.047999999999999,-0.6095811712929484,0.8661066105074904,0.3617222410969973,4.159437571115686,5.083284778550564,0.6073837176923349,0.06710942951831855,-2.0746308484776366,-2.373996597069245,3,right
7.055,-0.6197430150680818,0.8460031738962644,0.36514001984218925,4.158713824053237,5.147928093515235,0.6251768289657454,0.07618600321047317,-2.077249496422668,-2.372175587084119,3,right
7.056,-0.6297322689659782,0.8257835585057186,0.36842130678867374,4.1560118276843845,5.209692085774984,0.6431953163633476,0.08559825041564832,-2.0791094635468186,-2.369204411806675,3,right
7.057,-0.6395413101029321,0.8054684304826388,0.37156240039447425,4.151307017232037,5.268455289897712,0.6614386416903905,0.09535172176205586,-2.080210760072913,-2.3650711190930966,3,right
7.057,-0.6491628674805999,0.78507852936666,0.37455962360204803,4.144576606346653,5.324096823838848,0.6799062579017757,0.10545190524847191,-2.0805545770929115,-2.359764567561978,3,right
7.062,-0.6585900285933467,0.7646346313644337,0.37740932781457875,4.135799677603041,5.376496640854301,0.6985975954233354,0.11590421585675569,-2.080143303275466,-2.3532744344294163,3,right
7.064,-0.6678162443947121,0.7441575134087793,0.3801078976386096,4.124957273137317,5.425535794649588,0.7175120469974066,0.12671398495670344,-2.0789805407522906,-2.3455912220355546,3,right
7.067,-0.676835332815547,0.7236679180865697,0.38265175642833754,4.1120324854046375,5.4710967179247,0.7366489511057527,0.13788644953226425,-2.0770711201843226,-2.336706263047298,3,right
7.068,-0.6856414810348195,0.7031865195079442,0.38503737261034093,4.097010548032446,5.513063514464988,0.7560075740235279,0.14942674125915595,-2.074421115006521,-2.3266117243185493,3,right
7.072,-0.694229246694848,0.6827338901771943,0.38726126671081107,4.07987892673807,5.551322264918691,0.7755870905586172,0.16133987546055154,-2.0710378548174613,-2.3153006094110027,3,right
7.072,-0.7025935582253248,0.6623304689100094,0.3893200189725387,4.060627410273483,5.585761346391753,0.7953865635313261,0.17363073994657646,-2.0669299377252903,-2.302766759900811,3,right
7.0729999999999995,-0.7107297144023615,0.6419965298226723,0.39121027744364495,4.039248201354067,5.61627176598021,0.8154049220500311,0.1863040837048639,-2.0621072411849957,-2.289004855819215,3,right
7.077000000000001,-0.7186333832379963,0.6217521524075154,0.39292876641882357,4.015736007522136,5.642747508349863,0.8356409386390359,0.19936450538851416,-2.056580930707379,-2.2740104156974588,3,right
7.077999999999999,-0.7263006002809542,0.6016171927122265,0.39447229509745657,3.990088131750485,5.66508589691551,0.8560932052902537,0.21281644157086105,-2.0503634659705128,-2.257779796557074,3,right
7.077999999999999,-0.7337277663983923,0.5816112556440637,0.3958377663147918,3.9623045618881276,5.68318796542891,0.876760108584692,0.2266641547770959,-2.043468604136879,-2.2403101939568435,3,right
7.082000000000001,-0.7409116450890337,0.5617536684115594,0.3970221852233972,3.932388056789608,5.696958831855567,0.8976398041630477,0.24091172132588354,-2.0359114003298395,-2.2215996420784996,3,right
7.082999999999999,-0.7478493593534622,0.5420634551075872,0.39802266782923185,3.9003442262661254,5.706308063676735,0.9187301908990668,0.2555630190196233,-2.027708205251607,-2.2016470138045223,3,right
7.087000000000001,-0.7545383881213021,0.5225593124402366,0.39883644929479783,3.86618160268761,5.711150026472703,0.9400288850562147,0.2706217147231446,-2.018876659922948,-2.1804520207378504,3,right
7.087999999999999,-0.760976562205902,0.5032595866227298,0.3994608919212144,3.829911703313398,5.711404212548446,0.9615331945761026,0.28609125187177487,-2.0094356875229376,-2.1580152131097536,3,right
7.0920000000000005,-0.7671620597262943,0.4841822514294408,0.39989349272812197,3.791549083120053,5.706995549081945,0.9832400935739998,0.30197483795087654,-1.999405482305239,-2.1343379795185426,3,right
7.0920000000000005,-0.7730934009103003,0.4653448874139422,0.40013189056242005,3.7511113780282432,5.697854685808896,1.0051461971026099,0.3182754319901214,-1.9888074955655806,-2.109422546438236,3,right
7.096,-0.7787694421780342,0.44676466227340367,0.4001738726764199,3.7086193384244917,5.6839182622443865,1.0272477362458818,0.3349957321169477,-1.9776644186333514,-2.083271977432725,3,right
7.096,-0.7841893694038293,0.4284583123345352,0.4000173807228439,3.664096852867636,5.665129154428735,1.0495405336052057,0.35213816321483643,-1.9660001628585453,-2.0558901720074285,3,right
7.102,-0.7893526902651087,0.4104421251301734,0.3996605161205709,3.617570961863886,5.641436701171088,1.0720199792409162,0.3697048647332396,-1.95383983656366,-2.0272818640268704,3,right
7.105,-0.7942592256053044,0.3927319230321127,0.39910154475176246,3.569071861588447,5.612796909750601,1.0946810071325859,0.38769767869719907,-1.9412097189285884,-1.9974526196230558,3,right
7.106,-0.7989090997606224,0.37534304790427087,0.3983389009589707,3.518632897425873,5.57917264102115,1.1175180722221394,0.40611813796590535,-1.9281372307750517,-1.9664088345160056,3,right
7.107,-0.8033027298243026,0.35829034674060445,0.3973711908219613,3.466290547195565,5.540533773851389,1.1405251281043565,0.4249674547906657,-1.9146509022156968,-1.9341577306642699,3,right
7.111000000000001,-0.8074408138457435,0.3415881582542202,0.3961971947076282,3.4120843939231524,5.496857348817822,1.1636956054298493,0.44424650972397295,-1.9007803371316299,-1.9007073521597475,3,right
7.112,-0.8113243179843289,0.3252503003871386,0.39481586909893457,3.3560570880129394,5.44812769105421,1.1870223910861075,0.4639558409325941,-1.8865561744408998,-1.8660665602776423,3,right
7.1160000000000005,-0.814954462657026,0.30929005871329857,0.39322634771842585,3.298254298671137,5.39433651214627,1.2104978082226887,0.48409563396883154,-1.872010046119249,-1.8302450275889293,3,right
7.117000000000001,-0.8183327077343906,0.2937201757108876,0.3914279419701895,3.2387246544242547,5.33548299094618,1.2341135971871016,0.5046657120553398,-1.8571745319333504,-1.7932532310392528,3,right
7.12,-0.8214607368539478,0.27855284088531274,0.38942014073342224,3.1775196725717967,5.271573833166856,1.257860897438378,0.5256655269401184,-1.8420831108457396,-1.7551024438947633,3,right
7.121,-0.8243404409343226,0.2637996817306236,0.38720260955077335,3.1146936774073164,5.202623309601493,1.281730230505755,0.5470941503795365,-1.8267701090497241,-1.715804726452013,3,right
7.126,-0.8269739009855024,0.2494717555206889,0.38477518926177634,3.0503037070369254,5.128653272799309,1.3057114840602853,0.5689502663084816,-1.811270644591721,-1.6753729154056631,3,right
7.126,-0.8293633703179377,0.23557954191810757,0.3821378941323951,2.984409408619552,5.0496931520139166,1.3297938971675825,0.5912321637579557,-1.7956205685377469,-1.633820611764432,3,right
7.132000000000001,-0.8315112562569297,0.2221329363806896,0.37929090952823175,2.9170729218485825,4.9657799262263085,1.3539660467902441,0.6139377305816759,-1.7798564026401436,-1.591162167202424,3,right
7.132999999999999,-0.8334201014710078,0.20914124433899142,0.3762345891794807,2.848358750490049,4.8769580750300205,1.3782158356088223,0.637064448054461,-1.76401527346009,-1.5474126687297154,3,right
7.135,-0.8350925650249188,0.19661317612039728,0.3729694520988001,2.778333621788194,4.783279507151714,1.4025304812305006,0.6606093864064126,-1.7481348429010217,-1.5025879215628586,3,right
7.136,-0.8365314032703548,0.18455684260872993,0.36949617924165135,2.70706633354511,4.684803466366223,1.4268965068548911,0.6845692013581085,-1.7322532351077529,-1.4567044300727932,3,right
7.138999999999999,-0.8377394506895229,0.17297975164990062,0.36581561003185276,2.634627588677205,4.581596414551,1.4512997334665865,0.7089401316958024,-1.71640895977622,-1.4097793767575635,3,right
7.14,-0.8387196008022597,0.16188880523258564,0.36192873888972144,2.561089817047474,4.473731891611001,1.4757252736242896,0.733717997789626,-1.7006408323703948,-1.361830599549401,3,right
7.142,-0.8394747872367816,0.15129029748233253,0.35783671188539434,2.486526984368999,4.361290351991224,1.500157526916482,0.7588982007120286,-1.6849878925560375,-1.3128765684201162,3,right
7.145,-0.8400079650643164,0.1411899135202257,0.35354082361630823,2.4110143879717345,4.244358977480598,1.524580177153709,0.7844757214776749,-1.6694893226128087,-1.2629363626110042,3,right
7.146,-0.8403220925205401,0.13159272926440663,0.34904251439451706,2.3346284392214876,4.123031465997525,1.5489761913676159,0.8104451200643851,-1.6541843671347343,-1.2120296494452814,3,right
7.146,-0.8404201132650917,0.12250321227887036,0.3443433678151206,2.257446432795713,3.9974077965363772,1.573327820680139,0.8368005341228073,-1.6391122545162307,-1.1601766650207526,3,right
7.151,-0.840304939337129,0.11392522377485664,0.3394451087488034,2.1795463051113204,3.867593972952017,1.5976166030725305,0.8635356774208482,-1.6243121202695951,-1.1073981967123323,3,right
7.153,-0.8399794349463089,0.10586202184638527,0.33434960176741874,2.101006387965139,3.7337017537660033,1.621823368023128,0.8906438380974554,-1.609822932130082,-1.0537155673382237,3,right
7.156000000000001,-0.839446401220601,0.09831626599695735,0.32905884997963875,2.021905165538687,3.595848377676444,1.6459282429489461,0.9181178768014471,-1.5956834169053493,-0.99915062084084,3,right
7.157,-0.8387085620339625,0.0912900230023745,0.3235749942199199,1.9423210408235398,3.4541562919307847,1.6699106614197003,0.9459502247921782,-1.5819319890268408,-0.9437257093308976,3,right
7.1610000000000005,-0.8377685510409887,0.08478477414154055,0.317900312495499,1.862332113753805,3.308752886189948,1.6937493731732995,0.9741328820799025,-1.5686066807615677,-0.8874636813405087,3,right
7.162000000000001,-0.8366289000284358,0.07880142379955764,0.3120372195608349,1.7820159712372947,3.159770231990193,1.7174224559952742,1.0026574156847408,-1.5557450740437495,-0.8303878711285733,3,right
7.164,-0.8352920286570491,0.07334030941189801,0.3059882664710094,1.7014494888569427,3.0073448273959262,1.7409073295309871,1.0315149580941907,-1.543384233886895,-0.7725220888792987,3,right
7.165,-0.8337602356250893,0.06840121268695434,0.2997561399745279,1.620708644012842,2.8516173464260492,1.764180771099063,1.0606962060001235,-1.5315606433381224,-0.7138906116322693,3,right
7.169,-0.832035691244458,0.06398337202058381,0.29334366164152165,1.5398683402743463,2.692732392826144,1.7872189335739934,1.0901914193971907,-1.52031013993785,-0.6545181747801568,3,right
7.17,-0.8301204313848471,0.06008549599827496,0.28675378667763524,1.4590022427109495,2.5308382577489263,1.8099973654053354,1.119990421125521,-1.5096678536494286,-0.5944299639678887,3,right
7.176,-0.8280163527154117,0.05670577786669566,0.2799896024340388,1.3781826239701587,2.366086680895911,1.8324910328403041,1.150082596941516,-1.4996681462248254,-0.5336516072248945,3,right
7.1770000000000005,-0.8257252091615077,0.05384191084766972,0.27305432667547447,1.2974802208702871,2.1986326146641706,1.8546743444158986,1.1804568962014563,-1.4903445519741148,-0.4722091671599257,3,right
7.178999999999999,-0.8232486094974719,0.05149110416462447,0.2659513057000013,1.216964101276015,2.0286339908334456,1.8765211777859372,1.211101833243497,-1.4817297199082784,-0.4101291330458862,3,right
7.18,-0.8205880160115057,0.04965009965191711,0.25868401241272393,1.1367015410246974,1.8562514893206454,1.8980049089475672,1.2420054895544783,-1.473855357226661,-0.3474384126201269,3,right
7.185,-0.8177447441979716,0.04831518881898227,0.25125604444357813,1.0567579106717329,1.68164830852103,1.9190984439309178,1.2731555168087814,-1.466752174122367,-0.28416432342375747,3,right
7.185,-0.8147199634490844,0.04748223024489319,0.24367112237017335,0.9771965718238348,1.5049899367480615,1.9397742530146016,1.3045391408672407,-1.4604498298809183,-0.22033458350169147,3,right
7.189,-0.8115146987273367,0.04714666718651022,0.23593308806750962,0.898078782829774,1.326443924277063,1.9600044075287228,1.3361431668248624,-1.454976880249619,-0.15597730128339074,3,right
7.19,-0.8081298331995033,0.047303545294611074,0.22804590316807757,0.8194636135990718,1.1461796554914543,1.9797606193059272,1.3679539851968088,-1.4503607260572842,-0.09112096446259899,3,right
7.194,-0.8045661118043551,0.04794753034569684,0.22001364758834985,0.7414078693202181,0.9643681206244358,1.999014282839832,1.3999575793327752,-1.446627563066291,-0.025794427692759487,3,right
7.195,-0.8008241457138455,0.04907292591148746,0.21184051806475537,0.6639660228512556,0.781181686583567,2.0177365202088895,1.432139534150522,-1.4438023330412852,0.039973101086703385,3,right
7.199,-0.7969044176344264,0.05067369090326047,0.20353082664320854,0.5871901555570138,0.5967938663407579,2.035898228822377,1.464485046279913,-1.4419086760213444,0.10615207587949131,3,right
7.2,-0.792807287882692,0.052743456943890606,0.1950889990789332,0.511129906368875,0.411379086365748,2.053470132043761,1.49697893570937,-1.4409688837849215,0.1727126296045308,3,right
7.204,-0.7885330011605465,0.05527554553508513,0.1865195731233902,0.43583242884471646,0.2251124515772017,2.070422832745158,1.5296056590271578,-1.4410038544995074,0.2396245929999326,3,right
7.205,-0.7840816939524521,0.05826298499887721,0.1778271966960679,0.3613423560085779,0.03816950728209777,2.0867268698450014,1.5623493243503934,-1.4420330485506183,0.30685751564886193,3,right
7.207999999999999,-0.7794534024700742,0.06169852718008401,0.16901662595458594,0.28770177275165576,-0.14927400242885686,2.102352777879335,1.5951937080350846,-1.4440744455474537,0.374380689318465,3,right
7.209,-0.7746480710752198,0.06557466390013383,0.16009272328340837,0.21495019557841014,-0.3370423803645055,2.1172711496553633,1.6281222732038187,-1.4471445025249245,0.4421631737096736,3,right
7.21,-0.76966556112059,0.06988364315392417,0.15106045521857003,0.14312455948388553,-0.5249602265318709,2.131452702034038,1.6611181898426652,-1.4512581134623908,0.5101738242449627,3,right
7.2139999999999995,-0.7645056601584801,0.07461748504176231,0.14192489031568978,0.07225921175078032,-0.712852693588232,2.1448683448865027,1.6941643557054422,-1.456428570418358,0.5783813206729711,3,right
7.215,-0.759168091473541,0.07976799742559317,0.13269119695753695,0.002385912457348557,-0.9005457479856791,2.1574892532671908,1.7272434169783544,-1.4626675266811349,0.6467541947979697,3,right
7.216,-0.7536525238939444,0.08532679129101627,0.12336464109062799,-0.06646615849273821,-1.0878664369694044,2.1692869427353716,1.760337787943589,-1.469984962240642,0.7152608561144871,3,right
7.22,-0.7479585818327481,0.09128529579036271,0.11395058387648903,-0.13427038791774448,-1.2746431596998926,2.1802333472103395,1.7934296693943035,-1.4783891517135999,0.7838696149769644,3,right
7.221,-0.7420858555135178,0.0976347729429584,0.10445447923919379,-0.2010027094222686,-1.4607059373647637,2.1903008977632195,1.82650106583891,-1.4878866347595967,0.8525487034064569,3,right
7.223,-0.7360339113368153,0.10436633197072068,0.09488187128776876,-0.2666415768286408,-1.6458866752539376,2.1994626002016036,1.8595338015896965,-1.498482189009071,0.9212662937311142,3,right
7.224,-0.7298023023426305,0.11147094324310007,0.08523839159339515,-0.33116793090921814,-1.830019411661244,2.207692109845185,1.8925095358308037,-1.5101788055273704,0.9899905152574664,3,right
7.228,-0.7233905787214023,0.11893945179849875,0.07552975630792894,-0.3945651595068999,-2.0129405518774037,2.214963802867967,1.9254097767605296,-1.5229776668421793,1.0586894691697426,3,right
7.228,-0.7167982983255979,0.12676259040607635,0.06576176312036006,-0.4568190512149962,-2.1944890874277885,2.221252844124427,1.9582158949028097,-1.5368781275647576,1.1273312418545633,3,right
7.233,-0.7100250371328384,0.1349309921326108,0.05594028805926753,-0.5179177428017807,-2.374506801083577,2.2265352514832264,1.9909091356825717,-1.551877697638598,1.1958839168483606,3,right
7.234,-0.7030703996093985,0.143435202381353,0.04607128216006114,-0.5778516605618209,-2.5528384581714416,2.2307879566892983,2.0234706313594333,-1.5679720282522667,1.2643155856048154,3,right
7.237,-0.6959340289208474,0.15226569037248822,0.03616076802335038,-0.6366134557728987,-2.7293319847029625,2.233988862772331,2.0558814124139437,-1.585154900456353,1.3325943572794285,3,right
7.2379999999999995,-0.6886156169350346,0.16141286003747937,0.02621483629332565,-0.6941979344340212,-2.9038386328405834,2.236116898016767,2.088122418480254,-1.6034182165276103,1.400688367728093,3,right
7.242999999999999,-0.681114913962364,0.17086706030128485,0.016239642083275337,-0.7506019814566796,-3.0762131342120784,2.237152066505494,2.120174508918708,-1.6227519941265098,1.468565787916184,3,right
7.245,-0.6734317381814016,0.18061859472727454,0.006241401371674846,-0.8058244794781523,-3.246313841580224,2.2370754952463714,2.1520184731214296,-1.6431443632975493,1.5361948319342449,3,right
7.247000000000001,-0.6655659847054212,0.19065773050159002,-0.003773612612836174,-0.8598662224622705,-3.4140028593686838,2.2358694778876687,2.1836350406434737,-1.6645815663647627,1.6035437648158142,3,right
7.247999999999999,-0.6575176342563148,0.20097470673763482,-0.01379907300805072,-0.9127298242496766,-3.5791461635389754,2.233517515025344,2.215004891251587,-1.6870479607779452,1.6705809103523253,3,right
7.252000000000001,-0.6492867614241276,0.2115597420863506,-0.023828602939735776,-0.9644196222162185,-3.74161371130689,2.2300043511019076,2.2461086649820103,-1.710526024968146,1.7372746590992827,3,right
7.252999999999999,-0.6408735425013045,0.222403041643779,-0.03385577916461647,-1.0149415761947296,-3.901279541179785,2.225316007893368,2.2769269722981087,-1.7349963672739799,1.8035934767671267,3,right
7.257999999999999,-0.6322782628895189,0.23349480315458612,-0.04387413576051952,-1.0643031628120712,-4.0580218637889,2.2194398145774743,2.307440404437904,-1.760437738003256,1.8695059131892984,3,right
7.2589999999999995,-0.6235013240838948,0.24482522251855487,-0.05387716789415306,-1.1125132653899383,-4.211723143983138,2.212364434373129,2.337629544040822,-1.7868270446973324,1.9349806120590294,3,right
7.2620000000000005,-0.6145432502449131,0.25638449861657725,-0.06385833569829487,-1.1595820595545812,-4.362270174642735,2.204079887737475,2.367474976142144,-1.8141393706684468,1.9999863216253038,3,right
7.263,-0.6054046943718212,0.26816283748316344,-0.07381106828807509,-1.2055208946972649,-4.509554142662835,2.1945775721037593,2.3969572996227817,-1.842347996883056,2.064491906537275,3,right
7.267,-0.5960864440926398,0.28015045586242177,-0.08372876794111199,-1.2503421714239835,-4.653470687548279,2.183850278139613,2.42605713920105,-1.8714244272669465,2.1284663610251617,3,right
7.268,-0.5865894270855527,0.2923375841928462,-0.09360481446079663,-1.2940592151296693,-4.793919953051845,2.1718922025019465,2.454755158052144,-1.9013384175105126,2.1918788236043,3,right
7.272,-0.576914716145298,0.30471446907388355,-0.10343256973850191,-1.336686145828894,-4.9308066322788315,2.158698957061128,2.4830320711399674,-1.9320580074551832,2.2546985934875887,3,right
7.272,-0.5670635339065883,0.3172713752745645,-0.11320538252979426,-1.3782377443718492,-5.0640400066712,2.1442675745636324,2.5108686593448697,-1.963549557144455,2.316895148890053,3,right
7.276,-0.5570372572347617,0.3299985873498507,-0.12291659346070596,-1.4187293151712266,-5.193533979274542,2.1285965106987907,2.5382457844696886,-1.9957777866254014,2.378438167407612,3,right
7.278,-0.5468374212908685,0.34288641093201994,-0.13255954028053502,-1.458176545562479,-5.319207102680914,2.111685642531733,2.5651444051731915,-2.02870581952691,2.4392975485688893,3,right
7.278,-0.5364657232725916,0.3559251737622549,-0.1421275633769205,-1.4965953619168724,-5.4409826020301,2.093536263261066,2.591545593718218,-2.0622952301334827,2.4994434382492394,3,right
7.282,-0.5259240258241805,0.3691052265232958,-0.1516140115686029,-1.5340017827852945,-5.558788393375653,2.074151073324717,2.617430553131595,-2.096506093118227,2.5588462539001355,3,right
7.2829999999999995,-0.5152143601016159,0.3824169435304529,-0.16101224819153603,-1.5704117701559235,-5.672557097383678,2.05353416821608,2.6427806342109914,-2.131297034791037,2.6174767091372466,3,right
7.284,-0.5043389284775198,0.3958507233372538,-0.17031565749253638,-1.6058410813604889,-5.782226047731852,2.0316910239851076,2.6675773519729846,-2.1666252850294945,2.6753058366363422,3,right
7.287999999999999,-0.4933001068754889,0.40939698931377966,-0.1795176513379169,-1.6403051249690785,-5.887737293237315,2.0086284817377016,2.691802401424032,-2.2024467296191244,2.732305009018175,3,right
7.289,-0.4821004467338426,0.42304619025923845,-0.18861167623072564,-1.6738188232024558,-5.989037593057952,1.9843547321009745,2.715437672695033,-2.2387159630409377,2.788445957809134,3,right
7.292000000000001,-0.47074267661034885,0.4367888011117188,-0.19759122061272785,-1.7063964819334398,-6.086078404889089,1.9588793000023506,2.738465265610681,-2.2753863418076503,2.8437007906437435,3,right
7.292999999999999,-0.4592297034497939,0.45061532381435787,-0.20644982241260593,-1.738051668538008,-6.178815866393128,1.9322130297647262,2.7608675037631496,-2.3124100384513846,2.8980420068726764,3,right
7.297000000000001,-0.4475646135459717,0.4645162883899371,-0.21518107679342613,-1.7687970976924283,-6.26721077015301,1.904368070447978,2.7826269481579806,-2.3497380962669525,2.9514425117375143,3,right
7.297999999999999,-0.43575067323947964,0.47848225426809465,-0.22377864405074568,-1.7986445252100347,-6.351228532428193,1.875357861363658,2.803726410498282,-2.387320484915952,3.0038756292709166,3,right
7.3020000000000005,-0.42379132940074127,0.4925038119022331,-0.23223625761876956,-1.8276046500086136,-6.430839155979469,1.8451971176862974,2.8241489661715575,-2.42510615699794,3.0553151140782533,3,right
7.303,-0.4116902097512541,0.5065715847068603,-0.2405477321547613,-1.8556870242967478,-6.506017187216483,1.813901816081355,2.843877967001636,-2.463043105695795,3.105735162154047,3,right
7.307,-0.39945112307442787,0.5206762313398586,-0.24870697168622352,-1.8828999720648834,-6.576741667909244,1.7814891802665045,2.862897053826282,-2.5010784236031403,3.1551104208837986,3,right
7.308,-0.38707805936162715,0.5348084483481031,-0.2567079778161666,-1.9092505159643391,-6.642996081692273,1.7479776664196502,2.8811901689591166,-2.539158362842247,3.2034159983789063,3,right
7.311,-0.37457518993068256,0.5489589731898766,-0.26454485798776867,-1.934744312654947,-6.704768295577326,1.7133869483438076,2.8987415685924973,-2.5772283965812997,3.2506274722894717,3,right
7.312,-0.3619468675449699,0.5631185876437311,-0.2722118338117576,-1.9593855966995122,-6.762050496677807,1.6777379022957746,2.9155358351959424,-2.6152332820601654,3.296720898236776,3,right
7.317,-0.3491976265531761,0.5772781216102767,-0.27970324945977804,-1.9831771330808077,-6.814839124335181,1.6410525913823657,2.9315578899626313,-2.6531171252339454,3.3416728180041546,3,right
7.317,-0.336332183064578,0.5914284573106643,-0.2870135801270769,-2.0061201784143443,-6.863134797824833,1.6033542494248838,2.9467930053543703,-2.6908234471435546,3.3854602676218266,3,right
7.32,-0.3233554351724182,0.6055605338832062,-0.2941374405690786,-2.0282144509277136,-6.9069422398059155,1.5646672641894666,2.961226817793223,-2.7282952521223884,3.4280607854780607,3,right
7.321000000000001,-0.3102724632378307,0.6196653523774017,-0.30106959371767844,-2.0494581092748523,-6.946270195666842,1.5250171598779725,2.9748453405458104,-2.7654750979477822,3.46945242058575,3,right
7.3260000000000005,-0.2970885302468156,0.6337339811420544,-0.307804959381745,-2.0698477402511366,-6.981131348905169,1.48443057877116,2.9876349768440202,-2.8023051680454634,3.509613741130143,3,right
7.327000000000001,-0.28380908225115875,0.6477575616010627,-0.31433862302996113,-2.0893783554727725,-7.011542232667726,1.4429352619130777,2.9995825332835437,-2.838727345854518,3.548523843420062,3,right
7.33,-0.2704397489010091,0.6617273144076381,-0.3206658446420685,-2.1080433970815036,-7.037523137564022,1.400560028722819,3.010675233539352,-2.8746832914595535,3.5861623613614717,3,right
7.332000000000001,-0.25698634407401927,0.6756345459648949,-0.3267820675998335,-2.1258347525331973,-7.059098015853087,1.3573347554171078,3.020900732434811,-2.9101145205957404,3.622509476568718,3,right
7.335,-0.24345486660449658,0.6894706552965509,-0.33268292757836193,-2.142742778526407,-7.076294382091171,1.313290352124569,3.030247130398738,-2.9449624861312342,3.6575459292251864,3,right
7.336,-0.22985150111441524,0.703227141246679,-0.33836426139639114,-2.1587563341245035,-7.0891432103149725,1.2684587385700186,3.038702988342232,-2.979168662130143,3.6912530298014468,3,right
7.34,-0.21618261894487914,0.7168956099843764,-0.34382211578874594,-2.1738628231224757,-7.0976788278224525,1.2228728182046638,3.0462573429846334,-3.0126746305977026,3.723612671735271,3,right
7.341,-0.20245477918120725,0.7304677827874769,-0.34905275606983066,-2.188048245706937,-7.1019388056006845,1.176566450655753,3.052899722655438,-3.045422171007635,3.7546073451741244,3,right
7.345,-0.18867472975663532,0.743935504077078,-0.3540526746608234,-2.2012972594553224,-7.1019638454377425,1.1295744223669615,3.05862016359643,-3.0773533527098422,3.784220151876927,3,right
7.347,-0.17484940860902706,0.7572907496719327,-0.35881859945496064,-2.213593249717642,-7.097797663743213,1.0819324152986238,3.0634092267857134,-3.108410630314551,3.8124348213680115,3,right
7.347,-0.16098594485369042,0.7705256352311581,-0.36334750199560967,-2.2249184094215004,-7.089486872089674,1.0336769735548663,3.0672580152855646,-3.1385369420408398,3.8392357283895775,3,right
7.35,-0.14709165992524514,0.7836324248585438,-0.3676366054422502,-2.2352538283384162,-7.0770808544752795,0.98484546780272,3.070158192027656,-3.1676758104849942,3.864607911481466,3,right
7.351,-0.1331740686338802,0.7966035398507082,-0.3716833923004341,-2.2445795918467253,-7.060631641295605,0.935476057346428,3.072101997792271,-3.1957714443073884,3.8885370921287854,3,right
7.353,-0.11924088007564121,0.8094315675760554,-0.3754856118900456,-2.2528748890243087,-7.040193780145563,0.8856076497875393,3.073082269049694,-3.2227688388037974,3.9110096937003114,3,right
7.356,-0.1052999983315068,0.8221092704694506,-0.3790412875217234,-2.2601181289052827,-7.015824204283284,0.8352798585453933,3.0730924554149657,-3.248613873854326,3.9320128596100385,3,right
7.357,-0.09135952288636448,0.8346295951263137,-0.38234872334875875,-2.2662870619386397,-6.9875821008774786,0.7845329591332703,3.072126636618718,-3.273253408694396,3.9515344705143756,3,right
7.36,-0.07742774869355604,0.8469856814782859,-0.38540651085883965,-2.2713589026875973,-6.955528781871173,0.7334078454297122,3.070179538979742,-3.296635373479199,3.96956316056682,3,right
7.361000000000001,-0.06351316579914605,0.8591708720222488,-0.38821353496191285,-2.275310450801655,-6.919727559560548,0.6819459868375365,3.067246551379316,-3.31870885771575,3.9860883327904215,3,right
7.365,-0.0496244584265444,0.8711787210588522,-0.3907689796212917,-2.27811820908352,-6.880243627675355,0.6301893865996535,3.063323740734499,-3.3394241956332134,4.001100173624089,3,right
7.3660000000000005,-0.03577050341532931,0.8830030038858752,-0.3930723329665403,-2.2797584984661783,-6.837143948013527,0.5781805411940414,3.0584078669647927,-3.3587330485585567,4.014589666694512,3,right
7.37,-0.02196036791133217,0.8946377258873409,-0.39512339181006295,-2.2802075699114064,-6.790497142527275,0.5259624006601331,3.0524963974437322,-3.3765884843608407,4.026548605861145,3,right
7.371,-0.00820330621566851,0.906077131457495,-0.39692226546192605,-2.2794417132377394,-6.740373390747383,0.4735783297080245,3.045587520924132,-3.3929450540235515,4.036969607577368,3,right
7.375,0.0054912442852582555,0.9173157126974028,-0.398469378712949,-2.2774373628825577,-6.686844332422061,0.4210720694611878,3.0376801609228594,-3.407758865400342,4.045846122606543,3,right
7.375,0.01911366817108717,0.928348217821239,-0.39976547385437755,-2.274171200599533,-6.629982975236462,0.36848769968277545,3.028773988548152,-3.4209876542053776,4.053172447127321,3,right
7.38,0.032654178067425196,0.9391696592109526,-0.4008116116326778,-2.269620255089178,-6.569863607469065,0.3158696013351229,3.0188694347496257,-3.43259085228518,4.058943733258111,3,right
7.381,0.046102821790065515,0.949775321063582,-0.4016091710934309,-2.263761998556699,-6.506561715431285,0.2632624193217094,3.0079677019682576,-3.442529653214434,4.063155999026205,3,right
7.3839999999999995,0.05944949058378197,0.9601607665847035,-0.4021598483346478,-2.2565744401877104,-6.440153905527128,0.21071102526061064,2.996070775160761,-3.450767075253677,4.065806137802589,3,right
7.385,0.07268392848739022,0.9703218446907778,-0.40246565425304787,-2.2480362165286953,-6.37071783076034,0.15826048013838143,2.9831814321699013,-3.4572680217021134,4.06689192721902,3,right
7.39,0.08579574286342789,0.9802546961884853,-0.4025289114135493,-2.2381266787553336,-6.29833212150738,0.10595599669333998,2.9693032534094366,-3.461999338674031,4.066412037579451,3,right
7.391,0.09877441613917569,0.9899557593996664,-0.4023522501891162,-2.2268259768080036,-6.223076320365608,0.05384290137738375,2.9544406308295206,-3.464929870322405,4.064366039773426,3,right
7.394,0.11160931881071104,0.9994217751979227,-0.40193860429781897,-2.2141151403698864,-6.1450308208773565,0.001966595745757803,2.9385987761255383,-3.4660305115282934,4.060754412694545,3,right
7.394,0.12428972375834367,1.008649791418666,-0.40129120581522326,-2.199976156659156,-6.06427680992217,-0.04962748287538312,2.9217837281505203,-3.4652742580695546,4.055578550162643,3,right
7.399,0.13680482190874674,1.017637166600155,-0.4004135796880216,-2.1843920450027596,-5.980896213561135,-0.10089390159322846,2.904002359488453,-3.4626362542772315,4.048840767343779,3,right
7.4,0.1491437392601002,1.0263815730115013,-0.3993095377422323,-2.1673469281552333,-5.894971646109325,-0.15178727317331028,2.8852623821429777,-3.458093838182718,4.04054430665768,3,right
7.404,0.16129555526730788,1.0348809989253291,-0.39798317217039647,-2.14882610032189,-5.806586362204502,-0.2022622984333646,2.8655723522932037,-3.451626584153477,4.030693343157777,3,right
7.405,0.17324932256806522,1.0431337500963955,-0.3964388484856539,-2.1288160918415864,-5.715824211632762,-0.2522738099532327,2.844941674065557,-3.443216343009676,4.019292989364468,3,right
7.409,0.1849940880173637,1.0511384504119632,-0.3946811979330591,-2.107304730480067,-5.622769596664453,-0.30177681724690747,2.8233806022678585,-3.432847279608661,4.006349299527805,3,right
7.41,0.19651891498719223,1.0588940416838002,-0.39271510934247067,-2.084281199280652,-5.527507431646624,-0.35072655354162957,2.800900244029081,-3.4205059078786384,3.991869273291305,3,right
7.412999999999999,0.20781290687871315,1.0663997825544709,-0.3905457203945315,-2.0597360909147557,-5.430123104591473,-0.3990785243076054,2.7775125592855447,-3.406181123277378,3.975860858724141,3,right
7.414,0.21886523178344014,1.0736552464926543,-0.38817840826242556,-2.033661458470425,-5.330702440493645,-0.4467885576804601,2.7532303600516315,-3.38986423264612,3.9583329546845665,3,right
7.415,0.22966514821723544,1.080660318855213,-0.3856187795976461,-2.006050862612725,-5.229331666102898,-0.49381285691694937,2.7280673084207256,-3.3715489814247985,3.939295412485903,3,right
7.419,0.24020203184348465,1.0874151929994185,-0.382872659846226,-1.9768994150454515,-5.126097375872571,-0.540108055022736,2.7020379132907975,-3.351231578197008,3.918759036896761,3,right
7.42,0.25046540310607357,1.0939203654373448,-0.37994608190164797,-1.9462038182692458,-5.0210864988222434,-0.5856312716107439,2.675157525898803,-3.3289107165417935,3.896735586619192,3,right
7.42,0.2604449557014656,1.1001766300329483,-0.37684527411484037,-1.9139624019767556,-4.914386266166501,-0.630340171654369,2.6474423342968785,-3.3045875941716,3.873237774448841,3,right
7.422999999999999,0.27013058581907823,1.1061850712479406,-0.37357664769330295,-1.8801751570510339,-4.806084179770735,-0.6741930250916591,2.6189093568494957,-3.278265929321975,3.8482792672521646,3,right
7.4239999999999995,0.27951242206200266,1.1119470564465428,-0.3701467835394885,-1.8448437684789099,-4.696267981608934,-0.7171487658420977,2.5895764347359624,-3.2499519743385035,3.821874685775101,3,right
7.428,0.2885808559271996,1.1174642272755477,-0.36656241860660305,-1.8079716481366475,-4.5850256242744365,-0.7591670491875486,2.559462223388945,-3.2196545263926954,3.7940396042286504,3,right
7.428999999999999,0.2973265726918232,1.1227384901482833,-0.36283043187856107,-1.7695639677708128,-4.472445242375654,-0.8002083071725365,2.528586182787085,-3.1873849352512393,3.7647905495796947,3,right
7.433,0.30574058253491804,1.1277720058798524,-0.3589578300980773,-1.729627692142854,-4.358615124525297,-0.8402338020687244,2.4969685665174848,-3.1531571080172855,3.7341450004712464,3,right
7.435,0.31381425171645794,1.1325671785430205,-0.3549517333701099,-1.6881716122314807,-4.24362368560372,-0.8792056780242087,2.4646304095215945,-3.1169875107567604,3.702121385692186,3,right
7.438,0.3215393336264565,1.1371266436332546,-0.3508193607600691,-1.6452063783825255,-4.127559438973164,-0.9170870110154506,2.431593514435842,-3.07889516691703,3.6687390821125123,3,right
7.438,0.3289079995007752,1.141453255642914,-0.346568015991032,-1.6007445332915766,-4.010510968316094,-0.9538418572167453,2.397880436436225,-3.038901652439628,3.634018411996105,3,right
7.444,0.3359128685783417,1.1455500751470151,-0.34220507332438366,-1.554800544700315,-3.8925668987674604,-0.9894352998991018,2.3635144664940175,-2.997031087463181,3.597980639599045,3,right
7.445,0.3425470374507446,1.1494203554972926,-0.33773796368375786,-1.5073908376831542,-3.773815867007678,-1.0238334949672838,2.3285196129477206,-2.953310124507147,3.5606479669576383,3,right
7.4479999999999995,0.3488041083344882,1.153067529209268,-0.33317416105291947,-1.4585338263964878,-3.654346489980246,-1.0570037152405194,2.292920581294472,-2.9077679330215336,3.5220435287664453,3,right
7.4479999999999995,0.3546782159827132,1.1564951941109276,-0.32852116914892315,-1.4082499451585941,-3.5342473318953878,-1.0889143935790588,2.2567427521022356,-2.8604361801823615,3.4821913862428424,3,right
7.452000000000001,0.3601640529501823,1.1597070993036478,-0.32378650834911377,-1.356561678724044,-3.4136068691787584,-1.1195351649553273,2.2200121569422917,-2.811349007807344,3.4411165198709064,3,right
7.452999999999999,0.3652568929348258,1.1627071309680244,-0.31897770283780374,-1.3034935916123007,-3.2925134530222104,-1.148836907564893,2.1827554522398263,-2.7605430052610185,3.3988448209137867,3,right
7.457000000000001,0.3699526119418628,1.1654992980306502,-0.3141022679356085,-1.249072356346108,-3.171055269191783,-1.1767917830688548,2.1449998909387293,-2.7080571782134317,3.3554030815801252,3,right
7.459,0.3742477070524494,1.168087717694308,-0.3091676975793393,-1.193326780451235,-3.0493202947465567,-1.203373276055555,2.106773291875156,-2.6539329131114453,3.310818983726587,3,right
7.462000000000001,0.3781393126258986,1.1704766008251875,-0.304181451929736,-1.1362878320651832,-2.927396251320675,-1.228556232805732,2.0681040067528778,-2.5982139372167894,3.2651210859751236,3,right
7.462000000000001,0.38162521381695985,1.1726702371878888,-0.2991509450946165,-1.0779886639985792,-2.8053705546198224,-1.2523168994413605,2.0290208846120175,-2.5409462740601785,3.21833880912023,3,right
7.4670000000000005,0.38470385734093016,1.174672980523083,-0.294083532965138,-1.0184646360891811,-2.6833302597826245,-1.2746329595344907,1.989553233681418,-2.4821781941560985,3.170502419698183,3,right
7.468,0.38737435946604937,1.1764892334731023,-0.28898650117606123,-0.9577533356847078,-2.561362002256903,-1.2954835712483757,1.9497307805036215,-2.421960160818301,3.1216430115870386,3,right
7.472,0.3896365112529359,1.178123432374527,-0.28386705322097966,-0.8958945960870919,-2.439551933840436,-1.3148494040790981,1.9095836262202446,-2.3603447709115857,3.0717924855030736,3,right
7.473,0.391490781092664,1.1795800319513177,-0.27873229877828776,-0.8329305127872418,-2.3179856535358065,-1.3327126752617624,1.8691421999044322,-2.297386690371167,3.0209835262563005,3,right
7.477,0.3929383146177107,1.180863489956637,-0.2735892423255201,-0.7689054573159882,-2.1967481328691587,-1.3490571859011036,1.8284372088260579,-2.2331425843167363,2.9692495776247783,3,right
7.479,0.3939809320742176,1.1819782518283055,-0.2684447721331097,-0.7038660885336049,-2.0759236353231034,-1.3638683568821115,1.7874995855344056,-2.167671041584342,2.916624814704575,3,right
7.482,0.394621123248703,1.1829287354467681,-0.26330564973494597,-0.6378613611771182,-1.9555956295347368,-1.3771332646119503,1.7463604316422172,-2.101032493495338,2.8631441135894957,3,right
7.483,0.394862040032949,1.1837193161178814,-0.2581784999752197,-0.5709425314815808,-1.835846695910669,-1.3888406766400951,1.7050509583094597,-2.0332891267940076,2.8088430183060797,3,right
7.484,0.39470748668489963,1.1843543119356807,-0.25306980172654914,-0.5031631596885717,-1.7167584263121451,-1.3989810871992072,1.6636024240005909,-1.964504791262068,2.753757705297066,3,right
7.487,0.39416190780536414,1.1848379697103235,-0.24798587936884006,-0.43457910925242277,-1.5984113164647666,-1.4075467527048318,1.6220460711254923,-1.8947449035591557,2.6979249464104935,3,right
7.4879999999999995,0.39323037400594,1.1851744517074527,-0.24293289514516392,-0.3652485425520441,-1.4808846507489826,-1.414531727247524,1.5804130637498495,-1.824076349415372,2.6413820717195198,3,right
7.489,0.39191856520042667,1.185367823549286,-0.23791684259507564,-0.2952319128610742,-1.3642563793333635,-1.4199318980260676,1.5387344279842619,-1.7525673857188255,2.5841669331255184,3,right
7.492000000000001,0.3902327514270467,1.185422043700473,-0.23294354135925208,-0.2245919520633573,-1.24860298913454,-1.4237450202636173,1.4970409956240809,-1.6802875429940833,2.5263178690284445,3,right
7.492999999999999,0.38817977111784313,1.1853409549430738,-0.22801863368265124,-0.15339365312446088,-1.1339993728255828,-1.4259707504199446,1.4553633510356634,-1.6073075281846898,2.467873669976165,3,right
7.496,0.3857670067760832,1.1851282781962065,-0.2231475829271723,-0.0817042460645652,-1.02051870163692,-1.4266106761061093,1.4137317811693766,-1.5336991275344765,2.4088735451284693,3,right
7.496,0.38300235810606703,1.1847876090244134,-0.218335674366806,-0.00959316643968603,-0.90823230617694,-1.42566834150563,1.372176228579645,-1.4595351093601756,2.349357089369663,3,right
7.501,0.37989421277506524,1.1843224171570954,-0.21358801843321665,0.06286798418925796,-0.7972095667669095,-1.4231492678257958,1.3307262473323744,-1.3848891265058405,2.2893642509019365,3,right
7.502000000000001,0.3764514151630053,1.1837360492406055,-0.20890955637575284,0.13560548605801098,-0.6875178132683023,-1.4190609687005058,1.2894109616802236,-1.309835618267769,2.2289352991500913,3,right
7.507000000000001,0.37268323362509975,1.18303173486983,-0.20430506804477017,0.20854355747818093,-0.5792222340801232,-1.4134129605419408,1.248259027386408,-1.234449711577038,2.168110792806748,3,right
7.507999999999999,0.36859932690696257,1.1822125957323943,-0.19977918125973124,0.2816044198020781,-0.47238579398743347,-1.4062167678338475,1.2072985955780222,-1.1588071212253717,2.106931547845775,3,right
7.5120000000000005,0.3642097103854439,1.181281657470149,-0.19533638202148368,0.35470837128198385,-0.3670691605461023,-1.3974859233547114,1.1665572790102567,-1.082984048918894,2.0454386053304248,3,right
7.513,0.3595247227540601,1.180241863647789,-0.19098102470826656,0.42777387003321327,-0.26333063869281403,-1.3872359633146183,1.1260621206233512,-1.0070570809433683,1.9836731988415375,3,right
7.516,0.35455499363353693,1.1790960910570136,-0.18671734137540386,0.500717626310685,-0.16122611327355243,-1.375484417385158,1.0858395642746748,-0.9311030842237827,1.9216767213501453,3,right
7.517,0.34931141238998514,1.1778471655074114,-0.1825494493403721,0.57345470430883,-0.06080899918813827,-1.362250793597326,1.0459154275289513,-0.8551991005606305,1.8594906913579181,3,right
7.52,0.3438050982353885,1.1764978772647596,-0.17848135635147663,0.6458986336945589,0.037869801147071586,-1.3475565580780131,1.0063148763903593,-0.7794222388249326,1.7971567181281005,3,right
7.522,0.33804737152266395,1.175050995374291,-0.1745169628058084,0.7179615310826505,0.13476193331152733,-1.331425109591367,0.967062401861008,-0.7038495648939701,1.7347164658289307,3,right
7.526,0.33204972605938887,1.173509280231196,-0.17066006070624248,0.7895542316623325,0.22982161965623418,-1.3138817488470549,0.9281817982111543,-0.628557989109844,1.6722116164109884,3,right
7.527,0.325823802241912,1.1718754939237725,-0.16691432931538008,0.8605864311829757,0.32300568162627835,-1.2949536425332653,0.8896961428474534,-0.553624151043339,1.6096838310394916,3,right
7.531000000000001,0.31938136082704177,1.1701524080730636,-0.1632833277398823,0.9309668385057264,0.4142735559083781,-1.2746697820281616,0.8516277776665293,-0.4791243013461584,1.5471747099022573,3,right
7.532,0.31273425718529546,1.168342809120292,-0.15977048491360113,1.0006033389265507,0.5035873046764477,-1.2530609367394505,0.8139982917822256,-0.4051341804754024,1.4847257502138562,3,right
7.535,0.30589441589893646,1.1664495012505383,-0.1563790875999751,1.0694031684745502,0.5909116202027804,-1.2301596020177479,0.7768285055160205,-0.33172889407518746,1.4223783022364274,3,right
7.5360000000000005,0.29887380557351306,1.1644753073504372,-0.15311226708661757,1.1372730993875342,0.6762138240969563,-1.2059999415855425,0.7401384555412952,-0.25898278480155423,1.3601735231376675,3,right
7.54,0.2916844137373228,1.1624230685352865,-0.1499729852151248,1.2041196369646974,0.7594638614289736,-1.1806177244197504,0.7039473810734022,-0.18696930037826956,1.2981523285066858,3,right
7.541,0.2843382217321493,1.160295642823656,-0.1469640203070006,1.269849227993843,0.8406342899873934,-1.154050256022142,0.6682737109987936,-0.11576085767280983,1.236355341348707,3,right
7.545,0.2768471795580272,1.1580959034970553,-0.1440879534317236,1.334368480947926,0.9197002649174828,-1.1263363040083167,0.6331350518378558,-0.045428702583703885,1.1748228383800094,3,right
7.547000000000001,0.26922318071121504,1.1558267375897204,-0.14134715533323286,1.3975843981427445,0.996639518978452,-1.0975160179423902,0.5985481764375167,0.023957234467484618,1.1135946934450185,3,right
7.551,0.26147803713072554,1.1534910448360307,-0.13874377421754105,1.4594046200444042,1.071432338652915,-1.0676308433411508,0.564529013291188,0.09232848764394463,1.0527103178781136,3,right
7.553,0.2536234544314799,1.1510917372774274,-0.13627972453219106,1.5197376819116968,1.1440615363356577,-1.0367234297681633,0.5310926364164802,0.15961820933869317,0.9922085977695619,3,right
7.553999999999999,0.24567100763507674,1.1486317396145531,-0.1339566768315931,1.5784932829548042,1.214512418822701,-1.0048375329351136,0.4982532558794581,0.22576132696985785,0.9321278287763167,3,right
7.556,0.2376321176140867,1.1461139902973354,-0.1317760487980709,1.6355825681877179,1.282772752315479,-0.9720179107246328,0.46602420933797334,0.29069469915678375,0.8725056503442298,3,right
7.558,0.22951802848230263,1.1435414432721678,-0.12973899746892925,1.6909184226426388,1.3488327241482827,-0.9383102132339336,0.4344179551350237,0.35435726618259394,0.8133789818897794,3,right
7.559,0.22133978620357156,1.1409170702491922,-0.12784641270725206,1.7444157750857647,1.4126849014385574,-0.9037608678759025,0.40344606731806015,0.41669019096742776,0.7547839628101698,3,right
7.56,0.21310821871816796,1.1382438633216918,-0.126098911943591,1.7959919038253027,1.4743241868491903,-0.8684169622638402,0.37311923267977537,0.47763698915250175,0.6967558969671478,3,right
7.56,0.2048339179080521,1.1355248377463942,-0.12449683620270557,1.8455667346731925,1.5337477716432968,-0.8323261285436128,0.3434472497609503,0.537143648213374,0.6393292016108527,3,right
7.565,0.19652722377620624,1.1327630346549324,-0.12304024741425036,1.8930631236410713,1.5909550862079926,-0.7955364318944385,0.3144390297264087,0.5951587357813575,0.5825373605754471,3,right
7.567,0.1881982112495876,1.129961523434307,-0.12172892698884336,1.9384071214892828,1.6459477482214422,-0.758096264225029,0.2861025990269793,0.6516334973480485,0.5264128815799036,3,right
7.57,0.179856679952767,1.127123403520734,-0.12056237562676496,1.9815282197663098,1.6987295086334302,-0.7200542431495328,0.25844510376224583,0.7065219435238084,0.4709872574690466,3,right
7.571000000000001,0.17151214714302707,1.1242518053929127,-0.11953981432646524,2.0223595784749238,1.7493061956238014,-0.6814591161376997,0.23147281566076752,0.7597809270167525,0.4162909312317737,3,right
7.575,0.1631738438044658,1.1213498906052828,-0.1186601865787424,2.0608382354951544,1.797685656696751,-0.6423596697318137,0.20519113959638494,0.8113702094943882,0.3623532646352918,3,right
7.5760000000000005,0.15485071372199002,1.1184208507548465,-0.11792216176327246,2.0969052978878118,1.8438776990626138,-0.6028046437212156,0.17960462256116996,0.861252518485485,0.30920251031621215,3,right
7.579,0.1465514152280544,1.1154679053224978,-0.11732413979388509,2.130506115195726,1.8878940284524566,-0.5628426501636465,0.15471696401754886,0.9093935944750906,0.2568657871714377,3,right
7.581,0.13828432524117967,1.1124942983742558,-0.11686425707625435,2.161590434853113,1.9297481865044774,-0.5225220971411965,0.13053102755410667,0.9557622283408153,0.2053690588939573,3,right
7.586,0.13005754517993426,1.1095032941538874,-0.11654039384227674,2.1901125398065644,1.969455486854935,-0.4818911171373291,0.10704885377157888,1.0003302892736095,0.1547371155009149,3,right
7.587000000000001,0.12187890831781781,1.1064981716477549,-0.11635018290978615,2.2160313684440727,2.0070329500600868,-0.44099749992028875,0.0842716743275399,1.043072743321263,0.10499355770366223,3,right
7.59,0.1137559881303524,1.1034822182531143,-0.11629101988569808,2.239310616921296,2.0424992374693995,-0.3998886298171622,0.06219992707031378,1.0839676626877708,0.05616078397191052,3,right
7.591,0.10569610717399244,1.1004587227274736,-0.11636007478618336,2.25991882396691,2.0758745841641404,-0.35861142726197626,0.04083327219465142,1.1229962259165425,0.008259980146580989,3,right
7.595,0.09770634603247305,1.0974309676315073,-0.11655430498939084,2.2778294382414246,2.1071807310693407,-0.3172122945004573,0.02017060935374247,1.160142709080196,-0.038688888541498316,3,right
7.596,0.08979355187871507,1.0944022214928315,-0.11687046936673945,2.2930208683162685,2.1364408563410575,-0.2757370653334585,0.00021009566415506714,1.1953944680943767,-0.08466708318728677,3,right
7.6,0.08196434623864053,1.091375730906668,-0.11730514336644725,2.3054765153322996,2.1636795061248586,-0.23423095878057626,-0.019050835457679792,1.2287419122676866,-0.12965709479918,3,right
7.601,0.07422513161178365,1.088354712752061,-0.1178547347622971,2.315184788389133,2.1889225247755197,-0.1927385365451263,-0.037615454686801435,1.2601784691944062,-0.17364264589344441,3,right
7.604,0.06658209669817242,1.0853423466453858,-0.11851549974555023,2.3221391027088982,2.2121969846220346,-0.15130366416142887,-0.055487716466217016,1.2897005410912588,-0.21660869022748291,3,right
7.605,0.059041220089686444,1.0823417676873464,-0.11928355903578573,2.3263378606101845,2.233531115356253,-0.10996947570526391,-0.07267223802390194,1.3173074526740003,-0.25854141080114085,3,right
7.609,0.05160827239302444,1.0793560594976814,-0.12015491371768772,2.3277844153200427,2.252954233117714,-0.0687783419483932,-0.08917427778364288,1.3430013906641391,-0.29942821625237864,3,right
7.611000000000001,0.044288816849462474,1.0763882474842077,-0.12112546057046446,2.326487017644025,2.270496669341598,-0.02777184183821171,-0.10499971322107567,1.3667873350105872,-0.33925773577071144,3,right
7.6129999999999995,0.03708820859742583,1.0734412922669407,-0.12219100673377399,2.3224587455063297,2.286189699431154,0.013009262816123243,-0.1201550182142957,1.3886729819055608,-0.37801981264885015,3,right
7.614,0.030011592785346826,1.0705180831766308,-0.1233472836329323,2.3157174163642176,2.3000654713104556,0.0535250495693262,-0.13464723993645983,1.408668658668549,-0.41570549658997624,3,right
7.62,0.023063901783170523,1.0676214317679171,-0.12458996015229516,2.306285482493013,2.3121569339079517,0.09373645459509429,-0.14848397533585553,1.4267872305667002,-0.4523070348850476,3,right
7.621,0.01624985175564645,1.0647540653216132,-0.12591465509068886,2.2941899091301456,2.322497765615968,0.13360528908776162,-0.1616733472512632,1.4430439997890137,-0.48781786255555776,3,right
7.621,0.009573938838493131,1.0619186203431956,-0.1273169489534719,2.279462035458921,2.3311223027660835,0.17309425292680428,-0.17422398022989924,1.4574565975587737,-0.522232591474519,3,right
7.624,0.003040435102653647,1.059117636083745,-0.1287923951359359,2.2621374187311454,2.338065468204431,0.21216694574826792,-0.18614497615180445,1.4700448717537309,-0.5555469983321173,3,right
7.625,-0.003346615567742154,1.0563535481175064,-0.1303365305443672,2.2422556634509365,2.3433627002921176,0.2507878757093955,-0.1974458897840499,1.4808307731706638,-0.5877580112297967,3,right
7.626,-0.009583401593426626,1.0536286820178733,-0.13194488569510107,2.21986024046999,2.347049883094151,0.2889224664893813,-0.208136704364932,1.4898382427931895,-0.6188636947629432,3,right
7.627999999999999,-0.015666347734666023,1.0509452471909062,-0.13361299433071053,2.1949983024679796,2.349163278761621,0.3265370632111718,-0.21822780727806282,1.4970931010259978,-0.6488632335923931,3,right
7.629,-0.0215921189645956,1.0483053309530859,-0.13533640259340876,2.1677205006535702,2.3497394628609616,0.3635989378247494,-0.22772996585311447,1.5026229390810444,-0.677756914581381,3,right
7.6339999999999995,-0.027357624110278776,1.0457108929649752,-0.13711067779495115,2.1380808045788195,2.3488152629563888,0.4000762942332032,-0.236654303323952,1.5064570125416297,-0.7055461075872862,3,right
7.635,-0.032960019208136,1.0431637601418728,-0.13893141681971563,2.106136325321824,2.3464277005008927,0.43593827329820967,-0.24501227497316688,1.5086261371252694,-0.7322332449943573,3,right
7.638999999999999,-0.03839671053960271,1.0406656221571988,-0.14079425419840033,2.0719471419593614,2.342613936037524,0.4711549578313246,-0.25281564449033245,1.5091625866613034,-0.7578218000704223,3,right
7.64,-0.0436653573241986,1.0382180276418624,-0.1426948698965627,2.0355761312445058,2.3374112177083934,0.505697377675809,-0.26007646056964273,1.508099993294322,-0.7823162642274206,3,right
7.642,-0.048763874049065556,1.0358223811676748,-0.14462899687155928,1.9970888003975784,2.3308568330646127,0.5395375149819462,-0.2668070337709708,1.505473249919711,-0.8057221232624286,3,right
7.643,-0.05369043240919748,1.0334799410853892,-0.1465924284579317,1.956553122912352,2.3229880641662923,0.5726483097769564,-0.2730199136667894,1.501318414852932,-0.8280458326526989,3,right
7.649,-0.05844346282452178,1.0311918182676079,-0.1485810256401579,1.9140393772731654,2.3138421459577425,0.6050036659286789,-0.2787278662958384,1.495672618729556,-0.8492947919750898,3,right
7.649,-0.06302165549074244,1.0289589757842685,-0.1505907242593605,1.8696199884725289,2.3034562278991157,0.6365784576001786,-0.28394385194290167,1.4885739736285843,-0.869477318517138,3,right
7.654,-0.06742396091139251,1.0267822295146964,-0.15261754217684878,1.8233693722129287,2.2918673388319735,0.6673485362903369,-0.2886810032625686,1.4800614844072018,-0.8886026201439217,3,right
7.655,-0.07164958985093627,1.0246622496755788,-0.15465758638732977,1.775363781670851,2.2791123550525856,0.6972907385533231,-0.29295260376340615,1.470174962230824,-0.9066807674817722,3,right
7.6579999999999995,-0.07569801264518904,1.0225995632193323,-0.15670706004513923,1.7256811566955828,2.2652279715631995,0.7263828944876008,-0.2967720666675526,1.4589549402781334,-0.9237226654768363,3,right
7.659,-0.07956895780596726,1.0205945570346662,-0.15876226934150195,1.6744009753100888,2.250250676468071,0.7546038370828104,-0.30015291415937173,1.4464425915967287,-0.9397400243834501,3,right
7.662000000000001,-0.08326240986069242,1.0186474818634457,-0.16081963015094242,1.621604107376222,2.2342167284776933,0.7819334125104993,-0.30310875703546597,1.4326796490810803,-0.9547453302342811,3,right
7.662999999999999,-0.08677860637427834,1.016758456835163,-0.16287567435251274,1.5673726702817157,2.2171621374814143,0.8083524914422267,-0.30565327476705145,1.4177083275406446,-0.968751814841224,3,right
7.667999999999999,-0.09011803411060328,1.0149274745115724,-0.1649270557277358,1.5117898865018196,2.199122648145499,0.8338429814760696,-0.3078001959844354,1.4015712478222857,-0.9817734253730873,3,right
7.669,-0.09328142430461003,1.0131544063310969,-0.1669705553419186,1.4549399428840826,2.1801337264906513,0.8583878407500031,-0.3095632793921169,1.3843113629475543,-0.9938247935532079,3,right
7.672000000000001,-0.09626974703374357,1.0114390083468618,-0.16900308632780806,1.3969078515006683,2.160230549400076,0.881971092818007,-0.3109562951218508,1.3659718862219095,-1.0049212045172575,3,right
7.672000000000001,-0.09908420469989167,1.0097809271615577,-0.1710216980073666,1.33777931190871,2.139447997006338,0.9045778428620926,-0.3119930065298716,1.346596221269618,-1.0150785653686845,3,right
7.678,-0.10172622466073236,1.0081797059746191,-0.1730235793049878,1.2776405746555786,2.1178206479025476,0.9261942953107233,-0.3126871524433718,1.3262278939448406,-1.0243133734664398,3,right
7.678999999999999,-0.10419745107998579,1.0066347906719506,-0.17500606142249706,1.21657830586253,2.0953827771207614,0.9468077729313459,-0.31305242986026627,1.3049104860663143,-1.032642684476902,3,right
7.683,-0.10649973609452194,1.0051455359040744,-0.17696661976220043,1.1546794527170623,2.072168356817978,0.9664067374619495,-0.3131024771052499,1.2826875709200638,-1.0400840802192142,3,right
7.684,-0.1086351304186899,1.0037112111128588,-0.17890287509650407,1.0920311097014044,2.048211059607672,0.9849808118437178,-0.3128508574441735,1.259602650471723,-1.0466556363305977,3,right
7.687,-0.11060587352174239,1.002331006478903,-0.18081259398882923,1.0287203853819091,2.023544264472478,1.0025208041139704,-0.3123110431578147,1.2356990942273207,-1.052375889775612,3,right
7.688,-0.11241438352078681,1.001004038770692,-0.18269368847105932,0.9648342695817183,1.9982010651914104,1.0190187330156721,-0.31149640007889495,1.2110200797081792,-1.0572638062314925,3,right
7.689,-0.11406324692287928,0.9997293570824902,-0.18454421498053136,0.9004595007569153,1.9722142812128691,1.0344678553768503,-0.3104201726137046,1.1856085346500826,-1.0613387474327998,3,right
7.692,-0.11555520832517659,0.9985059484512786,-0.1863623725582248,0.8356824335019195,1.9456164708480708,1.0488626952085478,-0.3090954693019578,1.1595070812990784,-1.0646204386526346,3,right
7.692,-0.11689316015534933,0.9973327433445371,-0.1881465003108136,0.7705889066454221,1.918439946384763,1.062199073958258,-0.3075352489860895,1.1327579833210306,-1.067128936548883,3,right
7.693,-0.11808013251998366,0.9962086210111982,-0.1898950741419076,0.7052641133637197,1.8907167902281086,1.0744741404371116,-0.30575230764207406,1.1054030956929604,-1.0688845975480223,3,right
7.696000000000001,-0.11911928322848218,0.9951324146890201,-0.19160670276293604,0.6397924752743516,1.8624788709010354,1.0856863984273688,-0.30375926589004454,1.0774838176776589,-1.0699080468402704,3,right
7.697,-0.12001388806737363,0.9941029166643189,-0.19328012300535835,0.5742575219348267,1.8337578580075213,1.0958357304824282,-0.3015685571839351,1.0490410488342146,-1.0702201480040487,3,right
7.702000000000001,-0.12076733140348934,0.9931188831847885,-0.19491419447530722,0.5087417762036076,1.8045852357518295,1.1049234173441715,-0.2991924166750518,1.0201151479859616,-1.069841973264848,3,right
7.702999999999999,-0.12138309718661554,0.9921790392316874,-0.19650789361650178,0.44332664538288546,1.7749923148780753,1.1129521529081163,-0.2966428707438722,0.9907458950657325,-1.0687947743914796,3,right
7.707999999999999,-0.12186476040671596,0.9912820831619668,-0.1980603072717407,0.3780923179550613,1.745010242947685,1.1199260547655339,-0.29393172719380756,0.9609724557567942,-1.0670999542306552,3,right
7.709,-0.12221597904365335,0.9904266912330607,-0.19957062585310076,0.31311766572489885,1.7146700128710066,1.125850670348646,-0.2910705661001274,0.9308333488464554,-1.0647790388788543,3,right
7.712000000000001,-0.12244048652943731,0.9896115220228331,-0.20103813624387237,0.2484801511796011,1.6840024696081304,1.1307329787019749,-0.28807073130674754,0.9003664162080602,-1.0618536504885188,3,right
7.712999999999999,-0.1225420847242104,0.9888352207537682,-0.20246221456047853,0.18425573987958038,1.6530383149528534,1.1345813878998896,-0.2849433225631182,0.8696087953259212,-1.0583454807037493,3,right
7.716,-0.12252463738903487,0.9880964235231409,-0.20384231890114143,0.12051881769343352,1.6218081103126938,1.137405728127387,-0.2816991882930176,0.8385968942766899,-1.0542762647188844,3,right
7.7170000000000005,-0.12239206412315988,0.98739376143045,-0.20517798220224764,0.05734211269159945,1.5903422773969265,1.1392172404381482,-0.2783489189866567,0.8073663690797221,-1.0496677559516046,3,right
7.722,-0.1221483347224978,0.9867258645827194,-0.20646880531469636,-0.005203378485640338,1.558671096723747,1.1400285612009493,-0.2749028412071345,0.775952103328158,-1.0445417013205323,3,right
7.723,-0.12179746391033275,0.9860913659504421,-0.20771445040093786,-0.06704845996876058,1.5268247038569194,1.139853702242561,-0.271371012201947,0.7443881900117043,-1.038919817115681,3,right
7.726,-0.12134350639030309,0.9854889050437771,-0.20891463473859512,-0.12812580188952757,1.4948330832815766,1.1387080266923721,-0.2677632151099484,0.7127079154414786,-1.0328237654485644,3,right
7.727,-0.12079055217439646,0.984917131379828,-0.21006912499840233,-0.1883700016809985,1.4627260598282557,1.1366082205310963,-0.26408895475388505,0.6809437451867415,-1.0262751312672846,3,right
7.731,-0.1201427221444305,0.9843747077152687,-0.21117773204361395,-0.24771764162450388,1.4305332875537509,1.1335722598430917,-0.26035745400837884,0.6491273119329166,-1.0192953999204988,3,right
7.732,-0.11940416381304166,0.9838603130223239,-0.21224030627757368,-0.3061073428189316,1.3982842359869394,1.1296193737690399,-0.25657765073301503,0.6172894051699575,-1.011905935252794,3,right
7.735,-0.11857904725707602,0.9833726451903334,-0.21325673354855418,-0.3634798157452411,1.3660081736474101,1.1247700031529897,-0.2527581952600002,0.5854599626198789,-1.0041279582127078,3,right
7.736000000000001,-0.11767156120070235,0.9829104234407512,-0.21422693160837333,-0.4197779075965657,1.3337341487444812,1.1190457548750854,-0.24890744842568924,0.553668063312122,-0.9959825259533889,3,right
7.742000000000001,-0.11668590922878623,0.9824723904504628,-0.2151508471143322,-0.4749466465415134,1.3014909669640207,1.1124693518586701,-0.2450334801351417,0.521941922215352,-0.9874905114047138,3,right
7.742000000000001,-0.11562630611530847,0.9820573141854213,-0.21602845316075114,-0.5289332830853585,1.2693071662504178,1.1050645787378763,-0.2411440684487539,0.49030888633431563,-0.9786725832945631,3,right
7.746,-0.11449697425623101,0.9816639894523931,-0.2168597473239941,-0.5816873286907349,1.237210988491051,1.096856223169311,-0.23724669917992117,0.45879543218049107,-0.9695491865959008,3,right
7.747000000000001,-0.11330214019792391,0.9812912391806051,-0.21764475020220514,-0.6331605918162042,1.205230348010684,1.087870012768993,-0.23334856599261852,0.42742716452544405,-0.9601405233753079,3,right
7.751,-0.11204603124860693,0.9809379154475044,-0.21838350442708948,-0.6833072115276769,1.1733927967834015,1.0781325476533246,-0.22945657098774305,0.39622881634607854,-0.9504665340176802,3,right
7.751,-0.11073287215221751,0.9806029002643252,-0.2190760741184502,-0.7320836888341328,1.141725486269935,1.067671228560573,-0.22557732576703632,0.36522424987130486,-0.940546878800928,3,right
7.755,-0.10936688179564717,0.9802851061382453,-0.2197225447446709,-0.779448915895409,1.1102551257885716,1.0565141805271028,-0.22171715296098504,0.3344364586479975,-0.930400919809008,3,right
7.756,-0.10795226991553393,0.9799834764276615,-0.22032302334978743,-0.8253642032460216,1.0790079373282382,1.0446901720904445,-0.21788208819501692,0.3038875705842589,-0.92004770324746,3,right
7.757000000000001,-0.10649323377040529,0.9796969855048392,-0.2208776391118108,-0.869793305175053,1.048009606712854,1.032228529989209,-0.2140778824465703,0.2735988519999419,-0.9095059423627899,3,right
7.76,-0.10499395474281398,0.9794246387381788,-0.22138654420040402,-0.912702443398091,1.017285231026591,1.019159049327858,-0.21031000473357434,0.243590712754662,-0.8987940012429873,3,right
7.761,-0.10345859483057783,0.9791654723068773,-0.22184991490021358,-0.9540603290953846,0.9868592623524953,1.0055118993283703,-0.20658364508704366,0.21388271248455906,-0.8879298796992724,3,right
7.7620000000000005,-0.10189129298261962,0.9789185528621965,-0.22226795296503749,-0.9938381830978389,0.9567554485883711,0.9913175255687386,-0.202903717782355,0.18449356790842833,-0.8769311992907473,3,right
7.766,-0.10029616123921344,0.9786829770491559,-0.22264088717263375,-1.0320097534791972,0.9269967733839848,0.9766065510099813,-0.1992748648159733,0.1554411611249894,-0.8658151904765363,3,right
7.767,-0.098677280643082,0.9784578709010165,-0.22296897505533664,-1.068551329520026,0.8976053979552534,0.9614096788914223,-0.1957014596169332,0.12674254881599087,-0.8545986808642456,3,right
7.77,-0.09703869689088872,0.9782423891186558,-0.22325250478211894,-1.1034417512928665,0.8686026068212481,0.9457575997926999,-0.19218761098251372,0.09841397227076133,-0.8432980845231811,3,right
7.771,-0.09538441569828748,0.9780357142480758,-0.2234917971648895,-1.1366624146322197,0.8400087582314799,0.9296809037559722,-0.18873716722769207,0.07047086814878388,-0.8319293923304282,3,right
7.775,-0.09371839786041342,0.9778370557708185,-0.2236872077585753,-1.1681972715366367,0.8118432393412297,0.9132099975806762,-0.18535372053811924,0.042927879897885796,-0.820508163317607,3,right
7.776,-0.09204455400207891,0.9776456491235425,-0.22383912902107947,-1.1980328261031044,0.7841244260516496,0.8963750272459405,-0.18204061151653117,0.015798869746695914,-0.8090495169858731,3,right
7.78,-0.09036673902530651,0.977460754664443,-0.22394799249571695,-1.2261581260891272,0.7568696474325346,0.879205805414536,-0.1788009339126915,-0.010903068808871635,-0.7975681265565397,3,right
7.781000000000001,-0.08868874627498381,0.9772816566053493,-0.22401427097593338,-1.2525647501930641,0.730095154646891,0.8617317439711084,-0.17563753952715333,-0.03716559810420109,-0.7860782131245415,3,right
7.785,-0.08701430145650983,0.9771076619288616,-0.22403848061041615,-1.2772467911384118,0.7038160942977122,0.8439817915463989,-0.17255304327932866,-0.0629771230675325,-0.7745935406818555,3,right
7.785,-0.08534705635273454,0.9769380993093522,-0.2240211829065436,-1.300200834642807,0.6780464861186998,0.8259843759781902,-0.169549828430565,-0.08832677772117373,-0.7631274119779266,3,right
7.79,-0.08369058239941823,0.9767723180546226,-0.22396298659074937,-1.3214259343475998,0.6527992049320477,0.8077673516588445,-0.16663005195314734,-0.11320441149778736,-0.7516926651841191,3,right
7.791,-0.0820483641863932,0.9766096870815787,-0.22386454928395755,-1.3409235827788903,0.6280859667978246,0.7893579517185022,-0.1637956500363697,-0.13760057544587884,-0.7403016713292324,3,right
7.794,-0.08042379295603788,0.9764495939351918,-0.22372657894878364,-1.358697678405971,0.6039173192809558,0.7707827449923003,-0.16104834372105337,-0.1615065083972865,-0.7289663324731661,3,right
7.795,-0.07882016017305231,0.9762914438565827,-0.22354983506524853,-1.3747544888581509,0.5803026357632998,0.7520675977193361,-0.15838964465412814,-0.18491412316812023,-0.7176980805859162,3,right
7.8,-0.07724065123950587,0.976134658904374,-0.2233351294953634,-1.3891026103559814,0.557250113729847,0.7332376399205476,-0.1558208609551381,-0.20781599286321328,-0.7065078770992008,3,right
7.801,-0.07568833942629295,0.9759786771329253,-0.22308332700387729,-1.4017529234079573,0.5347667769596329,0.7143172364022071,-0.15334310318678263,-0.2302053373527455,-0.6954062130981798,3,right
7.805,-0.07416618008798577,0.9758229518305163,-0.22279534541186086,-1.4127185448188397,0.5128584815535417,0.6953299623313144,-0.150957290421858,-0.25207600998826546,-0.68440311012092,3,right
7.806,-0.07267700522414375,0.9756669508199808,-0.22247215537102089,-1.4220147760508408,0.49152992573279447,0.6762985833288522,-0.14866415639922229,-0.2734224846238882,-0.6735081215334808,3,right
7.809,-0.07122351844582184,0.9755101558242508,-0.22211477975848098,-1.4296590479740392,0.4707846633435441,0.6572450400266,-0.14646425576166783,-0.2942398430069734,-0.6627303344487522,3,right
7.809,-0.0698082903995984,0.9753520618995779,-0.22172429270291555,-1.435670862037565,0.4506251210046515,0.6381904370330103,-0.14435797036884893,-0.31452376260110154,-0.6520783721574549,3,right
7.814,-0.06843375469199914,0.9751921769393311,-0.22130181826238576,-1.4400717278882913,0.431052618837379,0.6191550362535206,-0.14234551567867826,-0.33427050490265914,-0.6415603970400245,3,right
7.815,-0.067102204345374,0.97503002125082,-0.22084852878081376,-1.4428850974590368,0.41206739471741005,0.600158254510615,-0.1404269471908734,-0.3534769043108278,-0.6311841139284368,3,right
7.819,-0.06581578880343057,0.9748651272068029,-0.22036564295334649,-1.4441362955435988,0.3936686319912865,0.5812186654089352,-0.1386021669466029,-0.3721403576092376,-0.6209567738873908,3,right
7.821000000000001,-0.06457651149153808,0.9746970389730542,-0.21985442363242547,-1.4438524468713034,0.3758544906010359,0.5623540053908033,-0.13687093007845114,-0.3902588141160069,-0.6108851783846515,3,right
7.8229999999999995,-0.06338622792413934,0.9745253123141902,-0.2193161754086338,-1.4420623996892168,0.3586221415624485,0.5435811839276208,-0.13523285140518954,-0.4078307665573365,-0.6009756838207589,3,right
7.824,-0.06224664434007559,0.9743495144814993,-0.21875224200377147,-1.4387966458556631,0.3419678047441453,0.5249162977927758,-0.1336874120648643,-0.4248552426905205,-0.5912342063931555,3,right
7.825,-0.06115931683823136,0.9741692241874503,-0.21816400351472742,-1.4340872374443028,0.32588678989625497,0.5063746493619,-0.1322339661737393,-0.44133179756192753,-0.5816662272923119,3,right
7.827999999999999,-0.060125650981904,0.9739840316709298,-0.21755287354364067,-1.4279676998536879,0.3103735408791884,0.48797076888658175,-0.13087174748766922,-0.45726050603419727,-0.5722767982676518,3,right
7.829,-0.05914690183754371,0.973793538855926,-0.21692029624827971,-1.420472941412988,0.2954216830446568,0.46971844068794893,-0.1295998760365055,-0.47264195507658147,-0.563070547623636,3,right
7.83,-0.058224174408834095,0.9735973596057415,-0.21626774335117505,-1.4116391595697495,0.28102407365180954,0.4516307331364644,-0.12841736470864007,-0.48747723544953164,-0.5540516866847858,3,right
7.832999999999999,-0.05735842442477782,0.9733951200750045,-0.21559671114931556,-1.4015037442381355,0.2671728548484144,0.43372003188255615,-0.12732312577428484,-0.5017679326627992,-0.5452240167291806,3,right
7.835,-0.056550459444545474,0.9731864591617959,-0.21490871756007474,-1.3901051797760628,0.2538595081103725,0.4159980750793297,-0.12631597734258318,-0.5155161172234888,-0.5365909363684117,3,right
7.8389999999999995,-0.05580094024692614,0.972971029060893,-0.21420529922869158,-1.3774829475524388,0.24107490867986586,0.39847598893696706,-0.12539464974915385,-0.5287243342166869,-0.5281554493480882,3,right
7.84,-0.05511038247298759,0.9727484959158217,-0.21348800871549134,-1.3636774305653312,0.22880937889858824,0.3811643223510383,-0.1245577918709218,-0.5413955922597219,-0.5199201727435463,3,right
7.845,-0.054479158490517356,0.972518540563039,-0.2127584117752007,-1.3487298206743623,0.2170527399722962,0.36407308007130196,-0.12380397736533925,-0.5535333518695581,-0.5118873455259644,3,right
7.846,-0.053907499451753445,0.9722808593580196,-0.2120180847333195,-1.33268202851048,0.205794362059017,0.34721175428025675,-0.12313171083134802,-0.5651415132812719,-0.5040588374746597,3,right
7.848,-0.053395497520072714,0.9720351650708279,-0.21126861195827334,-1.3155765960235297,0.19502321264565606,0.3305893545317343,-0.12253943388967545,-0.5762244037540203,-0.4964361584119119,3,right
7.848,-0.052943108245083845,0.9717811878373294,-0.210511583425719,-1.2974566116247834,0.18472790317920715,0.31421443600045523,-0.12202553118029547,-0.5867867643993764,-0.48902046773724167,3,right
7.853,-0.05255015306971983,0.971518676151601,-0.20974859237161822,-1.278365627878412,0.17489673392019914,0.29809512599412935,-0.12158833627512028,-0.5968337365653918,-0.4818125842386588,3,right
7.854,-0.052216321957081806,0.9712473978852643,-0.20898123303102797,-1.2583475816928558,0.1655177369874125,0.28223914868036776,-0.12122613750421751,-0.6063708478082308,-0.4748129961589843,3,right
7.858,-0.051941176126662686,0.9709671413194286,-0.20821109845917452,-1.237446716960133,0.15657871756426467,0.2666538479813821,-0.12093718369407298,-0.615403997481732,-0.4680218714959449,3,right
7.859,-0.05172415088793158,0.9706777161747321,-0.20743977843032907,-1.2157075095883376,0.14806729323859563,0.2513462085901824,-0.12071968981663957,-0.6239394419737727,-0.4614390685153339,3,right
7.8629999999999995,-0.05156455855621572,0.9703789546258375,-0.20666885740828073,-1.1931745948699153,0.13997093144888484,0.23632287506273886,-0.12057184254812783,-0.6319837796168436,-0.45506414645713245,3,right
7.865,-0.05146159143432423,0.9700707122895151,-0.20589991258071166,-1.1698926971257706,0.13227698501119287,0.22159016894134997,-0.1204918057367045,-0.6395439352987993,-0.44889637641508,3,right
7.867000000000001,-0.05141432484349312,0.9697528691793189,-0.20513451194972412,-1.1459065615628514,0.12497272570234995,0.20715410386525698,-0.12047772577847005,-0.6466271447983177,-0.44293475237078395,3,right
7.867999999999999,-0.0514217201874183,0.9694253306228973,-0.20437421247214616,-1.1212608882805721,0.11804537587610571,0.19302039862536016,-0.12052773690128685,-0.6532409388681935,-0.43717800236405224,3,right
7.872999999999999,-0.05148262803278499,0.9690880281389459,-0.20362055824558442,-1.0960002683592953,0.11148213809010951,0.1791944881207264,-0.12063996635622373,-0.659393127088198,-0.43162459978172946,3,right
7.872999999999999,-0.05159579118940838,0.9687409202704867,-0.20287507873921293,-1.070169121962059,0.10527022272271117,0.16568153217542989,-0.1208125395165727,-0.665091781507872,-0.42627277474790615,3,right
7.877999999999999,-0.05175984777434338,0.9683839933713865,-0.2021392870712112,-1.043811638378844,0.09939687355965379,0.15248642217513517,-0.12104358488457719,-0.6703452200982654,-0.4211205255989624,3,right
7.879,-0.05197333424782796,0.9680172623445267,-0.20141467833643487,-1.0169717179409108,0.0938493913317768,0.1396137854837152,-0.12133123900619062,-0.6751619900303175,-0.41616563042748633,3,right
7.882999999999999,-0.052234688413410335,0.9676407713319828,-0.20070272798759878,-0.9896929157310981,0.08861515518585676,0.12706798760109606,-0.12167365129435667,-0.6795508507962641,-0.41140565867969037,3,right
7.8839999999999995,-0.05254225237922245,0.9672545943595722,-0.20000489027121504,-0.9620183870144556,0.08368164207168566,0.11485313202443245,-0.12206898876147099,-0.6835207571891827,-0.40683798279151884,3,right
7.888999999999999,-0.052894275483150906,0.9668588359410776,-0.1993225967169655,-0.9339908343122022,0.07903644402942324,0.10297305777564347,-0.12251544066184707,-0.6870808421545325,-0.4024597898492077,3,right
7.89,-0.053288917192585813,0.9664536316511961,-0.19865725467723325,-0.9056524560407383,0.07466728336215994,0.09143133455927668,-0.1230112230451654,-0.6902403995263149,-0.39826809326061635,3,right
7.893,-0.053724249998928525,0.966039148679076,-0.19801024591268082,-0.8770448966363034,0.07056202567949083,0.080231255515619,-0.12355458322203823,-0.6930088666592806,-0.3942597444242043,3,right
7.893,-0.05419826233525991,0.9656155863753677,-0.19738292522031206,-0.8482091980848514,0.06670869079872992,0.0693758275349336,-0.12414380414088556,-0.6953958069775419,-0.39043144438274957,3,right
7.894,-0.05470886154816601,0.9651831768048904,-0.196776619101673,-0.8191857527758292,0.06309546149118707,0.05886775909967377,-0.12477720866504677,-0.6974108925093646,-0.3867797554478487,3,right
7.897,-0.05525387695053023,0.9647421853139833,-0.19619262446884753,-0.7900142575977592,0.059710690061688464,0.04870944562250517,-0.12545316372044385,-0.6990638865678086,-0.38330111277889584,3,right
7.898,-0.055831062975452234,0.9642929111176243,-0.1956322073838043,-0.7607336691928805,0.05654290275024558,0.03890295224895775,-0.12617008427383075,-0.7003646267863514,-0.3799918358991616,3,right
7.898,-0.056438102446257514,0.9638356879083235,-0.19509660182372254,-0.7313821603186753,0.053580801985326894,0.029449994168255965,-0.12692643711220408,-0.701323008667,-0.3768481401336943,3,right
7.902,-0.057072609972857485,0.9633708844867951,-0.19458700846274476,-0.7019970774192819,0.05081326671813912,0.020351914845532722,-0.12772074441281703,-0.7019489697063366,-0.3738661479571288,3,right
7.903,-0.057732135478972435,0.9628989054133167,-0.19410459345968795,-0.6726148997895555,0.04822935142668113,0.01160966325321676,-0.12855158710377002,-0.7022524741133702,-0.3710419002415706,3,right
7.907,-0.058414167858944335,0.9624201916787314,-0.1936504872413532,-0.6432712008699392,0.04581828457822084,0.003223771549050621,-0.12941760801734778,-0.7022434981219694,-0.3683713673955152,3,right
7.9079999999999995,-0.05911613875842928,0.9619352213940777,-0.19322578327176623,-0.6140006120545988,0.04356946714010871,-0.004805665719437562,-0.1303175148383816,-0.7019320158996942,-0.36585046038522806,3,right
7.9110000000000005,-0.059835426470912154,0.9614445104965311,-0.1928315367989279,-0.5848367891152138,0.04147247137063692,-0.012479010466738492,-0.13125008285002066,-0.701327986053922,-0.3634750416304635,3,right
7.912000000000001,-0.060569359941377125,0.9609486134676538,-0.19246876357309944,-0.5558123811873207,0.0395170399228541,-0.019797097927802067,-0.13221415747939727,-0.7004413387352613,-0.3612409357668407,3,right
7.916,-0.06131522286787389,0.9604481240590581,-0.1921384385343414,-0.5269590022351949,0.037693085254853015,-0.02676125154618092,-0.13320865664576903,-0.6992819633373827,-0.3591439402676274,3,right
7.917000000000001,-0.062070257890287917,0.9599436760198699,-0.19184149446977747,-0.49830720491156144,0.03599068934048483,-0.03337329591392237,-0.13423257291381396,-0.6978596967915505,-0.35717983591809827,3,right
7.922000000000001,-0.0628316708544037,0.9594359438193623,-0.19157882064024864,-0.46988645672882395,0.03440010367486096,-0.03963556778423462,-0.13528497545484613,-0.6961843124533308,-0.3553443971360395,3,right
7.922999999999999,-0.06359663513943828,0.9589256433573575,-0.191351261372017,-0.4417251184589882,0.03291174956938131,-0.04555092517693723,-0.13636501181880645,-0.6942655095781668,-0.3536334021323683,3,right
7.9270000000000005,-0.06436229603886831,0.9584135326543451,-0.19115961460526604,-0.413850424680036,0.031516218731377346,-0.05112275459569564,-0.1374719095199678,-0.692112903381755,-0.3520426429062146,3,right
7.928,-0.06512577518731977,0.9579004125122317,-0.19100463039022017,-0.3862884663871649,0.03020427412378014,-0.056354976375035656,-0.13860497743937655,-0.6897360156804327,-0.35056793506918316,3,right
7.932,-0.06588417502980412,0.9573871271351693,-0.19088700932352928,-0.3590641755880518,0.028966851100517325,-0.061252048174138464,-0.13976360704713092,-0.6871442661060823,-0.34920512749387267,3,right
7.933,-0.06663458333291815,0.9568745646980388,-0.19080740091990356,-0.3322013118021214,0.027795058813610232,-0.06581896663343105,-0.14094727344767452,-0.6843469638893912,-0.3479501117820721,3,right
7.936,-0.06737407774023471,0.956363657848193,-0.19076640191560099,-0.3057224503846937,0.026680181888182664,-0.07006126720901235,-0.14215553625135918,-0.6813533002046595,-0.3467988315483895,3,right
7.936,-0.06809973037554713,0.9558553841249859,-0.19076455450144747,-0.2796489725978541,0.02561368236180746,-0.07398502219899387,-0.14338804027560403,-0.6781723410687289,-0.34574729151538924,3,right
7.94,-0.0688086124983475,0.9553507662819766,-0.19080234448363126,-0.254001057350925,0.024587201884805805,-0.07759683697488642,-0.14464451607905027,-0.674813020786018,-0.34479156641662373,3,right
7.941,-0.06949779921705479,0.9548508724982001,-0.19088019937012637,-0.22879767453451863,0.023592564178278118,-0.0809038444302327,-0.14592478033218195,-0.6712841359310818,-0.34392780970424297,3,right
7.946000000000001,-0.07016437426636685,0.9543568164679114,-0.19099848638051836,-0.20405657987331133,0.022621777746784776,-0.08391369765777212,-0.147228736027953,-0.667594339859578,-0.34315226205815375,3,right
7.947,-0.07080543485331134,0.9538697573635168,-0.19115751038017328,-0.1797943112239012,0.02166703884271024,-0.08663456086552912,-0.14855637253602916,-0.6637521377380082,-0.342461259693974,3,right
7.95,-0.07141809657165765,0.9533908996725398,-0.19135751174614182,-0.1560261862453851,0.02072073467943604,-0.08907509854134125,-0.149907765504323,-0.6597658820821164,-0.3418512424672934,3,right
7.9510000000000005,-0.0719994983784155,0.952921492912718,-0.19159866417867696,-0.13276630137161569,0.01977544689051698,-0.09124446287449135,-0.15128307661156767,-0.6556437687933601,-0.3413187617720033,3,right
7.956,-0.07254680762108151,0.952462831228158,-0.1918810724775944,-0.11002753201547207,0.0188239552321015,-0.09315227944227879,-0.15268255317474336,-0.6513938336824371,-0.3408604882307049,3,right
7.957000000000001,-0.07305722510080655,0.9520162528666076,-0.19220477030815444,-0.08782153393689567,0.01785924152586167,-0.09480863116856039,-0.1541065276152392,-0.6470239494684341,-0.3404732191754344,3,right
7.961,-0.07352799015495545,0.9515831395367232,-0.1925697179854142,-0.06615874570789901,0.016874493839701743,-0.09622404056051397,-0.15555541678770224,-0.6425418232417714,-0.3401538859171689,3,right
7.961,-0.07395638574263486,0.9511649156449252,-0.19297580030512582,-0.04504839220925053,0.015863110903496746,-0.0974094502291266,-0.1570297211739734,-0.6379549943783617,-0.3398995608010344,3,right
7.962000000000001,-0.07433974351866993,0.9507630474122225,-0.19342282444203118,-0.02449848909506581,0.014818706757075117,-0.09837620169818882,-0.15853002393648058,-0.6332708328901034,-0.33970746403556673,3,right
7.9670000000000005,-0.0746754488840857,0.9503790418709975,-0.19391051792681244,-0.004515848163093637,0.013735115627602164,-0.09913601250588411,-0.1600569898109455,-0.6284965381929916,-0.33957497026877564,3,right
7.968,-0.07496094600192917,0.9500144457404429,-0.19443852670592626,0.014893916420243606,0.01260639703134904,-0.09970095163802542,-0.16161136381023297,-0.623639138271873,-0.3394996148751741,3,right
7.968999999999999,-0.07519374276633572,0.9496708441785289,-0.19500641328573562,0.03372638104095611,0.011426841084256435,-0.10008341350947292,-0.16319396971934835,-0.6187054892225501,-0.33947909992688924,3,right
7.97,-0.07537141571279518,0.9493498594090519,-0.19561365496339336,0.05197830461683451,0.01019097398672434,-0.10029609103026964,-0.16480570837624833,-0.6137022751551876,-0.3395112998379391,3,right
7.971,-0.07549161485867648,0.9490531492238498,-0.19625964215186592,0.069647619497059,0.008893563637449146,-0.10035194847058286,-0.16644755574131226,-0.6086360084446942,-0.3395942666796989,3,right
7.975,-0.07555206846380301,0.9487824053616296,-0.1969436768146051,0.08673342119086595,0.007529625341464745,-0.10026419465990563,-0.16812056076002196,-0.6035130303139199,-0.33972623516749245,3,right
7.976,-0.075550587702122,0.9485393517665078,-0.1976649710332785,0.10323595691958144,0.006094427596248903,-0.10004625673488868,-0.1698258430234825,-0.5983395117353092,-0.339905627318398,3,right
7.981,-0.0754850712381874,0.9483257427322703,-0.1984226457349475,0.11915661303309258,0.004583497950060799,-0.0997117544716136,-0.1715645902315027,-0.5931214546364716,-0.3401310567805021,3,right
7.982,-0.07535350970538456,0.9481433609412712,-0.19921572960079204,0.13449790133983985,0.002992628928581366,-0.09927447520208414,-0.17333805546304382,-0.5878646933949654,-0.3404013328339779,3,right
7.983,-0.07515399008516074,0.947994015407577,-0.2000431581687769,0.14926344439774122,0.0013178840257238066,-0.09874834931433864,-0.17514755425893788,-0.582574896607443,-0.34071546406449993,3,right
7.9879999999999995,-0.07488469998754037,0.9478795393328941,-0.20090377313221316,0.16345795981178884,-0.00044439624573524455,-0.0981474263352526,-0.17699446152187312,-0.5772575691181838,-0.34107266170964057,3,right
7.989,-0.07454393183414944,0.947801787882964,-0.20179632182954765,0.17708724358239794,-0.002297588248282536,-0.09748585159480502,-0.1788802082387444,-0.5719180542919239,-0.3414723426790222,3,right
7.992000000000001,-0.07413008694631017,0.9477626358912069,-0.202719456919738,0.19015815254693522,-0.004244779063371981,-0.09677784347032756,-0.18080627803056945,-0.5665615365157977,-0.34191413224912615,3,right
7.992999999999999,-0.07364167954055677,0.9477639754939428,-0.2036717362404578,0.20267858595521648,-0.006288760289775227,-0.09603767120904054,-0.18277420353528004,-0.5611930439151287,-0.3423978664337831,3,right
7.997000000000001,-0.07307734063065305,0.9478077136978181,-0.2046516228494447,0.21465746621814144,-0.008432021801909396,-0.09527963332700594,-0.1847855626288079,-0.5558174512677423,-0.34292359403149236,3,right
7.997000000000001,-0.07243582182941656,0.9478957698769387,-0.2056574852500237,0.226104718867032,-0.010676745473741762,-0.09451803658249414,-0.1868419744900026,-0.550439483101421,-0.34349157835083877,3,right
8.002,-0.07171599903744343,0.948030073196561,-0.2066875978000826,0.23703125175966128,-0.013024798874148551,-0.09376717552166888,-0.1889450955150373,-0.5450637169590924,-0.3441022986153969,3,right
8.003,-0.07091687600195618,0.9482125599623124,-0.20774014130057697,0.24744893356740627,-0.015477728939889548,-0.09304131259444379,-0.19109661508708456,-0.5396945868163177,-0.3447564510496336,3,right
8.006,-0.0700375877290901,0.9484451708962942,-0.20881320375597046,0.2573705715764335,-0.018036755632651075,-0.09235465883835313,-0.19329825120717292,-0.5343363866356402,-0.3454549496474414,3,right
8.007,-0.06907740373625891,0.948729848341387,-0.20990478129596943,0.2668098888343314,-0.020702765586905966,-0.09172135512831074,-0.19555174599227015,-0.52899327404236,-0.34619892662505886,3,right
8.012,-0.06803573113563646,0.9490685333930631,-0.21101277924672723,0.2757815006721446,-0.02347630575563977,-0.09115545399020232,-0.19785886104677672,-0.5236692741063205,-0.34698973256025906,3,right
8.013,-0.06691211754369569,0.9494631629563552,-0.21213501334028675,0.28430089063034214,-0.026357577061296524,-0.09067090197636907,-0.2002213727137587,-0.5183682832143235,-0.3478289362198151,3,right
8.016,-0.0657062538152479,0.9499156667253386,-0.21326921105203414,0.2923843858158668,-0.029346428059604007,-0.09028152260119363,-0.2026410672123974,-0.5130940730178312,-0.3487183240773827,3,right
8.017000000000001,-0.06441797660375599,0.9504279640830628,-0.21441301305723678,0.30004913171607317,-0.0324423486242465,-0.09000099983519268,-0.20511973566828723,-0.5078502944406695,-0.34965989952407545,3,right
8.023,-0.06304727075187937,0.9510019609215659,-0.2155639748005116,0.30731306649406265,-0.03564446366066191,-0.08984286215625391,-0.20765916904337212,-0.5026404817315131,-0.35065588177414697,3,right
8.024,-0.061594271516412384,0.9516395463853897,-0.2167195681760186,0.3141948947886745,-0.038951526857548234,-0.0898204671569284,-0.21026115297247636,-0.4974680565460073,-0.3517087044683392,3,right
8.026,-0.06005926663056302,0.95234258954667,-0.21787718331933995,0.32071406104119016,-0.04236191448497139,-0.08994698670700164,-0.21292746251292471,-0.4923363320470362,-0.3528210139765524,3,right
8.027000000000001,-0.05844269820474697,0.9531129360222081,-0.21903413051317394,0.32689072236965844,-0.045873619248270374,-0.09023539267091744,-0.21565985681078179,-0.4872485170295602,-0.35399566739637345,3,right
8.027000000000001,-0.0567451644646189,0.9539524045425999,-0.22018764220856002,0.33274572101065353,-0.04948424420725667,-0.09069844318001911,-0.21846007368176165,-0.4822077201086319,-0.3552357302346706,3,right
8.032,-0.05496742132183784,0.954862783482664,-0.22133487516169983,0.3383005563472361,-0.05319099677050062,-0.09134866945999909,-0.2213298241019038,-0.4772169540271343,-0.3565444737543592,3,right
8.033,-0.05311038377033868,0.9558458273606015,-0.2224729126828474,0.3435773565409075,-0.056990682774787936,-0.09219836321441303,-0.2242707866064421,-0.4722791401220924,-0.35792537197389773,3,right
8.036,-0.051175127099994,0.9569032533084076,-0.2235987669890714,0.3485988497844223,-0.06087970066011254,-0.0932595645656158,-0.22728460160114441,-0.46739711295646713,-0.35938209831675366,3,right
8.037,-0.04916288792033024,0.9580367375098219,-0.22470938165078475,0.35338833518610097,-0.06485403575663327,-0.09454405054048363,-0.23037286559374198,-0.46257362510566585,-0.3609185219135519,3,right
8.037,-0.04707506498840489,0.95924791159859,-0.22580163412507456,0.35796965326866687,-0.0689092547292174,-0.09606332401621123,-0.23353712535390075,-0.4578113520845886,-0.3625387035608811,3,right
8.042,-0.044913219836441226,0.9605383590099256,-0.22687233837477408,0.3623671560166238,-0.0730405002775224,-0.09782860291131121,-0.23677887201039596,-0.4531128974011937,-0.3642468913409498,3,right
8.043,-0.04267907719632939,0.9619096112796048,-0.22791824757839427,0.36660567637870567,-0.07724248621874087,-0.09985080933493586,-0.24009953509436519,-0.4484807977227297,-0.36604751590651624,3,right
