time,gFx,gFy,gFz,ax,ay,az,wx,wy,wz,subject_number,foot
7.7829999999999995,0.1985723938767181,1.2562213026028213,-0.014728190059247089,-0.7181609270923371,1.135794218318926,-1.602982258456001,-1.083221543777224,-0.15070586698731034,0.7145186183608462,2,left
7.787000000000001,0.20058291544386203,1.2573544744543468,-0.015298088227396065,-0.7442201006899222,1.1767783270301835,-1.6318942933009968,-1.0976491728153759,-0.14961851219817954,0.7216279865708476,2,left
7.787999999999999,0.20274916406892576,1.2582831063885669,-0.015821342867830372,-0.7703858111836356,1.2184982476586186,-1.6611972222211255,-1.112274867210823,-0.14878671932021867,0.7287771852665151,2,left
7.792000000000001,0.20507420942689084,1.2590018800162368,-0.01629694777639726,-0.7966450297284752,1.2609454273521776,-1.6908875905707372,-1.1270978948729526,-0.14822102857292038,0.7359616096473246,2,left
7.792999999999999,0.20756100702204724,1.259505633795671,-0.016723941910296553,-0.8229843916265318,1.304110070488061,-1.7209615751369862,-1.142117353919941,-0.1479320510923992,0.7431764901220138,2,left
7.797000000000001,0.2102123872531402,1.2597893746719315,-0.017101412268645935,-0.8493901801538328,1.3479811118514209,-1.751414963360343,-1.1573321662693905,-0.14793045459929163,0.7504168915879981,2,left
7.797000000000001,0.2130310443197313,1.2598482895035665,-0.017428496713543518,-0.8758483109154958,1.3925461918740467,-1.7822431336756879,-1.1727410713164257,-0.14822694842870413,0.7576777129282068,2,left
7.801,0.21601952503484162,1.259677756244397,-0.017704386726868925,-0.9023443168048279,1.4377916340570194,-1.8134410370603724,-1.188342619742397,-0.14883226792140186,0.7649536867460562,2,left
7.8020000000000005,0.21918021762110892,1.259273354852496,-0.017928330101773363,-0.9288633336422003,1.4837024247033324,-1.8450031798767241,-1.2041351674978948,-0.1497571581762568,0.7722393793593496,2,left
7.808,0.22251534057869735,1.2586308778984783,-0.018099633567166196,-0.9553900865696694,1.5302621950884774,-1.876923608097543,-1.220116870004336,-0.15101235716482964,0.7795291910739485,2,left
7.809,0.22602693172238497,1.2577463408428262,-0.018217665336535856,-0.9819088772774331,1.5774532061989393,-1.909195893004202,-1.2362856766189394,-0.15260857820984833,0.7868173567581077,2,left
7.811,0.2297168374916732,1.2566159919485034,-0.0182818575604214,-1.0084035721382676,1.6252563361704524,-1.9418131184480056,-1.2526393254084547,-0.1545564918302625,0.7940979467383916,2,left
7.812,0.23358670263918407,1.255236321791027,-0.01829170865111565,-1.034857591326118,1.6736510705597363,-1.974767869766498,-1.2691753382775515,-0.1568667069565033,0.8013648680380994,2,left
7.817,0.23763796039777016,1.2536040723240585,-0.018246785445810636,-1.0612538989949882,1.7226154955852377,-2.0080522244474093,-1.2858910164983097,-0.1595497515205569,0.8086118659791255,2,left
7.818,0.2418718232166019,1.2517162454555697,-0.018146725182249142,-1.0875749945942057,1.772126294474156,-2.0416577446339277,-1.3027834366877904,-0.16261605242647037,0.8158325261681566,2,left
7.82,0.24628927414267493,1.2495701110882476,-0.017991237274983505,-1.1138029053960217,1.8221587470547347,-2.075575471565949,-1.3198494472811788,-0.16607591490794932,0.8230202768880658,2,left
7.821000000000001,0.25089105890830055,1.2471632145777576,-0.01778010489456705,-1.1399191803113362,1.8726867327344277,-2.109795922052904,-1.3370856655485195,-0.16993950128077712,0.8301683919153118,2,left
7.8260000000000005,0.25567767876946157,1.244493383564417,-0.017513186362348814,-1.1659048850691263,1.9236827370061207,-2.144309087074682,-1.3544884751867263,-0.17421680911049917,0.8372699937742989,2,left
7.827000000000001,0.26064938412695476,1.2415587341394874,-0.01719041637816808,-1.1917405988348804,1.9751178616260776,-2.179104432608071,-1.372054024434894,-0.17891764887500577,0.8443180573907004,2,left
7.827000000000001,0.2658061689529398,1.238357676315975,-0.016811807097246095,-1.2174064123430233,2.0269618386087114,-2.214170902776994,-1.3897782245099315,-0.1840516213073163,0.8513054140176894,2,left
7.831,0.27114776603909274,1.2348889187812693,-0.016377449068767515,-1.2428819276179413,2.07918304818461,-2.2494969254256674,-1.4076567480758566,-0.18962809466311562,0.8582247552600266,2,left
7.832000000000001,0.27667364307757114,1.2311514729129964,-0.015887512044825563,-1.268146259357783,2.131748540869515,-2.2850704202146184,-1.425685027544713,-0.19565618210074995,0.865068637069661,2,left
7.832999999999999,0.28238299958072566,1.227144656042702,-0.015342245664698693,-1.2931780380432514,2.1846240637201566,-2.320878809281362,-1.4438582531590272,-0.20214471925812377,0.8718294836742689,2,left
7.835,0.28827476463992835,1.2228680939561505,-0.014741980015859572,-1.317955414775684,2.2377740904891485,-2.3569090302137767,-1.4621713708903188,-0.2091022420541486,0.8784995914488223,2,left
7.836,0.29434759551942935,1.2183217226227077,-0.014087126070919952,-1.3424560677448651,2.291161854735487,-2.39314755055477,-1.4806190802054504,-0.21653696473208023,0.8850711327498277,2,left
7.84,0.30059987707558816,1.2135057891492065,-0.013378175998218568,-1.3666572101689665,2.344749384583316,-2.429580382762982,-1.4991958317530085,-0.22445675816340266,0.8915361597316457,2,left
7.841,0.30702972198176226,1.208420851957604,-0.012615703339031942,-1.390535599605658,2.3984975381871845,-2.46619309884944,-1.5178958250223122,-0.2328691284322633,0.8978866081640311,2,left
7.846,0.313634971727862,1.2030677801908825,-0.011800363033377784,-1.4140675486358802,2.452366039619333,-2.5029708444408154,-1.536713006028035,-0.24178119572183457,0.9041143012697589,2,left
7.847,0.3204131983570857,1.197447752355999,-0.010932891261516142,-1.437228936978282,2.506313515259907,-2.5398983523149954,-1.5556410650737948,-0.2511996735253695,0.9102109536008873,2,left
7.851,0.3273617069005188,1.1915622542150142,-0.010014105055594556,-1.4599952251028694,2.560297530844414,-2.576959955514126,-1.5746734346484175,-0.2611308482061329,0.9161681749718871,2,left
7.853,0.334477538469393,1.1854130759376669,-0.009044901629887477,-1.4823414694114112,2.6142746293230914,-2.614139600140746,-1.5938032875089136,-0.27158055893182487,0.9219774744675062,2,left
7.856,0.3417574739637764,1.1790023085332682,-0.008026257380201953,-1.5042423390510886,2.6682003696870664,-2.6514208579430587,-1.6130235350045357,-0.2825541780105667,0.9276302645428682,2,left
7.857,0.34919803835625407,1.1723323395873662,-0.0069592265132565395,-1.5256721344267354,2.7220293669162907,-2.6887869387957717,-1.6323268256965713,-0.29405659165699166,0.9331178652328993,2,left
7.86,0.35679550551022543,1.1654058483386578,-0.005844939283474288,-1.5466048074758074,2.775715333204226,-2.7262207031832846,-1.6517055443288158,-0.306092181218471,0.938431508487752,2,left
7.862,0.3645459034951974,1.1582258001429118,-0.004684599833139169,-1.5670139837689423,2.829211120614091,-2.763704674792281,-1.67115181120392,-0.3186648048930104,0.9435623426504502,2,left
7.865,0.37244502036665317,1.1507954403805676,-0.0034794836469428927,-1.5868729864976183,2.8824687653212067,-2.801221053321033,-1.6906574820210527,-0.3317777799718698,0.9485014370924963,2,left
7.865,0.3804884103859447,1.1431182878708301,-0.002230934641082609,-1.606154862408983,2.9354395335955648,-2.8387517276129186,-1.710214148230527,-0.3454338656414894,0.9532397870226882,2,left
7.87,0.3886714006649584,1.1351981278577026,-0.0009403619109282022,-1.624832409746432,2.9880739696781973,-2.87627828922179,-1.7298131379612411,-0.3596352463808471,0.9577683184838668,2,left
7.871,0.3969890982287496,1.127039004634232,0.0003907638383388729,-1.6428782082529234,3.0403219457042314,-2.9137820465169364,-1.7494455175769459,-0.374383515991923,0.9620778935517627,2,left
7.874,0.4054363974954498,1.1186452138718843,0.001760914154816436,-1.660264651292363,3.092132713824698,-2.9512440394354127,-1.7691020939175066,-0.38967966230250695,0.9661593157495341,2,left
7.875,0.41400798817702505,1.1100212947222938,0.0031685069738605475,-1.6769639801426566,3.1434549606781945,-2.988645054989496,-1.7887734172814376,-0.40552405258214846,0.9700033356909868,2,left
7.879,0.4226983636084954,1.1011720217562175,0.004611910997834979,-1.6929483205122147,3.194236864362382,-3.0259656436369746,-1.8084497852060903,-0.4219164197136191,0.973600656964836,2,left
7.88,0.4315018295166548,1.0921023967976178,0.006089450289735482,-1.7081897213297905,3.2444261540540413,-3.0631861366218347,-1.8281212471019448,-0.4388558491638301,0.9769419422717137,2,left
7.886,0.44041251323872477,1.082817640700985,0.007599409037643079,-1.722660195855566,3.2939701724250185,-3.100286664392758,-1.8477776097974896,-0.4563407667997208,0.9800178198249473,2,left
7.8870000000000005,0.44942437339476166,1.073323185108965,0.009140036436555473,-1.7363317651593442,3.342815940999831,-3.1372471762065897,-1.8674084440511973,-0.4743689275962079,0.9828188900254204,2,left
7.888,0.45853121000830754,1.0636246642146454,0.010709551633754371,-1.7491765040095746,3.3909102285989943,-3.17404746102367,-1.8870030920870842,-0.4929374052848538,0.9853357324200963,2,left
7.888999999999999,0.4677266750619568,1.0537279065389293,0.012306148697775628,-1.761166589214718,3.438199623010287,-3.210667169801555,-1.9065506762102966,-0.5120425829934787,0.9875589129530189,2,left
7.894,0.4770042834696776,1.0436389267206643,0.013928001592099145,-1.7722743504561675,3.4846306060281558,-3.247085839293268,-1.9260401085299348,-0.5316801449224539,0.9894789915105929,2,left
7.894,0.48635742444742086,1.0333639173069706,0.015573269151595287,-1.7824723236495643,3.530149631999315,-3.2832829174557516,-1.9454601016704038,-0.5518450690747344,0.9910865297309978,2,left
7.894,0.49577937326727384,1.0229092405237212,0.01724010006694788,-1.7917333068688923,3.5747032100102683,-3.3192377905736765,-1.964799180089984,-0.5725316210038117,0.9923720989907147,2,left
7.9,0.5052633033800406,1.0122814200024963,0.018926637880380324,-1.8000304188652032,3.6182379898500225,-3.354929812203179,-1.9840456914793232,-0.5937333485150657,0.993326288449149,2,left
7.901,0.5148022988797898,1.0014871324412904,0.020631025989107758,-1.8073371602092099,3.660700851878645,-3.3903383340394813,-2.003187817858183,-0.6154430772877382,0.9939397130625592,2,left
7.902,0.5243893672684664,0.9905331991799824,0.022351412646451213,-1.8136274770100784,3.7020390007952857,-3.42544273874705,-2.0222135862509845,-0.6376529074406646,0.9942030215336081,2,left
7.903,0.5340174524727643,0.9794265776747939,0.02408595594834844,-1.818875826788905,3.7422000626250753,-3.4602224744673844,-2.04111087896726,-0.6603542110966085,0.994106904193035,2,left
7.904,0.5436794480707436,0.9681743528571928,0.025832828795009064,-1.823057245414583,3.7811321830329443,-3.4946570901375607,-2.0598674435419775,-0.6835376310075486,0.9936421008151894,2,left
7.9079999999999995,0.5533682106872191,0.9567837283652934,0.027590223820330915,-1.8261474136357727,3.818784124397889,-3.528726270428957,-2.078470902390362,-0.7071930803047018,0.9927994083681606,2,left
7.91,0.5630765735039486,0.9452620176438639,0.02935635828247581,-1.8281227221107634,3.855105359749124,-3.5624098694374813,-2.0969087622314775,-0.7313097434384787,0.9915696886982117,2,left
7.912999999999999,0.5727973598119008,0.9336166349214629,0.03112947890744946,-1.8289603345018992,3.89004616287031,-3.5956879428367774,-2.115168423334427,-0.7558760783749469,0.9899438761471588,2,left
7.912999999999999,0.5825233965208545,0.9218550860867104,0.03290786667454426,-1.8286382485691792,3.923557694545665,-3.6285407785276567,-2.133237188640581,-0.7808798201167367,0.9879129851002556,2,left
7.917999999999999,0.5922475275375064,0.9099849594999198,0.03468984152936856,-1.8271353552686556,3.9555920850521873,-3.6609489258804864,-2.151102272814784,-0.8063079856176445,0.9854681174610334,2,left
7.919,0.6019626269239546,0.8980139167916925,0.03647376700841555,-1.8244314958579897,3.986102512998258,-3.692893223666082,-2.1687508112779517,-0.8321468801614804,0.9826004700484051,2,left
7.922999999999999,0.6116616117517975,0.8859496837147374,0.0382580547586506,-1.820507517008197,4.0150432806047975,-3.724354826769444,-2.186169869272956,-0.8583821052769601,0.9793013419101788,2,left
7.9239999999999995,0.6213374545717172,0.8738000411261285,0.04004116893544482,-1.8153453239172184,4.042369885520904,-3.755315231779401,-2.2033464510150775,-0.8849985682616618,0.9755621415459401,2,left
7.928,0.6309831954243761,0.861572816182959,0.041821630462538346,-1.8089279314175082,4.068039089261504,-3.785756301545876,-2.2202675089777038,-0.911980493389242,0.9713743940310464,2,left
7.928999999999999,0.6405919533265225,0.8492758738346083,0.0435980211392083,-1.801239513066329,4.092008982350086,-3.8156602887951294,-2.2369199533632846,-0.9393114348752486,0.9667297480322365,2,left
7.933,0.6501569371762022,0.8369171086886701,0.04536898758264545,-1.7922654482038876,4.114239046244901,-3.8450098588918706,-2.2532906618088617,-0.9669742916779557,0.9616199827040954,2,left
7.933,0.659671456031863,0.8245044373141918,0.047133244997499595,-1.7819923669608393,4.134690212122299,-3.873788111835652,-2.269366489374749,-0.9949513242116997,0.9560370144543268,2,left
7.938,0.6691289287305656,0.8120457910266485,0.04888958076776495,-1.7704081931930464,4.153324916585966,-3.9019786035774153,-2.2851342788641773,-1.0232241730511924,0.9499729035644725,2,left
7.94,0.6785228928186592,0.7995491091765843,0.050636857865739425,-1.7575021853177797,4.170107154365828,-3.9295653667404693,-2.300580871520906,-1.0517738797062397,0.9434198606513814,2,left
7.943,0.6878470127735405,0.7870223329407778,0.05237401806902467,-1.7432649750218254,4.185002528065318,-3.956532930828531,-2.31569311815095,-1.080580909547202,0.936370252953374,2,left
7.944,0.6970950875000613,0.7744733995944622,0.0541000849735665,-1.7276886038081969,4.19797829501043,-3.9828663420017842,-2.330457890713691,-1.1096251769623695,0.9288166104236634,2,left
7.9479999999999995,0.7062610570928086,0.7619102372278735,0.055814166790444604,-1.7107665573443551,4.209003411248723,-4.0085511825001685,-2.3448620944267224,-1.1388860728292292,0.9207516316121938,2,left
7.949,0.7153390088649392,0.749340759859737,0.057515458912938175,-1.6924937975710197,4.218048572740978,-4.033573589791336,-2.358892680427812,-1.1683424943823368,0.9121681893156256,2,left
7.952999999999999,0.7243231826525846,0.736772862893216,0.059203246235316795,-1.672866792526812,4.225086253782724,-4.0579202755188994,-2.372536659036363,-1.1979728775611818,0.9030593359737553,2,left
7.954,0.7332079754097615,0.7242144188571008,0.0608769051994756,-1.651883543840105,4.230090742687244,-4.081578544324719,-2.3857811136557334,-1.2277552319220617,0.8934183087891818,2,left
7.957000000000001,0.741987945111349,0.7116732733761013,0.06253590554621483,-1.629543611835582,4.2330381747559755,-4.104536312617091,-2.3986132153566873,-1.2576671781985396,0.8832385345455499,2,left
7.957999999999999,0.7506578139800624,0.6991572413159152,0.06417981175570896,-1.6058481381991132,4.233906562556484,-4.126782127354745,-2.41102023818115,-1.287685988595557,0.8725136340981889,2,left
7.9639999999999995,0.7592124710493444,0.6866741030487595,0.06580828417189973,-1.5807998661406737,4.232675823522321,-4.148305184914595,-2.4229895752042787,-1.3177886299027088,0.8612374265094336,2,left
7.965,0.7676469740711809,0.6742316007825377,0.06742107981307323,-1.5544031579911262,4.229327804883192,-4.169095350109165,-2.4345087553916946,-1.347951809512564,0.8494039327993725,2,left
7.966,0.7759565507766837,0.6618374348922175,0.06901805287317697,-1.526664010164802,4.223846305927883,-4.189143175417572,-2.4455654612619147,-1.3781520243398906,0.8370073793012639,2,left
7.968,0.7841365994975328,0.6494992601895875,0.07059915491632346,-1.4975900654192247,4.2162170976050115,-4.208439920439522,-2.4561475472349477,-1.4083656121862642,0.8240422007095963,2,left
7.968,0.7921826891591072,0.6372246820723219,0.0721644347646963,-1.4671906223558662,4.206427939503721,-4.226977571317894,-2.466243058316597,-1.4385688042817808,0.8105030430877554,2,left
7.968999999999999,0.8000905586593307,0.6250212525017288,0.07371403808147517,-1.4354766421315523,4.194468594328035,-4.244748859402136,-2.47584024863887,-1.468737777284084,0.7963847672009535,2,left
7.973,0.807856115646547,0.6128964657616923,0.07524820665455141,-1.402460752362732,4.180330840015555,-4.2617472781608,-2.4849275995033557,-1.4988487034665725,0.7816824524381306,2,left
7.974,0.8154754347062125,0.6008577539481822,0.0767672773905588,-1.3681572481845838,4.1640084796018275,-4.277967097611106,-2.4934938368031387,-1.5288777986405535,0.766391401404307,2,left
7.977,0.8229447549648207,0.5889124821379894,0.0782716810312167,-1.332582090393604,4.145497348847798,-4.293403376002442,-2.5015279478252355,-1.5588013678076342,0.7505071451628815,2,left
7.977,0.830260477121842,0.577067943193127,0.07976194060757053,-1.2957529005821373,4.124795321598369,-4.308051968750267,-2.509019197459625,-1.588595848628797,0.7340254490856319,2,left
7.982,0.8374191599253208,0.5653313521715534,0.08123866965529264,-1.2576889531663487,4.101902312825143,-4.321909534667006,-2.5159571438394663,-1.6182378527963763,0.7169423192664773,2,left
7.984,0.844417516112698,0.5537098403314411,0.08270257022461033,-1.2184111642054691,4.076820279300187,-4.334973539534251,-2.5223316534355553,-1.6477042053948479,0.699254009453366,2,left
7.987,0.8512524078436646,0.5422104487341128,0.08415443072488159,-1.1779420769065598,4.049553217841338,-4.34724225705838,-2.528132915626521,-1.6769719823359717,0.680957028450931,2,left
7.9879999999999995,0.8579208416556631,0.530840121470188,0.08559512364049758,-1.1363058437054931,4.020107161063284,-4.358714767249358,-2.5333514567646667,-1.7060185459533932,0.6620481479448282,2,left
7.992000000000001,0.864419962975702,0.5196056985528649,0.08702560314525601,-1.0935282048113615,3.988490170562379,-4.369390952260269,-2.537978153755753,-1.7348215788412986,0.6425244106969394,2,left
7.992000000000001,0.870747050224686,0.5085139085386765,0.08844690263599919,-1.0496364630981114,3.954712327456885,-4.379271489722818,-2.5420042471693636,-1.76335911602116,0.6223831390588669,2,left
7.996,0.8768995085529898,0.4975713609474609,0.08986013220664754,-1.0046594552238475,3.918785720198047,-4.388357843611756,-2.545421353894825,-1.79160957551996,0.6016219437493961,2,left
7.997000000000001,0.8828748632504901,0.4867845385589743,0.09126647608657498,-0.958627518854977,3.880724429561211,-4.396652252668905,-2.5482214793559557,-1.8195517874425957,0.5802387328398342,2,left
8.001,0.8886707528830032,0.47615978966305805,0.09266719006777706,-0.9115724558691666,3.84054451071997,-4.404157716415166,-2.5503970292961884,-1.8471650216203934,0.5582317208893552,2,left
8.002,0.8942849222215234,0.4657033203340061,0.09406359894146149,-0.8635274914079707,3.7982639723001674,-4.410877978776613,-2.5519408211438726,-1.874429013916847,0.5355994381707105,2,left
8.009,0.8997152150507401,0.45542118679082183,0.0954570939557661,-0.8145272286469633,3.753902752304443,-4.416817509348517,-2.552846094965773,-1.9013239912708024,0.5123407399248691,2,left
8.01,0.9049595669664225,0.44531928789661884,0.096849130291696,-0.764607599148266,3.707482690791935,-4.421981482318864,-2.553106524015011,-1.927830695556376,0.48845481558136655,2,left
8.011000000000001,0.9100159982921129,0.43540335784244527,0.09824122453397643,-0.7138058086575274,3.659027499191731,-4.426375753070685,-2.552716224877859,-1.9539304063378795,0.4639411978793422,2,left
8.012,0.9148826072580174,0.42567895905207587,0.09963495208797384,-0.662160278204667,3.608562726122667,-4.430006832480269,-2.551669767221983,-1.979604962596976,0.43879977182244734,2,left
8.016,0.9195575635854328,0.41615147533643393,0.10103194446530378,-0.6097105803650578,3.556115719586172,-4.432881858926102,-2.549962183146859,-2.0048367835081744,0.4130307833990053,2,left
8.017000000000001,0.9240391026088143,0.4068261053220314,0.10243388633441862,-0.5564973705352891,3.501715585393026,-4.43500856802118,-2.5475889761352453,-2.029608888337597,0.3866348479970026,2,left
8.021,0.928325520047938,0.39770785617710097,0.10384251221644379,-0.5025623130752334,3.4453931416791015,-4.436395260079135,-2.5445461296026757,-2.0539049155387397,0.3596129584416863,2,left
8.022,0.932415167519362,0.3888015376606589,0.10525960270789635,-0.44794800216582775,3.3871808693595025,-4.437050765322451,-2.5408301150400705,-2.0777091411176776,0.33196649258174205,2,left
8.026,0.9363064488540361,0.38011175652325385,0.10668698013141065,-0.39269787722979527,3.327112858364874,-4.436984406838902,-2.5364378997426393,-2.101006496338835,0.30369722034822616,2,left
8.027000000000001,0.93999781726954,0.37164291129196053,0.10812650354652775,-0.336856132760454,3.265224749498168,-4.436205961290212,-2.5313669541163195,-2.123782584841092,0.2748073102086282,2,left
8.031,0.9434877734327777,0.3633991874728664,0.10958006308502935,-0.2804676224018176,3.201553671744696,-4.434725617374831,-2.5256152585492724,-2.146023699214549,0.24529933495968265,2,left
8.032,0.946774864441471,0.35538455319935486,0.11104957360079477,-0.22357775712136188,3.1361381748630013,-4.432553932044669,-2.5191813098250195,-2.1677168369967164,0.21517627691593852,2,left
8.033,0.9498576837484928,0.34760275534606133,0.11253696763984666,-0.16623239731513614,3.0690181570788284,-4.429701784473576,-2.512064127035638,-2.188849715883201,0.18444153275663552,2,left
8.036,0.9527348720511192,0.34005731612370416,0.11404418774539885,-0.10847773890683102,3.00023478786505,-4.426180327839163,-2.5042632569424983,-2.2094107878563167,0.1530989184068393,2,left
8.037,0.9554051191666619,0.3327515301710411,0.11557317811873995,-0.050360194618491214,2.9298304266137984,-4.422000939306796,-2.4957787787390533,-2.2293892520235796,0.12115267421184364,2,left
8.038,0.957867166914392,0.32568846216101033,0.11712587566072054,0.008073726399218011,2.8578485394932764,-4.41717516919519,-2.4866113081844383,-2.2487750661186436,0.08860747045476927,2,left
8.042,0.9601198130199646,0.31887094493850554,0.11870420042392013,0.06677753627294129,2.784333617605354,-4.411714690630289,-2.4767620010836704,-2.267558956705697,0.055468413150365374,2,left
8.043,0.9621619160507534,0.31230157821114923,0.12031004551533775,0.12570488026306909,2.7093310987269987,-4.405631250663048,-2.4662325560900715,-2.28573242814469,0.02174105002325079,2,left
8.045,0.9639924013742647,0.30598272781738484,0.12194526650055904,0.18480964159742497,2.632887293422926,-4.398936623232317,-2.4550252168035853,-2.3032877703730645,-0.012568623422887892,2,left
8.046,0.9656102681055294,0.2999165255920498,0.12361167036891095,0.24404603922724183,2.555049315484067,-4.391642564023005,-2.4431427731366973,-2.320218065557929,-0.04745415784032898,2,left
8.051,0.9670145969768053,0.29410486983947465,0.1253110041256259,0.3033687186746104,2.4758650164764844,-4.383760767202066,-2.4305885619177134,-2.3365171936708684,-0.08290864407345586,2,left
8.052,0.9682045590294857,0.28854942641173803,0.1270449430844107,0.36273283614109364,2.395382924181241,-4.37530282401311,-2.4173664666992067,-2.3521798370358082,-0.11892470739455346,2,left
8.056000000000001,0.9691794249985094,0.28325163037734763,0.1288150789459936,0.42209413604757934,2.3136521847017155,-4.3662801832087075,-2.4034809167375064,-2.367201483898553,-0.15549450203946288,2,left
8.056000000000001,0.9699385752373039,0.2782126882547726,0.13062290776718716,0.4814090221756933,2.2307225080109925,-4.356704113297771,-2.3889368851071713,-2.3815784310648125,-0.19260970614492962,2,left
8.062000000000001,0.9704815100176046,0.2734335807766567,0.13246981794730506,0.5406346225812143,2.146644116708226,-4.346585666583736,-2.3737398859124754,-2.3953077856517018,-0.23026151719109295,2,left
8.062000000000001,0.9708078600326083,0.2689150661444353,0.134357078378359,0.5997288484499267,2.0614676977493014,-4.335935644967647,-2.357895970556024,-2.4083874659958546,-0.26844064805415413,2,left
8.065,0.9709173969327084,0.26465768372847165,0.13628582691807656,0.6586504470662143,1.9752443569136617,-4.324764567488673,-2.34141172302273,-2.420816201759453,-0.3071373237758261,2,left
8.066,0.9708100437290396,0.260661758163673,0.13825705934860877,0.7173590490644441,1.888025575765876,-4.313082639572989,-2.324294254135514,-2.4325935332736055,-0.34634127915770846,2,left
8.068999999999999,0.9704858849094277,0.25692740378425427,0.14027161897842663,0.7758152101328117,1.799863170867368,-4.300899723960474,-2.306551194737219,-2.443719810156642,-0.3860417572902455,2,left
8.07,0.9699451761228772,0.25345452933533696,0.14233018703068817,0.8339804473388304,1.7108092549907254,-4.288225313277138,-2.2881906877514036,-2.454196189243037,-0.4262275091274094,2,left
8.075,0.9691883533009098,0.25024284289479637,0.14443327393996067,0.8918172702450302,1.6209162000861357,-4.275068504219746,-2.2692213790728575,-2.4640246318567867,-0.4668867942197094,2,left
8.076,0.9682160410956593,0.24729185693673433,0.14658121165327279,0.9492892069827141,1.5302366017468023,-4.2614379733176655,-2.2496524072368813,-2.4732079004612126,-0.5080073827195503,2,left
8.08,0.9670290605274049,0.24460089346801522,0.1487741470031571,1.0063608254507854,1.4388232449176215,-4.247341954235542,-2.2294933918146076,-2.4817495547152846,-0.5495765587743588,2,left
8.081,0.9656284357505349,0.24216908917083685,0.15101203619134893,1.0629977498057142,1.3467290705889936,-4.232788216579023,-2.2087544204798912,-2.4896539469647103,-0.5915811254242543,2,left
8.084,0.9640153998655752,0.23999540048740028,0.1532946403941823,1.119166672407671,1.254007143215388,-4.217784046164402,-2.1874460346915687,-2.4969262171941766,-0.6340074111223644,2,left
8.085,0.9621913997235136,0.23807860858863356,0.15562152247631372,1.1748353613867037,1.1607106185961666,-4.202336226711691,-2.1655792139331984,-2.5035722874652886,-0.6768412779971761,2,left
8.089,0.9601580996872059,0.23641732417797556,0.1579920447797823,1.2299726639915896,1.0668927119542175,-4.186451022919339,-2.1431653584507293,-2.509598855862929,-0.7200681319775591,2,left
8.09,0.9579173843340144,0.23500999209214518,0.16040536794207344,1.2845485058826502,0.9726066659461506,-4.170134164877503,-2.120216270426905,-2.5150133899709366,-0.7636729349023108,2,left
8.096,0.9554713601030164,0.23385489567294354,0.16286045069021018,1.3385338865283847,0.8779057183361524,-4.153390833775505,-2.0967441335296106,-2.519824119896215,-0.8076402187372413,2,left
8.097000000000001,0.9528223559069386,0.23295016089764806,0.16535605055672017,1.3919008708642506,0.7828430690640993,-4.136225648857867,-2.072761490769801,-2.524040030858599,-0.8519541020239477,2,left
8.099,0.9499729227422655,0.232293760269248,0.1678907254658994,1.444622577370313,0.6874718464371882,-4.118642655582037,-2.0482812206031094,-2.5276708553620524,-0.8965983086855054,2,left
8.1,0.9469258323394194,0.23188351647923708,0.17046283614452398,1.4966731627227836,0.5918450721731472,-4.100645314929747,-2.023316511264697,-2.5307270649314457,-0.941556189240068,2,left
8.101,0.9436840748954366,0.23171710586252925,0.1730705493206273,1.548027803172706,0.49601562502205065,-4.082236493822675,-1.9978808336102742,-2.533219861249546,-0.9868107440979409,2,left
8.104,0.9402508559248918,0.23179206166604235,0.17571184168548168,1.5986626728031839,0.4000362026928774,-4.063418456591918,-1.9719879132474682,-2.535161166260897,-1.0323446479410878,2,left
8.105,0.9366295922604166,0.2321057771536728,0.17838450460143299,1.6485549188146258,0.30395928181021525,-4.044192857449578,-1.9456517030251657,-2.536563610659704,-1.078140273808517,2,left
8.107000000000001,0.9328239072384189,0.23265550857391212,0.1810861495384856,1.6976826340399267,0.20783707573819885,-4.024560733954421,-1.9188863566622674,-2.5374405203251302,-1.1241797158882594,2,left
8.109,0.92883762511046,0.23343837801863865,0.1838142142212366,1.7460248271616565,0.11172149066966316,-4.004522501686544,-1.8917062037832948,-2.537805900532115,-1.170444810695005,2,left
8.11,0.9246747647178913,0.23445137619912956,0.18656596947052675,1.793561391591175,0.015664081388605776,-3.9840779507483077,-1.8641257263421869,-2.5376744179121795,-1.2169171566896344,2,left
8.113,0.9203395324640123,0.23569136516149589,0.18933852672723872,1.8402730742396134,-0.08028399132475443,-3.963226244931797,-1.836159536357429,-2.5370613801667643,-1.263578132472868,2,left
8.113999999999999,0.9158363146233898,0.2371550809622314,0.1921288462434875,1.8861414451361982,-0.1760720002383416,-3.9419659241677283,-1.807822354880464,-2.535982713534189,-1.3104089136858972,2,left
8.119,0.9111696690370963,0.23883913632356188,0.19493374592101612,1.9311488683570908,-0.27164968776425485,-3.9202949104660663,-1.779128992118184,-2.534454938009882,-1.3573904887514592,2,left
8.12,0.9063443162467858,0.24074002328527902,0.19774991077220752,1.9752784744533374,-0.3669672987697259,-3.898210517333284,-1.7500943286292001,-2.532495140318164,-1.4045036735893657,2,left
8.124,0.9013651301199714,0.24285411586505348,0.20057390297524721,2.0185141345096564,-0.46197561037806734,-3.8757094626051782,-1.720733297512506,-2.530120944632507,-1.45172912544097,2,left
8.125,0.8962371280174579,0.24517767273432847,0.20340217248907824,2.060840435963325,-0.5566259590340745,-3.852787884632984,-1.6910608675061523,-2.527350481039929,-1.4990473559375013,2,left
8.132,0.8909654605523147,0.2477068399137927,0.20623106818524958,2.1022426603098974,-0.6508702651075963,-3.829441361759338,-1.661092026912545,-2.5242023517439267,-1.5464387435475633,2,left
8.133,0.8855554009874065,0.2504376534924461,0.20905684944373476,2.1427067628199343,-0.7446610553081031,-3.8056649350194447,-1.6308417682660603,-2.520695594999167,-1.5938835455394278,2,left
8.133,0.8800123343160869,0.2533660423764048,0.2118756981500071,2.18221935438829,-0.8379514831820559,-3.7814531340015787,-1.6003250736577628,-2.5168496467700185,-1.6413619095940088,2,left
8.134,0.8743417460695632,0.2564878310759722,0.21468373102177649,2.220767685634884,-0.9306953479637096,-3.7568000057998603,-1.5695569006311687,-2.5126843001039156,-1.6888538852046187,2,left
8.138,0.8685492108946198,0.2597987425413714,0.2174770121846933,2.258339633373153,-1.0228471120486875,-3.7316991469909735,-1.5385521685621846,-2.508219662209534,-1.7363394349997592,2,left
8.138,0.8626403809452737,0.26329440105897645,0.22025156590591516,2.294923689559675,-1.1143619173582282,-3.706143738565272,-1.507325745435589,-2.5034761092287567,-1.7837984461252998,2,left
8.142999999999999,0.856620974130945,0.26697033522095853,0.22300338938481123,2.3305089528356753,-1.205195600860429,-3.68012658374143,-1.4758924349296991,-2.498474238690523,-1.8312107418224293,2,left
8.144,0.8504967622636144,0.27082198098210225,0.22572846549642087,2.3650851227683245,-1.295304709513124,-3.6536401485925163,-1.4442669637201866,-2.4932348196337695,-1.8785560933377503,2,left
8.148,0.8442735591484458,0.27484468481912816,0.22842277538899994,2.3986424968969002,-1.3846465148911944,-3.6266766054100623,-1.4124639689133687,-2.487778740385878,-1.9258142323018133,2,left
8.148,0.8379572086657273,0.27903370701111646,0.23108231085031833,2.4311719706860173,-1.473179027759159,-3.599227878731374,-1.3804979855187083,-2.4821269539823185,-1.9729648637122472,2,left
8.152999999999999,0.8315535728959136,0.2833842250631863,0.23370308637250192,2.462665040485236,-1.560861012847813,-3.571285693953971,-1.3483834338696992,-2.4763004212124664,-2.019987679657454,2,left
8.154,0.825068520343916,0.28789133729688976,0.2362811508556996,2.4931138095914283,-1.6476520040914833,-3.5428416284596853,-1.3161346069018123,-2.4703200512759738,-2.0668623739165817,2,left
8.158999999999999,0.8185079143232434,0.2925500666290129,0.238812598894064,2.522510997507332,-1.7335123205801353,-3.5138871651695407,-1.2837656571956997,-2.464206640033505,-2.113568657571188,2,left
8.16,0.8118776015640844,0.29735536455632927,0.2412935815864409,2.5508499524867476,-1.8184030834781355,-3.484413748449136,-1.2512905836934316,-2.457980805835137,-2.160086275763629,2,left
8.163,0.8051834011103377,0.3023021153578656,0.2437203168132801,2.578124667453834,-1.9022862341589093,-3.454412842282793,-1.218723217995154,-2.4516629229092914,-2.2063950257367932,2,left
8.164,0.7984310935683152,0.30738514051924476,0.24608909892264233,2.6043297993809333,-1.9851245538020659,-3.4238759906332725,-1.1860772101432124,-2.445273052294685,-2.2524747762893096,2,left
8.165,0.7916264107643399,0.31259920337763397,0.24839630777290622,2.629460692206337,-2.0668816846967775,-3.392794879902372,-1.1533660138426023,-2.438830870405169,-2.2983054887160774,2,left
8.166,0.7847750258583234,0.31793901398280183,0.2506384170897951,2.653513403370316,-2.147522153492303,-3.3611614034062067,-1.1206028712769742,-2.4323555958556695,-2.3438672389846786,2,left
8.169,0.7778825439464042,0.3233992341688384,0.2528120021091231,2.6764847340446987,-2.227011396633554,-3.3289677277774223,-1.0878007980583306,-2.425865916146682,-2.389140240323922,2,left
8.17,0.7709544931757553,0.32897448282764413,0.25491374648796106,2.698372263128175,-2.3053157882164923,-3.296206361205048,-1.0549725690589884,-2.41937991634324,-2.4341048650813564,2,left
8.175,0.7639963163936009,0.3346593413683232,0.2569404484733524,2.71917438495663,-2.3824026703820254,-3.2628702233502227,-1.0221307056636066,-2.4129150113455613,-2.4787416650245233,2,left
8.177,0.7570133633526974,0.34044835934266954,0.258889026323782,2.73889035007573,-2.4582403857991797,-3.2289527164201646,-0.9892874645998313,-2.4064878823790856,-2.5230313898335233,2,left
8.177,0.7500108834898123,0.34633606021952884,0.2607565229879129,2.757520307341738,-2.5327983107686887,-3.194447796243376,-0.9564548282954016,-2.400114417793024,-2.566955003850287,2,left
8.179,0.7429940192874165,0.3523169472929312,0.2625401100574878,2.775065345014464,-2.6060468869100424,-3.1593500418331573,-0.9236444966673986,-2.3938096581488892,-2.6104937012127474,2,left
8.18,0.7359678002278206,0.3583855097042097,0.26423709102522264,2.7915275291020865,-2.6779576499560527,-3.1236547222791082,-0.8908678802493127,-2.3875877455805696,-2.6536289195010982,2,left
8.184,0.7289371373497466,0.3645362285509957,0.26584490389157706,2.8069099382926126,-2.748503255191558,-3.087357860442338,-0.8581360945616371,-2.3814618774076757,-2.6963423520222762,2,left
8.185,0.7219068184142895,0.37076358305247065,0.26736112317453464,2.8212166954025895,-2.8176574996337087,-3.050456293282683,-0.825459955631753,-2.3754442639840776,-2.7386159588577095,2,left
8.19,0.7148815036796518,0.37706205674102483,0.2687834613831968,2.834452995390363,-2.885395341160362,-3.01294772871539,-0.7928499765689746,-2.369546090763784,-2.7804319767982055,2,left
8.191,0.7078657222738077,0.3834261436530586,0.27010977001841574,2.846625129978089,-2.9516929147891817,-2.974830798892983,-0.7603163651007477,-2.3637774845665964,-2.8217729282886435,2,left
8.193999999999999,0.7008638691431708,0.3898503544946154,0.27133804016106977,2.857740508923594,-3.016527546306054,-2.936105109806297,-0.7278690219761531,-2.3581474840262713,-2.8626216295038707,2,left
8.195,0.6938802025441609,0.39632922276044097,0.27246640270085737,2.8678076779801427,-3.0798777634373637,-2.896771287096928,-0.6955175401430587,-2.3526640142042696,-2.9029611976759004,2,left
8.199,0.6869188420332588,0.4028573107879739,0.273493128248167,2.876836333579078,-3.141723304756527,-2.8568310179716008,-0.663271204605479,-2.347333865352542,-2.9427750577911267,2,left
8.2,0.6799837669004009,0.4094292157311796,0.2744166267629758,2.884837334267297,-3.2020451265110026,-2.816287089107199,-0.6311389928679527,-2.3421626758091914,-2.9820469487748684,2,left
8.204,0.6730788149826838,0.41603957544368414,0.2752354469303893,2.891822708928492,-3.2608254075517094,-2.7751434204334724,-0.5991295758740197,-2.3371549190112786,-3.0207609292791004,2,left
8.204,0.6662076817925566,0.42268307426611434,0.2759482753122483,2.8978056618141226,-3.318047552542487,-2.7334050946786883,-0.5672513193461811,-2.332313894609469,-3.058901383187699,2,left
8.21,0.6593739198964195,0.4293544487173228,0.2765539353063845,2.902800574407132,-3.373696193622844,-2.6910783825617592,-0.5355122854350558,-2.327641723669671,-3.096453024951994,2,left
8.211,0.6525809384829306,0.43604849309149246,0.27705138594628703,2.906823004138502,-3.427757190692821,-2.64817076351267,-0.503920234585795,-2.3231393479472953,-3.1334009048678055,2,left
8.214,0.6458320030638304,0.4427600649628084,0.27743972057151106,2.9098896799738605,-3.480217630484317,-2.604690941801312,-0.4724826275301955,-2.3188065332202217,-3.1697304144034955,2,left
8.215,0.6391302352551014,0.44948409059776995,0.2777181653938806,2.912018494884529,-3.531065824578714,-2.560648857953146,-0.4412066273133497,-2.3146418766670673,-3.205427291686889,2,left
8.218,0.6324786125946229,0.45621557027292964,0.27788607797911447,2.913228495214601,-3.5802913065260746,-2.5160556953284474,-0.41009910126409443,-2.3106428182778105,-3.240477627257165,2,left
8.219,0.6258799683632401,0.4629495834925996,0.2779429456604564,2.9135398669528962,-3.6278848282165908,-2.4709238817402612,-0.3791666228189604,-2.3068056562843227,-3.2748678701860543,2,left
8.222999999999999,0.6193369913861708,0.4696812940976385,0.2778883839022509,2.91297391891595,-3.6738383556503384,-2.4252670859845518,-0.34841547310979093,-2.303125566598841,-3.308584834670864,2,left
8.224,0.6128522257994985,0.4764059552541722,0.2777221346371783,2.911553062845558,-3.7181450642467273,-2.379100209154486,-0.3178516422256794,-2.299596626248885,-3.3416157071999866,2,left
8.231,0.6064280707736456,0.4831189143100241,0.27744406460803755,2.909300790421816,-3.7607993338303425,-2.3324393706092184,-0.2874808300603785,-2.296211840797586,-3.373948054389657,2,left
8.232000000000001,0.600066780193044,0.48981561750638897,0.2770541637497687,2.9062416471900736,-3.8017967434251982,-2.285301888466053,-0.2573084466568549,-2.292963175738835,-3.405569831588801,2,left
8.232999999999999,0.5937704622967717,0.4964916145335007,0.276552543647431,2.902401203397774,-3.8411340659846513,-2.237706254483392,-0.2273396119982977,-2.2898415917963533,-3.4364693923041894,2,left
8.232999999999999,0.5875410792858328,0.5031425629224835,0.2759394361002225,2.897806021734765,-3.8788092631795084,-2.189672103200464,-0.1975791553809377,-2.28683708375238,-3.4666354982829635,2,left
8.234,0.5813804468993908,0.5097642322704955,0.2752151918115684,2.892483621968345,-3.9148214803620944,-2.1412201751984594,-0.16803161483849066,-2.2839387218852614,-3.4960573297038553,2,left
8.24,0.5752902339588865,0.5163525082996513,0.274380279213923,2.8864624424620646,-3.9491710418192856,-2.0923722743463835,-0.13870123727411607,-2.2811346947917794,-3.5247244947131664,2,left
8.242,0.5692719618784141,0.5229033967504263,0.27343528342636764,2.8797717985651516,-3.9818594464227255,-2.043151218893683,-0.10959197977088726,-2.278412352674192,-3.552627037752657,2,left
8.243,0.5633270041404491,0.5294130271100549,0.272380905332943,2.8724418378573295,-4.012889363779694,-1.9935807862705066,-0.08070751221849143,-2.2757582507190826,-3.5797554465080417,2,left
8.244,0.5574565857360826,0.535877656178797,0.27121796076016047,2.8645034922886183,-4.04226463093666,-1.9436856516089434,-0.05205122120900881,-2.273158192499183,-3.606100657517782,2,left
8.245,0.5516617825679174,0.5422936714814605,0.2699473797265921,2.855988427535986,-4.069990249449611,-1.89349132076567,-0.02362621511815552,-2.270597273390315,-3.631654060522329,2,left
8.247,0.5459435208117854,0.5486575945360397,0.2685702057379254,2.846928990408388,-4.096072382210754,-1.8430240600080774,0.004564669710979995,-2.268059923995797,-3.6564075016317115,2,left
8.248,0.5403025762327183,0.5549660839939357,0.26708759510301894,2.837358155414156,-4.120518349183244,-1.792310825293164,0.03251886176402194,-2.265529953570814,-3.680353285387143,2,left
8.252,0.5347395734541213,0.5612159386668286,0.26550081624462696,2.827309471318879,-4.143336621424044,-1.741379193299491,0.06023404621286511,-2.2629905934393646,-3.7034841757900394,2,left
8.253,0.5292549851862346,0.5674041004546221,0.26381124897400926,2.816817008008834,-4.164536813190047,-1.6902572949890393,0.08770815591568508,-2.2604245403964507,-3.7257933963695367,2,left
8.257,0.5238491314278735,0.5735276571865188,0.26202038369660985,2.8059153036893725,-4.184129672151046,-1.6389737517069773,0.11493936163970057,-2.25781400008822,-3.7472746293572787,2,left
8.258,0.5185221786625175,0.579583845382646,0.2601298205173384,2.794639312389477,-4.202127067775153,-1.5875576136730825,0.14192606158630186,-2.255140730362717,-3.767922014035925,2,left
8.263,0.5132741390752943,0.5855700529374824,0.25814126821647837,2.7830243517424145,-4.218541977947568,-1.5360383007180218,0.1686668702974672,-2.2523860845838377,-3.7877301443254368,2,left
8.265,0.508104869821086,0.591483821719426,0.25605654306916653,2.7711060510112473,-4.2333884738790175,-1.4844455451172285,0.19516060702169166,-2.2495310549009515,-3.806694065668848,2,left
8.267999999999999,0.5030140723762411,0.5973228500732221,0.25387756748277324,2.758920299326881,-4.246681703355601,-1.4328093363747343,0.2214062836169511,-2.2465563154664676,-3.824809271276816,2,left
8.269,0.4980012920068704,0.6030849952036273,0.25160636842818307,2.746503194105366,-4.258437872377214,-1.3811598678090178,0.24740309206751807,-2.2434422655933908,-3.8420716977878553,2,left
8.274,0.4930659173856051,0.6087682754101315,0.24924507564316856,2.733890989610289,-4.268674225227243,-1.3295274847927239,0.27315039169073624,-2.2401690728446253,-3.8584777203987177,2,left
8.275,0.48820718038797833,0.6143708721352225,0.24679591958814945,2.721120045625317,-4.277409023011756,-1.2779426344979814,0.29864769610914943,-2.236716716045436,-3.874024147516943,2,left
8.277000000000001,0.4834241561006078,0.6198911317834785,0.24426122913596335,2.7082267762013177,-4.284661520701985,-1.2264358169990097,0.3238946600626652,-2.233065028210087,-3.8887082149851766,2,left
8.277999999999999,0.4787157630749253,0.625327567265317,0.24164342897850447,2.695247598441888,-4.290451942709565,-1.1750375375837516,0.3488910661347175,-2.2291937393731955,-3.90252757992437,2,left
8.281,0.47408076386109166,0.6306788592179099,0.2389450367365748,2.6822188812906886,-4.294801457019639,-1.1237782601264104,0.37363681146567346,-2.2250825193158583,-3.9154803142405163,2,left
8.282,0.4695177658578594,0.6359438568578119,0.23616865976652388,2.6691768942836225,-4.29773214790274,-1.0726883613729907,0.39813189452601366,-2.2207110201760027,-3.927564897837105,2,left
8.287,0.46502522251606604,0.6411215784254294,0.23331699166708791,2.6561577562286534,-4.299266987222098,-1.0217980859922566,0.42237640202109106,-2.2160589189318056,-3.938780211572986,2,left
8.289,0.4606014349341488,0.6462112111900297,0.23039280850052862,2.6431973837759095,-4.2994298043489305,-0.9711375022449168,0.4463704959985592,-2.2111059597463183,-3.9491255300028536,2,left
8.291,0.45624455388167034,0.6512121109947941,0.22739896475192586,2.630331439840684,-4.298245254694184,-0.9207364581243338,0.4701144012288355,-2.2058319961607054,-3.958600513935062,2,left
8.292,0.4519525822815895,0.65612380133287,0.2243383890563132,2.6175952818420147,-4.295738786861186,-0.8706245378226298,0.4936083929282495,-2.200217033122682,-3.9672052028389895,2,left
8.297,0.4477233781747962,0.6609459719557287,0.22121407972384252,2.6050239097196846,-4.291936608419732,-0.8208310183767173,0.5168527848938044,-2.194241268835878,-3.9749400071316665,2,left
8.298,0.4435546581821218,0.6656784770241458,0.21802910009050333,2.592651913692753,-4.2868656502982425,-0.7713848263495301,0.539847918117763,-2.1878851364149408,-3.9818057003708955,2,left
8.301,0.43944400147078727,0.670321332819945,0.2147865737184945,2.5805134217231185,-4.280553529786872,-0.7223144944025599,0.5625941499319901,-2.181129345323914,-3.987803411380029,2,left
8.302,0.43538885422505125,0.674874715042086,0.21148967946612413,2.5686420466480624,-4.273028512140693,-0.673648117616716,0.5850918436434701,-2.1739549225429817,-3.992934616329386,2,left
8.302999999999999,0.43138653461527243,0.6793389557131446,0.20814164644231548,2.557070832946309,-4.264319470768429,-0.6254133094195248,0.6073413584636662,-2.166343253351013,-3.9972011308008932,2,left
8.308,0.42743423825600946,0.6837145397242482,0.20474574885866081,2.5458322031028047,-4.254455845988702,-0.5776371569777644,0.6293430394458733,-2.1582761215787785,-4.000605101862338,2,left
8.31,0.42352904414236375,0.6880021010499473,0.2013053007947092,2.5349579035381824,-4.243467602332209,-0.5303461759157863,0.6510972072318026,-2.149735749217928,-4.003149000172855,2,left
8.311,0.4196679210546698,0.6922024186668704,0.19782365089602175,2.5244789501129117,-4.231385184406316,-0.48356626429483796,0.6726041475659561,-2.1407048353261153,-4.004835612134648,2,left
8.312000000000001,0.41584773442390727,0.6963164122081775,0.1943041770237897,2.514425573432913,-4.218239471542414,-0.43732265615911814,0.6938641006234392,-2.131166594198777,-4.005668032101187,2,left
8.312000000000001,0.4120652536519278,0.7003451373805029,0.19075028086965906,2.504827164572982,-4.204061731816037,-0.39163987562006825,0.7148772502137049,-2.121104792782991,-4.0056496546492015,2,left
8.318,0.40831715988059675,0.7042897811650716,0.18716538254567033,2.4957122220513277,-4.188883576233824,-0.34654169282097513,0.7356437129220139,-2.1105037873074353,-4.004784166919315,2,left
8.318,0.40460005420194217,0.7081516568224988,0.18355291515970926,2.487108300673915,-4.172736913671113,-0.3020510827563952,0.7561635272496857,-2.0993485591010144,-4.0030755410277195,2,left
8.321,0.4009104662975239,0.7119321987203482,0.17991631938770475,2.4790419624801094,-4.155653906768147,-0.2581901872581397,0.7764366428135043,-2.087624749571212,-4.0005280265488565,2,left
8.322000000000001,0.39724486349072946,0.7156329570015025,0.17625903805165619,2.4715387298066585,-4.137666928782763,-0.21498028009213507,0.7964629096639376,-2.075318694311685,-3.9971461430666104,2,left
8.326,0.39359966019185916,0.7192555921085498,0.17258451070888775,2.464623040445357,-4.118808521353274,-0.17244173503839644,0.8162420677811175,-2.0624174563070174,-3.992934672789125,2,left
8.327,0.38997122771234094,0.7228018691753233,0.1688961682553815,2.4583182048712735,-4.099111353122522,-0.13059399682815948,0.8357737368068185,-2.048908858200936,-3.9878986532199328,2,left
8.331,0.38635590442042056,0.7262736522938718,0.16519742754570715,2.452646365520038,-4.078608179171508,-0.08945555481408417,0.8550574060699652,-2.0347815135925935,-3.9820433698756905,2,left
8.332,0.3827500062061372,0.7296728986644365,0.16149168603286582,2.4476284580943735,-4.0573318012084885,-0.04904391925136992,0.8740924249624882,-2.020024857323844,-3.9753743490384377,2,left
8.336,0.3791498372181173,0.7330016526358191,0.15778231643133783,2.443284174881811,-4.035315028457032,-0.009375600069605026,0.8928779937216375,-2.004629174718673,-3.9678973505279105,2,left
8.337,0.37555170082798006,0.7362620396428562,0.15407266140560358,2.439631930067331,-4.0125906391842,0.029533911982791983,0.9114131546741467,-1.988585629734175,-3.9596183604771227,2,left
8.34,0.3719519107699286,0.739456260046979,0.15036602828591478,2.436688827026565,-3.989191342807804,0.06767016193759515,0.9296967839969302,-1.9718862919806708,-3.9505435840920446,2,left
8.342,0.3683468023953408,0.7425865828846359,0.14666568381496786,2.4344706275871166,-3.965149742519557,0.10501974506318136,0.9477275840482776,-1.95452416256671,-3.9406794383739325,2,left
8.347000000000001,0.36473274397733724,0.7456553395262431,0.1429748489349976,2.4329917232475453,-3.9404982983589196,0.14157031929007363,0.9655040763227877,-1.93649319872286,-3.930032544780526,2,left
8.347999999999999,0.3611061479981969,0.7486649172462206,0.13929669363394656,2.432265108345594,-3.9152692906704747,0.1773106157151436,0.9830245950825653,-1.9177883371562892,-3.9186097218000677,2,left
8.352,0.35746348235088987,0.7516177527037265,0.13563433187794996,2.4323023551693135,-3.8894947838758522,0.21223044729174217,1.000287281716475,-1.898405516086258,-3.9064179774098102,2,left
8.353,0.3538012813843065,0.7545163253340087,0.1319908166626571,2.433113591006872,-3.8632065904894444,0.2463207158107345,1.0172900798785134,-1.8783416959087056,-3.8934645013884523,2,left
8.355,0.3501161567208363,0.7573631506519957,0.1283691352186187,2.4347074771329806,-3.836436235305508,0.2795734172750888,1.0340307314556303,-1.8575948784361904,-3.8797566574496956,2,left
8.356,0.34640480777502736,0.7601607734734819,0.12477220440699716,2.437091189732065,-3.809214919682683,0.31198164576831566,1.0505067734145839,-1.8361641246574971,-3.865301975161918,2,left
8.36,0.3426640319030979,0.7629117610648344,0.12120286634070417,2.4402704027605333,-3.7815734858504713,0.34353959591467265,1.0667155355766698,-1.8140495709592674,-3.8501081416167664,2,left
8.361,0.33889073411625004,0.7656186962389155,0.11766388426289064,2.4442492727527374,-3.7535423811608393,0.37424256402664474,1.0826541393684106,-1.7912524437500528,-3.834182992807306,2,left
8.366,0.33508193629818034,0.7682841704223742,0.1141579387099649,2.4490304255774804,-3.725151622206813,0.4040869480327892,1.0983194975955322,-1.7677750724252228,-3.8175345046742186,2,left
8.367,0.3312347858792103,0.7709107767263781,0.11068762397897905,2.454614945154219,-3.6964307587287246,0.4330702462765925,1.1137083152867817,-1.7436209006092045,-3.8001707837764216,2,left
8.37,0.32734656393348205,0.7735011030575106,0.10725544490924152,2.461002364140395,-3.6674088372276454,0.46119105527453197,1.1288170916348716,-1.7187944956210033,-3.78210005756902,2,left
8.371,0.32341469267875184,0.7760577253060612,0.10386381397915478,2.4681906566036265,-3.6381143642045197,0.48844906651907205,1.1436421229685592,-1.6933015561641946,-3.763330664412694,2,left
8.371,0.3194367423688583,0.778583200645287,0.10051504871544192,2.4761762326948125,-3.608575268942542,0.5148450624098547,1.1581795065225953,-1.6671489183435586,-3.743871043694424,2,left
8.375,0.31541043757757486,0.7810800609724052,0.0972113694119729,2.48495393534049,-3.5788188657494735,0.5403809113938648,1.1724251446789853,-1.640344560165794,-3.723729726580676,2,left
8.376,0.3113336628814699,0.7835508065246747,0.09395489715413023,2.494517038975079,-3.5488718155758017,0.5650595623928785,1.186374749444674,-1.61289760462265,-3.7029153277789164,2,left
8.38,0.3072044679578164,0.7859978997082361,0.0907476521386231,2.5048572503354154,-3.518760086994106,0.588885038563145,1.200023847096423,-1.5848183213499816,-3.6814365384234713,2,left
8.38,0.3030210721167775,0.7884237591765253,0.0875915522704749,2.5159647113395045,-3.4885089168751424,0.6118624302753753,1.2133677830152985,-1.5561181267971873,-3.659302120056548,2,left
8.381,0.29878186828407116,0.7908307541893164,0.08448841201254098,2.5278280040688035,-3.458142771727039,0.633997886922712,1.226401726750831,-1.5268095828282027,-3.636520899644634,2,left
8.385,0.29448542644768144,0.7932211992795317,0.08143994145657717,2.5404341578728595,-3.427685311014306,0.6552986070074983,1.2391206773540488,-1.4969063936734075,-3.6131017655685986,2,left
8.386000000000001,0.29013049658436507,0.7955973492556992,0.07844774557620168,2.5537686586200365,-3.3971593534221727,0.6757728261096406,1.2515194690177096,-1.466423401150028,-3.5890536645239233,2,left
8.391,0.28571601108434574,0.7979613945686137,0.07551332361500486,2.5678154601251215,-3.3665868464000113,0.6954298026148746,1.263592777061158,-1.4353765780668681,-3.5643855992656386,2,left
8.392000000000001,0.28124108669087333,0.8003154570671885,0.07263806856171418,2.5825569977894562,-3.3359888389665584,0.7142798012332658,1.2753351242963396,-1.4037830197274985,-3.5391066271307086,2,left
8.394,0.27670502596672913,0.8026615861621982,0.06982326666776031,2.597974204491863,-3.305385457689293,0.7323340743667789,1.2867408878105806,-1.3716609334443621,-3.513225859268796,2,left
8.395,0.27210731829563206,0.8050017554104957,0.06707009696942125,2.6140465287706776,-3.2747958857501818,0.7496048413824081,1.2978043062007987,-1.3390296259746544,-3.486752460510571,2,left
8.399,0.26744764042361296,0.8073378595269904,0.06437963078777158,2.630751955339202,-3.244238345009945,0.766105265845045,1.3085194872928685,-1.3059094887872489,-3.4596956498009575,2,left
8.401,0.2627258565429442,0.8096717118267078,0.061752831195054494,2.648067027978814,-3.213730080982959,0.7818494307619718,1.3188804163788979,-1.272321981068434,-3.4320647011229832,2,left
8.404,0.257942017918627,0.8120050420945055,0.05919055245349749,2.6659668748558674,-3.1832873506349664,0.7968523118886275,1.3288809650041802,-1.238289610372767,-3.403868944836216,2,left
8.405,0.2530963620547682,0.8143394948750173,0.0566935394479632,2.684425236310314,-3.152925412915842,0.8111297491430752,1.3385149003345937,-1.20383591082394,-3.3751177693520646,2,left
8.408999999999999,0.24818931139613548,0.8166766281691316,0.054262427143924,2.7034144951657444,-3.1226585219398117,0.824698416174432,1.3477758951341987,-1.1689854187692257,-3.3458206230666003,2,left
8.411,0.24322147155967036,0.8190179125158867,0.05189774010687394,2.7229057096122022,-3.0924999227256986,0.8375757881283953,1.3566575383817465,-1.13376364578978,-3.3159870164699083,2,left
8.414,0.23819362909101888,0.8213647304319299,0.049599892119299126,2.742868648714746,-3.0624618494100115,0.8497801076509178,1.3651533465537669,-1.0981970489678845,-3.2856265243494076,2,left
8.415,0.23310674873987036,0.8237183761764925,0.0473691859266375,2.7632718306022435,-3.032555525845951,0.8613303491690469,1.3732567756008178,-1.0623129983110655,-3.2547487880029893,2,left
8.418,0.2279619702438651,0.8260800558082273,0.045205813135536684,2.78408256339233,-3.002791168501723,0.8722461814859597,1.3809612336424044,-1.0261397412319615,-3.223363517376287,2,left
8.42,0.22276060460473632,0.8284508875000748,0.04310985427943582,2.8052669889098043,-2.973177991571893,0.8825479287252963,1.3882600944049532,-0.9897063639818275,-3.1914804930368947,2,left
8.424,0.2175041298341653,0.8308319020790647,0.04108127906016322,2.8267901292570143,-2.9437242142158904,0.8922565296580155,1.395146711426114,-0.9530427499346504,-3.15910956789683,2,left
8.425,0.21219418614337923,0.833224043760333,0.039119946769219385,2.8486159362959365,-2.9144370698381734,0.9013934954431704,1.4016144330474998,-0.9161795346180214,-3.126260668593126,2,left
8.431000000000001,0.20683257055130008,0.8356281710494995,0.037225606887271064,2.87070734410273,-2.8853228173250116,0.9099808658122476,1.4076566182168242,-0.8791480573861689,-3.0929437964349633,2,left
8.433,0.20142123089100883,0.8380450577943738,0.03539789985567401,2.8930263244565255,-2.8563867541532764,0.9180411637250055,1.4132666531192026,-0.8419803096298911,-3.0591690278243777,2,left
8.433,0.195962259203839,0.8404753943738165,0.03363635801156603,2.915533945425059,-2.8276332312871286,0.9255973485231066,1.4184379686561837,-0.8047088794175574,-3.0249465140561997,2,left
8.434,0.19045788452349036,0.8429197890172876,0.03194040667872671,2.9381904331105395,-2.7990656697789698,0.9326727676062604,1.4231640587898544,-0.7673668924608664,-2.9902864804015326,2,left
8.437999999999999,0.18491046506579498,0.8453787692533236,0.03030936540901498,2.9609552366197764,-2.7706865789915494,0.9392911066540839,1.4274384997681206,-0.7299879492986584,-2.9551992243777687,2,left
8.437999999999999,0.17932247985033342,0.84785278348933,0.028742449372532376,2.9837870963231476,-2.742497576358629,0.9454763384154349,1.431254970220387,-0.692606058699168,-2.9196951131441025,2,left
8.44,0.1736965197847126,0.8503422027283173,0.027238770896441337,3.0066441154673984,-2.714499408602137,0.9512526700855971,1.4346072719835015,-0.6552555678178348,-2.883784580146467,2,left
8.443,0.16803527824061737,0.8528473224297325,0.025797341150287284,3.0294838352075852,-2.6866919743242996,0.956644489290378,1.4374893512859779,-0.6179710906141606,-2.8474781214698304,2,left
8.443999999999999,0.1623415411515664,0.8553683645217444,0.024417071969995277,3.052263313123662,-2.6590743478937693,0.9616763086949441,1.4398953197891144,-0.5807874365680268,-2.8107862925408065,2,left
8.448,0.15661817667291641,0.857905479573003,0.023096777806312932,3.074939205287281,-2.6316448045453127,0.9663727092540361,1.4418194751103715,-0.5437395411990436,-2.773719705636156,2,left
8.449,0.15086812445747702,0.8604587491338279,0.021835177779919935,3.097467851846597,-2.604400846617106,0.9707582821702295,1.443256320683579,-0.5068623989262162,-2.736289028316368,2,left
8.449,0.14509438460216761,0.8630281882586402,0.02063089782684331,3.1198053656080647,-2.5773392308698253,0.9748575698814768,1.4442005849372546,-0.47019099826857086,-2.698504982716199,2,left
8.453,0.13930000631223882,0.8656137482222068,0.01948247292331318,3.141907722214375,-2.550455996867581,0.9786950068582901,1.4446472397965475,-0.43376025928038675,-2.660378345585698,2,left
8.454,0.13348807632416307,0.8682153194428889,0.018388349385417384,3.163730850028618,-2.5237464964208804,0.9822948612456435,1.4445915185129252,-0.3976049731151722,-2.6219199489742246,2,left
8.458,0.1276617071371451,0.8708327346276469,0.01734688724305477,3.185230718322836,-2.497205424072724,0.9856811781282379,1.444028932824305,-0.36175974361311186,-2.5831406814489295,2,left
8.459,0.12182402512000311,0.8734657721553318,0.016356362690118437,3.2063634232480243,-2.470826848574125,0.9888777247369347,1.4429552894469018,-0.3262589308074055,-2.5440514897381985,2,left
8.464,0.11597815857420257,0.8761141597153559,0.0154149706158149,3.2270852715504335,-2.444604245276241,0.9919079376578722,1.4413667058986277,-0.2911365962457062,-2.5046633806895997,2,left
8.465,0.11012722584270554,0.8787775782174376,0.014520827226081343,3.2473528620958496,-2.4185305293628625,0.9947948720540419,1.4392596256524088,-0.2564264500237607,-2.464987423430961,2,left
8.468,0.10427432355876047,0.8814556659848978,0.01367197276716292,3.2671231652624613,-2.3925980898474526,0.9975611529085603,1.4366308326163342,-0.22216179942933892,-2.4250347516222988,2,left
8.468,0.0984225151289971,0.8841480232397495,0.012866374363341896,3.286353600261758,-2.3667988242594116,1.0002289282983896,1.433477464936064,-0.18837549909562903,-2.38481656568548,2,left
8.478,0.09257481954322538,0.8868542168834729,0.012101928977166741,3.3050021104455807,-2.34112417394463,1.0028198247068503,1.429797028113436,-0.15509990256445683,-2.344344134897658,2,left
8.479,0.08673420060082142,0.8895737855723409,0.011376466493962012,3.3230272366560305,-2.3155651599058227,1.0053549043829184,1.4255874074337131,-0.12236681516096672,-2.3036287992337305,2,left
8.479,0.08090355663977623,0.8923062450789239,0.010687752923546793,3.3403881886733986,-2.2901124191085107,1.0078546247550204,1.4208468796924063,-0.09020744808277495,-2.262681970842317,2,left
8.48,0.07508571084899138,0.8950510939223587,0.010033493702498526,3.3570449148155803,-2.264756241178878,1.0103387999068116,1.4155741242110969,-0.05865237360807177,-2.221515135039002,2,left
8.482000000000001,0.06928340223766158,0.8978078192416784,0.00941133707254685,3.3729581697406856,-2.2394866054200513,1.012826564122267,1.4097682331301622,-0.027731481328706335,-2.180139850699914,2,left
8.482999999999999,0.06349927732655469,0.900575902880216,0.00881887750688685,3.3880895805026237,-2.214293218073673,1.0153363375073046,1.4034287209647816,0.002526064684065148,-2.138567749938031,2,left
8.488,0.05773588261394356,0.9033548276432459,0.008253659157561278,3.4024017109074274,-2.189165549753894,1.0178857936951247,1.3965555334090727,0.032091867871753055,-2.096810536943973,2,left
8.488999999999999,0.05199565785522661,0.9061440836836462,0.0077131793029841965,3.415858124215957,-2.1640928729811764,1.0204918296424446,1.3891490553716834,0.06093834042749429,-2.0548799858724562,2,left
8.492,0.04628093018093999,0.9089431749620912,0.007194891782201342,3.4284234442363637,-2.1390642997435116,1.0231705375238824,1.381210118224621,0.08903874386845936,-2.0127879376549984,2,left
8.492,0.04059390906243285,0.9117516257217508,0.006696210409872712,3.440063414847349,-2.1140688190128443,1.0259371787318472,1.3727400062455797,0.1163672290266818,-1.9705462956189481,2,left
8.498,0.03493668211776091,0.91456898691361,0.0062145123747372995,3.4507449579908047,-2.089095334144646,1.0288061599894562,1.3637404622324876,0.14289887554112057,-1.9281670197924095,2,left
8.499,0.029311211734132394,0.9173948425058421,0.0057471416350351415,3.4604362301698552,-2.0641327000887224,1.031791011584211,1.354213692267472,0.1686097309316248,-1.885662119774164,2,left
8.503,0.023719332470051584,0.9202288156084818,0.005291412334800324,3.4691066774856685,-2.0391697603394188,1.0349043677304066,1.3441623696059133,0.19347684933325446,-1.8430436460472708,2,left
8.503,0.018162749190708278,0.9230705743436942,0.004844612273399042,3.4767270892436537,-2.0141953835534636,1.0381579490685475,1.3335896376647405,0.2174783299671241,-1.8003236796146236,2,left
8.508,0.012643035883672275,0.9259198373928478,0.004404006466491301,3.483269650156819,-1.98919849976371,1.0415625473103718,1.3224991120826037,0.24059335542158028,-1.75751431983439,2,left
8.509,0.007161635099776819,0.9287763791554181,0.0039668408378491634,3.4887079911711316,-1.9641681361170387,1.045128012038452,1.3108948818334127,0.26280222975681744,-1.714627670398074,2,left
8.51,0.001719857968233834,0.9316400344641209,0.003530346076000444,3.493017238934724,-1.9390934520646603,1.0488632396697426,1.298781509425008,0.2840864161521265,-1.6716758237194225,2,left
8.511000000000001,-0.0036811152555880433,0.9345107028153438,0.0030917416786154675,3.496174063929663,-1.913963773932978,1.0527761645928768,1.286164030306442,0.30442857328786077,-1.6286708445885179,2,left
8.512,-0.00904023414198464,0.9373883520870072,0.002648240195454033,3.498156727281871,-1.888768628803083,1.0568737524894747,1.273047951657654,0.3238125893601789,-1.5856247542709274,2,left
8.517000000000001,-0.014356576565098715,0.9402730217227713,0.0021970516704978853,3.4989451262023588,-1.8634977776233232,1.0611619958299319,1.259439250682074,0.34222361291539455,-1.5425495159058416,2,left
8.517999999999999,-0.019629346730890476,0.9431648253671009,0.0017353882752562633,3.498520837713831,-1.8381412474616963,1.0656459114332981,1.2453443724280588,0.35964808021262495,-1.4994570214705987,2,left
8.517999999999999,-0.02485787277485445,0.946063952944687,0.0012604691172506683,3.4968671597809124,-1.8126893627730807,1.070329539798897,1.2307702271118481,0.37607373911210756,-1.4563590802531163,2,left
8.521,-0.03004160394549854,0.9489706721868753,0.000769525198726034,3.493969148663016,-1.7871327755385769,1.0752159458165145,1.2157241869029576,0.3914896695420448,-1.4132674087085122,2,left
8.522,-0.035180107384300774,0.9518853296138825,0.0002598044906046869,3.4898136516011813,-1.761462494151507,1.0803072205639188,1.2002140821315366,0.40588630059400566,-1.370193621576144,2,left
8.527000000000001,-0.040273064505478774,0.9548083509846281,-0.00027142291891345873,3.484389334479149,-1.7356699109559082,1.08560448408352,1.184248196875835,0.4192554242940487,-1.3271492241332838,2,left
8.527999999999999,-0.045320266970344414,0.9577402412248703,-0.0008268596378823059,3.477686704391157,-1.7097468283605708,1.091107889131936,1.167835263886576,0.431590206093831,-1.284145605461667,2,left
8.531,-0.05032161224210208,0.9606815838378868,-0.0014091757716178583,3.469698127104489,-1.6836854834548642,1.0968166259170953,1.150984458803697,0.4428851921230423,-1.2411940326031947,2,left
8.532,-0.05527709869826312,0.963633039791799,-0.0020210037222940505,3.4604178394011833,-1.657478571052235,1.1027289278380916,1.1337053936196066,0.4531363132415571,-1.1983056454811631,2,left
8.536,-0.06018682027090386,0.9665953458664471,-0.002664932984885212,3.4498419562796196,-1.6311192650868918,1.1088420782436004,1.1160081093418321,0.462340885926726,-1.155491452463503,2,left
8.537,-0.0650509605814969,0.9695693124322949,-0.0033435049272098963,3.4379684729930275,-1.604601238288791,1.115152418225253,1.0979030678066684,0.47049761002824597,-1.1127623264446684,2,left
8.541,-0.06986978653830056,0.9725558206265373,-0.00405920753656951,3.4247972618982474,-1.577918680061628,1.1216553554629465,1.0794011425942127,0.4776065634200523,-1.070129001322988,2,left
8.542,-0.0746436413709605,0.975555818890113,-0.00481447011539672,3.410330064084359,-1.551066312488092,1.1283453741396412,1.0605136089939684,0.48366919357567145,-1.0276020687505099,2,left
8.546,-0.07937293708775855,0.9785703188342277,-0.005611657913661803,3.3945704757470714,-1.5240394043861965,1.1352160459437683,1.041252132969029,0.4886883060904672,-0.9851919750326151,2,left
8.547,-0.08405814635309063,0.9816003904143702,-0.006453066696547653,3.3775239292710335,-1.4968337833400194,1.1422600421779125,1.021628759065715,0.49266805017120563,-0.942909018054948,2,left
8.551,-0.0886997937941616,0.9846471564019242,-0.007340917259959433,3.3591976689785135,-1.4694458456277046,1.1494691469929765,1.0016558972144332,0.4956139011103606,-0.9007633441155143,2,left
8.552,-0.09329844675539073,0.9877117861583785,-0.008277349919154771,3.3396007214991914,-1.441872563969075,1.15683427176755,0.9813463083664471,0.49753263975958784,-0.8587649445401403,2,left
8.555,-0.09785470552602646,0.9907954887347908,-0.009264419003340471,3.318743860712104,-1.4141114930146954,1.1643454706526977,0.960713088910216,0.49843232901381207,-0.8169236519598456,2,left
8.556000000000001,-0.10236919307106204,0.9938995053370412,-0.01030408739107324,3.2966395672071203,-1.3861607724976952,1.1719919573028619,0.939769653809951,0.4983222873144044,-0.7752491361290774,2,left
8.561,-0.10684254429816281,0.9970251012121648,-0.011398221120274271,3.273301982209672,-1.358019127969144,1.17976212281401,0.9185297184080738,0.497213059176979,-0.733750899164177,2,left
8.562000000000001,-0.11127539489413206,1.0001735570220365,-0.012548584105524563,3.2487468559088457,-1.3296858690372177,1.1876435548905864,0.897007278832332,0.4951163827464144,-0.692438270081902,2,left
8.565,-0.11566836976352822,1.0033461597790085,-0.01375683299462833,3.222991490125375,-1.301160885029862,1.195623058263208,0.8752165909474368,0.4920451543788053,-0.651320398518303,2,left
8.566,-0.12002207110054082,1.0065441934242514,-0.015024512195371695,3.1960546752525127,-1.2724446380001067,1.2036866763793976,0.8531721477902356,0.48801339024718376,-0.6104062475087635,2,left
8.57,-0.12433706612531356,1.0097689291337901,-0.016353049101908816,3.1679566213992953,-1.2435381529926368,1.211819714389971,0.8308886554266234,0.4830361849650148,-0.5697045852105406,2,left
8.571,-0.1286138745193213,1.0130216154403078,-0.017743749548237098,3.138718883662237,-1.2144430054896764,1.2200067634539657,0.8083810071676224,0.4771296672186735,-0.5292239754497062,2,left
8.575,-0.13285295560179927,1.0163034682609735,-0.019197793513686938,3.1083642814481283,-1.1851613059536952,1.2282317263852496,0.7856642560813384,0.4703109523973537,-0.48897276697497266,2,left
8.576,-0.13705469529873143,1.019615660921321,-0.020716231103016854,3.0769168117672527,-1.1556956813838983,1.2364778446641354,0.7627535857957418,0.46259809227516263,-0.448959081365282,2,left
8.577,-0.1412193929619887,1.0229593142588016,-0.022299978821261775,3.0444015564130886,-1.126049253802922,1.2447277268374914,0.7396642798812676,0.45401002214257463,-0.4091907998576189,2,left
8.58,-0.14534724809649022,1.0263354868769103,-0.023949816159363948,3.010844582941347,-1.0962256155896237,1.2529633783309349,0.7164116906320432,0.4445665064029565,-0.369675549936254,2,left
8.582,-0.1494383470555543,1.0297451656105818,-0.025666382501001075,2.9762728393580518,-1.0662288015733234,1.2611662326967623,0.6930112083586824,0.4342880839923952,-0.33042069284424963,2,left
8.585,-0.15349264977556001,1.0331892562624938,-0.02745017435521252,2.9407140424233207,-1.0360632578043407,1.2693171843212767,0.6694782320103853,0.4231960146334631,-0.2914333128598228,2,left
8.586,-0.1575099766329402,1.0366685746707114,-0.02930154291340156,2.9041965596835166,-1.0057338070031994,1.277396622587845,0.6458281414131963,0.41131222630993863,-0.25272020860679345,2,left
8.587,-0.16148999550706356,1.0401838381611275,-0.031220691923845294,2.86674928638666,-0.9752456111305784,1.2853844673554904,0.6220762711161641,0.398659264002019,-0.21428788635015264,2,left
8.59,-0.16543220912133014,1.0437356574243761,-0.03320767587466224,2.82840152031435,-0.9446041323119668,1.2932602053670936,0.5982378857778349,0.3852602396502085,-0.17614255516476485,2,left
8.591000000000001,-0.16933594272414448,1.047324528843421,-0.0352623984777145,2.7891828386058073,-0.9138150937907128,1.301002927064643,0.5743281570251693,0.3711387833137904,-0.13829012386600648,2,left
8.595,-0.17320033217133732,1.0509508272882506,-0.037384611448400516,2.7491229796018644,-0.8828844421424962,1.3085913634251367,0.5503621417166845,0.356318995487585,-0.1007361995919473,2,left
8.595,-0.17702431247836045,1.0546147993863222,-0.039573913577126404,2.708251730852949,-0.8518183111914552,1.316003922676,0.5263547615413734,0.3408254005385527,-0.06348608792750689,2,left
8.599,-0.18080660691575207,1.0583165572704762,-0.04182975008564161,2.666598823387476,-0.8206229876275715,1.323218726884927,0.5023207838847445,0.324682901221726,-0.026544794461857802,2,left
8.6,-0.18454571672252607,1.0620560728010433,-0.04415141225463395,2.6241938321256324,-0.7893048782364714,1.3302136484458993,0.4782748038931696,0.30791673423295046,0.010082972328795316,2,left
8.605,-0.18823991151039307,1.0658331722561725,-0.046538037299677974,2.5810660823212066,-0.7578704786524136,1.3369663464826316,0.4542312276676023,0.2905524267539796,0.04639279698005968,2,left
8.605,-0.19188722042861206,1.0696475314844975,-0.04898860846349396,2.5372445619118706,-0.7263263435448571,1.3434543031901178,0.4302042565176568,0.27261575394360404,0.08238055182593358,2,left
8.61,-0.19548542415639392,1.073498671518107,-0.05150195528531122,2.4927578396561567,-0.6946790581486592,1.3496548601343288,0.40620787220699905,0.2541326973267066,0.11804239077833334,2,left
8.611,-0.1990320477879667,1.0773859546507678,-0.05407675400461265,2.447633988933297,-0.6629352110476125,1.3555452545294098,0.38225582312101125,0.23512940403141427,0.1533747422038673,2,left
8.613999999999999,-0.20252435467475574,1.0813085809942242,-0.0567115280581884,2.4019005170801013,-0.631101368120719,1.3611026555109673,0.35836161128773597,0.2156321468228766,0.188374301001232,2,left
8.613999999999999,-0.20595934128852408,1.0852655855314723,-0.05940464863597165,2.3555843001371346,-0.5991840475602982,1.3663042004232098,0.33453848018319476,0.19566728488063007,0.22303801998167,2,left
8.619,-0.20933373316674073,1.089255835688809,-0.06215433527114018,2.3087115228746256,-0.5671896958707549,1.3711270311368118,0.31079940325230204,0.17526122526501284,0.257363100653982,2,left
8.62,-0.21264398199601375,1.0932780294486966,-0.06495865645331828,2.2613076239667818,-0.5351246647565694,1.375548330413421,0.28715707307676147,0.15444038501667706,0.29134698351463195,2,left
8.625,-0.21588626388176435,1.097330694023554,-0.06781553027012936,2.2133972461815143,-0.5029951888078344,1.3795453583316986,0.26362389112153517,0.13323115383190143,0.32498733794251805,2,left
8.626,-0.2190564788432824,1.1014121851055274,-0.07072272509783634,2.1650041914509757,-0.4708073638914393,1.3830954887886997,0.24021195799171674,0.11165985725513972,0.358282051797011,2,left
8.631,-0.22215025156335616,1.1055206866984892,-0.07367786037086879,2.1161513806867824,-0.438567126155803,1.386176246089248,0.21693306413191707,0.08975272032904963,0.3912292208168816,2,left
8.632,-0.22516293341090265,1.1096542115270698,-0.07667840746071192,2.066860818202342,-0.4062802315568685,1.3887653416347325,0.19379868090058436,0.06753583164112999,0.4238271379167526,2,left
8.633,-0.22808960574389672,1.1138106020053127,-0.07972169068888718,2.0171535606033135,-0.3739522358129043,1.3908407107214837,0.17081995195202732,0.04503510770505424,0.45607428247671716,2,left
8.634,-0.2309250844899266,1.1179875317365855,-0.08280488849012577,1.967049690005905,-0.3415884746955082,1.3923805494575276,0.14800768485929253,0.022276257613823097,0.48796930971976993,2,left
8.641,-0.2336639259938494,1.1221825075081424,-0.08592503473345574,1.9165682914414581,-0.30919404456407307,1.3933633518051052,0.12537234291146063,-0.0007152520990311546,0.5195110402706908,2,left
8.642000000000001,-0.23630043411402868,1.1263928717382663,-0.08907902020251043,1.8657274343045647,-0.27677378305085737,1.3937679467548796,0.10292403701937328,-0.02391423245477169,0.5506984499890175,2,left
8.644,-0.23882866853792478,1.1306158053312474,-0.09226359423300183,1.8145441577008237,-0.24433224980369736,1.3935735356362022,0.08067251769004895,-0.047295806900089235,0.5815306601457434,2,left
8.645,-0.24124245427813965,1.1348483308978456,-0.09547536650580729,1.7630344595492564,-0.21187370719331247,1.3927597295662175,0.0586271671593998,-0.07083544583972284,0.6120069279024392,2,left
8.645,-0.24353539230539645,1.1390873163066069,-0.09871080899779282,1.7112132892933634,-0.17940210089207803,1.3913065870389238,0.03679699200532258,-0.09450900019938409,0.6421266368526066,2,left
8.648,-0.24570087126715412,1.1433294785376733,-0.10196625809777254,1.6590945440738236,-0.14692104023107871,1.3891946516535865,0.015190616692647542,-0.11829273315506572,0.6718892872741284,2,left
8.648,-0.24773208022105142,1.147571387810475,-0.10523791690132092,1.6066910682148963,-0.11443377824220635,1.3864049899801274,-0.006183721626826052,-0.14216334939802988,0.7012944858505834,2,left
8.654,-0.2496220222916675,1.1518094719560366,-0.1085218577040482,1.5540146559314483,-0.08194319137251413,1.3829192295423962,-0.02731817696728554,-0.16609802172412189,0.7303419348160375,2,left
8.655,-0.2513635291554023,1.1560400210116717,-0.11181402471497727,1.501076057441515,-0.04945175926043939,1.3787195968239967,-0.048205297051133945,-0.19007441496913177,0.759031420586826,2,left
8.655,-0.2529492762721539,1.160259192029359,-0.11511023700965553,1.4478849891703867,-0.016961545687863303,1.3737889550655475,-0.06883802460187838,-0.21407070735872902,0.7873628019648,2,left
8.658,-0.2543717987953424,1.1644630141032386,-0.11840619174086069,1.3944501490102545,0.015525817775605978,1.3681108415459091,-0.08920969744837534,-0.2380656093416795,0.8153359979954792,2,left
8.658,-0.25562350809230727,1.168647393633925,-0.12169746762417742,1.3407792373198613,0.04800914432217271,1.361669504112212,-0.10931404750042087,-0.26203837997517593,0.8429509755635318,2,left
8.664,-0.25669670880538636,1.1728081198581952,-0.12497952871286451,1.2868789838459744,0.08048770025963219,1.3544499368552618,-0.12914519865494356,-0.28596884093117086,0.8702077368069681,2,left
8.665,-0.25758361639046484,1.1769408706806774,-0.12824772847243218,1.232755180468964,0.11296120918222773,1.3464379148991041,-0.1486976636913092,-0.30983738819259843,0.897106306430406,2,left
8.668,-0.2582763750790881,1.181041218845102,-0.13149731416800153,1.1784127196183136,0.14542985205190032,1.3376200282862116,-0.1679663402134791,-0.3336250015083085,0.9236467189967427,2,left
8.668,-0.25876707621360573,1.1851046384739388,-0.13472343159174718,1.1238556382032363,0.17789426328323268,1.3279837149375244,-0.18694650569597923,-0.3573132516754175,0.9498290062755284,2,left
8.674,-0.2590477769014863,1.1891265119898307,-0.1379211301778026,1.0690871669029252,0.21035552292537582,1.3175172926642982,-0.2056338116898393,-0.3808843057176022,0.9756531847253201,2,left
8.675,-0.2591105189311316,1.1931021374166242,-0.14108536856525364,1.0141097846603342,0.2428151450342329,1.3062099902064,-0.22402427724384405,-0.40432093002763225,1.0011192431862557,2,left
8.677,-0.2589473478958161,1.197026736047435,-0.1442110206678298,0.9589252782227689,0.2752750623281648,1.2940519772693473,-0.24211428159561357,-0.4276064915421542,1.026227130858064,2,left
8.677999999999999,-0.25855033248978854,1.200895460463545,-0.14729288229378443,0.9035348065719564,0.30773760722047316,1.2810343935299966,-0.259900556186187,-0.4507249570164016,1.0509767456376975,2,left
8.682,-0.2579115839690811,1.204703402887578,-0.15032567834005736,0.8479389700856639,0.3402054893219127,1.2671493765783777,-0.2773801760509328,-0.4736608904661239,1.075367922889743,2,left
8.683,-0.2570232758026599,1.2084456038514517,-0.15330407056885728,0.7921378842723376,0.37268176950648624,1.25239008876073,-0.29455055063874636,-0.49639944884359183,1.0994004247217402,2,left
8.687000000000001,-0.2558776635703667,1.2121170611504797,-0.15622266596426662,0.7361312579196411,0.4051698306337853,1.2367507428863274,-0.31140941411062417,-0.5189263760140597,1.1230739298355057,2,left
8.687999999999999,-0.2544671051872194,1.215712739041686,-0.15907602565825502,0.6799184754971831,0.4376733450211537,1.2202266267581865,-0.32795481516782293,-0.5412279950985416,1.1463880240245328,2,left
8.692,-0.2527840815476092,1.2192275776335357,-0.1618586744067939,0.6234986836531282,0.47019623875897704,1.20281412648525,-0.3441851064589245,-0.5632911992481923,1.169342191386502,2,left
8.693,-0.2508212176924095,1.2226565024124756,-0.1645651105904792,0.5668708816438021,0.5027426529624365,1.1845107485311048,-0.36009893361423356,-0.5851034409149767,1.1919358063189136,2,left
8.698,-0.24857130461193847,1.225994433859861,-0.16718981671498123,0.5100340155348024,0.5353169020531082,1.1653151404517579,-0.3756952239550356,-0.6066527196826678,1.2141681263648108,2,left
8.699,-0.24602732180624345,1.2292362971255748,-0.1697272703906937,0.4529870760115348,0.5679234291638474,1.1452271102724447,-0.39097317492433614,-0.6279275687215257,1.2360382859745405,2,left
8.702,-0.2431824607260169,1.232377031736473,-0.17217195576597585,0.3957291996364946,0.6005667587604635,1.1242476444508855,-0.4059322422847976,-0.6489170399292945,1.2575452912484482,2,left
8.703,-0.24003014921029014,1.2354116013283964,-0.17451837536867965,0.33825977339001617,0.6332514465737727,1.1023789243718445,-0.4205721281286727,-0.6696106878203971,1.2786880157243774,2,left
8.709,-0.2365640770211932,1.2383350034020646,-0.17676106228450075,0.28057854233060653,0.6659820269357085,1.0796243413152868,-0.4348927687436259,-0.6899985522244205,1.2994651972727973,2,left
8.71,-0.23277822255105568,1.2411422791140958,-0.17889459258331264,0.2226857202103753,0.6987629576132738,1.0559885098378716,-0.44889432237741356,-0.7100711398541671,1.3198754361613398,2,left
8.711,-0.22866688074201547,1.2438285231186148,-0.18091359790757264,0.16458210288046657,0.7315985622342404,1.0314772795049618,-0.46257715694117224,-0.7298194048243549,1.3399171943233519,2,left
8.712,-0.22422469221698527,1.2463888934686103,-0.18281277816132588,0.10626918432079041,0.764492970398631,1.0060977449077964,-0.47594183767861326,-0.7492347283094621,1.3595887957333777,2,left
8.713,-0.21944667357746042,1.2488186215690111,-0.18458691427718404,0.04774927512774493,0.7974500555701644,0.9798582538979359,-0.4889891148067381,-0.7683088977232256,1.3788884275562754,2,left
8.717,-0.21432824876818357,1.2511130221430853,-0.18623088108279154,-0.010974376706984151,0.8304733708419996,0.9527684139685832,-0.50171991112124,-0.78703408590966,1.3978141416049688,2,left
8.718,-0.20886528133105792,1.253267503135063,-0.18773966032554398,-0.06989746289405868,0.8635660826712849,0.9248390967098892,-0.51413530957038,-0.8054028307262195,1.4163638557714164,2,left
8.722000000000001,-0.20305410729512213,1.2552775754476693,-0.1891083539312198,-0.12901449011121652,0.8967309027538535,0.8960824402943625,-0.5262365408209762,-0.8234080152038306,1.4345353553294675,2,left
8.722999999999999,-0.19689156842357805,1.2571388624256574,-0.19033219756888065,-0.18831865433910244,0.9299700185938818,0.8665118501034593,-0.5380249708507747,-0.8410428483592249,1.4523262941378374,2,left
8.724,-0.19037504557626933,1.2588471090452407,-0.19140657459126123,-0.24780171627576256,0.9632850240134404,0.8361419978873286,-0.5495020886028722,-0.8583008467123291,1.4697341957964896,2,left
8.727,-0.18350249200340335,1.2603981908418298,-0.19232703043922605,-0.30745388045068506,0.9966768512303559,0.8049888200047086,-0.5606694937369531,-0.8751758165604179,1.486756454808617,2,left
8.728,-0.17627246641699876,1.2617881226913736,-0.1930892876388437,-0.36726368004703724,1.0301457057497327,0.7730695151302431,-0.5715288845112123,-0.8916618370596807,1.50339033779933,2,left
8.731,-0.16868416567796646,1.2630130676319935,-0.19368926155482186,-0.42721786833827774,1.0636910046247847,0.7404025415308774,-0.5820820458279382,-0.9077532441637635,1.5196329848410504,2,left
8.732000000000001,-0.16073745687836433,1.2640693459455763,-0.19412307707547757,-0.4873013170330375,1.0973113182595569,0.707007613853356,-0.5923308374748384,-0.9234446154677493,1.5354814109345087,2,left
8.736,-0.15243290847325908,1.2649534447012263,-0.19438708638894775,-0.5474969217000579,1.1310043158496863,0.6729056993311691,-0.6022771825933091,-0.9387307560049282,1.5509325076931224,2,left
8.737,-0.14377181993751562,1.265662027902079,-0.19447788795024393,-0.6077855144453871,1.1647667145575662,0.6381190133171415,-0.6119230564039696,-0.9536066850425687,1.565983045277408,2,left
8.742,-0.13475624923925625,1.266191947295245,-0.19439234658648538,-0.6681457840143998,1.1985942325184877,0.6026710140457794,-0.6212704752189058,-0.9680676239217578,1.580629674624949,2,left
8.743,-0.12538903730274908,1.2665402538321344,-0.19412761441993942,-0.7285542034915266,1.2324815457745435,0.5665863965274541,-0.6303214857692022,-0.9821089849852123,1.594868930020304,2,left
8.747,-0.11567382864821717,1.2667042097385235,-0.19368115197784413,-0.7889849657708389,1.2664222492332755,0.5298910854745416,-0.6390781548754768,-0.9957263616357841,1.6086972320480755,2,left
8.748,-0.10561508757928899,1.2666813011957059,-0.19305074863962268,-0.8494099269708388,1.3004088217482337,0.49261222715773845,-0.6475425594882734,-1.0089155195671933,1.622110890971215,2,left
8.753,-0.0952181096099527,1.2664692517389518,-0.19223454153271566,-0.909798557966934,1.3344325954187797,0.4547781800889483,-0.6557167771243206,-1.0216723892073167,1.6351061105754607,2,left
8.754,-0.08448902818952066,1.2660660366000644,-0.19123103213291376,-0.9701179042151391,1.368483729206621,0.416418504425381,-0.6636028767238145,-1.0339930594131415,1.647678992519622,2,left
8.756,-0.07343481708129361,1.2654698982889483,-0.19003910011962455,-1.0303325540405242,1.4025511869666936,0.3775639499878338,-0.6712029099530463,-1.045873772455263,1.6598255412302398,2,left
8.757,-0.06206328889477037,1.264679363664108,-0.1886580144173741,-1.0904046155638172,1.4366227199901107,0.3382464427845319,-0.6785189029758636,-1.0573109203285673,1.671541669377945,2,left
8.76,-0.050383090243297936,1.2636932625512909,-0.18708744173128594,-1.1502937024393676,1.4706848541569777,0.29849906993039566,-0.6855528487166213,-1.068301042424484,1.6828232039716235,2,left
8.761000000000001,-0.0384036938324798,1.2625107476544681,-0.18532745316901125,-1.209956928577368,1.5047228817969076,0.2583560628501859,-0.6923066996364621,-1.0788408245989307,1.693665893105276,2,left
8.766,-0.026135387536453336,1.2611313151522172,-0.18337852965559528,-1.26934891202282,1.5387208583550906,0.21785277865264951,-0.6987823610439453,-1.0889270996687967,1.7040654133912168,2,left
8.767000000000001,-0.013589260261771657,1.2595548250876303,-0.18124156672965672,-1.3284217881631981,1.572661603961737,0.1770256795615549,-0.7049816849602373,-1.0985568493685345,1.7140173781120132,2,left
8.771,-0.0007771842134146564,1.2577815204843932,-0.1789178789829299,-1.3871252324361036,1.6065267100026397,0.13591231028837472,-0.710906464558267,-1.1077272077971247,1.723517346122308,2,left
8.772,0.012288206873858329,1.2558120440508793,-0.17640920400250126,-1.4454064927074324,1.64029655078849,0.09455127323033728,-0.7165584291944568,-1.116435466384388,1.7325608315303842,2,left
8.776,0.02559354386929443,1.2536474513807632,-0.17371770534111475,-1.503210431489643,1.6739503004204035,0.052982201376643924,-0.721939240050839,-1.1246790804042988,1.7411433141880572,2,left
8.777000000000001,0.039124752813499704,1.2512892197636118,-0.1708459738466695,-1.5604795781686516,1.7074659549489068,0.01124572880482676,-0.7270504864045821,-1.132455677061639,1.7492602510161708,2,left
8.78,0.052867089616389924,1.2487392520845768,-0.16779702664132382,-1.6171541914066616,1.740820359923346,-0.030616541351486712,-0.7318936825379849,-1.1397630651388284,1.756907088177247,2,left
8.781,0.06680517824402786,1.245999875716628,-0.1645743031525052,-1.6731723318868605,1.7739892434283502,-0.07256207158273166,-0.736470265285305,-1.1465992459975518,1.764079274033408,2,left
8.782,0.08092305156068832,1.2430738366704053,-0.161181657835709,-1.7284699455643733,1.8069472547035819,-0.11454742745129459,-0.7407815921833724,-1.1529624253848783,1.770772272696536,2,left
8.785,0.09520419384613009,1.2399642895839487,-0.15762334953154739,-1.78298095758615,1.8396680084425396,-0.15652831792730026,-0.7448289401762537,-1.1588510253013438,1.7769815779042024,2,left
8.786,0.10963158380224038,1.2366747844689194,-0.15390402771055078,-1.8366373770405757,1.872124134865643,-0.19845963873270162,-0.7486135048393817,-1.1642636953779906,1.7827027270256166,2,left
8.79,0.12418773676873533,1.23320925137683,-0.15002871612966245,-1.8893694125712432,1.9042873355669183,-0.24029551879023422,-0.7521364001164433,-1.169199323551585,1.7879313151302927,2,left
8.791,0.13885474507749446,1.2295719841397723,-0.14600279457971915,-1.9411055982656986,1.9361284446563751,-0.28198936975400235,-0.7553986585774723,-1.1736570460167528,1.7926630091228268,2,left
8.792,0.15361431590496386,1.225767624101258,-0.1418319794215845,-1.9917729281090653,1.9676174938616442,-0.32349393838271717,-0.7584012322090217,-1.1776362564705753,1.7968935619602218,2,left
8.796,0.16844780643542182,1.2218011444974382,-0.1375223036020171,-2.04129699666842,1.9987237797750559,-0.3647613613965515,-0.7611449937465391,-1.1811366146638278,1.8006188269667638,2,left
8.797,0.18333625656110625,1.2176778359929987,-0.13308009687277722,-2.0896021442922996,2.029415931907959,-0.4057432225779463,-0.763630738558318,-1.1841580542716594,1.8038347722600385,2,left
8.799,0.1982604197550485,1.2134032937031245,-0.12851196686942942,-2.1366116062250993,2.059661981070827,-0.446390612091762,-0.7658591870896517,-1.1867007900951505,1.8065374953002291,2,left
8.8,0.21320079313836973,1.2089834057246394,-0.12382478141664398,-2.1822476656541885,2.089429428073138,-0.48665418811926514,-0.7678309878750761,-1.1887653246037986,1.80872323757339,2,left
8.806000000000001,0.22813764802263484,1.204424342814436,-0.11902565199815779,-2.226431810828356,2.118685312831126,-0.5264842409235739,-0.76954672112584,-1.1903524538276145,1.8103883994179246,2,left
8.808,0.2430510622520295,1.1997325485166537,-0.11412191793429646,-2.269084896382453,2.147396283970231,-0.5658307594632268,-0.7710069028990103,-1.191463272606135,1.8115295550020276,2,left
8.811,0.2579209554850791,1.194914728826138,-0.10912113056714572,-2.310127308999176,2.175528669007678,-0.6046435006694327,-0.7722119898538747,-1.1920991792002855,1.812143467458355,2,left
8.812000000000001,0.272727128186933,1.1899778404127386,-0.10403103669816677,-2.3494791375347406,2.20304854519917,-0.642872061501316,-0.7731623846005733,-1.192261879271651,1.8122271041807074,2,left
8.815,0.28744930462796225,1.1849290765224616,-0.09885956062167549,-2.3870603477308054,2.2299218111320958,-0.6804659538920814,-0.7738584416451545,-1.1919533892323533,1.8117776522859932,2,left
8.815,0.30206717969020064,1.1797758498970239,-0.09361478429973769,-2.4227909616303855,2.2561142591459933,-0.7173746826974878,-0.7743004739345173,-1.1911760389673625,1.8107925342432258,2,left
8.818999999999999,0.3165604688547863,1.1745257723677578,-0.08830492550253544,-2.456591241810619,2.2815916486592593,-0.7535478267563431,-0.7744887600039728,-1.189932473929716,1.8092694236697975,2,left
8.82,0.33090896044796214,1.1691866311230057,-0.08293831406790061,-2.4883818805401883,2.306319780479226,-0.7889351231709084,-0.7744235517294226,-1.1882256566077625,1.8072062612937236,2,left
8.824,0.3450925690953896,1.1637663619624519,-0.07752336675337604,-2.518084193963857,2.330264572170778,-0.8234865549131319,-0.7741050826854258,-1.186058867362205,1.804601271079031,2,left
8.825,0.35909138937426416,1.1582730200955031,-0.07206856137879641,-2.545620321411059,2.353392134556623,-0.8571524418605209,-0.7735335771096975,-1.1834357046293742,1.8014529765099032,2,left
8.83,0.37288574882786646,1.1527147491937693,-0.06658241103041002,-2.570913429919693,2.3756688494201823,-0.8898835353632003,-0.77270925947385,-1.1803600844858395,1.797760217027656,2,left
8.83,0.38645625976064973,1.1470997494702537,-0.061073439024137456,-2.5938879240602817,2.397061448479814,-0.9216311164413115,-0.7716323646594634,-1.1768362395681393,1.7935221646130552,2,left
8.834,0.3997838694973986,1.1414362455444653,-0.05555015515853899,-2.614469661139433,2.4175370937007363,-0.9523470977093531,-0.7703031487378418,-1.1728687173401022,1.788738340504931,2,left
8.835,0.41284990901197127,1.1357324547845626,-0.05002103358935363,-2.6325861718551073,2.437063459008577,-0.9819841291213925,-0.7687219003510923,-1.1684623776989336,1.7834086320444782,2,left
8.84,0.4256361399780913,1.1299965567175143,-0.044494492472623826,-2.6481668864695216,2.4556088134659277,-1.0104957076282426,-0.7668889526914301,-1.163622389909956,1.777533309633066,2,left
8.841000000000001,0.4381248003585374,1.124236663986092,-0.03897887538066616,-2.6611433665586652,2.4731421059706578,-1.0378362908347423,-0.7648046960748915,-1.1583542288586135,1.7711130437898142,2,left
8.844,0.4502986486376439,1.1184607952222294,-0.033482434407486286,-2.671449542390321,2.4896330515320138,-1.0639614147421799,-0.7624695911049157,-1.152663670607094,1.7641489222936282,2,left
8.845,0.4621410067339025,1.1126768501084452,-0.028013314840581983,-2.679021955975198,2.5050522191777134,-1.0888278156576667,-0.7598841824205295,-1.1465567872416784,1.7566424673928147,2,left
8.847999999999999,0.47363580153567125,1.1068925868147281,-0.022579541264542067,-2.683800009828318,2.5193711215423393,-1.1123935563489091,-0.757049113002907,-1.1400399410094777,1.7485956530445723,2,left
8.849,0.4847676049261895,1.101115601926321,-0.017189004964686803,-2.6857262214701207,2.5325623061843365,-1.1346181565193345,-0.753965138912166,-1.1331197778109328,1.7400109220487934,2,left
8.849,0.4955216721240509,1.095353312917593,-0.011849452506654956,-2.6847464836889166,2.544599448675857,-1.1554627276749168,-0.750633144143381,-1.125803220237317,1.7308912027657077,2,left
8.854,0.5058839781246192,1.0896129431774828,-0.0065684753615610015,-2.68081033057828,2.555457447506519,-1.17489011245031,-0.7470541551888866,-1.1180974604102258,1.7212399250090358,2,left
8.855,0.5158412519508944,1.0839015095459332,-0.0013535004178324415,-2.673871209354812,2.5651125208389196,-1.1928650284580549,-0.7432293549944243,-1.1100099528099587,1.7110610348010893,2,left
8.859,0.5253810083494829,1.0782258122727653,0.0037882188061147733,-2.6638867575463734,2.573542305005651,-1.2093542164693443,-0.7391600961781251,-1.1015484071544979,1.7003590078480584,2,left
8.86,0.5344915765654472,1.0725924272719467,0.008849610430827331,-2.650819083097576,2.580725953910267,-1.2243265914741885,-0.7348479134818116,-1.09272078132075,1.6891388616885126,2,left
8.86,0.5431621258944158,1.067007700525641,0.013823792118871935,-2.634635041267999,2.586644237188173,-1.2377533929028282,-0.7302945354436354,-1.0835352742848325,1.677406166485881,2,left
8.863,0.5513826877659345,1.0614777444722379,0.0187040787399133,-2.6153065001550035,2.5912796342559843,-1.2496083290293978,-0.7255018952803607,-1.0740003190571121,1.665167054434182,2,left
8.863999999999999,0.5591441741150726,1.0560084361671382,0.023483989925065844,-2.592810588699028,2.594616422098226,-1.25986771183107,-0.7204721409669114,-1.0641245755866569,1.6524282277447742,2,left
8.868,0.5664383917930063,1.0506054169504513,0.028157257641647067,-2.5671299246830044,2.5966407559396543,-1.268510580833304,-0.7152076445001073,-1.0539169236087316,1.6391969651804474,2,left
8.869,0.5732580528048455,1.0452740933176188,0.03271783390157346,-2.5382528222633556,2.5973407426717,-1.2755188157238901,-0.7097110103328219,-1.0433864554079628,1.6254811271016993,2,left
8.873,0.5795967802460779,1.0400196386676581,0.037159898676878696,-2.5061734789679018,2.5967065070425894,-1.2808772377652182,-0.7039850829641199,-1.0325424684688231,1.6112891589886233,2,left
8.875,0.5854491099192369,1.03484699559181,0.04147786805215409,-2.470892142086889,2.594730250616931,-1.284573700029557,-0.6980329536702587,-1.02139445798413,1.5966300934004125,2,left
8.878,0.5908104877352451,1.029760878365096,0.04566640261235375,-2.4324152543741624,2.591406303506759,-1.2865991664774479,-0.6918579663607657,-1.0099521091913286,1.5815135503330977,2,left
8.879,0.5956772631251916,1.0247657753203003,0.04972041604888624,-2.3907555789663344,2.5867311688721952,-1.2869477798945783,-0.685463722543151,-0.9982252895054252,1.5659497359347676,2,left
8.884,0.6000466787983425,1.019865950820629,0.053635083957109794,-2.3459323034186084,2.5807035601860417,-1.2856169186977346,-0.6788540853791645,-0.9862240404165705,1.54994943953618,2,left
8.885,0.6039168572740153,1.015065446602919,0.05740585278240167,-2.2979711227467483,2.5733244312527415,-1.2826072426156419,-0.6720331828148646,-0.9739585691194389,1.5335240289533638,2,left
8.888,0.6072867846791704,1.010368082335474,0.061028448847113774,-2.246904301355559,2.56459699896828,-1.2779227272456826,-0.6650054097661381,-0.9614392398407411,1.5166854440175201,2,left
8.889,0.6101562923323977,1.0057774553184593,0.06449888736066182,-2.1927707137251664,2.5545267588037124,-1.271570687482678,-0.6577754293406941,-0.9486765648304132,1.4994461882862826,2,left
8.892999999999999,0.6125260366268886,1.001296939340905,0.06781348128380832,-2.1356158637173954,2.5431214929911237,-1.2635617898110898,-0.6503481730769443,-0.9356811949812701,1.4818193188891802,2,left
8.892999999999999,0.6143974776846082,0.996929682786137,0.07096884989022312,-2.075491882355616,2.5303912713869665,-1.2539100534472023,-0.6427288401795926,-0.9224639100411816,1.463818434458954,2,left
8.899,0.6157728571902427,0.9926786061405305,0.07396192684862307,-2.012457503922651,2.5163484449838576,-1.2426328403130629,-0.6349228957311746,-0.909035608381129,1.445457661099234,2,left
8.9,0.6166551757365986,0.9885463991070623,0.0767899676406828,-1.9465780202126663,2.501007632038092,-1.2297508338191996,-0.6269360678582201,-0.8954072962818345,1.4267516363379649,2,left
8.902000000000001,0.6170481699318119,0.9845355175546713,0.07945055613356375,-1.8779252127644508,2.484385696776337,-1.2152880064284268,-0.6187743438301648,-0.8815900767010164,1.407715491014903,2,left
8.902999999999999,0.6169562894425682,0.9806481805464053,0.08194161013701928,-1.8065772628951409,2.46650172064119,-1.1992715759683907,-0.6104439650685961,-0.8675951374827183,1.3883648290504693,2,left
8.908999999999999,0.6163846740863674,0.9768863676843682,0.08426138578759956,-1.7326186393452971,2.4473769660315656,-1.181731950655897,-0.6019514210439044,-0.8534337389695855,1.3687157050422507,2,left
8.911,0.6153391310444489,0.9732518169896535,0.08640848061571721,-1.6561399633382767,2.42703483249021,-1.1627026627915296,-0.5933034420359059,-0.8391172009784195,1.348784599634501,2,left
8.912,0.6138261122419675,0.9697460235036861,0.08838183517134339,-1.5772378508491172,2.4055008052870037,-1.1422202910786192,-0.584506990734519,-0.824656889098831,1.3285883926050877,2,left
8.912,0.6118526919266831,0.9663702387568247,0.09018073311667604,-1.4960147318706685,2.382802396343168,-1.1203243715162445,-0.575569252656114,-0.8100642002743345,1.3081443336134686,2,left
8.918,0.6094265444671215,0.9631254712043844,0.091804799737418,-1.4125786464574732,2.3589690774379926,-1.097057296811679,-0.5664976253767356,-0.7953505476548324,1.287470010615364,2,left
8.919,0.6065559223830128,0.9600124876849608,0.09325399886755957,-1.3270430173209553,2.3340322056362792,-1.0724642042535295,-0.5572997067131222,-0.7805273448592799,1.2665833162634286,2,left
8.919,0.6032496346124587,0.9570318159172292,0.09452862825598958,-1.239526398742816,2.3080249408713605,-1.0465928519827545,-0.547983282216308,-0.7656059900574101,1.245502413178455,2,left
8.922,0.5995170250100978,0.954183748020408,0.09562931343198257,-1.1501522015671903,2.280982155615293,-1.019493483594821,-0.538556312472356,-0.7505978504293037,1.2242456992893833,2,left
8.923,0.5953679510569586,0.9514683450157947,0.09655700016234099,-1.0590483940261013,2.252940336564662,-0.9912186810024527,-0.5290269205742613,-0.7355142474110139,1.202831774125375,2,left
8.927999999999999,0.5908127627453791,0.9488854422414859,0.09731294563065965,-0.9663471786752448,2.223937478453968,-0.9618232057458413,-0.5194033798944546,-0.7203664428637196,1.1812794063767187,2,left
8.927999999999999,0.5858622815859873,0.9464346555978651,0.0978987084879818,-0.8721846483527368,2.194012971038655,-0.931363830239109,-0.5096941021568748,-0.7051656261533664,1.15960750272643,2,left
8.929,0.580527779672278,0.944115388540291,0.0983161379183234,-0.7767004288221432,2.1632074819664733,-0.8998991627882067,-0.49990762578124953,-0.6899229020974872,1.1378350778910615,2,left
8.931000000000001,0.5748209587247226,0.9419268397320377,0.09856736185746204,-0.6800373183974457,2.1315628391861545,-0.8674894715176623,-0.4900526044719584,-0.674649279735714,1.115981225808854,2,left
8.932,0.5687539290135103,0.9398680112522008,0.09865477451808365,-0.5823409322024974,2.099121915606698,-0.8341965110350997,-0.48013779602360473,-0.6593556618803335,1.0940650919130133,2,left
8.936,0.5623391880366435,0.93793771723081,0.09858102338943264,-0.4837593539600714,2.0659285170385164,-0.8000833533097883,-0.47017205131519935,-0.6440528354031234,1.0721058464276032,2,left
8.937000000000001,0.5555895988227766,0.9361345927720598,0.09834899587175008,-0.38444279556131644,2.0320272735122513,-0.7652142229333389,-0.460164303464666,-0.6287514622146176,1.0501226586233192,2,left
8.941,0.5485183677378108,0.9344571030270689,0.09796180568104892,-0.2845432641352789,1.9974635338821423,-0.7296543366670397,-0.4501235571152039,-0.6134620708918855,1.0281346719702245,2,left
8.942,0.5411390216947929,0.9329035522860729,0.0974227791342352,-0.18421423633561884,1.9622832636187035,-0.6934697471779736,-0.4400588778248979,-0.5981950489108901,1.0061609801244027,2,left
8.947000000000001,0.5334653846927472,0.931472092975945,0.0967354414048729,-0.08361033955953533,1.9265329456934102,-0.6567271908638851,-0.42997938153084614,-0.5829606354394901,0.9842206036854231,2,left
8.948,0.5255115536370506,0.9301607344717542,0.09590350282611887,0.01711296018775158,1.890259484456201,-0.6194939396647879,-0.4198942240589801,-0.5677689146471853,0.9623324676614886,2,left
8.951,0.517291873418196,0.9289673516582082,0.09493084530734766,0.11779966407084869,1.8535101124048368,-0.5818376567575055,-0.4098125906506839,-0.5526298094877714,0.9405153795791856,2,left
8.952,0.5088209112478851,0.9278896932044419,0.093821508922563,0.2182935401330406,1.8163322997435107,-0.5438262560277405,-0.39974368547727673,-0.537553075911158,0.9187880081748464,2,left
8.956,0.5001134302749968,0.9269253895396653,0.09257967872193394,0.3184384172251588,1.7787736666266134,-0.5055277652128549,-0.3896967211134066,-0.5225482974607326,0.8971688626046864,2,left
8.957,0.4911843625308996,0.9260719605359176,0.09120967181375468,0.41807847344337884,1.7408818979821763,-0.4670101926073339,-0.37968090794041165,-0.5076248802128,0.8756762721110821,2,left
8.961,0.4820487812820419,0.925326822918269,0.08971592476192564,0.5170585193643008,1.7027046608083003,-0.4283413972218794,-0.3697054434507469,-0.49279204801480486,0.854328366082611,2,left
8.963,0.4727218728938421,0.9246872974328897,0.08810298134086762,0.615224276364668,1.6642895238347761,-0.38958896228626166,-0.3597795014246305,-0.478058837979256,0.8331430544457893,2,left
8.966000000000001,0.4632189083302885,0.9241506158090723,0.0863754806832186,0.7124226503116285,1.625683879441141,-0.3508200719854229,-0.3499122209501585,-0.4634340961904983,0.8121380083268016,2,left
8.967,0.45355521442819335,0.9237139275526457,0.08453814584597548,0.8085020009075498,1.5869348677216069,-0.3121013913178938,-0.34011269525825066,-0.44892647358174237,0.7913306409219363,2,left
8.971,0.44374614509485016,0.923374306606617,0.08259577281078648,0.9033124069710623,1.5480893025866025,-0.27349894896534127,-0.3303899603439328,-0.4345444219400465,0.7707380885159041,2,left
8.971,0.43380705258285024,0.9231287579110624,0.08055321992675028,0.9967059279332297,1.5091935997901282,-0.23507802306202,-0.32075298334562796,-0.4202961899972562,0.750377191587735,2,left
8.976,0.4237532589964449,0.9229742238870047,0.0784153977994091,1.0885368618245326,1.470293706771708,-0.1969030297530393,-0.3112106506543257,-0.40618981956524236,0.7302644759445168,2,left
8.977,0.4136000281821041,0.9229075908578258,0.0761872596246799,1.1786620000247134,1.431435034201447,-0.1590374144306935,-0.3017717557247174,-0.39223314167414175,0.7104161338238554,2,left
8.981,0.40336253815384127,0.9229256954092612,0.07387379195902499,1.2669408790434626,1.3926623891165566,-0.12154354553862003,-0.29244498656063245,-0.378433772672684,0.6908480049065993,2,left
8.982000000000001,0.3930558542020392,0.9230253306776922,0.07148000590921923,1.3532360295954446,1.3540199095376912,-0.08448261083425598,-0.28323891284738156,-0.3647991102500993,0.6715755571820864,2,left
8.987,0.38269490283118834,0.9232032525463685,0.06901092872091931,1.437413223228265,1.3155510004535698,-0.04791451600094965,-0.27416197270391063,-0.35133632933952846,0.652613867608927,2,left
8.988,0.37229444666234135,0.9234561857211457,0.06647159574697124,1.5193417167566845,1.27729827106259,-0.011897785502148336,-0.26522245904953545,-0.33805237787586034,0.6339776025485114,2,left
8.988999999999999,0.3618690604140715,0.9237808296545399,0.06386704278215766,1.5988944947506951,1.239303473160519,0.02351053442867406,-0.25642850568810244,-0.3249539724441451,0.6156809981161224,2,left
8.99,0.3514331080437132,0.9241738642899824,0.06120229875716369,1.675948510318997,1.2016074405638404,0.05825497076727448,-0.2477880734066994,-0.3120475939681757,0.5977378408957396,2,left
8.991,0.3410007211050861,0.9246319556013354,0.05848237878836919,1.7503849244229555,1.1642500294589617,0.09228171675042661,-0.23930893649416377,-0.2993394836520977,0.5801614496324016,2,left
8.995,0.3305857783686972,0.9251517609018811,0.05571227758094684,1.8220893436916963,1.1272700596295537,0.1255387230178967,-0.23099866997732482,-0.2868356393256854,0.5629646583501255,2,left
8.995,0.3202018867416151,0.9257299338968553,0.05289696318115432,1.8909520554137351,1.0907052568218443,0.15797578644067897,-0.22286463767944814,-0.2745418122315241,0.5461598010440747,2,left
8.996,0.3098623635057182,0.9263631294595169,0.050041371071158074,1.9568682560544757,1.0545921970606909,0.189544635474063,-0.21491398109808588,-0.2624635042301536,0.5297586979298806,2,left
9.0,0.29958021987433725,0.9270480081201048,0.04715039859763783,2.019738268352997,1.018966254037027,0.2201990104522097,-0.20715360907847538,-0.2506059653872655,0.5137726432007447,2,left
9.001,0.2893681458572107,0.9277812402650208,0.04422889972399437,2.079467743331467,0.9838615503817832,0.24989473765824968,-0.19959018825913474,-0.23897419190764907,0.49821239424406716,2,left
9.005,0.2792384964168298,0.9285595100498124,0.041281680094201745,2.1359678458606317,0.9493109130906338,0.27858979675686746,-0.19223013426683003,-0.2275729243811997,0.4830881622705129,2,left
9.005,0.26920327889021783,0.9293795190353804,0.03831349239270636,2.1891554237041677,0.9153458330586421,0.3062443815933998,-0.185079603638635,-0.21640664630693643,0.4684096043096132,2,left
9.01,0.2592741416416049,0.930237989561815,0.035329031979269676,2.2389531602132924,0.8819964286240259,0.33282095444466675,-0.17814448644936948,-0.20547958286162468,0.4541858165272256,2,left
9.011000000000001,0.24946236390656823,0.9311316678771975,0.03233293277281504,2.285289710833765,0.8492914130218556,0.3582842938038819,-0.17143039962328624,-0.19479569988026008,0.44042532882142377,2,left
9.014,0.23977884678607425,0.9320573270398831,0.029329763357201326,2.3280998235779005,0.8172580656501786,0.3826015357790054,-0.1649426809094774,-0.1843587030163454,0.42713610065466995,2,left
9.015,0.23023410534740094,0.9330117696133113,0.026324023285520352,2.3673244436045056,0.7859222070528277,0.4057422091808122,-0.1586863835010897,-0.1741720370505788,0.41432551808142776,2,left
9.021,0.2208382617877408,0.9339918301723455,0.023320139566797998,2.4029108020397016,0.755308177525019,0.42767826437375284,-0.15266627127907262,-0.16423888531726843,0.40200039193170106,2,left
9.022,0.21160103961633148,0.9349943776391174,0.020322463327064832,2.434812489161494,0.7254388192497716,0.4483840959593985,-0.14688681466183215,-0.15456216921849913,0.39016695711233945,2,left
9.025,0.2025317588128814,0.9360163174641964,0.0173352666422937,2.4629895120606577,0.6963354618751827,0.4678365593588878,-0.1413521870428286,-0.14514454779679384,0.378830872989323,2,left
9.026,0.19363933192402627,0.9370545936649876,0.014362739542434883,2.4874083368800624,0.6680179114446599,0.48601498135733556,-0.13606626179883322,-0.13598841733774109,0.36799722481563324,2,left
9.03,0.18493226106599514,0.93810619072739,0.011408987186389684,2.5080419157240024,0.6405044425943511,0.5029011646696362,-0.1310326098522501,-0.12709591097479547,0.35767052617072814,2,left
9.031,0.17641863580935438,0.9391681353707143,0.008478027210257418,2.5248696983184016,0.613811793934209,0.5184793865834991,-0.12625449777161213,-0.11846889826920218,0.3478547223790663,2,left
9.035,0.1681061319270758,0.9402374981717343,0.005573787254940432,2.537877628491983,0.5879551665313797,0.532736391731899,-0.12173488639507367,-0.11010898473874672,0.3385531948765685,2,left
9.036,0.16000201098833086,0.9413113950416375,0.0027001026812070355,2.547058125537636,0.5629482254169119,0.545661379043416,-0.1174764299624465,-0.10201751130978828,0.32976876649535874,2,left
9.039,0.15211312077868214,0.9423869885491498,-0.0001392855216199618,2.5524100505022935,0.5388031040391412,0.5572459829151896,-0.11348147574205952,-0.094195553667797,0.32150370763859376,2,left
9.039,0.1444458965239979,0.9434614890851348,-0.0029407326319705043,2.5539386574426626,0.5155304115894969,0.567484248649419,-0.1097520641394638,-0.08664392148238238,0.3137597433186668,2,left
9.043,0.13700636289049217,0.9445321558690732,-0.005700691899549359,2.551655529673191,0.49313924312892105,0.5763726021905239,-0.10628992927575502,-0.07936315748357038,0.3065380610335546,2,left
9.044,0.12980013672737417,0.9455962978050961,-0.008415716058750295,2.545578501021647,0.4716371924455595,0.583909814196229,-0.10309650002404105,-0.07235353636686048,0.29983931945756875,2,left
9.05,0.12283243051285792,0.946651274203349,-0.011082458654705939,2.5357315620967347,0.45103036757688814,0.59009695847198,-0.10017290149334503,-0.0656150635053702,0.2936636579242672,2,left
9.051,0.11610805645938778,0.9476944953907919,-0.013697675187560408,2.522144751561219,0.4313234089319671,0.5949373647942188,-0.09751995695000078,-0.059147473448151855,0.28801070668078077,2,left
9.055,0.10963143122987021,0.9487234232443739,-0.016258224086244735,2.504854032393157,0.4125195099520659,0.5984365661441762,-0.09513819016736967,-0.05295022818454476,0.2828795978943128,2,left
9.056000000000001,0.10340658121362832,0.949735571687476,-0.01876106752950391,2.483901153107014,0.3946204402504722,0.6006022403699594,-0.09302782819292758,-0.04702251516945172,0.2782689773836872,2,left
9.056000000000001,0.0974371483101885,0.9507285071930285,-0.021203272136143984,2.4593334938957065,0.3776265711748785,0.6014441462908551,-0.09118880450977762,-0.04136324517644032,0.2741770170034176,2,left
9.059,0.09172639617083225,0.9516998493324573,-0.02358200954686753,2.431203897643993,0.36153690373833086,0.6009740542539146,-0.08962076254743663,-0.03597105017456905,0.2706014275248334,2,left
9.059,0.08627721684696674,0.9526472714055069,-0.025894556919181886,2.3995704857531237,0.34634909886732246,0.5992056711490633,-0.08832305948475173,-0.030844281496846208,0.2675394718133901,2,left
9.065,0.08109213778852817,0.9535685011868735,-0.028138297357346114,2.364496458999573,0.33205950988617033,0.596154560007069,-0.08729477030135271,-0.025981008497765645,0.264987978149684,2,left
9.066,0.07617332913277114,0.9544613218255941,-0.030310720299364928,2.3260498851068983,0.31866321699920935,0.5918380549103825,-0.08653469205780996,-0.021379017769907114,0.26294335362760574,2,left
9.067,0.07152261122855548,0.9553235729270534,-0.03240942188084583,2.2843034773393125,0.3061540632465655,0.5862751730401413,-0.08604134839821397,-0.017035812919116322,0.26140159761144915,2,left
9.068999999999999,0.06714146234465286,0.9561531518397879,-0.03443210529354302,2.2393343698821178,0.29452469125164926,0.5794865262883926,-0.08581299427221979,-0.012948614884288947,0.26035831524463743,2,left
9.07,0.06303102650588811,0.9569480151640671,-0.03637658115599149,2.191223894298036,0.28376658024127127,0.5714942342515154,-0.08584762087437003,-0.009114362788532934,0.2598087310041843,2,left
9.073,0.05919212139489934,0.9577061804932301,-0.03824076791089132,2.1400573586994023,0.2738700831101912,0.5623218393202389,-0.08614296079927494,-0.005529715309226257,0.25974770229645183,2,left
9.074,0.055625246257145315,0.9584257283889005,-0.04002269225529971,2.0859238298005005,0.2648244634646309,0.551994223968693,-0.08669649341198948,-0.0021910525552220977,0.26016973309119795,2,left
9.078,0.05233058975079737,0.9591048045794496,-0.04172048959723627,2.028915917712018,0.2566179326138283,0.5405375302195808,-0.08750545043368213,0.000905521559820523,0.26106898759232267,2,left
9.079,0.049308037688183426,0.959741622359584,-0.04333240452060414,1.9691295633308206,0.24923768648117733,0.5279790812591786,-0.08856682174343825,0.0037641764582862208,0.2624393039451272,2,left
9.083,0.04655718062212135,0.9603344651579887,-0.04485679123193728,1.9066638281697368,0.24266994240894338,0.5143473051725489,-0.0898773613977822,0.006389351563232296,0.264274207981285,2,left
9.084,0.04407732124009857,0.9608816892303671,-0.04629211395645249,1.8416206864637927,0.23689997583295175,0.49967166076611597,-0.09143359387023568,0.00878575249570197,0.2665669270040945,2,left
9.087,0.04186748154147286,0.9613817264278363,-0.04763694724464607,1.7741048193813551,0.23191215680601773,0.48398256544158486,-0.09323182051395433,0.01095834681294353,0.26931040361793734,2,left
9.088,0.039926409786522656,0.9618330869853327,-0.04888997614423834,1.70422341116096,0.22768998635121906,0.4673113250821099,-0.0952681262511999,0.01291235929508694,0.272497309607197,2,left
9.093,0.03825258722000592,0.962234362271423,-0.05004999618920367,1.6320859469871967,0.22421613262840168,0.44969006590861704,-0.09753838649411069,0.014653266787172858,0.27612005987121063,2,left
9.094,0.03684423458435492,0.9625842274392519,-0.05111591316075757,1.5578040124119246,0.22147246689955483,0.4311516682612778,-0.10003827430192785,0.016186792602786562,0.2801708264231188,2,left
9.097999999999999,0.035699318447800304,0.9628814439182694,-0.05208674258318566,1.48149109412031,0.21944009928088876,0.4117297022583114,-0.10276326778051802,0.017518900494921993,0.28464155246175177,2,left
9.099,0.034815557381461394,0.9631248616901001,-0.052961608926563396,1.4032623818346857,0.21809941427159632,0.39145836528156425,-0.10570865773070516,0.018655788199089345,0.2895239665269432,2,left
9.103,0.034190428028218534,0.9633134213009468,-0.053739744496956364,1.3232345711430913,0.21743010605137625,0.370372421235685,-0.10886955555258329,0.019603880553084527,0.2948095967498901,2,left
9.103,0.03382117111465994,0.9634461555750723,-0.054420488004396084,1.2415256670335142,0.21741121354083745,0.348507141525173,-0.11224090141362804,0.020369822197260558,0.3004897852113852,2,left
9.107999999999999,0.03370479746398937,0.9635221910067955,-0.05500328281152917,1.1582547879093505,0.21802115522088902,0.3258982476911413,-0.11581747268905795,0.0209604698585808,0.3065557024219284,2,left
9.109,0.033838094071679176,0.9635407488221152,-0.055487674879923364,1.073541969856443,0.21923776370914833,0.30258185564729617,-0.11959389268351502,0.021382884221191854,0.31299836193888364,2,left
9.112,0.034217630306603006,0.9635011457152477,-0.05587331044408382,0.9875079709272242,0.2210383200932658,0.2785944214523967,-0.12356463964373814,0.02164432138573134,0.3198086351369794,2,left
9.113,0.03483976429832109,0.9634027942775683,-0.05615993345404773,0.9002740752030084,0.22339958802287177,0.2539726885543229,-0.1277240560724926,0.021752223919082478,0.3269772661495597,2,left
9.119,0.035700649566934486,0.9632452031450205,-0.056347382835855345,0.8119618963913358,0.22629784756359048,0.22875363643884955,-0.13206635835459204,0.021714211495804558,0.33449488699907365,2,left
9.12,0.03679624194640116,0.9630279768956282,-0.056435589626039936,0.7226931807114747,0.22970892881824442,0.20297443061429415,-0.13658564670640785,0.021538071132006467,0.3423520329363475,2,left
9.122,0.03812230684507523,0.9627508157323973,-0.05642457404188429,0.6325896088177473,0.23360824532198135,0.1766723738613889,-0.1412759154608024,0.021231747011989578,0.3505391580092127,2,left
9.122,0.03967442687777619,0.9624135149882443,-0.056314442550517665,0.5417725965072421,0.23797082721959692,0.1498848586760072,-0.1461310636872449,0.0208033299156247,0.3590466508647538,2,left
9.123,0.04144800989288236,0.9620159644868034,-0.05610538499202538,0.4503630939557301,0.24277135423479992,0.1226493208307694,-0.1511449060838622,0.020261046294316933,0.36786485070384933,2,left
9.128,0.04343829740803362,0.9615581477866763,-0.05579767179555041,0.3584813832232027,0.24798418844256792,0.0950031939800492,-0.15631118396434232,0.01961324711555269,0.3769840631518157,2,left
9.128,0.04564037345975886,0.9610401413327254,-0.055391651312323265,0.26624687376839856,0.25358340685707087,0.06698386523150787,-0.1616235760995679,0.018868396635958216,0.386394575723317,2,left
9.132,0.04804917386436541,0.9604621135401329,-0.05488774728278153,0.17377789594464513,0.2595428338451553,0.03862863163061684,-0.16707570923782603,0.01803506122218663,0.3960866726471625,2,left
9.133,0.050659495879934596,0.959824323840114,-0.05428645645301025,0.08119149362129277,0.2658360733578465,0.00997465762655033,-0.1726611682422053,0.01712189826613341,0.40605064897329207,2,left
9.134,0.05346600825368115,0.959127121715612,-0.05358834635326595,-0.01139678081404078,0.27243654093974445,-0.018941066191659976,-0.17837350584772427,0.01613764520041618,0.4162768239716484,2,left
9.137,0.056463261632283504,0.9583709457554188,-0.05279405324936917,-0.1038730646445633,0.2793174954585066,-0.04808176267768097,-0.1842062520538404,0.015091108611743481,0.42675555385075986,2,left
9.137,0.05964569930115649,0.9575563227599975,-0.05190428027755198,-0.19612537295053606,0.286452070516285,-0.07741090574207697,-0.19015292316837082,0.013991153449568099,0.4374772438246358,2,left
9.142000000000001,0.06300766820585697,0.956683866936322,-0.05091979577124612,-0.2880437755304018,0.2938133055395615,-0.10689225593341803,-0.1962070305192211,0.01284669232721637,0.44843235955733046,2,left
9.142999999999999,0.06654343020206649,0.9557542792160003,-0.04984143178178687,-0.3795205626475694,0.3013741765633452,-0.13648989404531212,-0.20236208885066403,0.01166667491250617,0.45961143801525783,2,left
9.147,0.07024717348048479,0.9547683467218333,-0.048670082786604466,-0.47045039986763454,0.3091076267301721,-0.1661682528335382,-0.20861162442123776,0.010460077404712909,0.47100509775803767,2,left
9.148,0.07411302411373519,0.953726942396721,-0.04740670456977326,-0.5607304722498618,0.3169865965249936,-0.1958921469278947,-0.2149491828206409,0.009235892094615056,0.4826040486993228,2,left
9.151,0.07813505766884198,0.9526310247976322,-0.046052313248306824,-0.6502606181554895,0.32498405376761635,-0.2256268010237128,-0.2213683365232928,0.008003117004248664,0.49439910136970255,2,left
9.152999999999999,0.08230731082104534,0.9514816380474502,-0.04460798440299668,-0.738943452933853,0.3330730233848524,-0.2553378764382169,-0.22786269219649774,0.006770745602924052,0.5063811757143936,2,left
9.156,0.08662379289671056,0.9502799119299068,-0.04307485226043772,-0.8266844827454608,0.34122661698495427,-0.28499149611704655,-0.23442589778140605,0.00554775659600722,0.5185413094590173,2,left
9.157,0.09107849726869337,0.94902706210726,-0.04145410886890567,-0.9133922087790116,0.34941806225725214,-0.3145542681762845,-0.24105164936519857,0.004343103782943977,0.5308706660773311,2,left
9.162,0.09566541252803552,0.9477243904349176,-0.03974700321485202,-0.9989782221169093,0.3576207322201725,-0.34399330806527156,-0.24773369786313737,0.0031657059810058187,0.5433605423953124,2,left
9.163,0.10037853336018449,0.9463732853407286,-0.03795484023401376,-1.083357289501137,0.3658081743410036,-0.37327625943532144,-0.2544658555293232,0.0020244370112635396,0.5560023758665118,2,left
9.166,0.10521187106057588,0.9449752222305015,-0.03607897967733435,-1.1664474302483852,0.3739541395508825,-0.40237131379919217,-0.2612420023151808,0.0009281157433471243,0.5687877515540739,2,left
9.167,0.11015946363333042,0.9435317638769214,-0.034120834797532855,-1.2481699845601189,0.38203261117851056,-0.4312472290658142,-0.268056092094854,-0.0001145038043713013,0.5817084088552886,2,left
9.172,0.11521538542798823,0.9420445607456733,-0.03208187082967993,-1.3284496734698046,0.3900178338260608,-0.4598733470343291,-0.27490215877683744,-0.0010947423124310345,0.5947562480049703,2,left
9.172,0.12037375628125087,0.9405153512087893,-0.02996360324784891,-1.407214650665824,0.3978843422106233,-0.48821960993095337,-0.28177432232129757,-0.00200400495890346,0.607923336394377,2,left
9.176,0.12562875014291053,0.9389459615907813,-0.027767595787282492,-1.4843965464246796,0.4056069899943396,-0.5162565760715553,-0.2886667946826456,-0.0028337911719562812,0.6212019147427689,2,left
9.177,0.1309746031785381,0.9373383059890422,-0.025495458227733494,-1.5599305038849567,0.41316097862611073,-0.5439554347321133,-0.29557388569701626,-0.003575704339158778,0.6345844031590726,2,left
9.181000000000001,0.1364056213565272,0.9356943858074607,-0.02314884393976205,-1.6337552078881703,0.42052188621742387,-0.5712880203084257,-0.3024900089343823,-0.004221461476121839,0.6480634071314607,2,left
9.182,0.1419161875428055,0.934016288941434,-0.020729447199965025,-1.705812906608076,0.42766569647442837,-0.5982268258455516,-0.3094096875350922,-0.004762902856838451,0.6616317234829738,2,left
9.186,0.14750076814208346,0.9323061885534334,-0.01823900028156366,-1.776049426185305,0.4345688277079092,-0.6247450160164933,-0.3163275600506612,-0.005192001607838114,0.6752823463316163,2,left
9.187000000000001,0.15315391933925804,0.9305663413818104,-0.015679270325583233,-1.844414178579273,0.4412081619422531,-0.6508164396285809,-0.32323838630867285,-0.005500873267992697,0.6890084730936293,2,left
9.19,0.15887029300726904,0.928799085532702,-0.013052055998883708,-1.9108601628442534,0.4475610741438778,-0.6764156417348891,-0.3301370533216569,-0.0056817853155118675,0.7028035105689061,2,left
9.191,0.16464464235607926,0.9270068377155251,-0.010359183949333682,-1.9753439600312768,0.45360546158890525,-0.7015178754268098,-0.33701858124842754,-0.005727166658599284,0.7166610811269576,2,left
9.191,0.17047182739774516,0.9251920898951197,-0.007602505072826327,-2.0378257219121423,0.45931977338910457,-0.7260991133826206,-0.3438781293594511,-0.005629617062173234,0.7305750289080959,2,left
9.197000000000001,0.17634682029366888,0.9233574053465136,-0.0047838906131686685,-2.0982691537163385,0.4646830401943054,-0.7501360592455384,-0.3507110018553703,-0.005381916439987611,0.7445394257675819,2,left
9.198,0.18226471063939928,0.9215054141119717,-0.001905228132182799,-2.156641491066026,0.46967490408860085,-0.773606158903315,-0.3575126533308679,-0.004977033917377691,0.7585485765867035,2,left
9.2,0.1882207107372192,0.9196388078764636,0.001031582585965596,-2.2129134712884992,0.4742756486967098,-0.7964876117399413,-0.36427869373288635,-0.004408136593167438,0.7725970236788726,2,left
9.201,0.1942101609024719,0.9177603342979084,0.004024633608081359,-2.267059299279694,0.47846622951586176,-0.8187593819284643,-0.3710048927645488,-0.0036685979715446178,0.7866795502060955,2,left
9.201,0.20022853483728809,0.915872790849414,0.0070720128041259055,-2.319056608117241,0.4822283044740997,-0.8404012098100512,-0.37768718374293314,-0.002752006057981383,0.8007911826252576,2,left
9.206,0.20627144508664008,0.9139790182437803,0.010171807583697817,-2.3688864147698974,0.485544264647757,-0.8613936232915389,-0.38432166693012737,-0.0016521711175517743,0.8149271922045708,2,left
9.208,0.21233464857242876,0.9120818935136833,0.013322108334098557,-2.4165330715219557,0.48839726494906194,-0.8817179489917905,-0.3909046123568793,-0.0003631330935078191,0.829083095650625,2,left
9.211,0.21841405217860657,0.9101843228294295,0.016521011479503675,-2.4619842138794095,0.4907712545265763,-0.9013563227541592,-0.3974324621580294,0.0011208313165322183,0.8432546548865754,2,left
