time,gFx,gFy,gFz,ax,ay,az,wx,wy,wz,subject_number,foot
6.626,-0.7442315683229196,0.4919562754205771,0.20296966376904296,2.8502288191505336,4.622919571402813,0.979191452323037,0.8452544319061468,-2.4529439420740813,-1.7258514615574383,2,right
6.627000000000001,-0.7484822546885074,0.4796331692124063,0.20071431954378224,2.811112482828201,4.574014908539904,1.0022332513670107,0.8664585039088593,-2.4510685259318667,-1.7060897497200322,2,right
6.631,-0.7525436658836837,0.4675484380486435,0.19839276695369754,2.77021630311818,4.521536804751424,1.0247753655324021,0.8878619060864135,-2.448736080725988,-1.6853428723555122,2,right
6.632000000000001,-0.7564141520423556,0.4557111667181368,0.19600685274192253,2.727558254924819,4.465497160094559,1.0467971252585853,0.9094606046734866,-2.4459643940018205,-1.663609733446246,2,right
6.635,-0.7600923141306507,0.44413016725151444,0.19355837400179554,2.683158537533552,4.4059124287244416,1.0682790671354276,0.9312504629546959,-2.442772017010455,-1.640889976477008,2,right
6.636,-0.7635769973006103,0.4328139719831257,0.19104907575558214,2.6370395506992907,4.342803622189388,1.089202966921061,0.9532272411034362,-2.4391782372214594,-1.617183991477697,2,right
6.64,-0.7668672833142695,0.4217708268133245,0.18848064882611898,2.589225866378757,4.276196302185333,1.1095518678181842,0.9753865963151819,-2.4352030491477654,-1.5924929211880634,2,right
6.641,-0.7699624820685846,0.41100868466817797,0.18585472800534686,2.53974419597925,4.206120562598325,1.12931010407057,0.9977240832978442,-2.430867123473547,-1.5668186662791708,2,right
6.645,-0.7728621222569229,0.40053519915585,0.18317289051932323,2.4886233529914144,4.132611000653845,1.148463319939849,1.0202351551823066,-2.426191774474812,-1.5401638895635006,2,right
6.646,-0.7755659412095282,0.39035771841958394,0.18043665478025225,2.4358942108687174,4.055706676981678,1.1669984841209942,1.0429151649167852,-2.4211989257213276,-1.512532019122772,2,right
6.65,-0.7780738739634829,0.38048327918520947,0.17764747940507378,2.3815896560115384,3.975451064395089,1.184903899653231,1.0657593672091759,-2.4159110740474796,-1.483927250279724,2,right
6.65,-0.7803860416216966,0.37091860099818114,0.17480676247237972,2.3257445357090893,3.891891985173226,1.2021692093813756,1.0887629210820469,-2.4103512517786694,-1.4543545463372995,2,right
6.657,-0.7825027390696736,0.3616700806456538,0.17191584099199808,2.268395600887758,3.8050815366259094,1.2187853970208122,1.111920893105418,-2.40454298719896,-1.4238196380058572,2,right
6.6579999999999995,-0.7844244221270195,0.35274378676607565,0.16897599058087773,2.209581443509946,3.71507600471036,1.234744783877534,1.1352282613729434,-2.3985102632448316,-1.3923290214362485,2,right
6.66,-0.7861516942155374,0.34414545466079527,0.16598842537185887,2.1493424284630525,3.6219357654599373,1.250041021272822,1.1586799202524127,-2.392277474448462,-1.3598899548122814,2,right
6.66,-0.7876852926240634,0.33588048133255455,0.1629542982106131,2.0877206197739366,3.5257251739756286,1.2646690787202777,1.1822706857661607,-2.385869382349928,-1.3265104536456123,2,right
6.6610000000000005,-0.789026074444094,0.3279539207811866,0.15987470120432584,2.0247597009799967,3.4265124407218464,1.2786252279010484,1.2059953011409985,-2.3793110699511315,-1.2921992852595034,2,right
6.665,-0.7901750022536028,0.32037047959643594,0.15675066667926854,1.9605048894838901,3.3243694948591194,1.2919070224811713,1.229848441891928,-2.372627895980355,-1.2569659631374428,2,right
6.665,-0.7911331296497873,0.3131345129083567,0.15358316859480317,1.8950028447149825,3.219371834337423,1.304513273813054,1.2538247199800698,-2.3658454495391936,-1.2208207416176424,2,right
6.67,-0.7919015867621763,0.30625002077480323,0.15037312444463571,1.8283015700918253,3.1115983628054202,1.3164440226105516,1.2779186869020192,-2.3589895053490872,-1.1837746110656162,2,right
6.671,-0.7924815658896529,0.2997206450858365,0.14712139764976742,1.760450309651687,3.0011312150830554,1.3277005069320422,1.3021248357439854,-2.3520859796176534,-1.1458392934621042,2,right
6.671,-0.7928743073926389,0.29354966704814783,0.14382880042116414,1.6914994417853282,2.8880555759978037,1.3382851272483482,1.326437602269581,-2.3451608865053992,-1.1070272383025315,2,right
6.675,-0.7930810859602768,0.2877400052980343,0.1404960970452686,1.6215003733872009,2.7724594990775233,1.3482014096172743,1.350851365110463,-2.338240295173162,-1.0673516187016012,2,right
6.675,-0.7931031973808053,0.28229421469035587,0.1371240075145777,1.5505054368525164,2.6544337298845164,1.3574539677377355,1.3753604451293562,-2.3313502873905105,-1.026826327594075,2,right
6.678999999999999,-0.7929419459539774,0.2772144858143584,0.1337132113920341,1.4785677907737251,2.534071535706868,1.3660484642101403,1.3999591040252848,-2.324516915685267,-0.9854659739202667,2,right
6.68,-0.7925986326749616,0.27250264528574114,0.13026435177630297,1.4057413243105155,2.411468541615296,1.3739915710808965,1.4246415422511398,-2.3177661620143226,-0.9432858786823064,2,right
6.684,-0.7920745442929725,0.2681601568602854,0.1267780392357302,1.332080565029495,2.2867225725466533,1.3812909296976381,1.4494018963139728,-2.3111238969360137,-0.900302070754786,2,right
6.685,-0.7913709433175972,0.2641881234094643,0.12325485560269135,1.257640590007014,2.1599335010685285,1.3879551098998724,1.474234235528672,-2.304615839264482,-0.8565312823310014,2,right
6.689,-0.7904890590161326,0.2605872897876772,0.11969535755922373,1.1824769399860384,2.0312031004729376,1.3939935685678857,1.4991325582959152,-2.298267516186681,-0.811990943883655,2,right
6.69,-0.789430079416358,0.25735804660024375,0.1161000799874995,1.1066455363755794,1.9006349028409737,1.399416607550892,1.524090787975514,-2.2921042238230003,-0.7666991785165739,2,right
6.694,-0.7881951443028707,0.25450043485292617,0.11246953909562704,1.0302026008789569,1.7683340617143917,1.404235330993592,1.549102768426473,-2.2861509882128725,-0.7206747955817374,2,right
6.695,-0.78678533917587,0.2520141514329332,0.1088042353555391,0.95320457753509,1.6344072190045493,1.4084616020785092,1.574162259285282,-2.2804325267071777,-0.6739372834337024,2,right
6.7,-0.7852016901324955,0.24989855534431563,0.10510465630341652,0.8757080569550945,1.4989623757638388,1.4121079991997096,1.599262931054117,-2.2749732097497892,-0.6265068011913552,2,right
6.7010000000000005,-0.7834451596332415,0.24815267460265159,0.10137127925537022,0.7977697025347059,1.3621087664397782,1.415187771581768,1.6243983600708003,-2.26979702303122,-0.5784041693748158,2,right
6.704,-0.7815166431281304,0.24677521368721228,0.09760457398543299,0.7194461784214572,1.2239567362272543,1.417714794356154,1.6495620234324864,-2.2649275299979887,-0.5296508592832736,2,right
6.705,-0.7794169665349051,0.2457645614517889,0.09380500540295318,0.6407940790141047,1.0846176211300602,1.4197035231055404,1.6747472939451713,-2.2603878347020765,-0.4802689809775451,2,right
6.707999999999999,-0.7771468845770932,0.24511879940460546,0.08997303625484948,0.5618698597705295,0.9442036303388182,1.421168947884907,1.6999474351712185,-2.2562005449756546,-0.43028126972921227,2,right
6.709,-0.774707079996239,0.24483571028027257,0.08610912986671988,0.4827297690992339,0.802827730528654,1.4221265467267363,1.7251555966471768,-2.2523877359171425,-0.37971107079633587,2,right
6.712999999999999,-0.7720981636474279,0.2449127868402512,0.08221375292784369,0.4034297811086059,0.6606035316765811,1.422592238636041,1.7503648093442228,-2.248970913675608,-0.32858232238393004,2,right
6.7139999999999995,-0.7693206754731666,0.24534724085090978,0.07828737832121097,0.32402552898734716,0.5176451739954654,1.4225823360794714,1.7755679814436094,-2.245970979521521,-0.276919536645648,2,right
6.718,-0.7663750863310486,0.24613601219909925,0.07433048800100481,0.24457223878883458,0.37406721557867945,1.4221134969712856,1.800757894499519,-2.243408194192961,-0.22474777858145525,2,right
6.718999999999999,-0.7632618006282863,0.2472757781142328,0.0703435759236328,0.1651246633917286,0.2299845203471218,1.421202676157554,1.8259272000617308,-2.241302142507505,-0.17209264268446417,2,right
6.723,-0.7599811596960817,0.2487629624732855,0.06632715104070301,0.08573701640884006,0.08551214588816479,1.4198670763986077,1.8510684168304807,-2.239671698231222,-0.11898022718857029,2,right
6.724,-0.7565334458244629,0.250593745171183,0.062281740360079704,0.00646290581612468,-0.05923476922568182,1.4181240988484196,1.8761739284158703,-2.23853498919745,-0.06543710576707004,2,right
6.728,-0.7529188868758651,0.25276407154386016,0.058207892073513554,-0.0726447329263091,-0.20414111905205537,1.415991293028339,1.9012359817741056,-2.2379093626693547,-0.011490296531051951,2,right
6.729,-0.7491376614025438,0.2552696618347623,0.05410617873921035,-0.15153370448912346,-0.3490919452427551,1.41348630629138,1.9262466863683174,-2.2378113509574233,0.042832771730994146,2,right
6.73,-0.7451899042065474,0.2581060206983233,0.0499772004993469,-0.23015262225222485,-0.4939725537720592,1.4106268327720948,1.9511980139792822,-2.2382566373835284,0.09750429566231471,2,right
6.734,-0.7410757122963958,0.2612684467358606,0.04582158830709691,-0.3084509780739309,-0.6386686338453731,1.4074305618159417,1.9760817988710828,-2.239260022826933,0.15249613454121289,2,right
6.735,-0.7367951512040875,0.26475204205746505,0.041640007132371065,-0.38637921347734683,-0.7830663794043675,1.4039151258809925,2.000889737894275,-2.240835393168164,0.2077798468552411,2,right
6.739,-0.7323482616260978,0.2685517218561917,0.03743315910896974,-0.4638887924796936,-0.927052613644563,1.400098047903798,2.025613390231272,-2.2429956878692083,0.26332672499378207,2,right
6.74,-0.7277350663480111,0.2726622239724914,0.03320178658194114,-0.5409322761109475,-1.070514916757226,1.3959966881764985,2.0502441767086403,-2.2457528697877938,0.31910782765314233,2,right
6.7410000000000005,-0.7229555774114924,0.27707811842378866,0.028946675016287386,-0.6174633977747696,-1.2133417560887594,1.3916281910624613,2.074773378723086,-2.249117896246115,0.37509401001894593,2,right
6.742999999999999,-0.7180098034850455,0.2817938168766864,0.0246686557353868,-0.6934371369973246,-1.3554226160775107,1.3870094323828928,2.0991921368521425,-2.253100691360243,0.4312559518853378,2,right
6.744,-0.7128977574012892,0.28680358204022216,0.020368608465047795,-0.7688097882159349,-1.4966481243085976,1.3821569685871749,2.123491449220295,-2.257710119638155,0.48756418387117767,2,right
6.747999999999999,-0.7076194638200535,0.29210153695288155,0.016047463665128034,-0.8435390221503637,-1.6369101710433431,1.3770869885377806,2.1476621696909945,-2.2629539608560774,0.5439891118939965,2,right
6.749,-0.7021749669708094,0.2976816741280858,0.011706204638015688,-0.9175839389041017,-1.776102021409859,1.371815268233889,2.171695005954677,-2.268838886224603,0.6005010400629869,2,right
6.752000000000001,-0.6965643384237634,0.3035378645191712,0.007345869412937802,-0.990905112833628,-1.9141184204566868,1.3663571285160188,2.195580517582592,-2.275370435857836,0.6570701921527261,2,right
6.752999999999999,-0.6907876848376356,0.30966386626685444,0.0029675524123526096,-1.0634646294002323,-2.050855691472197,1.3607273957371468,2.219309114115844,-2.2825529975606482,0.7136667318196586,2,right
6.757000000000001,-0.684845155632788,0.316053333198,-0.0014275940919475187,-1.1352261142170277,-2.1862118279693856,1.3549403653852041,2.2428710532586678,-2.290389786950961,0.7702607817236191,2,right
6.757999999999999,-0.6787369505403485,0.32269982305155204,-0.00583835872828292,-1.2061547545017017,-2.3200865797323202,1.349009768641299,2.2662564392445366,-2.29888282893583,0.8268224417168399,2,right
6.7620000000000005,-0.6724633269822669,0.32959680541364433,-0.010263469980139679,-1.2762173131433738,-2.4523815333168386,1.3429487418575254,2.289455221443248,-2.3080329405619686,0.8833218062629645,2,right
6.763,-0.6660246072448495,0.3367376693490149,-0.014701595353042558,-1.3453821355896343,-2.5830001873941164,1.3367697989377643,2.3124571932766504,-2.31783971526323,0.9397289812485832,2,right
6.767,-0.659421185417989,0.34411573072065776,-0.01915134076613598,-1.4136191497574533,-2.711848023321481,1.3304848066044646,2.3352519915101713,-2.328301508529447,0.9960141003497119,2,right
6.768,-0.6526535340808847,0.35172423919394125,-0.02361125018771331,-1.4808998591691618,-2.838832571320313,1.3241049625340235,2.35782909598677,-2.3394154250229136,1.0521473411154587,2,right
6.773,-0.6457222107200764,0.3595563849246574,-0.0280798055402112,-1.5471973295121322,-2.9638634726360626,1.3176407763430384,2.380177829869367,-2.3511773071706803,1.1080989409308548,2,right
6.773,-0.6386278638672791,0.36760530493267646,-0.032555426905102644,-1.6124861688181233,-3.0868525380503287,1.3111020534074003,2.402287360457215,-2.3635817252627085,1.16383921302048,2,right
6.777,-0.6313712389448515,0.3758640891643089,-0.03703647305831755,-1.6767425014555144,-3.2077138031095958,1.304497881495924,2.424146700641039,-2.3766219690877977,1.219338562654072,2,right
6.778,-0.6239531838066481,0.3843257862469982,-0.041521242360618514,-1.739943936124822,-3.3263635804296245,1.2978366201999654,2.4457447110611383,-2.390290041141075,1.274567503714793,2,right
6.782,-0.616374653960733,0.39298340893938694,-0.04600797401574967,-1.802069528045014,-3.4427205094286224,1.2911258931402623,2.4670701030319266,-2.4045766514386515,1.3294966757902127,2,right
6.7829999999999995,-0.6086367174590414,0.40182993927883787,-0.05049484969403374,-1.8630997355151566,-3.5567056038362157,1.2843725829320465,2.4881114422956907,-2.4194712139769066,1.3840968619453826,2,right
6.787000000000001,-0.6007405594403554,0.41085833342838296,-0.054979995502607085,-1.923016371032913,-3.6682422973188937,1.277582828889303,2.508857153667587,-2.4349618448756267,1.4383390073365936,2,right
6.787999999999999,-0.5926874863174273,0.4200615262258963,-0.05946148426815954,-1.9818025471483238,-3.7772564875560284,1.270762027448916,2.529295526633113,-2.451035362246031,1.492194238823553,2,right
6.792000000000001,-0.5844789296051247,0.42943243543911047,-0.0639373380868874,-2.0394426172281506,-3.883676579093742,1.2639148352953156,2.5494147219584744,-2.4676772878264406,1.5456338857367677,2,right
6.792999999999999,-0.5761164493933071,0.4389639657305773,-0.0684055310918423,-2.09592211130287,-3.9874335252968836,1.257045175166129,2.5692027793734207,-2.4848718504300655,1.5986295019558978,2,right
6.797000000000001,-0.5676017374752,0.4486490123371233,-0.07286399238994497,-2.1512276671651644,-4.088460869712126,1.2501562443192518,2.5886476263852374,-2.502601991251052,1.651152889453728,2,right
6.797999999999999,-0.5589366201479943,0.4584804644694103,-0.07731060912700695,-2.205346956885462,-4.186694787147759,1.2432505256416817,2.607737088281666,-2.5208493710765647,1.7031761234592147,2,right
6.7989999999999995,-0.5501230607056283,0.46845120843990035,-0.08174322964599014,-2.258268608906746,-4.282074124768085,1.2363298013803825,2.626458899349658,-2.539594379447575,1.7546715793161116,2,right
6.8020000000000005,-0.5411631616418112,0.4785541305322004,-0.08615966671113365,-2.3099821258774895,-4.374540443492528,1.2293951694753946,2.6448007151863226,-2.5588161457791547,1.8056119607339256,2,right
6.803,-0.5320591665738875,0.48878211962967894,-0.0905577007797057,-2.3604777983781524,-4.464038059981497,1.22244706247536,2.662750125708202,-2.5784925523923974,1.8559703284454176,2,right
6.806,-0.522813461891089,0.49912806962383355,-0.09493508331039574,-2.409746614693258,-4.550514089482907,1.2154852690155793,2.680294668314372,-2.598600249378094,1.9057201279049492,2,right
6.807,-0.5134285781299137,0.5095848816232549,-0.09928954009756279,-2.4577801667775794,-4.633918489804841,1.2085089578386816,2.6974218408073583,-2.6191146712470874,1.9548352150387753,2,right
6.807,-0.503907191081703,0.5201454659843773,-0.10361877461633291,-2.504570552698414,-4.7142041065316285,1.2015167043003752,2.7141191139439265,-2.6400100553836756,2.0032898797378222,2,right
6.812,-0.49425212263626217,0.5308027441863133,-0.10792047136239312,-2.5501102765170414,-4.791326718893339,1.1945065191148263,2.7303739436362044,-2.661259462353093,2.0510588671601324,2,right
6.813,-0.48446634136034095,0.5415496505731573,-0.11219229917369682,-2.594392147801303,-4.865245084432318,1.1874758787560082,2.7461737828523174,-2.6828347981219425,2.0981173969840157,2,right
6.817,-0.47455296280673415,0.5523791339875529,-0.1164319145236925,-2.6374091836423044,-4.935920979902874,1.1804217567434392,2.761506093264473,-2.704706838251551,2.14444118075105,2,right
6.817,-0.4645152495521053,0.5632841593188286,-0.12063696477459787,-2.679154515360024,-5.003319236529746,1.1733406552285481,2.7763583566911647,-2.726845254125235,2.190006437436109,2,right
6.821000000000001,-0.45435661096609786,0.5742577089883374,-0.1248050913782134,-2.7196213008465904,-5.067407768999279,1.1662286366360193,2.7907180863788583,-2.7492186412713817,2.2347899073795436,2,right
6.822,-0.4440806027173008,0.5852927843946512,-0.1289339330129874,-2.758802642807731,-5.128157598246519,1.1590813553022683,2.804572838167172,-2.7717945498451266,2.2787688647145488,2,right
6.8260000000000005,-0.43369092602427184,0.5963824073412063,-0.1330211286490334,-2.7966915130222976,-5.18554286823182,1.1518940890906997,2.8179102215802025,-2.7945395173321534,2.3219211284205596,2,right
6.827999999999999,-0.42319142666357085,0.6075196214679428,-0.13706432053872783,-2.8332806827361043,-5.239540856890965,1.144661770963303,2.8307179108852107,-2.8174191035388114,2.3642250721312776,2,right
6.832000000000001,-0.41258609375070504,0.6186974937071982,-0.1410611571406857,-2.8685626593026203,-5.2901319814333005,1.137379020488047,2.842983656158446,-2.8403979279333407,2.4056596328236224,2,right
6.832000000000001,-0.4018790583129504,0.6299091157838161,-0.1450092959977119,-2.9025296291793468,-5.337299798152657,1.1300401752614166,2.854695294396398,-2.863439709403472,2.4462043185115254,2,right
6.835,-0.39107459167470865,0.6411476057797225,-0.14890640660015453,-2.9351734073849713,-5.381030996906156,1.1226393222252997,2.8658407607092413,-2.8865073084960478,2.485839215066046,2,right
6.836,-0.3801771036759101,0.6524061097828231,-0.15275017326958226,-2.96648539351864,-5.421315390406199,1.1151703288572927,2.8764080996316834,-2.9095627722045982,2.5245449922808016,2,right
6.84,-0.3691911407423266,0.6636778036385773,-0.15653829809232325,-2.996456534438908,-5.4581458984611,1.10762687421333,2.8863854765848322,-2.932567381370991,2.562302909299135,2,right
6.841,-0.3581213838249689,0.6749558948205086,-0.16026850392225744,-3.025077293696125,-5.491518527289981,1.1000024798013626,2.8957611895210835,-2.9554817007673293,2.599094819516848,2,right
6.845,-0.34697264622495083,0.6862336244335349,-0.163938537462301,-3.0523376278081904,-5.521432344027632,1.0922905402646153,2.9045236807823454,-2.9782656319242604,2.6349031750716447,2,right
6.846,-0.3357498713197939,0.6975042693615408,-0.16754617242582312,-3.0782269694657507,-5.547889446525141,1.0844843538527396,2.91266154920025,-3.0008784687716856,2.6697110310277132,2,right
6.85,-0.3244581302067071,0.708761144568545,-0.1710892127730906,-3.102734217749045,-5.570894928542148,1.0765771526589447,2.920163562465257,-3.0232789561576157,2.7035020493611106,2,right
6.851,-0.31310261927831334,0.7199976055609346,-0.17456549601444835,-3.1258477354346814,-5.590456840416676,1.0685621326009371,2.927018669789794,-3.045425351310534,2.73626050284877,2,right
6.855,-0.30168865774631126,0.7312070510157976,-0.17797289657065163,-3.147555353466698,-5.606586145288552,1.0604324831232295,2.933216014888795,-3.067275488310149,2.7679712789610975,2,right
6.856,-0.2902216851275787,0.7423829255774249,-0.18130932918068848,-3.1678443826622815,-5.61929667094251,1.0521814165980896,2.938744949299154,-3.0887868456307808,2.798619883855195,2,right
6.86,-0.27870725870493174,0.75351872282093,-0.18457275234845089,-3.1867016327185222,-5.628605057327218,1.0438021974020895,2.9435950460577707,-3.1099166168209202,2.8281924465627775,2,right
6.861000000000001,-0.26715105097168096,0.7646079883787729,-0.18776117181991778,-3.2041134385825303,-5.634530699796569,1.0352881706448847,2.9477561137559674,-3.1306217843816415,2.856675723463861,2,right
6.8660000000000005,-0.25555884706536613,0.7756443232229054,-0.19087264407951768,-3.220065694243177,-5.637095688109817,1.0266327905265082,2.951218210986136,-3.15085919690557,2.884057103134225,2,right
6.8660000000000005,-0.24393654219157831,0.7866213870927776,-0.19390527984855435,-3.234543893998599,-5.6363247412173045,1.017829648299091,2.953971661187234,-3.1705856494413194,2.9103246116261783,2,right
6.867000000000001,-0.23229013903346477,0.7975329020597838,-0.19685724756447584,-3.247533181249461,-5.632245137848879,1.0088724998085377,2.9560070678572945,-3.1897579665686573,2.935466918111987,2,right
6.87,-0.22062574513605393,0.8083726562232301,-0.19972677682086631,-3.2590184048637614,-5.624886642912413,0.9997552925912798,2.9573153300334685,-3.208333086807107,2.9594733405875133,2,right
6.87,-0.20894957024876296,0.8191345075365641,-0.20251216175052492,-3.268984183154753,-5.614281429700263,0.9904721925008027,2.957887657901606,-3.2262681465007828,2.982333851203383,2,right
6.875,-0.19726792360687848,0.8298123877597964,-0.20521176433134009,-3.2774149755092505,-5.600463997892021,0.9810176098382025,2.957715588431794,-3.243520561799107,3.0040390809148043,2,right
6.875,-0.18558721113210583,0.8404003065285105,-0.20782401758814295,-3.2842951615368072,-5.583471087452872,0.9713862249549758,2.9567910009998237,-3.260048108212544,3.024580323366543,2,right
6.876,-0.17391393253029758,0.8508923555298683,-0.21034742866067171,-3.2896091267934104,-5.5633415891194815,0.9615730132678051,2.9551061329889214,-3.275808997699094,3.0439495380533033,2,right
6.879,-0.16225467826069875,0.8612827127829792,-0.21278058171121336,-3.2933413526665545,-5.540116453239572,0.951573269574276,2.952653595371227,-3.2907619533310193,3.062139352817841,2,right
6.88,-0.15061612634795637,0.8715656470278506,-0.21512214065090723,-3.295476507191642,-5.513838599324174,0.9413826315299901,2.9494263882663554,-3.304866281589189,3.07914306574581,2,right
6.885,-0.13900503900911476,0.8817355222275616,-0.21737085166723766,-3.295999534377612,-5.484552828060593,0.9309971021749767,2.9454179164721737,-3.3180819423302275,3.0949546465129663,2,right
6.886,-0.12742825907357586,0.8917868021850252,-0.21952554553912226,-3.294895741077542,-5.4523057364417795,0.920413071447115,2.940622004960749,-3.330369616469343,3.1095687372369665,2,right
6.89,-0.11589270618115693,0.9017140552748593,-0.22158513973147126,-3.292150881247847,-5.41714563605709,0.909627336647688,2.9350329143301623,-3.341690771419265,3.1229806528825983,2,right
6.891,-0.10440537274860014,0.9115119592924784,-0.22354864026554885,-3.2877512375975404,-5.379122474460419,0.898637121829224,2.9286453562006765,-3.352007724323169,3.1351863812658576,2,right
6.894,-0.0929733196978689,0.9211753064224365,-0.22541514336582594,-3.2816837006243516,-5.338287759523159,0.8874400960752155,2.9214545085414603,-3.3612837031167984,3.146182582698833,2,right
6.895,-0.08160367194062337,0.9306990083248015,-0.22718383689216898,-3.273935845029793,-5.294694486671091,0.8760343906407262,2.9134560309118056,-3.3694829054522417,3.1559665893139264,2,right
6.901,-0.07030361361256594,0.9400781013342405,-0.22885400157744,-3.2644960035005077,-5.24839706889609,0.8644186149223064,2.90464607959847,-3.3765705555129086,3.1645364041024653,2,right
6.902,-0.059080383051098515,0.9493077517645994,-0.2304250120998956,-3.2533533378384374,-5.199451269425457,0.8525918712250481,2.895021322628488,-3.3825129587462803,3.171890699699292,2,right
6.905,-0.04794126751252052,0.9583832613129031,-0.23189633802314508,-3.2404979074175313,-5.147914136923748,0.8405537682940111,2.8845789546344562,-3.3872775545379197,3.178028816941422,2,right
6.905,-0.03689359762967636,0.9673000725595726,-0.2332675446325916,-3.2259207349398493,-5.093843943094236,0.82830443357665,2.873316711546986,-3.3908329668470154,3.1829507632254037,2,right
6.91,-0.025944741613574095,0.9760537745643454,-0.234538293687766,-3.209613869459034,-5.037300122539509,0.815844524182264,2.8612328850866597,-3.3931490528204757,3.1866572106844955,2,right
6.91,-0.015102099200741737,0.9846401085579869,-0.2357083440990428,-3.191570446634202,-4.978343214733285,0.8031752365038893,2.848326337025489,-3.394196949399181,3.1891494942032894,2,right
6.912999999999999,-0.004373095343277876,0.9930549737274684,-0.2367775525295579,-3.1717847461723543,-4.917034807948238,0.7902983144674467,2.8345965131855224,-3.3939491179265504,3.19042960928393,2,right
6.914,0.006234826365696099,1.001294433087885,-0.2377458739196886,-3.1502522464124523,-4.853437484977533,0.7772160563723516,2.8200434571398834,-3.39237938676601,3.1905002097745765,2,right
6.917999999999999,0.01671421053956131,1.0093547194291372,-0.23861336192934196,-3.1269696759993133,-4.787614770480834,0.763931320287195,2.8046678235791576,-3.3894629919303165,3.1893646054672726,2,right
6.919,0.02705759712608796,1.0172322413184156,-0.2393801692915755,-3.10193506259047,-4.719631079778791,0.7504475279635106,2.788470891303695,-3.3851766157219663,3.187026759568904,2,right
6.9239999999999995,0.03725752882289419,1.024923589129225,-0.2400465480724184,-3.075147778534139,-4.649551668913459,0.7367686672300477,2.771454575800016,-3.379498423380126,3.1834912860454603,2,right
6.925,0.047306558789388164,1.0324255410550756,-0.24061284983339348,-3.0466085834514036,-4.577442585785681,0.7228992928293994,2.753621441357152,-3.3724080977256583,3.178763446836338,2,right
6.928,0.05719725866652805,1.039735069054662,-0.2410795256823934,-3.0163196636506933,-4.503370622174292,0.7088445256582546,2.7349747126763986,-3.3638868717918844,3.172849148931986,2,right
6.928,0.06692222691740075,1.0468493446676579,-0.24144712616855762,-2.984284668297605,-4.427403266435949,0.6946100503719915,2.7155182859256057,-3.353917559424724,3.1657549413047446,2,right
6.933,0.07647409750253793,1.0537657446361732,-0.24171630094453597,-2.9505087422580925,-4.349608656678597,0.6802021113137774,2.6952567391867777,-3.342484583831802,3.157488011679315,2,right
6.934,0.08584554890539886,1.0604818562674507,-0.24188779811198124,-2.9149985555280162,-4.270055534195919,0.665627506727814,2.674195342246862,-3.3295740040724953,3.148056183133923,2,right
6.935,0.0950293135259768,1.0669954824813317,-0.24196246318964024,-2.877762329157037,-4.18881319694468,0.6508935812158491,2.6523400656964804,-3.3151735395591713,3.1374679105601047,2,right
6.938,0.1040181874632246,1.0733046464994904,-0.2419412376810964,-2.8388098575698337,-4.10595145284164,0.6360082163955774,2.629697589329973,-3.2992725927840403,3.125732277078108,2,right
6.939,0.1128050407090176,1.0794075961411427,-0.2418251572545213,-2.7981525271826633,-4.021540572651642,0.6209798197190803,2.6062753098550373,-3.2818622705642437,3.1128589905417923,2,right
6.943,0.1213828277768655,1.0853028076835338,-0.2416153495727291,-2.7558033312083037,-3.9356512422336447,0.6058173114089929,2.582081347900763,-3.262935404011092,3.098858380223349,2,right
6.944,0.1297445987876073,1.0909889892335152,-0.2413130318233351,-2.7117768806101403,-3.8483545139809934,0.5905301095052317,2.5571245542796635,-3.2424865672766687,3.0837413936924465,2,right
6.944,0.13788351103286373,1.096465083554262,-0.24091950799335804,-2.666089411524405,-3.7597217576588005,0.5751281131925937,2.531414515439875,-3.2205120950442674,3.067519593860876,2,right
6.9479999999999995,0.14579284103536194,1.101730270300441,-0.24043616591437827,-2.6187587901184117,-3.6698246115047852,0.5596216848993412,2.504961558038041,-3.197010098708263,3.0502051561525168,2,right
6.949,0.1534659971210896,1.106783967622844,-0.23986447408058661,-2.5698045162109544,-3.578734934826912,0.5440216318344206,2.4777767525612027,-3.171980481184681,3.03181086575521,2,right
6.952999999999999,0.1608965325074202,1.1116258331026014,-0.23920597821934853,-2.519247726613131,-3.4865247629563143,0.528339187452746,2.449871915923864,-3.145424950289319,3.012350114907964,2,right
6.952999999999999,0.168078158892939,1.116255763974573,-0.2384622975784083,-2.467111198489437,-3.393266264742592,0.5125859930174853,2.421259612964265,-3.117347030615916,2.991836900173786,2,right
6.957999999999999,0.17500476051340522,1.1206738966075636,-0.2376351208900616,-2.413419352671183,-3.299031702404165,0.496774079250139,2.3919531567617867,-3.087752073842469,2.970285819645321,2,right
6.959,0.1816704086095755,1.1248806052224676,-0.2367262019818735,-2.3581982567770488,-3.2038933934689307,0.48091584802338133,2.3619666076953583,-3.05664726738941,2.947712070027431,2,right
6.962000000000001,0.1880693762386187,1.1288764998434986,-0.2357373550245963,-2.3014756279910444,-3.107923674537492,0.4650240540514378,2.3313147711606987,-3.024041641349004,2.9241314435378065,2,right
6.962999999999999,0.19419615335155785,1.1326624234920208,-0.23467044943712484,-2.243280835343703,-3.01119486659838,0.44911178653260087,2.3000131938622297,-2.989946073600959,2.8995603245637356,2,right
6.9670000000000005,0.20004546205403384,1.1362394486469625,-0.23352740449698015,-2.183644901337918,-2.913779241622138,0.43319245069835455,2.268078158593552,-2.9543732930249096,2.8740156860102224,2,right
6.968,0.20561227196538265,1.1396088730078788,-0.23231018372033457,-2.1226005027565487,-2.815748990158721,0.41727974922348493,2.2355266774184623,-2.9173378807161434,2.847515085271746,2,right
6.972,0.21089181558946982,1.1427722146039336,-0.2310207890711523,-2.0601819704846784,-2.717176189660483,0.40138766345149224,2.202376483162626,-2.8788562691066293,2.8200766597571025,2,right
6.973,0.2158796036081436,1.14573120629459,-0.2296612550415323,-1.996425288175279,-2.6181327732510726,0.3855304343896024,2.1686460191242003,-2.838946738889206,2.791719121893998,2,right
6.978,0.22057144000443776,1.1484877897075587,-0.22823364262834034,-1.9313680895829888,-2.5186904986587644,0.369722543427695,2.134354426909938,-2.797629413638562,2.762461753537293,2,right
6.979,0.22496343691925103,1.1510441086574847,-0.22674003322285435,-1.8650496543867694,-2.418920917031215,0.35397869273552574,2.099521532301571,-2.7549262520185143,2.732324399702118,2,right
6.983,0.22905202914344952,1.1534025020845962,-0.22518252243167255,-1.797510902318373,-2.3188953413472717,0.338313785292719,2.0641678290556267,-2.710861037460955,2.7013274615404392,2,right
6.984,0.23283398814738643,1.1555654965461206,-0.22356321385630776,-1.7287943854098065,-2.2186848141403144,0.322742904506152,2.0283144605382017,-2.6654593651978438,2.6694918884770713,2,right
6.986000000000001,0.23630643555156292,1.1575357982856251,-0.22188421287088705,-1.6589442781693655,-2.1183600742466755,0.30728129336953464,1.9919831990946775,-2.6187486265236073,2.6368391694185926,2,right
6.987,0.23946685594561887,1.1593162848981933,-0.22014762044714917,-1.588006365492314,-2.017991522291943,0.29194433312021517,1.9551964230528565,-2.570757990161421,2.60339132294618,2,right
6.992000000000001,0.24231310896804492,1.1609099966042848,-0.21835552708197056,-1.5160280281088936,-1.917649184627421,0.2767475213485149,1.9179770912565701,-2.521518380602999,2.5691708864009373,2,right
6.992999999999999,0.24484344056530416,1.1623201271431856,-0.2165100068869239,-1.4430582253691073,-1.8174026754286963,0.26170644951520694,1.880348715025438,-2.4710624532877756,2.534200903767976,2,right
6.997999999999999,0.24705649335518184,1.16355001429805,-0.21461311190315216,-1.369147475160589,-1.7173211566681212,0.24683677983311414,1.8423353274351477,-2.4194245664836727,2.4985049122631966,2,right
6.997999999999999,0.24895131602451892,1.1646031300680677,-0.21266686670640636,-1.2943478307528915,-1.6174732956731173,0.232154221469203,1.8039614498113863,-2.3666407497280746,2.4621069275245295,2,right
7.001,0.2505273716973329,1.1654830705075956,-0.21067326336399647,-1.2187128543586792,-1.5179272199824554,0.2176745060239983,1.7652520554057203,-2.31274866873164,2.4250314273450826,2,right
7.002000000000001,0.25178454521869514,1.1661935452544419,-0.20863425679652267,-1.1422975871996104,-1.4187504692131634,0.20341336224563591,1.7262325306023314,-2.2577875868816726,2.387303334072937,2,right
7.004,0.25272314931254974,1.166738366769585,-0.2065517605852396,-1.0651585158621495,-1.3200099436513648,0.18938648993640833,1.6869286346905705,-2.2017983239059875,2.348947996141137,2,right
7.005,0.25334392958009516,1.1671214393136498,-0.2044276432599261,-0.9873535347261418,-1.221771849281227,0.17560953301024057,1.6473664596190378,-2.144823212492511,2.309991169378836,2,right
7.0089999999999995,0.25364806830094616,1.1673467476968178,-0.20226372511105165,-0.9089419042467579,-1.124101638967256,0.1620980516601618,1.6075723907642954,-2.0869060534193022,2.2704589985633317,2,right
7.011,0.2536371869821218,1.1674183458583285,-0.20006177559506397,-0.8299842048683276,-1.0270639495064215,0.14886749359551102,1.5675730690594176,-2.0280920693192357,2.2303779993300825,2,right
7.0120000000000005,0.25331334757708435,1.167340345354907,-0.19782351143742588,-0.750542286428501,-0.930722534424372,0.13593316435272412,1.5273953544451273,-1.968427856963262,2.1897750403667233,2,right
7.013999999999999,0.25267905228071785,1.1671169038551081,-0.19555059556916923,-0.6706792133185232,-0.8351401931732502,0.12331019690127151,1.4870662905292547,-1.9079613378959681,2.14867732577757,2,right
7.015,0.25173724180328166,1.1667522137438027,-0.19324463704776892,-0.5904592064002191,-0.7403786987973779,0.11101352115764757,1.4466130703396747,-1.846741707254574,2.107112377503528,2,right
7.018,0.2504912920260307,1.1662504909529758,-0.19090719212999419,-0.5099475830879868,-0.6464987269167034,0.09905783423812219,1.4060630030553556,-1.7848193806000774,2.0651080176808247,2,right
7.019,0.2489450089374956,1.165615964165902,-0.18853976669478928,-0.4292106965938007,-0.5535597880984501,0.08745757206490078,1.365443481599726,-1.7222459385869429,2.0226923508205634,2,right
7.024,0.24710262176512454,1.1648528645749832,-0.18614382022019332,-0.3483158745958278,-0.46162016428283364,0.07622688255074923,1.3247819509802077,-1.6590740692955765,1.9798937456897439,2,right
7.025,0.24496877427299596,1.163965416383218,-0.18372077145900265,-0.2673313571813309,-0.3707368491496059,0.06537960037116144,1.2841058772574816,-1.5953575080498132,1.9367408167731572,2,right
7.028,0.2425485142809444,1.1629578282194781,-0.18127200584162703,-0.1863262338320669,-0.28096549215856437,0.05492922329077545,1.2434427170278595,-1.5311509745397713,1.893262405194355,2,right
7.029,0.23984728154287427,1.161834285595301,-0.17879888449828374,-0.10537037921993979,-0.19236034600003113,0.044888890011805085,1.2028198873020093,-1.4665101070687176,1.8494875589728124,2,right
7.0329999999999995,0.23687089417496077,1.1605989444750775,-0.17630275467231243,-0.02453438758040927,-0.1049742171943374,0.03527135951335492,1.1622647356632427,-1.4014913937410143,1.8054455124933793,2,right
7.034,0.23362553383651966,1.1592559259734594,-0.1737849612190305,0.056110494568900805,-0.018858419582542186,0.026088991851625592,1.1218045105886076,-1.336152100406824,1.7611656650631762,2,right
7.037999999999999,0.23011772984522905,1.1578093121424504,-0.1712468588597325,0.13649243759680627,0.06593726954604087,0.017353730392193806,1.0814663318161488,-1.2705501951779994,1.7166775584302496,2,right
7.039,0.2263543423710308,1.1562631427699495,-0.1686898248768758,0.21653910004644586,0.14936465094043463,0.00907708544676514,1.041277160641889,-1.2047442693284929,1.6720108531375273,2,right
7.044,0.2223425448138764,1.1546214130828636,-0.16611527197238204,0.29617770227396034,0.23137714273598833,0.001270119288046696,1.0012637700303573,-1.138793454391715,1.6271953035849298,2,right
7.044,0.21808980543824166,1.1528880722313404,-0.16352466104769628,0.37533510266872727,0.3119298179072576,-0.0060565674823295475,0.9614527144228452,-1.0727573352665105,1.5822607316719068,2,right
7.047999999999999,0.2136038683170209,1.1510670224253559,-0.16091951369242144,0.45393787668494756,0.390979440065339,-0.012892848236585519,0.9218702991279909,-1.0066958591428323,1.5372369988921377,2,right
7.0489999999999995,0.20889273363177469,1.1491621185995877,-0.1583014241860426,0.5319123989132072,0.4684844978351626,-0.01922908131668244,0.8825425491798039,-0.9406692400577875,1.4921539767517258,2,right
7.0520000000000005,0.20396463738493104,1.1471771684945675,-0.1556720708264792,0.6091849284192533,0.5444052380440552,-0.02505611974433866,0.84349517754882,-0.874737858892476,1.4470415153818594,2,right
7.053,0.1988280305973119,1.1451159330577088,-0.15303322640351547,0.6856816975756318,0.6187036979485738,-0.030365319664797923,0.8047535525927303,-0.8089621586199783,1.4019294102166668,2,right
7.058,0.193491558082767,1.1429821270839684,-0.1503867676374117,0.7613290046100267,0.6913437367221756,-0.03514854754253075,0.7663426646335659,-0.7434025346149429,1.3568473666068168,2,right
7.059,0.18796403690305122,1.1407794200307968,-0.1477346834054178,0.8360533100921262,0.7622910664217408,-0.039398186125589804,0.7282870915493169,-0.6781192198355018,1.311824962239331,2,right
7.062,0.18225443460694676,1.1385114369547082,-0.14507908158641453,0.9097813375786118,0.831513282646312,-0.043107139193853575,0.6906109632687464,-0.6131721646886873,1.2668916072340803,2,right
7.063,0.17637184735036376,1.1361817595278434,-0.1424221943751687,0.9824401786334264,0.8989798950966522,-0.046268835104883076,0.6533379250591068,-0.5486209113911439,1.2220765017875166,2,right
7.068,0.1703254779837842,1.133793927103808,-0.13976638195863827,1.0539574024378264,0.9646623582393619,-0.0488772291495842,0.6164910995725575,-0.48452446286987677,1.177408591334735,2,right
7.069,0.16412461418082536,1.1313514378133205,-0.1371141345005204,1.1242611702018623,1.0285341022743488,-0.05092680472831641,0.5800930479935078,-0.4209411474095058,1.1329165197030429,2,right
7.07,0.1577786066692405,1.128857749681407,-0.1344680724317609,1.1932803545858603,1.0905705645994013,-0.05241257335651755,0.5441657313058821,-0.3579284823430049,1.08862858163385,2,right
7.072,0.15129684762927056,1.1263162817700272,-0.1318309450903109,1.2609446643372015,1.1507492219604982,-0.05333007350732601,0.5087304730758677,-0.29554304124497693,1.044572676551942,2,right
7.0729999999999995,0.14468874935847353,1.123730415363727,-0.12920562779979103,1.327184774344208,1.2090496234712842,-0.05367536829707755,0.4738079247716512,-0.23384032792722048,1.000776264959881,2,right
7.077000000000001,0.137963723352284,1.1211034952272945,-0.12659511751927058,1.3919324610997432,1.2654534245521438,-0.05344504205128126,0.4394180339673893,-0.1728746584486095,0.9572663279325563,2,right
7.077999999999999,0.1311311599786286,1.1184388309666873,-0.12400252721739824,1.4551207425356532,1.3199444211952778,-0.052636195953779115,0.40558001540473115,-0.11269905119234112,0.9140693296857556,2,right
7.079,0.12420040891929957,1.1157396985156587,-0.12143107912169035,1.5166840193354354,1.372508582807155,-0.051246443280265744,0.3723123248116103,-0.05336512483341307,0.8712111830929958,2,right
7.082000000000001,0.11718076054413241,1.1130093417552593,-0.11888409699654981,1.5765582138006526,1.4231340812355802,-0.04927390488242379,0.3396326353795563,0.005076995978693608,0.828717218025679,2,right
7.082999999999999,0.11008142840449411,1.1102509742557958,-0.11636499762923129,1.6346809033697143,1.4718113142218183,-0.04671720542053821,0.3075578168023573,0.0625787673948831,0.7866121523925372,2,right
7.087000000000001,0.10291153305347402,1.1074677811104574,-0.11387728172288145,1.6909914477326402,1.518532922662322,-0.043575470540670166,0.27610391678054247,0.11909330576920796,0.7449200657552985,2,right
7.0889999999999995,0.09568008738554633,1.1046629208080323,-0.11142452437653934,1.7454311095081558,1.5632938016977425,-0.03984832502406694,0.24528614489784117,0.1745754598573104,0.7036643753985542,2,right
7.0920000000000005,0.0883959836414495,1.101839527074181,-0.1090103652758422,1.7979431686499632,1.6060911057690408,-0.03553589190146142,0.2151188587775101,0.2289818759756285,0.6628678147329231,2,right
7.093,0.08106798216304444,1.0990007106010309,-0.10663849864398028,1.848473030743821,1.646924247774908,-0.030638792523234905,0.18561555242820307,0.2822710562836209,0.6225524139117925,2,right
7.098,0.07370470191617387,1.0961495605847626,-0.10431266292684405,1.8969683293517103,1.6857948924590755,-0.025158147574736417,0.15678884669088317,0.3344034103483024,0.582739482543169,2,right
7.098,0.06631461273210489,1.0932891459989258,-0.10203663012735635,1.9433790225538115,1.7227069441504577,-0.019095579024371413,0.1286504817001436,0.3853413001472957,0.5434495943794881,2,right
7.102,0.05890602916034842,1.0904225165433583,-0.09981419467743702,1.987657483833346,1.7576665289734346,-0.01245321299039417,0.10121131127520917,0.4350490786634003,0.5047025738696134,2,right
7.103,0.05148710579078836,1.0875527032193608,-0.0976491617452691,2.0297585874434865,1.7906819716399467,-0.005233683510663019,0.07448129915783251,0.4834931222203597,0.4665174844586972,2,right
7.107,0.04406583389940218,1.084682718486326,-0.09554533491147979,2.0696397883895585,1.8217637669294557,0.0025598628020532263,0.04846951701627415,0.5306418567060801,0.42891261852307766,2,right
7.108,0.03665003929586551,1.0818155559514595,-0.09350650319798089,2.1072611971536372,1.8509245459572161,0.010923761238293667,0.02318414413656272,0.5764657778260274,0.39190548882894144,2,right
7.112,0.029247381288158902,1.0789541895359256,-0.09153642748603835,2.142585649282391,1.8781790373257272,0.019853822624381557,-0.0013675312757336724,0.6209374655258987,0.355512821405097,2,right
7.1129999999999995,0.02186535271147202,1.076101572054264,-0.08963882640383872,2.1755787699526565,1.9035440232486798,0.029345326131539274,-0.025179109257931855,0.6640315927189534,0.31975054972186695,2,right
7.1160000000000005,0.014511280985224537,1.0732606331441839,-0.08781736179001826,2.206209033622739,1.9270382907312031,0.03939301128566023,-0.04824507378947649,0.7057249284495821,0.2846338100698244,2,right
7.117000000000001,0.007192330160462919,1.0704342764929586,-0.08607562385166849,2.2344478188708474,1.9486825778847416,0.049991069203381255,-0.07056078709851797,0.7459963356208159,0.25017693803386093,2,right
7.122999999999999,-8.449609742462163e-05,1.0676253763253454,-0.08441711614635242,2.260269458515366,1.9684995154494684,0.06113313308171065,-0.09212248264421781,0.7848267634095225,0.21639346595988268,2,right
7.124,-0.007312350675407919,1.0648367731454702,-0.08284524053681809,2.2836512851049062,1.9865135635917737,0.07281226797006374,-0.11292725684103377,0.8221992344890192,0.1832961213132855,2,right
7.126,-0.014484538450557177,1.0620712687589813,-0.08136328229181909,2.3045736718591954,2.002750944039055,0.08502095985513754,-0.13297305958908381,0.8580988271747488,0.1508968258302524,2,right
7.127000000000001,-0.021594511156661556,1.0593316206390209,-0.07997439552836623,2.3230200691349383,2.017239567608791,0.09775110409061787,-0.15225868367252365,0.892512652604533,0.11920669536484961,2,right
7.131,-0.02863586186609989,1.0566205357375018,-0.07868158920259101,2.338977036483774,2.0300089571837043,0.11099399320525367,-0.17078375308569999,0.925429827060731,0.08823604033686733,2,right
7.132000000000001,-0.03560231929220709,1.0539406638786404,-0.07748771385373736,2.3524342703624055,2.0410901661797194,0.1247403041243535,-0.18854871034466303,0.9568414395374062,0.057994366687354526,2,right
7.136,-0.0424877421257703,1.0512945908971776,-0.07639544928677287,2.3633846275478545,2.050515692548402,0.13898008484125543,-0.2055548028406836,0.9867405147112893,0.02849037727043469,2,right
7.1370000000000005,-0.04928611361055893,1.0486848316862405,-0.07540729334338753,2.3718241443036674,2.058319388350626,0.1537027405767941,-0.22180406829645283,1.015121971770784,-0.0002680262899361605,2,right
7.138,-0.05599153653795792,1.0461138232992808,-0.07452555186461086,2.377752051335713,2.0645363649333754,0.16889701946623234,-0.23729931939465235,1.0419825800924907,-0.028273741071097695,2,right
7.141,-0.06259822882620393,1.043583918234286,-0.07375232990622844,2.3811707845690173,2.069202893736833,0.18455099781454223,-0.25204412765261963,1.0673209130501387,-0.055520459343401565,2,right
7.141,-0.06910051986619485,1.041097378036376,-0.0730895242382281,2.382085991769883,2.0723563027542413,0.200652064962305,-0.2660428066084449,1.0911373009367067,-0.08200266387108687,2,right
7.146,-0.07549284784108062,1.0386563673660119,-0.07253881713266473,2.3805065350236903,2.074034868804287,0.2171869078434551,-0.2793003943704816,1.113433783436594,-0.10771562198514276,2,right
7.147,-0.08176975822410472,1.0362629486650616,-0.07210167141691677,2.376444489038375,2.0742777064803226,0.23414149550541896,-0.29182263557388005,1.134214061780583,-0.13265537848681666,2,right
7.147,-0.08792590362660144,1.0339190775150668,-0.07177932674731635,2.3699151351766536,2.0731246559126486,0.2515010642018949,-0.3036159627843709,1.153483450652018,-0.15681874745783467,2,right
7.151,-0.0939560451381137,1.0316265987463227,-0.07157279703691943,2.3609369510797147,2.070616172184865,0.26925010385777187,-0.314687477387395,1.1712488299082566,-0.1802033030511916,2,right
7.152,-0.09985505529296143,1.0293872433345301,-0.07148286894451836,2.3495315957711536,2.066793218532159,0.2873723465188819,-0.32504492999856693,1.1875185961771038,-0.20280736933414945,2,right
7.157,-0.1056179227930068,1.0272026261023068,-0.07151010131124491,2.3357238901826025,2.0616971641691353,0.30585075706203085,-0.33469670042936744,1.2023026143835995,-0.22463000925285392,2,right
7.1579999999999995,-0.11123975909085522,1.0250742442144325,-0.07165482542922277,2.3195417930686753,2.055369686881872,0.324667526253862,-0.34365177723988577,1.2156121692582116,-0.24567101278574274,2,right
7.16,-0.11671580689095576,1.0230034764221285,-0.07191714604065393,2.301016372278507,2.047852680373316,0.3438040662105759,-0.35191973690838485,1.2274599168731941,-0.26593088435067935,2,right
7.1610000000000005,-0.1220414505645247,1.0209915829807719,-0.07229694298531615,2.280181771344296,2.0391881663474614,0.3632410083115518,-0.3595107226454356,1.2378598362496072,-0.28541082952850233,2,right
7.166,-0.12721222839885518,1.0190397061404919,-0.07279387343227373,2.2570751713404147,2.0294182113142254,0.3829582036208866,-0.3664354228783659,1.246827181073259,-0.3041127411634365,2,right
7.167000000000001,-0.13222384651466604,1.0171488710909478,-0.07340737464322923,2.2317367479599564,2.0185848480935213,0.40293472587178286,-0.37270504942979904,1.254378431553637,-0.32203918489856986,2,right
7.17,-0.13707219419423317,1.0153199872314396,-0.0741366672203271,2.2042096237489353,2.006730001993726,0.4231488770695801,-0.37833131541211024,1.2605312464557341,-0.3391933842023606,2,right
7.171,-0.14175336027943647,1.0135538496371417,-0.0749807587950699,2.1745398154318534,1.9938954216365659,0.44357819577002744,-0.3833264128577186,1.265304415330571,-0.35557920493990613,2,right
7.175,-0.146263650233188,1.011851140601926,-0.07593844812118271,2.142776176255937,1.9801226143973882,0.4641994680901364,-0.38770299010325104,1.2687178109661417,-0.3712011395404779,2,right
7.176,-0.1505996034154622,1.010212431155571,-0.07700832954225482,2.1089703332750602,1.9654527864268576,0.48498874150963617,-0.3914741289437664,1.2707923420764986,-0.3860642908106106,2,right
7.178999999999999,-0.15475801010723986,1.00863818247487,-0.07818879781394951,2.0731766194882297,1.9499267872172892,0.50592134152167,-0.39465332157141797,1.271549906242735,-0.40017435543982793,2,right
7.18,-0.15873592782141777,1.0071287471326724,-0.07947805327198511,2.0354520007414925,1.933585058674148,0.5269718911919192,-0.3972544473111539,1.27101334311571,-0.41353760724389177,2,right
7.185,-0.16253069646788165,1.0056843701562699,-0.08087410735160132,1.9958559972962684,1.916467588650659,0.5481143336858245,-0.39929174916431853,1.2692063878865283,-0.42616088018828674,2,right
7.186,-0.16613995198887757,1.0043051898954214,-0.0823747884791883,1.954450599961406,1.898613868901009,0.5693219578239835,-0.40077981016931785,1.2661536250269976,-0.43805155123248746,2,right
7.19,-0.1695616381478672,1.0029912387281839,-0.08397774836778697,1.911300180680715,1.8800628574052842,0.5905674267261415,-0.4017335295868519,1.2618804422985725,-0.4492175230334117,2,right
7.191,-0.17279401623516938,1.0017424436583922,-0.08568046875136633,1.8664713974623617,1.8608529450170537,0.6118228096044532,-0.402168098915598,1.256412985024651,-0.4596672065443398,2,right
7.195,-0.17583567254032742,1.0005586268803717,-0.0874802685857267,1.8200330935313147,1.8410219263823955,0.6330596167668828,-0.4020989777426521,1.2497781106175017,-0.4694095035434749,2,right
7.196000000000001,-0.17868552352766154,0.9994395064001725,-0.08937431172659825,1.7720561905810353,1.820606975077152,0.654248837891711,-0.40154186943149933,1.2420033433476099,-0.47845378912423986,2,right
7.2010000000000005,-0.1813428187309546,0.9983846968053139,-0.09135961507082904,1.7226135759957677,1.7996446229073173,0.6753609836341528,-0.40051269664879785,1.233116829339789,-0.48680989417734855,2,right
7.202000000000001,-0.18380714144945884,0.9973937102672987,-0.0934330571187139,1.6717799839101852,1.7781707433156597,0.696366130626029,-0.3990275767298088,1.2231472917770547,-0.49448808789265936,2,right
7.205,-0.18607840737672537,0.9964659578454864,-0.09559138688871513,1.61963186996872,1.756220538836017,0.7172339699292991,-0.39710279688090866,1.2121239862899962,-0.5014990603068131,2,right
7.205,-0.18815686132254403,0.9956007511397252,-0.09783123309548453,1.5662472796427032,1.7338285325351213,0.7379338590040407,-0.39475478923115775,1.200076656525396,-0.5078539049179903,2,right
7.206,-0.19004307219023112,0.9947973043157134,-0.10014911349614655,1.5117057099594506,1.7110285633803368,0.758434877251153,-0.3920001058180814,1.1870354899809064,-0.5135641013737074,2,right
7.209,-0.19173792635142883,0.9940547365054145,-0.10254144431904484,1.4560879644936517,1.6878537854703357,0.7787058851896654,-0.38885539372563815,1.1730310743626158,-0.518641498211421,2,right
7.21,-0.19324261954641184,0.9933720745661209,-0.1050045496985505,1.399476001467876,1.6643366710644518,0.7987155873280504,-0.38533737066561974,1.1580943548155496,-0.5230982956163542,2,right
7.2139999999999995,-0.19455864744997226,0.9927482561650575,-0.10753467103773406,1.3419527748056839,1.6405090173452868,0.8184325987883665,-0.38146280121807385,1.1422565922781467,-0.5269470281725791,2,right
7.215,-0.19568779506317321,0.9921821331449626,-0.11012797621818772,1.2836020682007863,1.6164019567832588,0.837825515638233,-0.37724847381113813,1.1255493230359257,-0.5302005476058066,2,right
7.216,-0.19663212509031786,0.9916724751253714,-0.11278056858627747,1.2245083233780467,1.5920459706467596,0.8568629883690455,-0.3727111784451135,1.108004319450726,-0.5328720055280219,2,right
7.218999999999999,-0.1973939654388357,0.9912179733026782,-0.1154884956638035,1.164756465726869,1.5674709046174298,0.8755137970295022,-0.36786768514968166,1.089653551820098,-0.534974836195049,2,right
7.218999999999999,-0.19797589596675766,0.9908172444198637,-0.11824775754612238,1.1044317316003418,1.542705985145227,0.8937469260067439,-0.36273472316219724,1.0705291513189095,-0.5365227392864192,2,right
7.224,-0.19838073461723058,0.9904688348788655,-0.12105431495853104,1.0436195004561766,1.5177798355012717,0.9115316369622243,-0.357328960814055,1.0506633739728384,-0.5375296627152475,2,right
7.225,-0.19861152310569208,0.9901712249701756,-0.12390409695010415,0.9824051330062157,1.492720491069098,0.9288375393568192,-0.3516669861112552,1.030088565611106,-0.5380097854741853,2,right
7.229,-0.19867151233829092,0.9899228332008084,-0.12679300821967446,0.9208738154244375,1.4675554137384186,0.9456346585143205,-0.34576528799445644,1.0088371277435773,-0.5379775005219299,2,right
7.23,-0.19856414773685402,0.9897220207112428,-0.12971693608877025,0.8591104094389465,1.442311505329859,0.9618935012743415,-0.33964023826302375,0.9869414843052298,-0.5374473977132102,2,right
7.233,-0.1982930546337615,0.9895670957803442,-0.1326717571557122,0.7971993081322769,1.4170151199787309,0.9775851192842836,-0.33330807414684044,0.9644340492089563,-0.5364342467736597,2,right
7.234,-0.19786202388321728,0.9894563184236825,-0.13565334367942827,0.7352242972734339,1.3916920754056092,0.9926811699785542,-0.32678488150896623,0.9413471946457198,-0.5349529803195183,2,right
7.239,-0.1972749978151489,0.9893879050950546,-0.1386575697472328,0.6732684220044183,1.3663676630012547,1.0071539752916805,-0.3200865786615804,0.917713220069232,-0.5330186769206677,2,right
7.239,-0.19653605663621154,0.9893600335020772,-0.14168031727635425,0.6114138587035669,1.341066656653261,1.0209765781503368,-0.31322890077705434,0.8935643218005651,-0.5306465442041247,2,right
7.242999999999999,-0.19564940536101283,0.9893708475433157,-0.1447174818866655,0.5497417918478469,1.3158133202417428,1.0341227967875926,-0.30622738487544787,0.8689325631864463,-0.527851901993769,2,right
7.242999999999999,-0.1946193613371544,0.9894184623679912,-0.14776497866638144,0.4883322956962972,1.2906314137313593,1.0465672769208991,-0.2990973553692212,0.8438498452434086,-0.5246501654807819,2,right
7.247999999999999,-0.19345034241080875,0.9895009695530229,-0.15081874783702842,0.42726422061710334,1.2655441977870483,1.0582855418334685,-0.29185391014549583,0.8183478777184936,-0.5210568284180137,2,right
7.249,-0.19214685576559634,0.9896164423868403,-0.15387476031105454,0.366615083881308,1.240574436840976,1.0692540403967519,-0.28451190716578345,0.7924581504958159,-0.5170874463302843,2,right
7.252999999999999,-0.19071348745547823,0.9897629412433752,-0.15692902312753576,0.3064609647469153,1.2157444005384068,1.0794501930697211,-0.2770859515627332,0.7662119052769994,-0.5127576197314537,2,right
7.252999999999999,-0.18915489263993146,0.9899385190224467,-0.15997758475011686,0.24687640365812338,1.1910758634904786,1.0888524359085592,-0.2695903832131201,0.7396401074622964,-0.5080829773379735,2,right
7.257999999999999,-0.1874757865149173,0.9901412266253948,-0.16301654021471296,0.18793430538561973,1.1665901032621964,1.0974402626182242,-0.26203926476601547,0.7127734181580774,-0.5030791592675485,2,right
7.2589999999999995,-0.18568093591536228,0.990369118427598,-0.16604203611839746,0.12970584593529383,1.142307896524364,1.105194264675132,-0.25444637010483645,0.6856421662353658,-0.49776180021050526,2,right
7.263,-0.18377515154509474,0.9906202577027374,-0.1690502754427625,0.07226038305435331,1.1182495132986314,1.1120961695479192,-0.24682517322177314,0.6582763203631444,-0.49214651256047043,2,right
7.263999999999999,-0.18176328077143944,0.9908927219485774,-0.17203752220464638,0.015665370165671464,1.0944347092253617,1.1181288770409223,-0.23918883748292946,0.6307054609393219,-0.48624886949002,2,right
7.268,-0.1796502009070931,0.9911846080620632,-0.1750001059247958,-0.040013726436758594,1.070882715784607,1.123276493782601,-0.2315502052623956,0.6029587518414803,-0.48008438795605646,2,right
7.269,-0.17744081289368993,0.9914940373134068,-0.1779344259017389,-0.09471350729614388,1.0476122284011187,1.1275243658787015,-0.2239217879233858,0.5750649119188558,-0.4736685116188163,2,right
7.273,-0.17514003530134478,0.9918191600740965,-0.1808369552756671,-0.14837271656742665,1.0246413923650244,1.1308591097474547,-0.2163157561245328,0.5470521861464078,-0.4670165936575993,2,right
7.273,-0.17275279856640852,0.9921581602614081,-0.18370424486668815,-0.20093231601784967,1.0019877865005493,1.1332686411515627,-0.20874393043930103,0.5189483164117629,-0.4601438794825198,2,right
7.274,-0.17028403940338388,0.9925092594711643,-0.1865329267741613,-0.25233555641055716,0.9796684045159749,1.1347422024391527,-0.20121777232590748,0.4907805121575394,-0.45306548942573804,2,right
7.278,-0.16773869534255095,0.992870720779604,-0.18931971772887285,-0.3025280464252533,0.9576996339688797,1.1352703880032495,-0.1937483755741187,0.4625754215550916,-0.4457964016477363,2,right
7.279,-0.16512169935698698,0.9932408522017945,-0.19206142219581415,-0.35145781926678554,0.9360972327816238,1.1348451679666631,-0.1863464584047864,0.4343591041375936,-0.43835143557845074,2,right
7.2829999999999995,-0.16243797454913725,0.9936180097980108,-0.19475493523110354,-0.3990753970256248,0.9148763033307833,1.1334599100793044,-0.17902235634871821,0.40615700556805084,-0.4307452361275964,2,right
7.284,-0.15969242887212962,0.9940006004234919,-0.19739724510218082,-0.44533385243284884,0.8940512645741912,1.1311093997261938,-0.17178601594272566,0.37799393476385146,-0.42299225874519303,2,right
7.284,-0.15688994986784016,0.994387084121718,-0.1999854356850162,-0.4901888668964055,0.8736358234703931,1.127789857786857,-0.16464698923148727,0.3498940433472815,-0.415106755327911,2,right
7.287999999999999,-0.15403539940998867,0.9947759761659587,-0.20251668865590766,-0.533598783283775,0.8536429473853672,1.123498955998014,-0.15761442905420867,0.3218808073410428,-0.4071027609494183,2,right
7.289,-0.15113360844454504,0.995165848758725,-0.2049882855002864,-0.5755246523301464,0.8340848387435457,1.1182358295547281,-0.15069708509531188,0.2939770110279183,-0.39899408139248593,2,right
7.292000000000001,-0.14818937172295604,0.9955553324041059,-0.2073976093661046,-0.6159302722994023,0.8149729123912524,1.1120010868372436,-0.14390330067866458,0.26620473289391394,-0.3907942814602315,2,right
7.292999999999999,-0.14520744252729711,0.9959431169718334,-0.20974214679181966,-0.6547822219389543,0.7963177757029359,1.1047968162339772,-0.13724101028516622,0.23858533357445022,-0.3825166740435345,2,right
7.297999999999999,-0.14219252739014152,0.9963279524723703,-0.21201948933758785,-0.6920498868487944,0.7781292113740402,1.0966265900455472,-0.13071773777383675,0.2111394457234912,-0.37417430992136025,2,right
7.2989999999999995,-0.13914928081527836,0.9967086495601176,-0.2142273351448258,-0.7277054793807639,0.7604161628456294,1.0874954654519324,-0.12434059528690856,0.183886965725875,-0.3657799682704644,2,right
7.3020000000000005,-0.1360823000086778,0.9970840797802002,-0.21636349044585249,-0.7617240521795848,0.7431867223071983,1.0774099825220735,-0.11811628281979894,0.15684704717354642,-0.3573461478607277,2,right
7.303,-0.13299611963377833,0.9974531755753022,-0.21842587104194025,-0.7940835054726549,0.7264481212254362,1.0663781592424566,-0.11205108843723834,0.13003809602689048,-0.3488850589121828,2,right
7.308,-0.1298952066122002,0.9978149300718091,-0.22041250376391483,-0.824764588210981,0.7102067233480768,1.0544094835384614,-0.10615088911724964,0.10347776738291868,-0.3404086155896446,2,right
7.309,-0.1267839549987969,0.998168396667188,-0.22232152792464072,-0.8537508931589309,0.694468020133354,1.0415149022595191,-0.10042115220511066,0.07718296377266899,-0.33192842911074305,2,right
7.313,-0.12366668096579203,0.9985126884422358,-0.22415119676802012,-0.8810288460257195,0.6792366285569931,1.0277068070964077,-0.0948669374598892,0.05116983491084291,-0.3234558014430777,2,right
7.314,-0.12054761793332174,0.9988469774229382,-0.2258998789147407,-0.9065876887267335,0.6645162912500895,1.0129990173963273,-0.08949289967661249,0.02545377882141522,-0.3150017195661677,2,right
7.317,-0.11743091188394847,0.9991704937175231,-0.22756605980076844,-0.930419456857938,0.6503098789226736,0.9974067598387382,-0.0843032918676222,4.9444263713164976e-05,-0.30657685027386117,2,right
7.317,-0.11432061689808688,0.9994825245540166,-0.2291483430998024,-0.9525189514617007,0.6366193950292135,0.9809466449323245,-0.07930196898716897,-0.025029265615730385,-0.29819153549288746,2,right
7.3229999999999995,-0.1112206909462952,0.9997824132419043,-0.23064545211488022,-0.9728837051574403,0.6234459826337747,0.9636366402908659,-0.07449239218381762,-0.049769188479393815,-0.2898557880932891,2,right
7.325,-0.10813499197285666,1.0000695580794545,-0.23205623111764181,-0.9915139427055534,0.6107899334340293,0.9454960406432574,-0.06987763356576292,-0.07415789691600348,-0.2815792881665536,2,right
7.327000000000001,-0.10506727430227018,1.000343411226072,-0.23337964660771754,-1.0084125360680982,0.5986506989047886,0.9265454345304354,-0.06546038146469599,-0.09818369155080638,-0.2733713797473772,2,right
7.327999999999999,-0.10202118539530396,1.000603477555973,-0.23461478846007888,-1.0235849540247368,0.5870269035232155,0.9068066676395198,-0.061242946184411215,-0.12183559321992317,-0.26524106795513575,2,right
7.331,-0.09900026297462151,1.0008493135056773,-0.2357608709260412,-1.037039206397465,0.5759163600393578,0.8863028027231061,-0.05722726622090258,-0.1451033342788187,-0.2571970165313061,2,right
7.332000000000001,-0.09600793253319266,1.0010805259236109,-0.2368172334551542,-1.0487857829326845,0.5653160867571276,0.8650580760493145,-0.05341491494126482,-0.167977349113886,-0.2492475457492789,2,right
7.336,-0.09304750523220041,1.0012967709251275,-0.23778334130957257,-1.0588375868842217,0.5552223267923301,0.8430978503259391,-0.04980710770928791,-0.19044876392506718,-0.24140063067322456,2,right
7.337000000000001,-0.09012217618791994,1.0014977527509699,-0.23865878594701803,-1.0672098633359648,0.5456305692758153,0.8204485640398509,-0.046404709446212354,-0.21250938584633275,-0.23366389974292254,2,right
7.341,-0.08723502313853179,1.0016832226229713,-0.239443285151712,-1.0739201222978947,0.5365355724712971,0.7971376771506756,-0.04320824261569608,-0.2341516914697111,-0.22604463366173388,2,right
7.3420000000000005,-0.08438900547404513,1.001852977588785,-0.2401366828955846,-1.0789880566044159,0.5279313887788297,0.7731936130757194,-0.04021789561789496,-0.2553688148329209,-0.21854976457025038,2,right
7.3420000000000005,-0.081586963608496,1.002006859347636,-0.2407389489162411,-1.0824354546390775,0.519811391596376,0.748645696901134,-0.0374335315544708,-0.2761545349070592,-0.2111858755137626,2,right
7.346,-0.0788316186727479,1.0021447530502396,-0.24125017800377208,-1.0842861079050028,0.5121683040133302,0.7235240897524194,-0.03485469728431175,-0.29650326257924103,-0.203959200257554,2,right
7.347,-0.07612557250426585,1.0022665860662923,-0.2416705889940007,-1.0845657134556346,0.50499422931126,0.6978597192555401,-0.032480632666663976,-0.3164100271014448,-0.1968756235296792,2,right
7.351,-0.07347130790611521,1.0023723267124576,-0.24200052347003198,-1.0833017713223965,0.49828068321342983,0.6716842061314902,-0.030310279912642,-0.33587046199800097,-0.18994068174596496,2,right
7.352,-0.07087118914571207,1.0024619829345844,-0.24224044417727614,-1.0805234777045256,0.49201862765055315,0.6450297875319391,-0.02834229300929476,-0.3548807904632651,-0.18315956422683968,2,right
7.352,-0.06832746266689746,1.0025356009403152,-0.24239093315955093,-1.0762616158216471,0.4861985054956936,0.6179292387416344,-0.026575047204669397,-0.37343781030216805,-0.1765371148907115,2,right
7.356,-0.06584225799236441,1.0025932637806243,-0.24245268962561867,-1.070548446958464,0.48081027554707506,0.5904157954382137,-0.02500664854763514,-0.39153887846953983,-0.17007783440398486,2,right
7.357,-0.06341758879300698,1.0026350898802625,-0.24242652755779687,-1.0634176035933556,0.4758434472143408,0.5625230781322592,-0.023634943476810246,-0.4091818952628126,-0.1637858827682455,2,right
7.361000000000001,-0.061055354097439146,1.002661231518037,-0.2423133730773051,-1.054903985358593,0.4712871146809391,0.5342850193895492,-0.02245752845351105,-0.4263652882214055,-0.15766508232559875,2,right
7.361000000000001,-0.05875733961166562,1.0026718732586544,-0.2421142615835702,-1.04504365794248,0.46712999049203785,0.5057357938698263,-0.021471759634212977,-0.44308799578478686,-0.15171892116361452,2,right
7.3660000000000005,-0.056525219117470854,1.0026672303381652,-0.2418303346865969,-1.033873754913007,0.4633604385536762,0.4769097511020291,-0.020674762578577782,-0.4593494507598944,-0.1459505569018119,2,right
7.367000000000001,-0.054360555919309016,1.002647547004798,-0.24146283695400395,-1.0214323824386426,0.45996650653003934,0.447841350914941,-0.02006344198965887,-0.4751495636472734,-0.14036282084210788,2,right
7.37,-0.05226480431223359,1.0026130948166845,-0.24101311249832452,-1.0077585268780123,0.45693595762688893,0.41856510144131315,-0.019634491483446724,-0.49048870587397253,-0.13495822246615474,2,right
7.371,-0.05023931104582994,1.0025641708979904,-0.24048260143420486,-0.9928919652064597,0.45425630175029585,0.3891154996127291,-0.019384403385458177,-0.5053676929799114,-0.12973895426300175,2,right
7.375,-0.04828531676090989,1.0025010961558407,-0.2398728362364205,-0.976873178243835,0.45191482603089744,0.35952697406177797,-0.019309478552606268,-0.5197877678031098,-0.12470689687103405,2,right
7.376,-0.046403957378026085,1.0024242134627321,-0.23918543802794856,-0.9597432666443125,0.44989862470494724,0.3298338303475077,-0.01940583621911086,-0.5337505837078467,-0.11986362451866771,2,right
7.38,-0.044596265421028736,1.00233388581208,-0.23842211282482736,-0.9415438696056189,0.4481946283444314,0.3000701984196325,-0.019669423865723634,-0.5472581878984942,-0.11521041074881146,2,right
7.381,-0.04286317126499067,1.0022304944567972,-0.23758464776175228,-0.9223170862517415,0.44678963242949876,0.27026998223656784,-0.02009602711204384,-0.5603130048604562,-0.1107482344126426,2,right
7.386,-0.0412055043039557,1.0021144370419524,-0.2366749073182385,-0.9021053996399977,0.44567032525738265,0.24046681145206564,-0.020681279632192892,-0.5729178199683248,-0.10647778591878665,2,right
7.386,-0.03962399403828818,1.0019861257422602,-0.2356948295598005,-0.8809516033402729,0.44482331518289214,0.21069399508502093,-0.02142067309459598,-0.5850757633000672,-0.10239947372453508,2,right
7.39,-0.038119271084255016,1.0018459854133723,-0.2346464224035477,-0.858898730531287,0.4442351571864074,0.18098447708691306,-0.02230956712708679,-0.5967902936947486,-0.09851343105628413,2,right
7.391,-0.03669186811157421,1.001694451763633,-0.23353175991435746,-0.8359899855559164,0.4438923787661352,0.15137079372133716,-0.02334319930900688,-0.6080651830900115,-0.09481952284692792,2,right
7.395,-0.035342220718720285,1.001531969550816,-0.23235297863622095,-0.8122686778748964,0.4437815051521622,0.1218850326701674,-0.02451669519241383,-0.6189045011742423,-0.09131735287848992,2,right
7.396,-0.034070668259502876,1.0013589908059775,-0.23111227396171946,-0.787778158355645,0.44388908384058684,0.09255879378107468,-0.025825078354941473,-0.6293126003870883,-0.08800627111882911,2,right
7.4,-0.03287745463595406,1.0011759730835545,-0.229811896539347,-0.7625617578304904,0.44420170844671686,0.06342315137139554,-0.02726328048727104,-0.639294101300721,-0.08488538124180832,2,right
7.4,-0.0317627290714364,1.0009833777336221,-0.2284541487136908,-0.7366627278562503,0.4447060418769848,0.03450861800371549,-0.02882615151857363,-0.6488538784129974,-0.0819535483208626,2,right
7.405,-0.030726546875764902,1.0007816681902184,-0.22704138098884127,-0.7101241836049025,0.44538883881986163,0.005845109648987593,-0.03050846978367174,-0.6579970463824254,-0.07920940668645371,2,right
7.406000000000001,-0.029768870212937937,1.0005713082706775,-0.22557598850269658,-0.6829890488129984,0.4462369675566373,-0.02253808784644731,-0.03230495223604038,-0.6667289467336197,-0.0766513679384429,2,right
7.41,-0.02888956888193387,1.0003527604850517,-0.22406040750049594,-0.6553000027155129,0.4472374310934893,-0.05061235107293783,-0.034210264711126176,-0.675055135060721,-0.07427762910495679,2,right
7.41,-0.028088421121089488,1.0001264843597317,-0.22249711179978546,-0.6270994288879841,0.4483773876167728,-0.0783497502309763,-0.036219032237722874,-0.6829813687462193,-0.07208618093707649,2,right
7.412000000000001,-0.027365114446433664,0.9998929347829306,-0.2208886092435543,-0.5984293659190829,0.44964417027393916,-0.10572307924750583,-0.038325849360054065,-0.690513595167247,-0.07007481631530003,2,right
7.414,-0.0267192465341167,0.9996525603812109,-0.21923743814137586,-0.5693314598341604,0.4510253062829304,-0.1327058849156698,-0.040525290369778776,-0.697657940280702,-0.06824113871921007,2,right
7.415,-0.02615032615741685,0.9994058019369496,-0.21754616370088709,-0.5398469181888514,0.4525085353732973,-0.1592724951376273,-0.04281191931201726,-0.7044206974332208,-0.06658257069838752,2,right
7.419,-0.0256577741897606,0.9991530908579365,-0.21581737445462323,-0.5100164657504616,0.45408182756265303,-0.18539804634901436,-0.04518029966519138,-0.7108083162850798,-0.0650963622970434,2,right
7.42,-0.025240924684939818,0.9988948477115972,-0.21405367868878136,-0.47988030170810886,0.4557334002661189,-0.21105851017519553,-0.04762500365848768,-0.716827391815534,-0.06377959941039806,2,right
7.421,-0.024899026043137647,0.9986314808358955,-0.21225770088022727,-0.44947805847383876,0.45745173470529416,-0.2362307192316918,-0.050140621226417416,-0.7224846534201966,-0.06262921206525408,2,right
7.4239999999999995,-0.024631242268254874,0.998363385036733,-0.2104320781468939,-0.4188487623561856,0.45922559152698067,-0.26089239173408285,-0.052721768607265435,-0.7277869541188228,-0.061641982620487194,2,right
7.425,-0.02443665432022568,0.9980909403795627,-0.20857945671544686,-0.388030796509135,0.4610440255107019,-0.28502215444478163,-0.0553630965924393,-0.7327412598908036,-0.06081455388366585,2,right
7.43,-0.024314261564602178,0.9978145110821295,-0.20670248840829,-0.35706186643631443,0.46289639927566456,-0.30859956361924484,-0.058059298433933676,-0.7373546391546383,-0.06014343714048783,2,right
7.43,-0.024262983318928066,0.9975344445147811,-0.2048038271491255,-0.3259789681093386,0.4647723959545329,-0.3316051238585394,-0.060805117417313585,-0.7416342524066297,-0.05962502009419058,2,right
7.434,-0.02428166049192007,0.9972510703133594,-0.20288612548447593,-0.2948183586363302,0.46666203083293073,-0.3540203049102258,-0.06359535410779271,-0.7455873420330507,-0.059255574712550774,2,right
7.435,-0.024369057308814536,0.9969646996077514,-0.20095203112076968,-0.2636155293917309,0.4685556619599716,-0.37582755648524746,-0.06642487327714108,-0.7492212223090521,-0.05903126498053735,2,right
7.438,-0.024523863114250356,0.9966756243682449,-0.19900418348176102,-0.2324051815181869,0.47044399973518364,-0.39701032115687623,-0.0692886105192988,-0.7525432695966201,-0.058948154557120845,2,right
7.439,-0.02474469424194852,0.9963841168719086,-0.1970452102956123,-0.20122120371107072,0.4723181154772377,-0.41755304540606775,-0.07218157856270054,-0.755560912752955,-0.05900221433516928,2,right
7.444,-0.02503009593860351,0.996090429290708,-0.19507772422394828,-0.17009665219607512,0.47416944897989843,-0.43744118887583827,-0.07509887328742816,-0.7582816237597271,-0.05918932990377783,2,right
7.445,-0.025378544328271014,0.9957947934011727,-0.19310431954820487,-0.139063732810294,0.4759898150606037,-0.45666123189548136,-0.07803567945540758,-0.7607129085827685,-0.05950530891278485,2,right
7.449,-0.025788448402599484,0.9954974204128423,-0.19112756893093757,-0.10815378509727827,0.47777140910703714,-0.47520068133360743,-0.08098727616194996,-0.7628622982708868,-0.059945888339620695,2,right
7.45,-0.026258152021549425,0.9951985009100628,-0.1891500202680833,-0.07739726832672307,0.47950681162699543,-0.49304807483711005,-0.08394904201700765,-0.7647373403016319,-0.060506741659017815,2,right
7.452999999999999,-0.02678593591019308,0.9948982048992977,-0.18717419364225726,-0.04682374934970474,0.4811889918067628,-0.510192983511246,-0.08691646006457111,-0.7663455901810167,-0.06118348591648062,2,right
7.452999999999999,-0.02737001964070287,0.994596681951835,-0.1852025783812068,-0.01646189220073733,0.4828113100830943,-0.5266260130940633,-0.08988512244867623,-0.7676946033033822,-0.06197168870677162,2,right
7.457999999999999,-0.028008563593661107,0.994294061429126,-0.18323763022289227,0.01366055064164328,0.4843675197337791,-0.5423388036764267,-0.09285073483452054,-0.7687919270768111,-0.06286687505901536,2,right
7.459,-0.028699670897483095,0.9939904527755862,-0.18128176858944686,0.043516745423535196,0.48585176749160036,-0.5573240280168705,-0.09580912059320347,-0.769645093318724,-0.06386453423035494,2,right
7.462999999999999,-0.02944138934874532,0.9936859458638826,-0.1793373739753088,0.07308078280072819,0.48725859318634024,-0.5715753884984717,-0.09875622475860975,-0.7702616109255527,-0.06496012641041561,2,right
7.462999999999999,-0.030231713321304133,0.9933806113816828,-0.1774067854590716,0.10232768212663908,0.48858292841928674,-0.5850876127728636,-0.10168811776494592,-0.7706489588196558,-0.06614908933913746,2,right
7.468,-0.031068585679557822,0.9930745012542419,-0.17549229835254693,0.13123339442883794,0.4898200942744956,-0.5978564481344265,-0.1046009989734204,-0.7708145791759468,-0.06742684484083337,2,right
7.468999999999999,-0.03194989971979329,0.992767649101192,-0.17359616200115588,0.15977480415904083,0.4909657980708374,-0.6098786546655839,-0.10749119999652458,-0.7707658709300206,-0.06878880527760983,2,right
7.474,-0.03287350117010344,0.9924600707279079,-0.1717205777444975,0.18792972980053588,0.49201612915862364,-0.6211519971920114,-0.11035518782832933,-0.7705101835689062,-0.0702303799255561,2,right
7.474,-0.03383719028106149,0.9921517646524801,-0.16986769703602175,0.21567692341603126,0.4929675537643571,-0.631675236084435,-0.11318956778915706,-0.7700548112049398,-0.07174698127736291,2,right
7.478,-0.03483872403633744,0.9918427126685989,-0.16803961970984627,0.24299606921786926,0.4938169088868895,-0.6414481169415479,-0.11599108629292437,-0.7694069869326308,-0.07333403127527288,2,right
7.479,-0.035875818507136475,0.9915328804426076,-0.16623839237437332,0.2698677812414421,0.4945613952479961,-0.6504713591864298,-0.11875663344323438,-0.7685738774662249,-0.0749869674757608,2,right
7.48,-0.03694615136821952,0.9912222181406111,-0.16446600690967164,0.29627360020147614,0.4951985693000929,-0.6587466436066981,-0.12148324545350786,-0.7675625780471904,-0.076701249133889,2,right
7.483,-0.03804736458737784,0.9909106610801101,-0.1627243990495243,0.3221959896096231,0.4957263342935314,-0.6662765988664681,-0.1241681068670779,-0.7663801075960827,-0.07847236317088356,2,right
7.484,-0.03917706729618373,0.9905981304006997,-0.16101544703673762,0.34761833123051433,0.49614293040560414,-0.6730647870160469,-0.126808552542365,-0.7650334040748075,-0.08029582997499814,2,right
7.487,-0.04033283884708453,0.9902845337500354,-0.15934097034901157,0.3725249199520966,0.49644692393308626,-0.6791156880231396,-0.12940206937884294,-0.7635293200326939,-0.08216720899957652,2,right
7.4879999999999995,-0.04151223205842265,0.9899697659844369,-0.15770272850145517,0.39690095813815107,0.49663719556664043,-0.6844346833539384,-0.1319462977786559,-0.7618746183235157,-0.08408210414699104,2,right
7.489,-0.04271277664522651,0.9896537098869356,-0.15610241993820345,0.42073254949680755,0.49671292784916565,-0.6890280386640053,-0.13443903284932623,-0.760075967988025,-0.08603616894095156,2,right
7.492000000000001,-0.04393198283089096,0.9893362369078594,-0.1545416810270874,0.44400669243860663,0.49667359207117756,-0.6929028857173348,-0.13687822535499744,-0.7581399402976944,-0.08802511149255196,2,right
7.492999999999999,-0.045167345132204634,0.9890172079350552,-0.15302208516968427,0.4667112728634868,0.49651893494005483,-0.6960672036835512,-0.1392619824235172,-0.7560730049549264,-0.09004469926554541,2,right
7.497000000000001,-0.04641634630698814,0.988696474103703,-0.1515451420364779,0.48883505634716556,0.4962489652755849,-0.6985297999274452,-0.14158856801651667,-0.7538815264445775,-0.09209076364645295,2,right
7.497999999999999,-0.04767646145058568,0.9883738776580088,-0.15011229693143766,0.5103676797545628,0.49586394083258173,-0.7003002903423957,-0.14385640316948908,-0.7515717605312522,-0.09415920432520977,2,right
7.502000000000001,-0.048945162224200145,0.9880492528772116,-0.14872493028069747,0.5312996423389351,0.4953643552669469,-0.7013890792435205,-0.14606406600871208,-0.7491498508964377,-0.09624599349214208,2,right
7.502999999999999,-0.05021992119403844,0.9877224270764913,-0.14738435722934876,0.5516222963902555,0.4947509252443982,-0.7018073388276491,-0.14821029155169377,-0.7466218259092012,-0.09834717985714354,2,right
7.507000000000001,-0.05149821625568755,0.9873932216902671,-0.14609182732346235,0.5713278374946739,0.4940245776907611,-0.7015669882052267,-0.15029397129765448,-0.7439935955238272,-0.10045889249698452,2,right
7.507000000000001,-0.052777535112263685,0.9870614534410969,-0.1448485242540915,0.5904092944651732,0.49318643718238947,-0.7006806720073023,-0.1523141526143834,-0.7412709482974487,-0.10257734453674051,2,right
7.5120000000000005,-0.05405537976703483,0.9867269355920164,-0.1436555656458968,0.6088605190017851,0.4922378134749546,-0.6991617385688278,-0.15427003792763336,-0.7384595485204238,-0.10469883667136767,2,right
7.513,-0.055329270983268855,0.9863894792748791,-0.14251400288188815,0.6266761751379589,0.49118018916851963,-0.6970242176876038,-0.1561609837190374,-0.7355649334519192,-0.1068197605334835,2,right
7.519,-0.05659675265861735,0.986048894883523,-0.14142482096338158,0.6438517285278876,0.4900152075064933,-0.6942827979563561,-0.15798649933834927,-0.7325925106528921,-0.10893660191343046,2,right
7.519,-0.05785539605971204,0.9857049935188549,-0.14038893840866243,0.6603834356277829,0.4887446603057415,-0.6909528036636077,-0.15974624563562465,-0.729547555408407,-0.1110459438377095,2,right
7.521,-0.059102803864896976,0.985357588472876,-0.1394072071950451,0.6762683328222704,0.48737047601482186,-0.68705017125724,-0.16144003341877433,-0.7264352082309808,-0.11314446951186835,2,right
7.523,-0.06033661396788056,0.9850064967396778,-0.1384804127474957,0.6915042255452387,0.48589470789699885,-0.6825914253628982,-0.16306782174173332,-0.7232604724364318,-0.11522896513391888,2,right
7.526,-0.06155450300063191,0.9846515405426635,-0.1376092739743806,0.7060896774426247,0.4843195223343928,-0.6775936543477113,-0.1646297160283002,-0.7200282117834924,-0.11729632258433526,2,right
7.527,-0.06275418953911538,0.9842925488683449,-0.13679444334928187,0.7200239996227654,0.4826471872493207,-0.6720744854181501,-0.16612596603651264,-0.7167431481682606,-0.11934354199865528,2,right
7.532,-0.06393343696053001,0.9839293589980092,-0.13603650703780765,0.7333072400380811,0.48088006063859307,-0.6660520592392499,-0.16755696366823553,-0.7134098593643748,-0.12136773422866565,2,right
7.532,-0.06509005592615172,0.9835618180294284,-0.13533598506931566,0.7459401730399885,0.47902057921624674,-0.6595450040608817,-0.16892324062844932,-0.7100327767996423,-0.12336612319810426,2,right
7.5360000000000005,-0.06622190647092013,0.9831897843825034,-0.13469333155443772,0.7579242891470734,0.47707124715991517,-0.6525724093352521,-0.17022546593853746,-0.7066161833596885,-0.1253360481587541,2,right
7.537999999999999,-0.06732689969078683,0.9828131292859128,-0.1341089349494744,0.7692617850646842,0.47503462495576426,-0.6451537988083748,-0.17146444330768484,-0.7031642112090662,-0.1272749658527378,2,right
7.541,-0.06840299903076145,0.9824317382454423,-0.13358311836800474,0.7799555539922405,0.4729133183366578,-0.6373091030668588,-0.1726411083663143,-0.6996808396201292,-0.12918045258674785,2,right
7.542000000000001,-0.06944822118767108,0.9820455124971287,-0.1331161399385616,0.7900091762526876,0.4707099673079572,-0.6290586315200277,-0.17375652576530298,-0.6961698927998645,-0.13105020622386643,2,right
7.546,-0.07046063664997355,0.981654370449498,-0.13270819320566668,0.7994269102766756,0.46842723525511215,-0.6204230437960984,-0.17481188614454068,-0.692635037704777,-0.13288204809853907,2,right
7.547000000000001,-0.07143836990342321,0.9812582491197847,-0.1323594075713952,0.8082136839721866,0.46606779812695215,-0.61142332052993,-0.175808502974212,-0.6890797818338256,-0.13467392486017157,2,right
7.547999999999999,-0.07237959933654077,0.9808571055693449,-0.1320698487764663,0.8163750865085049,0.46363433368835655,-0.6020807335186841,-0.1767478092732259,-0.6855074709976353,-0.13642391024926256,2,right
7.551,-0.07328255688102056,0.9804509183426647,-0.1318395194219809,0.8239173605415933,0.4611295108357498,-0.5924168152206343,-0.1776313542151259,-0.6819212871036315,-0.13813020680260316,2,right
7.5520000000000005,-0.07414552741813582,0.9800396889115136,-0.131668359532879,0.830847394906129,0.4585559789686506,-0.5824533275713175,-0.17846079964259326,-0.6783242460713853,-0.1397911474708729,2,right
7.559,-0.07496684797811226,0.9796234431211068,-0.1315562471609558,0.837172717797661,0.4559163574102894,-0.5722122300902346,-0.1792379165175733,-0.674719196033904,-0.14140519712456875,2,right
7.56,-0.07574490675992278,0.9792022326298092,-0.131502999020819,0.8429014904433785,0.45321322488222904,-0.5617156472834299,-0.1799645813278127,-0.6711088159390637,-0.14297095393135018,2,right
7.561,-0.07647814199984682,0.9787761363299594,-0.1315083711501118,0.8480425011422873,0.45044910909834246,-0.5509858355116479,-0.1806427724594936,-0.6674956145906541,-0.1444871506008432,2,right
7.562,-0.07716504071366116,0.9783452617358213,-0.13157205958718446,0.8526051593451575,0.44762647665242944,-0.5400451497903759,-0.1812745665394167,-0.6638819301269844,-0.14595265550008188,2,right
7.563,-0.07780413733345165,0.9779097463239167,-0.13169370106284692,0.8565994893269508,0.4447477234341872,-0.528916011152574,-0.1818621347488256,-0.6602699299266827,-0.1473664736440835,2,right
7.566,-0.0783940122617206,0.977469758810187,-0.1318728737048214,0.8600361231186906,0.4418151657474593,-0.5176208750389997,-0.18240773911082483,-0.6566616109313167,-0.14872774756590976,2,right
7.568,-0.07893329037250894,0.9770255003500474,-0.1321090977538383,0.8629262925727748,0.4388310321954004,-0.5061822008830157,-0.18291372875321146,-0.6530588003744568,-0.1500357580704224,2,right
7.57,-0.07942063949804246,0.9765772056531346,-0.13240183629073166,0.8652818205500417,0.435797456336417,-0.4946224228910068,-0.18338253614841293,-0.6494631569068117,-0.15128992487579299,2,right
7.572,-0.07985476894651085,0.9761251440124935,-0.1327504959754028,0.8671151112384827,0.4327164701024635,-0.48296392198600263,-0.1838166733321037,-0.645876172107072,-0.15248980714667526,2,right
7.5760000000000005,-0.08023442809899234,0.9756696202550602,-0.13315442780064574,0.868439139611933,0.42958999797112657,-0.47122899888169767,-0.1842187281019591,-0.642299172368119,-0.15363510392279703,2,right
7.577000000000001,-0.08055840512971572,0.9752109756241332,-0.13361292786482004,0.8692674400355302,0.4264198518827872,-0.45943984825370693,-0.18459136019789904,-0.6387333211482683,-0.15472565444657327,2,right
7.58,-0.08082552588406663,0.9747495886039302,-0.13412523816579072,0.8696140940232401,0.42320772689401326,-0.4476185339746136,-0.18493729746507404,-0.6351796215772522,-0.15576143839318665,2,right
7.582000000000001,-0.08103465293509066,0.9742858756923334,-0.1346905474152284,0.8694937171512779,0.4199551975582059,-0.43578696537914496,-0.18525933200075478,-0.6316389194066614,-0.15674257600642547,2,right
7.585,-0.08118468482568318,0.9738202921226555,-0.135307991869105,0.8689214451298383,0.41666371502439487,-0.42396687452565823,-0.1855603162862007,-0.6281119062946088,-0.1576693281434117,2,right
7.586,-0.0812745554934245,0.9733533325300273,-0.13597665616756888,0.8679129190341583,0.41333460484496054,-0.41217979442002267,-0.18584315930450776,-0.624599123414407,-0.15854209623119483,2,right
7.59,-0.08130323386884192,0.9728855315539573,-0.1366955741752373,0.8664842696946028,0.40996906548294043,-0.4004470381679561,-0.18611082264536752,-0.6211009653770896,-0.15936142213803084,2,right
7.591,-0.08126972363518385,0.9724174643670859,-0.13746372981259095,0.8646521012441599,0.4065681675094687,-0.3887896790219075,-0.1863663165976069,-0.6176176844576442,-0.16012798796200925,2,right
7.595,-0.08117306313804887,0.9719497471213208,-0.138280057872054,0.8624334738204863,0.4031328534817869,-0.3772285312886684,-0.18661269623032847,-0.6141493951148691,-0.16084261573953698,2,right
7.596,-0.08101232543634528,0.9714830373053821,-0.13914344481696256,0.8598458854184313,0.3996639384921602,-0.3657841320640551,-0.18685305746342676,-0.6106960787948027,-0.16150626707603377,2,right
7.6,-0.08078661849152487,0.9710180340117596,-0.14005272956513212,0.8569072528878148,0.3961621113779314,-0.3544767237612173,-0.18709053312822072,-0.6072575890077206,-0.16212004270104327,2,right
7.601,-0.08049508549795327,0.9705554781163988,-0.14100670426034087,0.8536358920701237,0.3926279365828449,-0.34332623739940504,-0.1873282890189171,-0.6038336566687361,-0.16268518194981502,2,right
7.605,-0.08013690536170485,0.9700961523802747,-0.14200411503404925,0.8500504970667305,0.3890618566596785,-0.3323522766203615,-0.18756951993560173,-0.6004238956920839,-0.16320306217326588,2,right
7.606,-0.07971129333714203,0.9696408814855884,-0.14304366275495173,0.8461701186302326,0.3854641954041228,-0.3215741023999008,-0.18781744571944767,-0.5970278088292086,-0.16367519807808686,2,right
7.61,-0.07921750182965014,0.9691905320181933,-0.1441240037576661,0.8420141416695545,0.38183516160975706,-0.31101061842268135,-0.18807530728083077,-0.5936447937408204,-0.16410324099862195,2,right
7.61,-0.07865482136870407,0.968746012402736,-0.14524375053792765,0.8376022618585534,0.3781748534338777,-0.3006803570886905,-0.18834636262105175,-0.5902741492931219,-0.16448897810200974,2,right
7.615,-0.07802258175012775,0.9683082727908803,-0.1464014724012475,0.8329544613370247,0.3744832633638455,-0.29060146612051846,-0.18863388284838448,-0.58691508206845,-0.1648343315279478,2,right
7.6160000000000005,-0.07732015334258034,0.9678783048980673,-0.14759569605432835,0.8280909834922086,0.3707602837735255,-0.2807916957411152,-0.18894114818949412,-0.583566713077598,-0.16514135746468592,2,right
7.6160000000000005,-0.07654694855145346,0.9674571417811176,-0.14882490613267965,0.8230323068081675,0.3670057130593045,-0.2712683863923933,-0.1892714439987888,-0.5802280846460658,-0.1654122451645958,2,right
7.619,-0.07570242343203269,0.9670458575483217,-0.15008754566254814,0.8177991177697264,0.3632192623450819,-0.2620484569657619,-0.1896280567709814,-0.5768981674194047,-0.16564931590590215,2,right
7.619,-0.07478607944057716,0.96664556699549,-0.1513820164597783,0.8124122828070476,0.35940056274553756,-0.2531483935164466,-0.19001427016367606,-0.5735758674178004,-0.16585502190891288,2,right
7.624,-0.07379746530601249,0.9662574251635117,-0.15270667947239874,0.8068928192663537,0.35554917317689005,-0.24458423843427574,-0.19043336103537956,-0.5702600330851224,-0.16603194521312012,2,right
7.625,-0.07273617899847568,0.9658826268138603,-0.1540598550759983,0.8012618653918093,0.3516645887042675,-0.23637158004448075,-0.1908885955017462,-0.5669494623047997,-0.16618279651809362,2,right
7.626,-0.0716018697668928,0.9655224058191597,-0.15543982332975897,0.7955406493488756,0.3477462494118382,-0.22852554261866057,-0.1913832250114691,-0.5636429093699648,-0.16631041398913574,2,right
7.629,-0.07039424021765693,0.9651780344668688,-0.15684482419812387,0.7897504575477902,0.3437935497673459,-0.2210607768054374,-0.1919204824430286,-0.5603390918983375,-0.16641776202821196,2,right
7.63,-0.06911304840917842,0.9648508226753787,-0.1582730577414311,0.7839126029371991,0.33980584842666267,-0.2139914505424824,-0.19250357822361322,-0.5570366976823358,-0.1665079300105965,2,right
7.6339999999999995,-0.06775810993845441,0.9645421171241484,-0.159722684279295,0.7780483941664263,0.33578247840946823,-0.20733124054105612,-0.1931356964716406,-0.5537343914649115,-0.16658413098760605,2,right
7.635,-0.06632929999455255,0.964253300302318,-0.1611918245334599,0.77217910628595,0.33172275759147335,-0.2010933244068894,-0.19381999116442875,-0.5504308216316187,-0.16664970035573642,2,right
7.638999999999999,-0.06482655535340108,0.963985789481609,-0.16267855976279,0.7663259532438242,0.32762599948443993,-0.19529037341122144,-0.19455958233269943,-0.5471246268094229,-0.16670809449246837,2,right
7.638999999999999,-0.06324987628928637,0.9637410356193611,-0.16418093191007282,0.7605100622069901,0.3234915242895567,-0.1899345458985731,-0.19535755228373677,-0.5438144423627628,-0.16676288935896844,2,right
7.644,-0.06159932837884856,0.9635205221978546,-0.1656969437846609,0.7547524496906585,0.3193186702125067,-0.1850374813133631,-0.1962169418551733,-0.5404989067773709,-0.16681777906988077,2,right
7.645,-0.05987504417419067,0.9633257640060822,-0.1672245593045781,0.7490739994789984,0.31510680502845595,-0.18061029482872248,-0.1971407467015349,-0.5371766679223523,-0.1668765744303856,2,right
7.649,-0.0580772247261453,0.9631583058679856,-0.16876170381733568,0.743495442320466,0.31085533788508474,-0.17666357256214713,-0.1981319136158433,-0.5338463891810097,-0.16694320144068914,2,right
7.65,-0.056206140947535364,0.9630197213168303,-0.17030626451201458,0.7380373373812811,0.30656373133167253,-0.17320736736394382,-0.19919333688875168,-0.5305067554408873,-0.1670216997681113,2,right
7.653,-0.0542621348174234,0.9629116112100493,-0.17185609092717227,0.7327200554407823,0.30223151356213585,-0.17025119516577475,-0.2003278547078733,-0.5271564789334858,-0.16711622118694833,2,right
7.654,-0.05224562043852053,0.9628356022734773,-0.1734089955512656,0.7275637638126801,0.29785829085980453,-0.1678040318779844,-0.20153824560015698,-0.5237943049140792,-0.1672310279863107,2,right
7.659,-0.05015708496959525,0.9627933455599962,-0.17496275450761514,0.7225884129765701,0.29344376023160673,-0.16587431082580015,-0.20282722492036476,-0.5204190171720366,-0.16737049134617063,2,right
7.66,-0.04799708946165003,0.9627865148070872,-0.17651510831667439,0.717813724904478,0.28898772221921704,-0.16446992071593403,-0.20419744138891655,-0.5170294433620232,-0.16753908968189976,2,right
7.662999999999999,-0.04576626963029469,0.9628168046808022,-0.17806376273293267,0.7132591830676639,0.2844900938746027,-0.1635982041265735,-0.20565147368258507,-0.5136244601464169,-0.16774140695763637,2,right
7.664,-0.043465336597503734,0.9628859288981089,-0.17960638965823505,0.7089440241094357,0.2799509218872869,-0.16326595651523487,-0.20719182708174952,-0.5102029981392439,-0.1679821309688924,2,right
7.667999999999999,-0.04109507763395348,0.9629956182226975,-0.18114062813464027,0.7048872311702996,0.2753703958505273,-0.16347942574046057,-0.20882093017814976,-0.5067640466418912,-0.16826605159489452,2,right
7.669,-0.038656356929115836,0.9631476183301836,-0.18266408541806503,0.7011075288524024,0.27074886165349055,-0.16424431209487064,-0.2105411316473237,-0.5033066581608152,-0.16859805902125066,2,right
7.672999999999999,-0.03615011641208983,0.9633436875382357,-0.1841743381305652,0.697623379810911,0.26608683498638114,-0.16556576884862773,-0.21235469709015792,-0.49982995269741176,-0.16898314193364344,2,right
7.672999999999999,-0.03357737664255916,0.9635855943965925,-0.18566893348490138,0.6944529829607171,0.26138501494536925,-0.16744840330394084,-0.21426380594823677,-0.4963331218001692,-0.16942638568337706,2,right
7.678999999999999,-0.030939237787746234,0.9638751151314038,-0.18714539057118093,0.6916142732876447,0.2566442977240405,-0.16989627836281662,-0.216270548497936,-0.4928154323691692,-0.16993297042574212,2,right
7.68,-0.028236880697650398,0.9642140309383843,-0.18860120169522732,0.6891249232541965,0.2518657903779772,-0.17291291461186373,-0.21837692292847627,-0.4892762302029457,-0.17050816923231557,2,right
7.684,-0.025471568087058166,0.9646041251212026,-0.19003383376315322,0.6870023457907649,0.2470508246489652,-0.17650129292956784,-0.2205848325068707,-0.4857149432822253,-0.17115734617509104,2,right
7.685,-0.022644645828460267,0.9650471800754901,-0.19144072971306464,0.6852636988641925,0.24220097083521136,-0.18066385762307682,-0.2228960828202117,-0.4821310848078577,-0.17188595436357304,2,right
7.685,-0.019757544355579693,0.9655449741232326,-0.19281930999975674,0.6839258916165696,0.23731805169384537,-0.1854025201031684,-0.22531237906304172,-0.47852425605131105,-0.17269953388566472,2,right
7.688,-0.016811780172770033,0.9660992782061122,-0.1941669741418255,0.683005592068207,0.23240415636187856,-0.19071866310771424,-0.2278353233250735,-0.4748941490988878,-0.17360370958644772,2,right
7.689,-0.013808957459414666,0.9667118524502595,-0.19548110234345012,0.6825192363798253,0.22746165428169038,-0.1966131454856022,-0.2304664118475926,-0.4712405495479073,-0.17460418863612465,2,right
7.693,-0.010750769750290339,0.9673844426184467,-0.196759057204577,0.6824830396232485,0.222493209108712,-0.2030863075354452,-0.23320703224016245,-0.4675633391719094,-0.17570675786914036,2,right
7.693,-0.007639001666478137,0.9681187764666104,-0.19799818553292772,0.6829130077765548,0.2175017925373445,-0.21013797679862428,-0.23605846066232983,-0.4638624985490193,-0.1769172808937029,2,right
7.694,-0.0044755306697014515,0.9689165600187576,-0.19919582026913238,0.6838249502387259,0.21249069790629144,-0.2177674740342834,-0.23902185897789113,-0.4601381096429784,-0.17824169497459003,2,right
7.697,-0.00126232881244366,0.9697794737704868,-0.20034928253286857,0.6852344919256006,0.20746355340286993,-0.22597361900911814,-0.24209827188959562,-0.45639035832627706,-0.17968600769242252,2,right
7.6979999999999995,0.0019985355463659153,0.9707091688298866,-0.20145588379462356,0.6871570842448046,0.20242433472734112,-0.23475473583289777,-0.24528862406247992,-0.4526195368347573,-0.1812562933828934,2,right
7.702000000000001,0.005304896090852489,0.9717072630051121,-0.202512928174845,0.6896080146708731,0.19737737715302084,-0.24410865774591015,-0.24859371724434842,-0.44882604614298793,-0.18295868935977125,2,right
7.702999999999999,0.008654486987648662,0.9727753368475018,-0.20351771486830256,0.6926024148777417,0.19232738695942966,-0.25403273136261145,-0.2520142273922397,-0.4450103982496454,-0.1847993919258399,2,right
7.707999999999999,0.01204494142937564,0.9739149296570101,-0.20446754068606976,0.6961552674341619,0.18727945222401474,-0.26452382039670236,-0.25555070181404577,-0.44117321836206913,-0.18678465217629864,2,right
7.709,0.015473790285348649,0.9751275354548654,-0.205359702702456,0.7002814110691141,0.18223905295795537,-0.27557830889449625,-0.2592035563347797,-0.437315246969095,-0.1889207715995266,2,right
7.712000000000001,0.018938460854347333,0.976414598927382,-0.2061915009924069,0.7049955445158534,0.17721207057155575,-0.2871921040050817,-0.2629730724973201,-0.43343734179120597,-0.19121409748051293,2,right
7.712999999999999,0.02243627570905857,0.9777775113448938,-0.20696024144842798,0.7103122289448266,0.1722047966547354,-0.2993606383174099,-0.2668593948077914,-0.42954047959697944,-0.19367101811266907,2,right
7.7170000000000005,0.025964451619588592,0.9792176064619454,-0.2076632386724831,0.7162458889973436,0.16722394105815047,-0.31207887179605437,-0.27086252803607513,-0.4256257578747496,-0.19629795782417397,2,right
7.718,0.029520098544325107,0.9807361564081634,-0.20829781894055688,0.7228108124335806,0.16227663926051808,-0.32534129334899686,-0.2749823345822809,-0.42169439634834655,-0.1991013718254536,2,right
7.723,0.03310021867968942,0.9823343675801848,-0.2088613232317274,0.7300211484102148,0.15737045900777347,-0.339141922062385,-0.27921853192034146,-0.41774773832572065,-0.20208774088486653,2,right
7.724,0.03670170556438711,0.9840133765427075,-0.20935111030418876,0.7378909044047719,0.15251340620976703,-0.3534743081387871,-0.28357069013023223,-0.4137872518692083,-0.20526356584015656,2,right
7.727,0.04032134323793362,0.9857742459436494,-0.209764559795142,0.7464339418055731,0.14771393008030476,-0.3683315335770287,-0.2880382295306487,-0.40981453077614827,-0.2086353619537394,2,right
7.728,0.043955805457686556,0.9876179604460796,-0.21009907532258845,0.7556639701880256,0.14298092750645575,-0.38370621263324445,-0.29262041842431075,-0.4058312953585138,-0.2122096531204164,2,right
7.732,0.04760165498360626,0.9895454226774045,-0.2103520875732402,0.7655945402998955,0.13832374663319166,-0.399590492104302,-0.29731637096839514,-0.4018393930101871,-0.21599296593665304,2,right
7.733,0.051255342946311115,0.9915574491943505,-0.2105210573696949,0.7762390357801341,0.13375218964958968,-0.4159760514762643,-0.30212504518292876,-0.39784079855046656,-0.21999182364112227,2,right
7.737,0.0549132083220531,0.9936547664614116,-0.21060347871859791,0.7876106636378004,0.12927651476302243,-0.43285410298203975,-0.3070452411103041,-0.3938376143323691,-0.22421273993679466,2,right
7.7379999999999995,0.05857147754583515,0.995838006840529,-0.2105968818466672,0.7997224435196386,0.12490743734797724,-0.4502153916138331,-0.31207559913940486,-0.38983207010426285,-0.22866221270545797,2,right
7.742000000000001,0.062226264297774114,0.998107704590484,-0.2104988362326376,0.8125871957969173,0.120656130256394,-0.4680501951374514,-0.31721459850815314,-0.38582652261334915,-0.23334671762616777,2,right
7.742999999999999,0.06587356949667145,1.0004642918752833,-0.21030695364071134,0.8262175285042254,0.11653422327668725,-0.4863483241569291,-0.3224605559986102,-0.3818234549394973,-0.23827270170976864,2,right
7.746,0.06950928152961067,1.0029080947809317,-0.21001889115574163,0.8406258231650474,0.11255380172892518,-0.505099122279327,-0.327811624839077,-0.3778254755479311,-0.24344657676228248,2,right
7.747000000000001,0.07312917673918154,1.0054393293398922,-0.209632354216038,0.8558242195411015,0.10872740418397814,-0.5242914664309175,-0.3332657938279556,-0.3738353170492656,-0.24887471279063453,2,right
7.752000000000001,0.07672892018236845,1.0080580975635458,-0.20914509963966016,0.8718245993446232,0.10506801929482124,-0.5439137673772985,-0.3388208866944368,-0.3698558346553994,-0.2545634313648821,2,right
7.752000000000001,0.08030406666881354,1.0107643834851319,-0.20855493864214208,0.8886385689550119,0.10158908172858332,-0.5639539705012778,-0.3444745617059678,-0.3658900043242323,-0.26051899894435415,2,right
7.752999999999999,0.08385006208261415,1.0135580492177674,-0.20785973984445524,0.9062774411835285,0.09830446718837843,-0.5843995568936391,-0.35022431150568595,-0.3619409206084407,-0.2667476201384939,2,right
7.756,0.08736224499131144,1.0164388310330603,-0.20705743227075735,0.9247522161320316,0.09522848651443579,-0.6052375448131307,-0.3560674631145697,-0.35801179426360874,-0.27325543080672376,2,right
7.757000000000001,0.09083584854701623,1.019406335465238,-0.20614600833912458,0.94407356119408,0.09237587885456448,-0.6264544915732231,-0.36200117800627823,-0.3541059496932946,-0.28004849086507244,2,right
7.761,0.09426600268684586,1.0224600354445805,-0.20512352685461271,0.9642517902490972,0.08976180389454771,-0.6480364959143394,-0.3680224521899919,-0.3502268222864181,-0.28713277670543386,2,right
7.7620000000000005,0.09764773664243713,1.025599266464225,-0.20398811601779204,0.9852968420960403,0.08740183313762866,-0.6699692009055169,-0.3741281162855525,-0.3463779556623777,-0.29451417320135215,2,right
7.763,0.1009759817696661,1.0288232227865621,-0.20273797645918262,1.0072182581421896,0.08531194021272547,-0.6922377973411628,-0.3803148356025299,-0.34256299881713387,-0.30219846531239003,2,right
7.766,0.10424557470905096,1.0321309536970882,-0.20137138430274382,1.0300251593052625,0.08350849017339924,-0.7148270274567251,-0.38657911024050673,-0.3387857031591206,-0.3101913293074455,2,right
7.766,0.10745126088541512,1.0355213598126025,-0.19988669425529634,1.0537262220562873,0.0820082277401626,-0.7377211887087295,-0.392917275228112,-0.33504991942393847,-0.31849832362823344,2,right
7.771,0.1105876983523163,1.0389931894486104,-0.19828234271567383,1.0783296535664464,0.08082826444966003,-0.7609041374449751,-0.39932550071857026,-0.33135959445687635,-0.3271248794150201,2,right
7.772,0.11364946198182976,1.0425450350505925,-0.19655685089602057,1.1038431659835144,0.0799860646933752,-0.7843592924344882,-0.4057997922597542,-0.3277187678524192,-0.3360762907175826,2,right
7.776,0.11663104799458246,1.0461753296959593,-0.19470882794716526,1.1302739498993428,0.07949943063955887,-0.8080696383070941,-0.4123359911569392,-0.3241315684400193,-0.34535770441527014,2,right
7.777,0.11952687882176861,1.0498823436766536,-0.19273697408149712,1.1576286470790869,0.07938648603502511,-0.8320177289691688,-0.4189297749466607,-0.32060221060553684,-0.3549741098709595,2,right
7.781000000000001,0.12233130829259291,1.0536641811751115,-0.19064008369174187,1.1859133225254828,0.0796656588844351,-0.856185691062914,-0.42557665800026556,-0.3171349904379016,-0.3649303283446305,2,right
7.782,0.1250386271457386,1.057518777048385,-0.1884170484725353,1.2151334359541204,0.0803556630057092,-0.8805552275372326,-0.4322719922759225,-0.31373428169069806,-0.37523100219323624,2,right
7.785,0.1276430688688227,1.061443893737738,-0.18606686056034916,1.2452938127583055,0.08147547846128292,-0.905107621398961,-0.4390109682380264,-0.3104045315485451,-0.3858805838845032,2,right
7.7860000000000005,0.13013881587391787,1.0654371183246132,-0.18358861571020682,1.276398614544779,0.08304433086604861,-0.9298237397138471,-0.4457886159630801,-0.30715025618831887,-0.3968833248532728,2,right
7.79,0.13252000601993585,1.0694958597572033,-0.18098151652202027,1.308451309324242,0.08508166957400652,-0.9546840379272428,-0.4525998064512773,-0.30397603612545976,-0.4082432642299853,2,right
7.791,0.13478073949345803,1.0736173462728054,-0.17824487571954897,1.3414546414433426,0.08760714474688308,-0.9796685645749994,-0.459439253163135,-0.3008865113358067,-0.41996421747190793,2,right
7.796,0.13691508605840644,1.0777986230390968,-0.1753781194768077,1.3754106013474847,0.09064058330926542,-1.0047569664555291,-0.46630151380063556,-0.29788637614362085,-0.4320497649287255,2,right
7.797000000000001,0.13891709268232996,1.082036550033717,-0.1723807907814833,1.4103203952665444,0.09420196379614722,-1.0299284943344058,-0.4731809923524329,-0.29498037386668996,-0.4445032403751341,2,right
7.8,0.14078079154309883,1.0863278001779442,-0.1692525528220078,1.4461844149183083,0.09831139010018351,-1.0551620092532337,-0.48007194142275933,-0.2921732912096475,-0.45732771954411744,2,right
7.801,0.14250020841509686,1.090668857738405,-0.1659931923855944,1.483002207327184,0.10298906412741168,-1.0804359895148146,-0.4869684648637347,-0.2894699523968986,-0.47052600869563155,2,right
7.805,0.144069371430465,1.0950560170111538,-0.16260262325801447,1.5207724448584672,0.10825525737171296,-1.105728538416876,-0.49386452073082787,-0.286875213036815,-0.48410063325647973,2,right
7.806,0.14548232020965912,1.0994853813040113,-0.15908088961796893,1.5594928955711937,0.11413028141986331,-1.1310173928068046,-0.5007539245812539,-0.2843939537091451,-0.49805382656822605,2,right
7.81,0.146733115355943,1.1039528622344341,-0.15542816941736826,1.5991603939953423,0.12063445740065476,-1.1562799325299429,-0.5076303531351057,-0.2820310732678839,-0.5123875187810664,2,right
7.811,0.14781584830939218,1.1084541793617817,-0.15164477773550106,1.6397708124418857,0.12778808439325964,-1.181493190844061,-0.5144873483190181,-0.27979148185215924,-0.5271033259326595,2,right
7.815,0.14872465155685585,1.1129848601749395,-0.1477311700913274,1.6813190329569172,0.13561140681175862,-1.206633865872601,-0.5213183217121402,-0.2776800935980174,-0.542202539252006,2,right
7.816,0.14945370919453116,1.117540240457573,-0.14368794569381707,1.7237989200337978,0.14412458078456117,-1.2316783331692185,-0.5281165594141592,-0.27570181904432917,-0.5576861147295541,2,right
7.82,0.14999726783846895,1.1221154650526581,-0.13951585060716107,1.767203294199976,0.15334763954931244,-1.2566026594660014,-0.5348752273550568,-0.273861557226395,-0.5735546629958115,2,right
7.821000000000001,0.15034964787550972,1.1267054890457042,-0.13521578080825497,1.8115239065978248,0.1633004578858045,-1.281382617677537,-0.541587377056536,-0.27216418745672766,-0.5898084395401744,2,right
7.822,0.15050525504485932,1.1313050793833543,-0.130788785117061,1.8567514146815107,0.17400271561139066,-1.3059937032327238,-0.5482459518065952,-0.2706145608205481,-0.6064473352444587,2,right
7.825,0.15045859233967587,1.135908816941741,-0.1262360679835432,1.902875359154571,0.18547386016544165,-1.3304111518058743,-0.5548437931215535,-0.2692174914637342,-0.6234708671017317,2,right
7.8260000000000005,0.15020427221608557,1.1405110990570266,-0.12155899211660326,1.9498841422754967,0.19773306831147727,-1.3546099585182452,-0.5613736473213351,-0.26797774777904876,-0.6408781689338151,2,right
7.829,0.14973702909210795,1.1451061425282412,-0.1167590809404839,1.9977650076612263,0.2107992069877609,-1.378564898680638,-0.567828172092029,-0.2669000435692212,-0.6586679819802699,2,right
7.83,0.14905173211335876,1.1496879870996288,-0.11183802086238168,2.046504021685052,0.22469079334034273,-1.4022505501099658,-0.5741999429966239,-0.2659890292160879,-0.6768386453377665,2,right
7.831,0.1481433981595171,1.1542504994274236,-0.10679766333293032,2.0960860563880916,0.2394259539797625,-1.4256413168660313,-0.5804814599429903,-0.26524928285777394,-0.6953880862881808,2,right
7.834,0.1470072050655073,1.1587873775351873,-0.10164002668078703,2.146494773502203,0.25502238351386664,-1.4487114539192514,-0.5866651536276323,-0.2646853015708308,-0.714313810566516,2,right
7.835,0.14563850502976336,1.1632921557608549,-0.09636729770329273,2.197712609004788,0.27149730241652575,-1.471435092073277,-0.5927433919735007,-0.2643014925547222,-0.7336128926208458,2,right
7.84,0.14403283817464704,1.167758210195566,-0.09098183299362282,2.2497207578082445,0.28886741428950025,-1.493786262651623,-0.5987084865798944,-0.2641021643165425,-0.7532819659175615,2,right
7.841,0.1421859462123625,1.1721787646098667,-0.08548615997796433,2.3024991585129717,0.30714886256824764,-1.5157389217913084,-0.604552699202198,-0.2640915178543584,-0.7733172133462846,2,right
7.845,0.14009378615716667,1.1765468968579678,-0.07988297762520563,2.356026478335057,0.3263571867200276,-1.5372669743715366,-0.6102682482788998,-0.26427363783807856,-0.7937143577798792,2,right
7.845,0.13775254401334222,1.18085554574541,-0.07417515678183993,2.410280098357999,0.3465072779842394,-1.5583442976415613,-0.6158473155230116,-0.26465248378728906,-0.8144686528460607,2,right
7.849,0.13515864836033661,1.1850975183403591,-0.06836574008071923,2.465236099260045,0.3676133347075429,-1.5789447646107495,-0.6212820525946599,-0.2652318812460326,-0.8355748739681456,2,right
7.85,0.1323087837528593,1.189265497704995,-0.06245794137277249,2.5208692476708587,0.3896888173289749,-1.5990422672626288,-0.626564587871252,-0.2660155129550626,-0.8570273097335296,2,right
7.854,0.12919990385212385,1.1933520510217273,-0.05645514463261561,2.5771529833133253,0.41274640307297783,-1.6186107396534133,-0.6316870333312288,-0.2670069100226698,-0.8788197536495035,2,right
7.855,0.12582924420196992,1.1973496380896647,-0.05036090229300303,2.6340594070883143,0.4367979404110025,-1.63762418095413,-0.6366414915669965,-0.2682094430957523,-0.9009454963470271,2,right
7.859,0.12219433456141383,1.2012506201701576,-0.044178932971940824,2.6915592702621614,0.4618544033551273,-1.6560566784940243,-0.6414200629421984,-0.2696263135333894,-0.9233973182940756,2,right
7.86,0.11829301070640945,1.20504726916595,-0.03791311856837039,2.7496219649184948,0.48792584564995983,-1.6738824308614064,-0.6460148529080243,-0.2712605445857734,-0.9461674830811452,2,right
7.864,0.11412342561914159,1.2087317771257504,-0.03156750071311591,2.808215515837824,0.5150213549319369,-1.6910757711164999,-0.6504179794927716,-0.27311497258196127,-0.9692477313424683,2,right
7.864,0.10968405999104844,1.2122962660742087,-0.025146276569455263,2.867306573970006,0.5431490069280248,-1.7076111901691888,-0.6546215809783729,-0.2751922381305226,-0.992629275377416,2,right
7.869,0.10497373197394536,1.2157327981747732,-0.01865379398365905,2.9268604116663157,0.572315819768737,-1.7234633603728216,-0.6586178237770689,-0.2774947773377853,-1.016302794537484,2,right
7.87,0.09999160612248109,1.219033386237808,-0.012094545991754274,2.9868409198393775,0.6025277084933238,-1.7386071593834005,-0.6623989105208594,-0.28002481304901133,-1.040258431445147,2,right
7.872999999999999,0.09473720148195482,1.2221900045889749,-0.005473164695145842,3.047210607220628,0.6337894398279527,-1.7530176943316111,-0.6659570883757928,-0.28278434611847575,-1.0644857891117288,2,right
7.874,0.08921039878718252,1.2251946003155398,0.0012055854750239806,3.1079306018863253,0.6661045873206802,-1.7666703263531727,-0.6692846575925557,-0.28577514671506804,-1.0889739290222755,2,right
7.879,0.08341144674790152,1.2280391049119195,0.0079368150759552,3.1689606552243217,0.6994754869200174,-1.779540695520962,-0.6723739803042089,-0.28899874567068806,-1.1137113702562293,2,right
7.88,0.07734096740280817,1.2307154463485273,0.014715517515323727,3.2302591485149494,0.7339031930869009,-1.791604746220253,-0.6752174895812757,-0.29245642587936815,-1.138686089713474,2,right
7.8839999999999995,0.07099996052805813,1.233215561586965,0.021536577413018152,3.2917831023003625,0.7693874355329108,-1.8028387530062424,-0.6778076987537233,-0.2961492137557162,-1.16388552351608,2,right
7.8839999999999995,0.06438980708801964,1.2355314095585284,0.02839477941748366,3.353488188717565,0.8059265766805994,-1.8132193469807831,-0.6801372110086975,-0.30007787076194337,-1.189296569656783,2,right
7.888,0.057512271717895365,1.2376549846133222,0.035284817432481914,3.4153287469711318,0.8435175699448362,-1.8227235427229265,-0.6821987292721622,-0.30424288501341107,-1.2149055919659173,2,right
7.89,0.05036950422988756,1.2395783304373476,0.04220130420788569,3.4772578021222658,0.8821559189370974,-1.8313287658055024,-0.6839850663703418,-0.3086444629800769,-1.240698425441414,2,right
7.891,0.04296404013542148,1.2412935544278936,0.04913878124667135,3.53922708737136,0.921835637697665,-1.8390128809275033,-0.6854891554084837,-0.3132825213357388,-1.266660382848311,2,right
7.893,0.0352988001755287,1.2427928425138655,0.05609172898374815,3.601187070011607,0.9625492120637115,-1.8457542206895254,-0.6867040601999418,-0.3181566790685771,-1.292776262245016,2,right
7.894,0.027377088852562508,1.2440684744035206,0.06305457719206965,3.663086981231462,1.0042875622842573,-1.851531615036946,-0.6876229855201643,-0.32326625000101544,-1.3190303549553202,2,right
7.898,0.019202591959627008,1.2451128392351565,0.07002171555997012,3.724874849890967,1.04704000698616,-1.85632442137639,-0.6882392870169849,-0.32861023583375787,-1.3454064536444097,2,right
7.899,0.010779373105331279,1.2459184516016404,0.07698750437373034,3.786497540132335,1.0907942285492045,-1.860112555285997,-0.6885464807115353,-0.33418731976861493,-1.3718878604073486,2,right
7.899,0.0021118692289663955,1.2464779679218534,0.083946285242956,3.8479007922088333,1.1355362398629865,-1.8628765215890049,-0.6885382520808767,-0.33999586073156485,-1.3984573949176629,2,right
7.902,-0.006795114899863351,1.246784203135955,0.09089239180963653,3.9090292656511045,1.1812503523921423,-1.864597445475002,-0.6882084647241046,-0.34603388821139813,-1.4250974027117633,2,right
7.903,-0.015936413198702436,1.246830147700477,0.09782016037028413,3.9698265841541542,1.2279191455283998,-1.8652571034326535,-0.6875511686127989,-0.35229909772996404,-1.451789763685245,2,right
7.9079999999999995,-0.02530650580112065,1.2466089848553565,0.10472394032585489,4.0302353820438,1.27552343729908,-1.8648379539029878,-0.6865606079257817,-0.35878884696070085,-1.4785159008773494,2,right
7.909,-0.034899527584427006,1.2461141081319653,0.11159810437327349,4.090197352445166,1.3240422565535221,-1.8633231676416835,-0.6852312284672215,-0.36550015251279,-1.5052567896200821,2,right
7.912000000000001,-0.04470927767585507,1.2453391390683592,0.1184370583648357,4.149653297327739,1.3734528167614586,-1.8606966577922055,-0.6835576846661833,-0.3724296873989286,-1.5319929671286239,2,right
7.912999999999999,-0.054729229906005795,1.2442779450932917,0.1252352507771755,4.208543179600418,1.4237304915600486,-1.8569431096685565,-0.681534846154768,-0.37957377920535473,-1.5587045426097756,2,right
7.917000000000001,-0.06495254416505454,1.2429246575339512,0.1319871817430554,4.266806177428665,1.4748487921889037,-1.8520480102432568,-0.6791578039210098,-0.38692840898339953,-1.5853712079652107,2,right
7.917999999999999,-0.07537207860376521,1.2412736896950043,0.1386874116069616,4.324380740944444,1.5267793469549928,-1.8459976773329727,-0.676421876031713,-0.39448921088246486,-1.6119722491662993,2,right
7.922000000000001,-0.08598040260881062,1.2393197549485624,0.14533056897286892,4.3812046515179786,1.5794918828718083,-1.8387792884709813,-0.6733226129194073,-0.4022514725449408,-1.6384865583771955,2,right
7.922999999999999,-0.09676981047033546,1.2370578847652538,0.15191135822290613,4.437215083758589,1.6329542096195782,-1.830380909452375,-0.6698558022265819,-0.41021013628418107,-1.6648926469027483,2,right
7.9270000000000005,-0.10773233564974863,1.2344834466048826,0.15842456650152975,4.492348670409851,1.6871322059756433,-1.8207915225346032,-0.6660174731993297,-0.4183598010672471,-1.6911686590376116,2,right
7.928,-0.11885976554935232,1.2315921615715397,0.16486507018170152,4.546541570302187,1.741989808866358,-1.8100010542725862,-0.6618039006214894,-0.4266947253247082,-1.7172923868926722,2,right
7.932,-0.13014365668506386,1.2283801217244814,0.1712278408542185,4.59972953952366,1.7974890051940233,-1.7980004029642516,-0.6572116082793177,-0.4352088306103496,-1.743241286274607,2,right
7.932,-0.14157535016991268,1.224843806925393,0.17750795090259233,4.65184800596722,1.8535898265944184,-1.784781465678924,-0.6522373719456557,-0.4438957061341875,-1.7689924936940078,2,right
7.937,-0.15314598742790053,1.2209801010966925,0.1837005787364787,4.702832147409933,1.9102503472824326,-1.770337164837548,-0.6468782218714801,-0.45274861419272294,-1.7945228445770691,2,right
7.938,-0.16484652607360883,1.2167863077657413,0.18980101375279895,4.752616973276864,1.9674266851451534,-1.7546614743102555,-0.641131444771638,-0.4617604965208777,-1.8198088927553362,2,right
7.942,-0.17666775591076372,1.2122601647774276,0.19580466108017333,4.801137410239184,2.0250730062434763,-1.7377494449932855,-0.634994585290468,-0.4709239815905545,-1.8448269313074352,2,right
7.942,-0.1886003150196749,1.2073998580724408,0.20170704614880458,4.848328391792836,2.0831415328849174,-1.7195972298237527,-0.6284654469319105,-0.48023139288123795,-1.8695530148260844,2,right
7.947,-0.2006347059155134,1.2022040344485836,0.2075038191187365,4.894124951960628,2.141582555431781,-1.7002021081872147,-0.6215420924375893,-0.48967475814850836,-1.8939629831829672,2,right
7.9479999999999995,-0.2127613117648418,1.1966718132437917,0.21319075918941682,4.938462323257009,2.200344448010178,-1.6795625096694535,-0.6142228435952305,-0.49924581971677645,-1.9180324868632928,2,right
7.952000000000001,-0.22497041264767748,1.1908027968975865,0.21876377879604203,4.981276039050942,2.2593736882866122,-1.6576780371003135,-0.6065062804586608,-0.5089360458229606,-1.9417370139410184,2,right
7.952000000000001,-0.23725220185056123,1.1845970803587424,0.22421892767579757,5.022502040458318,2.3186148814798972,-1.6345494888338783,-0.5983912399594896,-0.5187366430382155,-1.9650519187648088,2,right
7.957000000000001,-0.24959680217645755,1.1780552593078488,0.2295523967715034,5.062076787891107,2.3780107887771083,-1.610178880205695,-0.5898768138894461,-0.52863856979519,-1.9879524524238197,2,right
7.957999999999999,-0.26199428226062876,1.1711784371536698,0.2347605219390755,5.099937377386144,2.437502360323017,-1.5845694641041752,-0.5809623462474477,-0.5386325510372978,-2.0104137950097893,2,right
7.957999999999999,-0.27443467288671824,1.163968230748931,0.2398397874335833,5.136021661831803,2.497028772953067,-1.5577257505897362,-0.5716474300255491,-0.5487090939501347,-2.0324110894329634,2,right
7.961,-0.2869079832995541,1.1564267747632029,0.24478682915257202,5.17026837720614,2.556527472840403,-1.5296535254916808,-0.5619319036529797,-0.5588585046334582,-2.053919476084109,2,right
7.962000000000001,-0.2994042174994815,1.1485567246463135,0.24959843760192346,5.202617273935121,2.615934223227715,-1.5003598679092582,-0.5518158473975457,-0.5690709055157457,-2.0749141273757745,2,right
7.968,-0.3119133904705865,1.14036125811263,0.2542715605218635,5.233009253474464,2.6751831574147724,-1.4698531665397976,-0.5412995799413051,-0.5793362533702463,-2.0953702814524497,2,right
7.968999999999999,-0.3244255442562076,1.1318440750827772,0.2588033050918339,5.261386510013347,2.7342068371049524,-1.4381431347481826,-0.5303836552000704,-0.5896443578936618,-2.115263274821971,2,right
7.968999999999999,-0.3369307637775117,1.123009396038982,0.26319093964255347,5.287692676192679,2.7929363158764184,-1.4052408242628804,-0.519068859373925,-0.5999849008654364,-2.134568573916865,2,right
7.972,-0.3494191923045599,1.1138619587746426,0.267431894836399,5.311872969924912,2.8513012069358363,-1.3711586373342914,-0.5073562081985431,-0.6103474559171256,-2.1532618056443353,2,right
7.973,-0.3618810465126807,1.1044070135428816,0.2715237643137854,5.333874338396533,2.909229753974487,-1.3359103371621828,-0.4952469443659562,-0.6207215089414305,-2.1713187869819945,2,right
7.976,-0.37430663106999296,1.0946503166338464,0.27546430483031226,5.353645596328439,2.9666489042831676,-1.2995110564210948,-0.4827425350822645,-0.6310964791705855,-2.1887155536747436,2,right
7.977,-0.38668635271128277,1.0845981224314787,0.27925143592363033,5.3711375573635,3.0234843838885306,-1.2619773037551896,-0.46984466972864886,-0.6414617409538417,-2.2054283880864527,2,right
7.981,-0.3990107337674183,1.074257174010873,0.2828832391519002,5.386303158444357,3.079660774809636,-1.2233269681362118,-0.45655525759089816,-0.6518066462638266,-2.2214338462582606,2,right
7.982,-0.41127042513026,1.063634692338791,0.2863579569421815,5.399097577238168,3.135101594599507,-1.1835793209800267,-0.4428764256215359,-0.6621205479615623,-2.2367087842234126,2,right
7.986000000000001,-0.4234562186344316,1.0527383641381056,0.28967399108385705,5.409478342658441,3.1897293783347984,-1.1427550159139532,-0.42881051619749666,-0.672392823849895,-2.25123038362661,2,right
7.986000000000001,-0.43555905883214,1.0415763284752684,0.292829900906267,5.4174054385274255,3.243465763214799,-1.1008760860839002,-0.4143600848351802,-0.6826129015450305,-2.2649761766937915,2,right
7.9910000000000005,-0.4475700541277155,1.030157162128964,0.2958244011956191,5.422841400415726,3.2962315759288603,-1.0579659388871667,-0.399527897823594,-0.6927702841957843,-2.277924070596181,2,right
7.992000000000001,-0.4594804872249583,1.0184898637970858,0.29865635993046646,5.425751405688881,3.3479469229490166,-1.0140493480136732,-0.38431692973517967,-0.7028545770800306,-2.290052371250272,2,right
7.995,-0.4712818248259714,1.0065838371982632,0.30132479593245554,5.4261033567835755,3.3985312839019985,-0.9691524426753715,-0.3687303607728189,-0.7128555151076879,-2.3013398065931847,2,right
7.995,-0.48296572651185893,0.9944488731259162,0.30382887652091056,5.423867957729062,3.4479036081720444,-0.9233026939006145,-0.3527715739104163,-0.7227629912593991,-2.311765549370549,2,right
8.001,-0.49452405273993877,0.9820951305194133,0.3061679152212754,5.419018783922046,3.4959824148829104,-0.8765288977673827,-0.3364441517833675,-0.7325670859898529,-2.321309239471706,2,right
8.001,-0.5059488719099295,0.9695331166281087,0.30834136952484265,5.411532345156014,3.5426858964042043,-0.8288611554464497,-0.31975187328414517,-0.7422580976244535,-2.329951005844611,2,right
8.005,-0.5172324664774884,0.9567736663578414,0.310348838654687,5.401388141898508,3.587932025523721,-0.7803308499228336,-0.30269870981716507,-0.7518265737777817,-2.337671488020345,2,right
8.005,-0.5283673381198384,0.9438279209033946,0.3121900612737539,5.388568714802362,3.631638666423702,-0.7309706192612321,-0.28528882116603543,-0.761263343821988,-2.344451857274604,2,right
8.009,-0.5393462119792408,0.9307073057817262,0.31386491307380937,5.373059687429372,3.673723689595026,-0.6808143262785694,-0.2675265509252462,-0.7705595524329378,-2.350273837450957,2,right
8.01,-0.5501620400238689,0.9174235083870232,0.3153734041997439,5.3548498021571875,3.7141050908191153,-0.6298970244843152,-0.2494164214473175,-0.7797066942415788,-2.3551197254680036,2,right
8.017999999999999,-0.5608080035758881,0.903988455189075,0.3167156764862238,5.3339309492326,3.75270111434296,-0.5782549201468444,-0.2309631282554036,-0.7886966496176189,-2.3589724115298756,2,right
8.019,-0.5712775150701185,0.8904142886929504,0.31789200051015754,5.310298188926629,3.7894303803679628,-0.5259253303418325,-0.2121715338703345,-0.7975217216122019,-2.3618153990567667,2,right
8.019,-0.5815642191270027,0.8767133442729861,0.3189027724885526,5.283949766739089,3.8242120169684455,-0.4729466368364885,-0.1930466610000805,-0.806174674085841,-2.3636328243493776,2,right
8.019,-0.5916619930482732,0.8628981269882446,0.31974851107028396,5.2548871215925095,3.8569657965505106,-0.41935823566135483,-0.173593685038639,-0.8146487710474198,-2.3644094759983,2,right
8.025,-0.6015649468671926,0.8489812884793545,0.32042985407908303,5.223114886947551,3.887612276956605,-0.36520048221942614,-0.15381792582037043,-0.8229378172295974,-2.364130814046484,2,right
