time,gFx,gFy,gFz,ax,ay,az,wx,wy,wz,subject_number,foot
2.082,0.27947096796654425,0.950868609169344,0.019256377332441246,-0.19715782022838194,-0.15014455269325302,-0.4975754770654305,-0.26361993363154873,-0.2709507593931778,0.41845604613112,3,left
2.086,0.2790844512677961,0.9508392232646112,0.020116513684698856,-0.20909270357230875,-0.14560196266766273,-0.4990725081224224,-0.26613084655693175,-0.2688419385842263,0.42212779866024547,3,left
2.0869999999999997,0.2786648643324434,0.9507772882708514,0.02098550374939305,-0.22059779376110816,-0.14073497541320104,-0.5004989467480115,-0.26860866560997537,-0.26659231216221396,0.42584188965863234,3,left
2.0869999999999997,0.2782132557519681,0.9506823575339414,0.021863181562086692,-0.2317062049930273,-0.1355553328285194,-0.5018503208562746,-0.2710530006673113,-0.2642025604640342,0.4295981369818199,3,left
2.09,0.2777307497615525,0.9505540096021616,0.02274935336897764,-0.24245183771941167,-0.13007442791469087,-0.5031221321637205,-0.2734634956535113,-0.26167347749089565,0.43339649091067844,3,left
2.0909999999999997,0.2772185452152378,0.9503918490066399,0.023643798119183518,-0.2528691808756107,-0.12430335463588317,-0.5043098967863423,-0.2758398267735644,-0.2590059613268261,0.4372370304363192,3,left
2.096,0.27667791430318517,0.9501955071221296,0.024546268375469357,-0.26299312133104,-0.11825295589309352,-0.5054091842485178,-0.27818170080374965,-0.25620100498290965,0.44111995945890764,3,left
2.096,0.2761102010268529,0.9499646430971016,0.025456491639073313,-0.2728587623305705,-0.11193386882198304,-0.5064156544017042,-0.2804888534478288,-0.2532596876599945,0.4450456029112924,3,left
2.102,0.27551681944862955,0.9496989448487719,0.026374172070767057,-0.28250125124744996,-0.1053565672693816,-0.5073250921720464,-0.2827610477653848,-0.25018316642220956,0.4490144028184824,3,left
2.103,0.27489925173027485,0.9493981301266359,0.027298992575767345,-0.2919556166769165,-0.09853140143110516,-0.508133440140046,-0.2849980726790331,-0.2469726682732348,0.45302691430412817,3,left
2.105,0.27425904597338185,0.9490619476520318,0.02823061721032519,-0.3012566148989202,-0.09146863463295493,-0.5088368289551752,-0.2871997415671331,-0.24362948262687842,0.45708380155528483,3,left
2.106,0.27359781387743853,0.9486901783381227,0.029168693864662584,-0.3104385857377294,-0.08417847723602591,-0.5094316055880379,-0.28936589094852644,-0.24015495416312477,0.4611858337568604,3,left
2.11,0.27291722823594194,0.9482826365864022,0.030112857175914706,-0.3195353178456557,-0.07667111764674006,-0.5099143594223927,-0.2914963792657288,-0.23655047606043342,0.465333881007276,3,left
2.112,0.2722190202951184,0.9478391716478727,0.031062731620881415,-0.3285799234376907,-0.06895675041133661,-0.5102819461890505,-0.2935910857728989,-0.23281748359468796,0.4695289102269961,3,left
2.115,0.271504977000375,0.9473596690332948,0.03201793473136766,-0.3376047225035058,-0.06104560137389888,-0.5105315097433474,-0.29564990953480763,-0.22895744809481644,0.47377198107171326,3,left
2.115,0.27077693815198867,0.9468440519576751,0.03297808036837884,-0.34664113652301737,-0.052947949876372837,-0.5106605016875736,-0.29767276854292724,-0.22497187124473142,0.4780642418621056,3,left
2.119,0.2700367934840961,0.9462922828080079,0.03394278198941587,-0.3557195917115707,-0.0446741479784383,-0.5106666988394083,-0.2996595989546576,-0.22086227972086908,0.4824069255422214,3,left
2.12,0.26928647967107255,0.945704364628331,0.0349116558472458,-0.3648694318207354,-0.03623463667452811,-0.510548218547071,-0.30161035446160467,-0.21663022015424188,0.48680134567868216,3,left
2.125,0.26852797725638516,0.9450803426200836,0.03588432406786136,-0.374118840520737,-0.027639959084755354,-0.5103035318515563,-0.3035250057927211,-0.21227725440555853,0.4912488925130369,3,left
2.126,0.2677633074939518,0.9444203056575263,0.03686041756685977,-0.38349477339066923,-0.01890077059600255,-0.5099314744959651,-0.30540354035801726,-0.20780495514160877,0.49575102907974655,3,left
2.13,0.26699452909007815,0.9437243878184439,0.03783957877392887,-0.39302289954283043,-0.010027845928951182,-0.5094312557815883,-0.30724596203844584,-0.2032149017007585,0.5003092874024245,3,left
2.13,0.2662237348331789,0.9429927699301385,0.03882146414339808,-0.40272755290781576,-0.0010320831063843094,-0.5088024652700393,-0.3090522911274616,-0.1985086762350543,0.5049252647811142,3,left
2.134,0.26545304809851017,0.9422256811291662,0.03980574643574331,-0.41263169320735327,0.008075495702319956,-0.508045077330362,-0.3108225644296516,-0.19368786011609226,0.5096006201835391,3,left
2.135,0.26468461921655734,0.9414234004307208,0.04079211676185191,-0.42275687664230804,0.017283746485970117,-0.507159453529679,-0.31255683552172936,-0.1887540305914696,0.5143370707534255,3,left
2.14,0.26392062169668773,0.9405862583013327,0.04178028638992294,-0.4331232363237841,0.02658140887143681,-0.506146342865572,-0.3142551751810814,-0.18370875767830158,0.5191363884491589,3,left
2.141,0.2631632483016814,0.939714638226529,0.04276998832463461,-0.443749472475821,0.035957114804761825,-0.5050068798380207,-0.3159176719869532,-0.1785536012799589,0.5240003968262122,3,left
2.145,0.26241470697284547,0.9388089782621027,0.04376097867862126,-0.4546528524388166,0.045399400459929184,-0.5037425803583556,-0.31754443309925523,-0.1732901085118553,0.5289309679769535,3,left
2.145,0.26167721660952675,0.9378697725533094,0.04475303786499749,-0.46584922050349475,0.05489672140198354,-0.502355335492319,-0.31913558521986923,-0.16791981122179464,0.5339300196416249,3,left
2.149,0.26095300271160343,0.9368975728016443,0.0457459716445104,-0.477353017605983,0.06443747103140506,-0.5008474030339634,-0.320691275736616,-0.16244422369360895,0.5389995124973166,3,left
2.15,0.26024429289836254,0.9358929896559584,0.04673961206093145,-0.48917731091535566,0.07401000233684117,-0.49922139690675815,-0.3222116740268724,-0.15686484054019212,0.5441414475961722,3,left
2.15,0.2595533123211928,0.9348566940042565,0.047733818295277314,-0.5013338333458386,0.08360265298345342,-0.4974802743879262,-0.3236969728561942,-0.15118313482356094,0.5493578638598691,3,left
2.154,0.25888227899219796,0.9337894181419244,0.048728477467543885,-0.5138330328204341,0.09320377368755584,-0.4956273211949705,-0.3251473897841271,-0.1454005564569579,0.5546508355018422,3,left
2.155,0.2582333990562975,0.932691956790511,0.04972350541410568,-0.5266841300820634,0.10280175944478036,-0.4936661346894589,-0.3265631685123597,-0.13951853092602676,0.5600224692847047,3,left
2.155,0.2576088620379829,0.9315651679419762,0.05071884746598544,-0.5398951819924285,0.11238508248870395,-0.4916006058423995,-0.32794458015179917,-0.13353845833396402,0.5654749015849239,3,left
2.1590000000000003,0.2570108360981297,0.9304099735066895,0.05171447924885061,-0.5534731462281995,0.12194232547336473,-0.4894349008216599,-0.32929192440812305,-0.12746171275757484,0.5710102952728102,3,left
2.1590000000000003,0.25644146334562995,0.929227359746018,0.05271040752372719,-0.5674239443167178,0.1314622137566173,-0.48717344284513486,-0.33060553068987464,-0.12128964189733873,0.5766308364232522,3,left
2.1630000000000003,0.2559028552588545,0.928018377471724,0.05370667108676713,-0.5817525218112872,0.14093364635159428,-0.48482089455346616,-0.3318857591430709,-0.11502356700430903,0.5823387308728677,3,left
2.164,0.2553970882769013,0.9267841419956387,0.05470334174352017,-0.5964629054387554,0.15034572549699887,-0.48238214093939324,-0.33313300161619464,-0.10866478306639221,0.588136200639477,3,left
2.168,0.2549261996217142,0.9255258328129301,0.055700525367196406,-0.6115582572594719,0.15968778487355248,-0.47986227282724647,-0.3343476825593448,-0.10221455923627877,0.5940254802200482,3,left
2.169,0.25449218341286406,0.9242446929995844,0.05669836304241277,-0.6270409258807953,0.16894941649378278,-0.477266570895836,-0.33553025986122426,-0.09567413948302829,0.6000088127835176,3,left
2.174,0.25409698713704,0.9229420283005019,0.05769703228765416,-0.6429124947664142,0.17812049629216783,-0.4746004902377421,-0.3366812256275475,-0.0890447434490439,0.6060884462751452,3,left
2.175,0.25374250853429114,0.921619205881111,0.05869674834103188,-0.6591738276848526,0.18719120844245088,-0.4718696454477776,-0.33780110690436105,-0.08232756749390918,0.6122666294493269,3,left
2.1790000000000003,0.25343059296541387,0.9202776527140097,0.05969776548173292,-0.6758251113416405,0.19615206842871036,-0.4690797962331793,-0.33889046634967235,-0.07552378590630134,0.6185456078480569,3,left
2.18,0.2531630313307177,0.9189188535728181,0.06070037834276844,-0.6928658952407466,0.2049939448965102,-0.4662368335378803,-0.3399499028566963,-0.06863455226493846,0.6249276197425133,3,left
2.184,0.25294155861638346,0.9175443486091268,0.0617049231535179,-0.7102951288219872,0.21370808031016741,-0.46334676617303067,-0.3409800521319373,-0.06166100092926711,0.6314148920555162,3,left
2.184,0.2527678531454033,0.9161557304968108,0.06271177883788386,-0.7281111959222469,0.22228611044185959,-0.46041570794576536,-0.34198158723123717,-0.05460424864034699,0.6380096362829017,3,left
2.189,0.25264353660129274,0.9147546411404603,0.0637213678878267,-0.7463119466094601,0.23072008271795397,-0.45744986527806475,-0.3429552190568352,-0.04746539621214436,0.6447140444321529,3,left
2.19,0.25257017487238365,0.913342767958903,0.06473415693463525,-0.7648947264394198,0.23900247344757322,-0.45445552530741895,-0.3439016968183986,-0.040245530293203303,0.6515302849969253,3,left
2.193,0.25254927973458285,0.9119218397694044,0.06575065695196597,-0.7838564031865934,0.2471262039580235,-0.45143904446088834,-0.344821808460905,-0.03294572517842527,0.6584604989864198,3,left
2.194,0.25258231135621934,0.9104936223132344,0.06677142304094098,-0.8031933911012209,0.2550846556612969,-0.4484068374940547,-0.34571638106217323,-0.02556704465045097,0.6655067960288646,3,left
2.198,0.2526706815750284,0.90905991347912,0.06779705376168015,-0.8229016727460737,0.2628716840754258,-0.4453653669862737,-0.3465862812027641,-0.0181105438299064,0.6726712505686953,3,left
2.199,0.25281575786812666,0.907622538297323,0.06882818998422695,-0.8429768184673404,0.2704816318240133,-0.4423211332835787,-0.34743241531089614,-0.01057727101354472,0.6799558981773426,3,left
2.2030000000000003,0.25301886791342965,0.9061833437924601,0.06986551323657118,-0.8634140035551782,0.2779093406367877,-0.4392806648805367,-0.34825572998494797,-0.0029682694790893896,0.687362731997878,3,left
2.2030000000000003,0.25328130462555337,0.9047441937956769,0.07090974353214477,-0.8842080231505383,0.2851501623735399,-0.436250509232335,-0.34905721229604797,0.004715420764639774,0.6948936993441004,3,left
2.207,0.2536043315390329,0.9033069638236066,0.07196163666667876,-0.9053533049559241,0.29219996909329304,-0.43323722398836656,-0.34983789007318467,0.012472761303956423,0.7025506984749964,3,left
2.208,0.2539891884047814,0.9018735361306277,0.07302198098661773,-0.9268439198087848,0.29905516219003336,-0.43024736863859403,-0.3505988321732044,0.020302713744749804,0.7103355755658564,3,left
2.2119999999999997,0.2544370968611332,0.9004457950321828,0.07409159364947283,-0.948673590177263,0.3057126806157933,-0.4272874965640016,-0.35134114873800143,0.028204238257210117,0.7182501218976834,3,left
2.213,0.25494926603865836,0.8990256225808706,0.07517131641969202,-0.9708356966390347,0.31217000821133184,-0.4243641474824921,-0.35206599144114487,0.036176292263119685,0.7262960712868984,3,left
2.218,0.2555268979590043,0.8976148946537602,0.07626201106919063,-0.9933232824049584,0.3184251801640986,-0.4214838402816551,-0.35277455372613165,0.044217829288201005,0.7344750977777047,3,left
2.219,0.25617119259308735,0.8962154774803283,0.07736455447555138,-1.016129055950234,0.3244767886126013,-0.4186530662299159,-0.35346807103839994,0.052327798002218456,0.7427888136198574,3,left
2.22,0.2568833524546514,0.8948292246104572,0.0784798335264983,-1.0392453918167224,0.3303239874157228,-0.4158782825576837,-0.35414782105098863,0.06050514145949881,0.7512387675433297,3,left
2.222,0.25766458662518704,0.8934579742986049,0.07960873993878301,-1.0626643296510079,0.33596649610495377,-0.4131659064002363,-0.35481512387268394,0.06874879650156493,0.7598264432836517,3,left
2.2230000000000003,0.25851611413469544,0.8921035472662491,0.08075216508436697,-1.0863775715437056,0.3414046030369248,-0.41052230909422427,-0.35547134220765764,0.07705769319166629,0.76855325820749,3,left
2.2230000000000003,0.2594391666489491,0.8907677447933016,0.08191099490210182,-1.1103764777664078,0.34663916776430337,-0.4079538108102536,-0.3561178814245631,0.0854307541000132,0.7774205618303252,3,left
2.227,0.2604349904301088,0.8894523470773373,0.0830861049677177,-1.1346520611535682,0.351671622648889,-0.4054666754562696,-0.3567561895040172,0.09386689330988261,0.7864296340765826,3,left
2.228,0.26150484755046405,0.8881591117921654,0.08427835579027189,-1.1591949806475255,0.3565039737515847,-0.4030671057004115,-0.3573877568531605,0.10236501510705748,0.7955816832375626,3,left
2.2319999999999998,0.26265001635764657,0.8868897727688102,0.08548858839692033,-1.1839955346757227,0.3611388010396903,-0.40076123791430873,-0.35801411598695515,0.11092401236641708,0.8048778436410257,3,left
2.2319999999999998,0.26387179121554266,0.8856460387020255,0.0867176202668985,-1.2090436548799388,0.365579257945034,-0.3985551368859372,-0.3586368410780603,0.1195427646599106,0.8143191730583151,3,left
2.237,0.26517148157572484,0.8844295917623682,0.08796624167557492,-1.2343289004480544,0.3698290702944506,-0.39645479023765623,-0.3592575473770992,0.12822013611032446,0.8239066498753128,3,left
2.237,0.266550410463572,0.8832420859840366,0.08923521250092378,-1.2598404531495835,0.3738925346271993,-0.3944661025332328,-0.35987789050512337,0.13695497301542864,0.833641170053933,3,left
2.242,0.2680099124839441,0.8820851453068015,0.09052525952710919,-1.2855671131469042,0.37777451591208405,-0.3925948890675263,-0.36049956562006485,0.14574610126725907,0.8435235439112811,3,left
2.2430000000000003,0.2695513314602284,0.8809603611732925,0.09183707425559684,-1.3114972956548034,0.38148044467649517,-0.39084686933281587,-0.36112430645896404,0.154592323591461,0.8535544927440211,3,left
2.248,0.2711760178199511,0.8798692896161745,0.09317131120523936,-1.3376190285216008,0.3850163135590562,-0.3892276601560668,-0.3617538842577582,0.16349241663178427,0.8637346453259158,3,left
2.248,0.27288532583375297,0.8788134478071619,0.09452858665484151,-1.3639199508057298,0.3883886732970385,-0.3877427685017748,-0.36239010655042,0.172445127904982,0.874064534306935,3,left
2.252,0.2746806108051419,0.8777943100745617,0.09590947776252255,-1.3903873124222437,0.39160462815920344,-0.38639758393537765,-0.36303481584924624,0.1814491726515231,0.8845445925427454,3,left
2.252,0.27656322629738955,0.876813303423428,0.09731452198827646,-1.4170079749342575,0.3946718308342437,-0.3851973707425949,-0.3636898882081074,0.19050323060768323,0.8951751493838307,3,left
2.258,0.2785345214705345,0.8758718026115431,0.09874421674554551,-1.443768413564858,0.397598476784527,-0.3841472597004421,-0.3643572316704905,0.1996059427247307,0.905956426953916,3,left
2.258,0.28059583858300385,0.8749711248482427,0.10019901920976927,-1.4706547205054814,0.40039329807439733,-0.3832522394960651,-0.3650387846041918,0.20875590786107032,0.9168885364478054,3,left
2.262,0.28274851068683976,0.874112524196782,0.10167934621521683,-1.4976526095972102,0.4030655566818622,-0.38251714778995877,-0.3657365139245444,0.21795167947335212,0.9279714744791712,3,left
2.263,0.2849938595141026,0.8732971857784306,0.10318557417593367,-1.5247474224618298,0.40562503730209276,-0.38194666192056453,-0.3664524132081028,0.2271917623326918,0.9392051195092654,3,left
2.267,0.28733319351822834,0.8725262198965263,0.10471803897158106,-1.5519241361598535,0.40808203965078493,-0.38154528924768416,-0.36718850069874576,0.2364746092922853,0.950589228387962,3,left
2.267,0.2897678060020768,0.8718006562158226,0.10627703574266854,-1.5791673724530415,0.41044737027508,-0.38131735713261,-0.36794681720820704,0.24579861813283055,0.9621234330389634,3,left
2.271,0.2922989732398181,0.8711214381417531,0.10786281854171612,-1.6064614087492193,0.4127323338794186,-0.38126700255334167,-0.3687294239130943,0.25516212851229836,0.9738072373214459,3,left
2.272,0.2949279524890672,0.8704894175431481,0.10947559979071893,-1.6337901908074308,0.41494872417341094,-0.38139816135374555,-0.3695384000505159,0.2645634190467156,0.9856400141008448,3,left
2.276,0.29765597979572683,0.8699053499492779,0.11111554950745631,-1.661137347281658,0.41710881424854135,-0.3817145571260115,-0.3703758405144971,0.2740007045487424,0.997621002561913,3,left
2.276,0.30048426751439533,0.8693698903283529,0.11278279428793357,-1.6884862061814767,0.4192253464902973,-0.38221968972627,-0.37124385335543997,0.2834721334509391,1.0097493057976168,3,left
2.281,0.30341400149552167,0.8688835895222422,0.11447741606657015,-1.7158198133281282,0.4213115220321169,-0.38291682342375505,-0.37214455718495393,0.2929757854407252,1.022023888707859,3,left
2.282,0.3064463379189442,0.8684468913743458,0.11619945070955864,-1.7431209528845253,0.4233809897573864,-0.3838089746844294,-0.3730800784884688,0.3025096693341393,1.0344435762424464,3,left
2.286,0.3095823997763934,0.8680601305471574,0.1179488865196453,-1.7703721700377266,0.4254478348555977,-0.38489889959053003,-0.37405254884812755,0.3120717212156024,1.0470070520231405,3,left
2.286,0.3128232730207313,0.8677235309879395,0.11972566273802761,-1.7975557959123605,0.4275265669386872,-0.3861890808980424,-0.37506410207945273,0.32165980286264345,1.0597128573652541,3,left
2.287,0.3161700024068189,0.8674372049746067,0.12152966812213137,-1.824653974793394,0.42963210772353194,-0.38768171473467367,-0.3761168712898931,0.33127170043293086,1.0725593906457054,3,left
2.29,0.31962358705060395,0.8672011526624033,0.12336073966326043,-1.851648693736493,0.4317797782865716,-0.38937869694146043,-0.37721298587558066,0.3409051233159764,1.0855449068316965,3,left
2.291,0.32318497573523636,0.8670152620412038,0.1252186614975655,-1.8785218145577285,0.43398528588528995,-0.3912816090900445,-0.3783545684772542,0.35055770301025235,1.0986675169106237,3,left
2.292,0.3268550619981744,0.8668793091959726,0.12710316406229055,-1.9052551077626758,0.43626471028500996,-0.3933917043498513,-0.3795437319119103,0.3602269919282309,1.1119251870361995,3,left
2.296,0.3306346790390758,0.8667929587500033,0.12901392355045468,-1.931830287198001,0.4386344894281421,-0.3957098936348977,-0.38078257608875,0.3699104621069756,1.1253157373393199,3,left
2.2969999999999997,0.33452459449648875,0.8667557643565728,0.13095056172070568,-1.9582290437768082,0.44111140422683665,-0.3982367326021664,-0.38207318491360553,0.3796055038436689,1.1388368404265765,3,left
2.303,0.3385255051551387,0.8667671690736359,0.13291264612925732,-1.9844330770600964,0.4437125623165586,-0.4009724099324598,-0.3834176231852696,0.38930942428384785,1.1524860196044953,3,left
2.3040000000000003,0.34263803166001516,0.8668265054226919,0.13489969085855966,-2.010424124252861,0.44645538070980273,-0.4039167370703366,-0.38481793348728965,0.39901944599015976,1.1662606468679588,3,left
2.305,0.3468627133206587,0.8669329949231288,0.13691115780931037,-2.036183986604345,0.4493575673458305,-0.40706913945871137,-0.38627613307893854,0.4087327055194835,1.1801579406916596,3,left
2.306,0.3512000030876183,0.8670857469098031,0.13894645859855953,-2.0616945532876803,0.4524371015439392,-0.41042864927597716,-0.3877942107892298,0.4184462520362882,1.194174963663778,3,left
2.31,0.35565026277646256,0.8672837564743267,0.14100495707562916,-2.0869378228335345,0.4557122133681799,-0.4139938996841072,-0.3893741239180034,0.42815704599011634,1.208308620001456,3,left
2.311,0.36021375860629806,0.8675259014130795,0.14308597243602655,-2.111895922191741,0.4592013619119007,-0.4177631205967903,-0.3910177951482754,0.4378619578850885,1.2225556529879826,3,left
2.315,0.3648906571110477,0.8678109381134141,0.14518878288371678,-2.136551123494144,0.4629232125110015,-0.4217341359772479,-0.3927271094742172,0.44755776716932844,1.2369126423719525,3,left
2.316,0.36968102147293835,0.8681374963614745,0.14731262976424084,-2.1608858585911515,0.46689661289534773,-0.42590436267597015,-0.39450391114930694,0.45724116127219744,1.2513760017689892,3,left
2.32,0.37458480831840063,0.8685040731097903,0.14945672206790653,-2.1848827314336408,0.47114056828840756,-0.4302708108191957,-0.39635000065937853,0.4669087348172116,1.2659419761069588,3,left
2.3209999999999997,0.3796018650070266,0.8689090252985797,0.15162024118778175,-2.208524528371019,0.4756742154658443,-0.4348300857595361,-0.39826713172548334,0.4765569890384873,1.280606639155905,3,left
2.325,0.3847319274350393,0.8693505618771029,0.15380234580980112,-2.231794226435301,0.48051679578452045,-0.43957839160071843,-0.4002570083416728,0.4861823314285256,1.2953658911842514,3,left
2.325,0.3899746183673396,0.86982673521474,0.15600217680641687,-2.2546749996801076,0.4856876271941446,-0.4445115363089833,-0.4023212818530085,0.4957810756451013,1.3102154567831026,3,left
2.33,0.39532944630880185,0.8703354321213208,0.1582188620022958,-2.277150223642464,0.49120607524462906,-0.44962493842422696,-0.4044615480793106,0.5053494417049645,1.3251508829007659,3,left
2.33,0.4007958049269005,0.8708743647113105,0.16045152068977447,-2.299203477994206,0.4970915231031091,-0.45491363538451923,-0.40667934449036547,0.5148835564919994,1.340167537129882,3,left
2.336,0.40637297304126246,0.8714410613481502,0.16269926780045454,-2.3208185474486953,0.5033633405955205,-0.4603722934781592,-0.40897614743852534,0.5243794546074041,1.3552606062898165,3,left
2.336,0.4120601151961852,0.8720328578967286,0.16496121768609198,-2.3419794209873683,0.5100408522886308,-0.4659952194379477,-0.41135336945485157,0.5338330795893743,1.3704250953472044,3,left
2.34,0.41785628282449083,0.8726468894987768,0.1672364875145451,-2.362670289469436,0.5171433046294734,-0.47177637369285613,-0.4138123566151769,0.5432402855296674,1.3856558267177777,3,left
2.3409999999999997,0.42376041599241493,0.8732800830725886,0.169524200324897,-2.3828755416868006,0.5246898321602418,-0.47770938529276386,-0.4163543859826866,0.5525968391143194,1.4009474399928241,3,left
2.345,0.42977134568562847,0.8739291507269766,0.17182348779440515,-2.4025797589249387,0.5326994228278702,-0.4837875685224022,-0.4189806631338514,0.5618984221156642,1.4162943921338293,3,left
2.346,0.4358877965598553,0.8745905842693336,0.17413349274916817,-2.4217677080891593,0.5411908824087437,-0.4900039412210989,-0.42169231977477856,0.5711406343626678,1.4316909581790442,3,left
2.349,0.44210839004327435,0.875260650976321,0.1764533714148873,-2.440424333454247,0.5501827980702587,-0.4963512448253542,-0.4244904114552859,0.5803189972164516,1.447131232505892,3,left
2.35,0.44843164765023913,0.875935390779082,0.17878229537205537,-2.4585347470940637,0.5596935010922837,-0.5028219661516927,-0.42737591538824665,0.5894289575777111,1.4626091306932953,3,left
2.354,0.45485599435471485,0.8766106149897207,0.18111945316401756,-2.476084218046197,0.5697410287729525,-0.5094083609376348,-0.4303497283774097,0.5984658924375096,1.4781183920073877,3,left
2.355,0.4613797618842204,0.8772819066617381,0.18346405150961123,-2.4930581602652193,0.580343085544665,-0.5161024791590045,-0.43341266483421004,0.607425113907421,1.493652582430443,3,left
2.356,0.4680011918265656,0.8779446226391862,0.18581531608913573,-2.5094421194165513,0.5915170033276496,-0.5228961921421469,-0.43656545482305137,0.616301874529223,1.509205097966213,3,left
2.359,0.4747184384696506,0.8785938973143043,0.18817249189370758,-2.5252217585613153,0.6032797011499949,-0.5297812214899572,-0.4398087420518568,0.625091372588813,1.5247691678511908,3,left
2.36,0.48152957130439766,0.8792246480825056,0.1905348431461974,-2.5403828428230497,0.6156476440701768,-0.5367491697810711,-0.4431430817478766,0.6337887572341162,1.5403378574051438,3,left
2.3609999999999998,0.4884325771277919,0.8798315824568934,0.19290165281447072,-2.554911223336188,0.6286368014674247,-0.5437915527025247,-0.4465689384002882,0.6423891333320932,1.5559040704410785,3,left
2.365,0.4954253617029596,0.8804092067826758,0.19527222174522066,-2.5687928211537563,0.6422626048167708,-0.5508998317376661,-0.4500866833743197,0.6508875660750212,1.5714605512585778,3,left
2.366,0.5025057509566553,0.8809518364640072,0.19764586745368515,-2.5820136120006953,0.6565399050950362,-0.5580654462320195,-0.4536965924064742,0.6592790853610239,1.5869998862652248,3,left
2.369,0.5096714917092251,0.8814536075704403,0.20002192261680773,-2.5945596125466652,0.6714829299381199,-0.5652798439593354,-0.4573988429907006,0.6675586899735473,1.6025145052708132,3,left
2.37,0.5169202519427974,0.8819084896382414,0.20239973333574326,-2.6064168684910527,0.6871052406219719,-0.5725345098490399,-0.4611935116656143,0.6757213515841839,1.6179966824990146,3,left
2.375,0.5242496206273849,0.882310299442337,0.20477865725458136,-2.617571444540267,0.7034196889138321,-0.5798209928357834,-0.46508057121314006,0.6837620186029395,1.633438537361133,3,left
2.375,0.5316571071402324,0.8826527154920283,0.2071580616400536,-2.6280094163133367,0.7204383738366891,-0.5871309308517965,-0.46905988777921187,0.6916756198997187,1.6488320350364951,3,left
2.381,0.5391401403288324,0.8829292929939533,0.20953732153293103,-2.637716864209844,0.7381725983918676,-0.5944560739828744,-0.47313121792743174,0.6994570684204674,1.6641689869039347,3,left
2.3819999999999997,0.5466960672843382,0.8831334790273152,0.21191581807107415,-2.646679869272208,0.7566328262866362,-0.6017883058089055,-0.4772942056368525,0.707101264721059,1.679441050868719,3,left
2.384,0.5543221519102048,0.8832586276889463,0.2142929370635423,-2.654884511072274,0.7758286387157498,-0.6091196629499246,-0.48154837925531646,0.7146031004416478,1.694639731629115,3,left
2.384,0.562015573386624,0.8832980149895212,0.21666806787538279,-2.662316867650058,0.7957686912478971,-0.6164423528387157,-0.4858931484200449,0.7219574617438315,1.7097563809266416,3,left
2.388,0.5697734246387526,0.8832448533172917,0.21904060266656267,-2.6689630175303827,0.816460670870101,-0.6237487697410137,-0.49032780095743617,0.7291592327325735,1.7247821978238584,3,left
2.3890000000000002,0.5775927109128642,0.8830923053323971,0.22140993601225392,-2.674809043840922,0.8379112532452399,-0.6310315090443461,-0.49485149977429244,0.7362032988844227,1.739708229053336,3,left
2.394,0.585470348550351,0.882833497213919,0.22377546491236616,-2.679841040552995,0.8601260602399846,-0.6382833798365374,-0.4994632797529546,0.7430845505031487,1.7545253694812146,3,left
2.395,0.5934031640273012,0.8824615312527377,0.22613658917646262,-2.6840451208641563,0.8831096177826109,-0.645497415794846,-0.5041620446630842,0.7497978862234694,1.769224362728497,3,left
2.398,0.6013878932997125,0.881969497861318,0.22849271214892672,-2.6874074277393607,0.9068653141123191,-0.6526668844066434,-0.5089465641030839,0.7563382165830949,1.7837958019929345,3,left
2.399,0.6094211814646173,0.8813504871485143,0.2308432417217127,-2.6899141466251173,0.9313953584838899,-0.6597852945424507,-0.5138154704844047,0.762700467682845,1.798230131114051,3,left
2.403,0.6174995827189387,0.8805976002735648,0.23318759157048274,-2.691551520348688,0.9567007403937076,-0.6668464024020426,-0.5187672560722331,0.7688795849541175,1.8125176459235122,3,left
2.404,0.6256195605735395,0.8797039608399241,0.23552518254535845,-2.6923058662119517,0.9827811893954005,-0.6738442158542017,-0.5238002700963025,0.7748705370524794,1.82664849592268,3,left
2.408,0.633777488262105,0.878662726611957,0.23785544414874618,-2.692163595287111,1.0096351355755684,-0.6807729971905576,-0.5289127159458098,0.7806683198956547,1.8406126863287946,3,left
2.4090000000000003,0.641969649274386,0.8774671018363277,0.24017781603519178,-2.691111233918919,1.0372596707622912,-0.6876272643137833,-0.5341026484626621,0.7862679608636418,1.854400080530808,3,left
2.414,0.6501922379406312,0.8761103504281879,0.24249174946581775,-2.689135447435555,1.065650510541339,-0.6944017903802399,-0.5393679713475045,0.7916645231781649,1.8680004029954447,3,left
2.415,0.6584413599984226,0.8745858102443276,0.24479670864185685,-2.6862230660677184,1.0948019571572216,-0.7010916019169616,-0.5447064346932153,0.7968531104781021,1.8814032426635783,3,left
2.419,0.6667130330844576,0.8728869086165424,0.2470921718369006,-2.6823611130728837,1.124706863378425,-0.70769197543266,-0.5501156326607703,0.8018288716069653,1.894598056876514,3,left
2.42,0.6750031871118157,0.871007179261521,0.24937763225564744,-2.677536835059018,1.155356597408381,-0.7141984325421988,-0.5555930013125989,0.806587005627926,1.9075741758712224,3,left
2.424,0.6833076645167588,0.8689402806181817,0.25165259856787175,-2.6717377344993642,1.1867410089259027,-0.7206067336237478,-0.561135816618762,0.8111227670812816,1.9203208078830025,3,left
2.425,0.6916222203841557,0.8666800155930559,0.25391659509077114,-2.6649516044271673,1.2188483963409713,-0.7269128700275657,-0.5667411926457129,0.8154314714953952,1.932827044881431,3,left
2.426,0.6999425224806277,0.8642203526344179,0.25616916161230585,-2.657166565296456,1.2516654753539036,-0.7331130548550946,-0.5724060799087373,0.8195085011452685,1.9450818689046727,3,left
2.428,0.7082641512350027,0.861555448021218,0.2584098528598876,-2.648371103940212,1.285177348908794,-0.7392037123513838,-0.5781272638174014,0.823349311023023,1.9570741588482978,3,left
2.4290000000000003,0.7165825997083218,0.8586796692368417,0.26063823762461014,-2.6385541142944766,1.3193674786379865,-0.7451814660766428,-0.5839013631146573,0.8269494349676599,1.9687926975039256,3,left
2.4290000000000003,0.7248932735960566,0.855587619275836,0.262853897555944,-2.627704939086197,1.354217657903199,-0.7510431262439652,-0.5897248282392865,0.8303044919170556,1.9802261787024267,3,left
2.432,0.7331914913080543,0.8522741616776206,0.2650564256518426,-2.615813411419765,1.3897079865447084,-0.7567856767330278,-0.5955939395934752,0.8334101922737176,1.9913632145239366,3,left
2.4330000000000003,0.7414724841782151,0.8487344459897066,0.2672454244886696,-2.602869895454224,1.4258168474481523,-0.7624062621661645,-0.6015048057263283,0.8362623443913838,2.0021923425962864,3,left
2.437,0.7497313968623578,0.8449639332677953,0.26942050426290537,-2.5888653258280137,1.4625208850335742,-0.7679021752113445,-0.607453361450044,0.8388568611920928,2.012702033514675,3,left
2.438,0.7579632879842862,0.8409584211609005,0.27158128074732907,-2.573791245745092,1.499794985769376,-0.7732708441531596,-0.613435365905601,0.8411897669226412,2.022880698414551,3,left
2.4419999999999997,0.7661631310858227,0.8367140681153152,0.27372737329351216,-2.5576398436852377,1.5376122608148592,-0.7785098207479608,-0.6194464005949285,0.8432572040586104,2.032716696728787,3,left
2.4419999999999997,0.7743258159286842,0.8322274162550528,0.27585840303512177,-2.540403988698269,1.5759440308967425,-0.7836167683789284,-0.6254818673966416,0.8450554403634065,2.042198344159317,3,left
2.449,0.7824461501869511,0.8274954125541358,0.2779739914557329,-2.522077264238871,1.6147598135266754,-0.7885894505264924,-0.6315369865825133,0.8465808761090112,2.0513139208924462,3,left
2.45,0.7905188615613549,0.8225154280025143,0.2800737594727873,-2.502654000495611,1.6540273126683271,-0.7934257195691493,-0.6376067948519447,0.8478300514643695,2.0600516800860698,3,left
2.452,0.7985386003437788,0.8172852745728103,0.28215732715373704,-2.482129305164614,1.6937124109640975,-0.7981235059293378,-0.6436861434017593,0.8487996540565758,2.0683998566560104,3,left
2.4530000000000003,0.8064999424626964,0.8118032199050673,0.2842243141279508,-2.4604990926152457,1.7337791646328928,-0.8026808075786592,-0.6497696960487058,0.8494865267092321,2.076346676387638,3,left
2.457,0.8143973930434606,0.8060679997238209,0.28627434069782615,-2.4377601113919787,1.7741898011516946,-0.8070956799163278,-0.6558519274220963,0.8498876753615601,2.0838803653978473,3,left
2.458,0.8222253905146939,0.8000788280728967,0.28830702959145,-2.413909969993492,1.8149047198348511,-0.8113662260343429,-0.6619271212440313,0.8500002771710441,2.0909891599713486,3,left
2.4619999999999997,0.8299783112792846,0.7938354054947292,0.2903220082433414,-2.3889471608668438,1.8558824954261088,-0.8154905873824707,-0.6679893687146777,0.8498216888015744,2.097661316794074,3,left
2.463,0.8376504749462567,0.7873379252961693,0.29231891144489364,-2.3628710825513917,1.8970798848193893,-0.8194669348457153,-0.6740325670200588,0.8493494548982353,2.103885123605321,3,left
2.467,0.8452361500930058,0.780587078035937,0.2942973841776205,-2.3356820599039474,1.938451837025186,-0.8232934602465422,-0.6800504179797954,0.8485813167490559,2.1096489102890255,3,left
2.468,0.8527295605037195,0.7735840543427598,0.2962570844368129,-2.3073813623334485,1.9799515065002038,-0.826968368283698,-0.6860364268522025,0.8475152211332054,2.114941060423308,3,left
2.471,0.8601248918159936,0.766330546132459,0.2981976858709418,-2.2779712199702415,2.021530269958493,-0.830489868919047,-0.6919839013140858,0.846149329354273,2.1197500233061497,3,left
2.472,0.8674162985052003,0.7588287462457257,0.3001188800950836,-2.247454837691866,2.0631377467828322,-0.8338561702234112,-0.6978859506325141,0.8444820264564181,2.1240643264737233,3,left
2.476,0.8745979111406482,0.751081346485699,0.30202037858022407,-2.215836406924052,2.104721823155466,-0.8370654716919693,-0.7037354850457466,0.8425119306203278,2.127872588726566,3,left
2.477,0.8816638438532883,0.7430915340022192,0.30390191407609407,-2.1831211151324488,2.146228680027541,-0.8401159580393254,-0.7095252153703889,0.8402379027350507,2.1311635336773804,3,left
2.481,0.8886082019598244,0.7348629859509404,0.30576324158789964,-2.14931515291742,2.187602825046649,-0.843005793483914,-0.7152476528517162,0.8376590561409191,2.1339260038328285,3,left
2.4819999999999998,0.8954250896947856,0.7263998623505384,0.30760413897887146,-2.1144257186210984,2.228787128561821,-0.8457331165309593,-0.7208951092739495,0.8347747665378913,2.1361489752202467,3,left
2.487,0.9021086180114134,0.7177067970688441,0.30942440729368587,-2.0784610203527203,2.2697228638251015,-0.8482960352627444,-0.7264596973471061,0.831584682052786,2.137821572568698,3,left
2.487,0.9086529124207084,0.7087888868891132,0.3112238708911077,-2.041430275335148,2.310349751508418,-0.850692623144491,-0.7319333313868424,0.828088733457994,2.1389330850522823,3,left
2.492,0.9150521208417698,0.6996516786421343,0.3130023774492804,-2.0033437064723594,2.350606008653951,-0.8529209153536786,-0.7373077283034979,0.8242871445333841,2.1394729826020633,3,left
2.4930000000000003,0.9213004214365551,0.6903011544336338,0.31475979787702235,-1.9642125360346185,2.3904284021754556,-0.8549789056401632,-0.7425744089156804,0.8201804425510638,2.1394309327723415,3,left
2.4930000000000003,0.9273920304040693,0.680743715032513,0.3164960261399069,-1.9240489763549646,2.4297523070271234,-0.8568645437239742,-0.7477246996003271,0.8157694688059217,2.1387968180501202,3,left
2.497,0.9333212097158552,0.6709861615032795,0.3182109789968899,-1.8828662174276298,2.4685117691554863,-0.8585757332371878,-0.7527497342852356,0.8110553890134452,2.1375607533234717,3,left
2.498,0.9390822747820137,0.6610356751852384,0.3199045956398983,-1.8406784112960008,2.506639573348628,-0.860110330215785,-0.7576404567866115,0.806039703339575,2.1357131031275816,3,left
2.499,0.9446696020401039,0.650899796158874,0.3215768372297541,-1.7975006532071638,2.5440673160638636,-0.8614661421396911,-0.7623876234969779,0.8007242558823435,2.1332444983808108,3,left
2.503,0.9500776364606792,0.6405864003688276,0.3232276863247421,-1.7533489599690917,2.580725483155144,-0.8626409274826315,-0.7669818064340965,0.7951112435247252,2.1301458524928774,3,left
2.503,0.9553008989656608,0.6301036755675854,0.3248571462023336,-1.7082402467751638,2.6165435321346884,-0.8636323956680055,-0.7714133966642995,0.7892032241331192,2.126408376820778,3,left
2.506,0.9603339937562579,0.6194600962375543,0.32646524007896327,-1.662192304219808,2.651449978443047,-0.8644382072904053,-0.7756726081138495,0.7830031240862038,2.122023595465337,3,left
2.5069999999999997,0.9651716155438249,0.6086643976772713,0.32805201023537583,-1.6152237767643083,2.685372485357877,-0.8650559744979507,-0.7797494817815047,0.7765142451180387,2.116983359399459,3,left
2.511,0.9698085566739217,0.5977255494767268,0.3296175170515373,-1.5673541430775795,2.7182379574542206,-0.8654832614950027,-0.7836338903649999,0.7697402704584526,2.111279859917338,3,left
2.512,0.9742397141357967,0.5866527286196698,0.33116183794301324,-1.5186036982120463,2.7499726376847486,-0.8657175851603541,-0.7873155433136565,0.7626852702529094,2.1049056413920013,3,left
2.515,0.9784600964570478,0.5754552924359541,0.3326850661756563,-1.4689935374797458,2.7805022081772637,-0.8657564157826633,-0.7907839923188117,0.7553537062432227,2.0978536133266976,3,left
2.516,0.9824648304924896,0.5641427516023223,0.3341873095258976,-1.4185455418911772,2.8097518948437155,-0.8655971779143559,-0.7940286372532036,0.7477504356896653,2.0901170616837224,3,left
2.52,0.9862491681222703,0.5527247433676847,0.3356686887523733,-1.367282365016902,2.837646575891738,-0.8652372513446622,-0.797038732569866,0.7398807145142173,2.081689659472361,3,left
2.521,0.9898084928750507,0.5412110051619802,0.33712933584802696,-1.3152274211294182,2.864110894326243,-0.8646739721918952,-0.799803394170475,0.7317501996439034,2.0725654765756722,3,left
2.525,0.9931383264898257,0.5296113487344182,0.33856939204736436,-1.26240487448044,2.8890693745249414,-0.8639046341145074,-0.8023116067524434,0.7233649505323848,2.0627389887938747,3,left
2.526,0.9962343354278529,0.5179356349554298,0.3399890055706604,-1.2088396295663646,2.9124465429677637,-0.862926489639884,-0.8045522316433883,0.7147314298372118,2.052205086080113,3,left
2.531,0.9990923373450106,0.5061937494047722,0.3413883290954306,-1.1545573222324388,2.9341670531960373,-0.8617367516092527,-0.8065140151308894,0.7058565032293953,2.040959079942381,3,left
2.532,1.001708307533746,0.4943955788545292,0.3427675169552608,-1.099584311463934,2.9541558150729617,-0.8603325947364888,-0.8081855972947205,0.6967474383112205,2.0289967099833617,3,left
2.5340000000000003,1.0040783853408661,0.48255098874360053,0.34412672208053163,-1.043947671710506,2.972338128412378,-0.8587111572780047,-0.8095555213479643,0.6874119026175155,2.0163141495479144,3,left
2.535,1.0061988805622633,0.4706698017350585,0.34546609271799544,-0.9876751855878582,2.988639821038058,-0.8568695428102968,-0.8106122434926244,0.6778579606748963,2.00290801044589,3,left
2.54,1.0080662798116007,0.4587617774505934,0.3467857689894338,-0.9307953367988429,3.0029873913307825,-0.8548048221111123,-0.8113441432945104,0.6680940700928366,1.9887753467159044,3,left
2.541,1.0096772528613223,0.4468365934834734,0.34808587935928786,-0.8733373031142341,3.015308155315283,-0.8525140351395678,-0.8117395345813072,0.6581290766597603,1.9739136573936271,3,left
2.545,1.0110286589599928,0.4349038277970596,0.34936653707149157,-0.8153309492515725,3.0255303983337134,-0.8499941931099274,-0.8117866768668385,0.6479722084167313,1.9583208882460683,3,left
2.546,1.0121175531335125,0.4229729426135341,0.3506278365950192,-0.7568068194887485,3.0335835313467183,-0.8472422806530999,-0.811473787303603,0.6376330686807078,1.9419954324312592,3,left
2.55,1.0129411924745921,0.41105326988283286,0.3518698500975037,-0.6977961298473259,3.039398251897331,-0.8442552580592677,-0.8107890531646926,0.6271216279887555,1.9249361300406254,3,left
2.551,1.013497042415951,0.39915399839425875,0.3530926239519102,-0.6383307596790329,3.0429067097669154,-0.8410300635944038,-0.8097206448552039,0.6164482149340628,1.9071422664792588,3,left
2.5540000000000003,1.013782782971545,0.38728416255589604,0.3542961752726756,-0.5784432424873654,3.0440426773461478,-0.837563615882763,-0.8082567294522159,0.6056235058640774,1.8886135696371846,3,left
2.555,1.0137963149197202,0.37545263282614666,0.35548048847494024,-0.5181667558148496,3.042741724737583,-0.8338528163467618,-0.8063854847713465,0.5946585134105904,1.8693502058026168,3,left
2.559,1.0135357658950663,0.3636681077451038,0.35664551185476395,-0.45753511002520286,3.03894139959975,-0.8298945516949725,-0.8040951139567879,0.5835645738211276,1.8493527742660827,3,left
2.56,1.0129994963545206,0.35193910748720947,0.3577911541991882,-0.39658273580842807,3.0325814117358925,-0.8256856964482695,-0.8013738605833804,0.5723533330836265,1.8286223006000342,3,left
2.5610000000000004,1.012186105388445,0.34027396884537464,0.35891728144755125,-0.3353446702357521,3.023603822423494,-0.821223115493459,-0.798210024222042,0.5610367319512171,1.8071602287856707,3,left
2.5639999999999996,1.0110944363555971,0.3286808415593814,0.360023713435263,-0.2738565411903054,3.0119532384735352,-0.8165036666530159,-0.7945919763537499,0.5496269901810016,1.784968412697187,3,left
2.565,1.009723582326956,0.31716768590594824,0.36111022076306,-0.21215454999851857,2.9975770110010895,-0.8115242032588272,-0.7905081764799669,0.5381365904156344,1.7620491076407656,3,left
2.5660000000000003,1.0080728913248846,0.3057422714642999,0.3621765218515902,-0.15027545213261154,2.980425438570401,-0.8062815767178115,-0.7859471883122012,0.5265782620209577,1.738404962454329,3,left
2.571,1.0061419713434845,0.2944121769663642,0.36322228025104597,-0.08825653608493109,2.960451972815253,-0.8007726390599926,-0.7808976959869999,0.5149649649852366,1.714039012331358,3,left
2.572,1.0039306951348417,0.2831847911435769,0.3642471022687127,-0.026135600930257324,2.937613421829146,-0.7949942454650871,-0.7753485202874056,0.5033098738700634,1.6889546723407922,3,left
2.574,1.0014392047413523,0.27206731448478155,0.3652505349643499,0.036049066677211486,2.911870145057168,-0.7889432567663643,-0.7692886348577532,0.4916263617797536,1.6631557315750918,3,left
2.575,0.9986679157444466,0.2610667618124454,0.3662320645568943,0.09825871555698408,2.8831862349680213,-0.7826165419263134,-0.7627071823972722,0.4799279843158991,1.636646347856472,3,left
2.5789999999999997,0.9956175211880324,0.2501899655738592,0.36719111528167875,0.1604541530065682,2.851529683574894,-0.7760109804716573,-0.7555934908165328,0.4682284634836288,1.6094310429292602,3,left
2.5789999999999997,0.9922889951256401,0.23944357974057529,0.36812704872689866,0.22259576788926652,2.8168725334201934,-0.7691234648710187,-0.7479370893393025,0.45654167151603847,1.5815146980642674,3,left
2.585,0.9886835957358912,0.22883408421395546,0.36903916366316414,0.2846435539841035,2.7791910129416846,-0.7619509028370531,-0.7397277245308836,0.4448816145832158,1.5529025499990299,3,left
2.5860000000000003,0.9848028679513221,0.2183677896427721,0.3699266963660903,0.34655713377646935,2.7384656561290237,-0.7544902195340685,-0.7309553762324742,0.433262416352279,1.5236001871357518,3,left
2.589,0.9806486455504861,0.2080508425663242,0.37078882142155145,0.4082957828679104,2.694681406371083,-0.7467383596713381,-0.721610273379534,0.4216983013648877,1.4936135459167634,3,left
2.591,0.9762230526734913,0.19788923080186852,0.37162465299724357,0.4698184551832265,2.64782770438577,-0.7386922894614936,-0.7116829096805527,0.41020357819875836,1.4629489072953088,3,left
2.593,0.9715285047362775,0.18788878899938752,0.3724332465617511,0.5310838091526477,2.597898560115318,-0.7303489984225615,-0.7011640591309962,0.39879262237983876,1.4316128932175012,3,left
2.594,0.9665677087350207,0.178055204290552,0.37321360103102774,0.5920502350463629,2.5448926084612418,-0.7217055010013664,-0.6900447913355673,0.38747985901194876,1.399612463029314,3,left
2.5989999999999998,0.9613436629443494,0.16839402196063155,0.3739646613208471,0.6526758836380465,2.488813148724353,-0.7127588379951797,-0.6783164866102395,0.37627974509089934,1.3669549097205325,3,left
2.5989999999999998,0.9558596560202677,0.15891065107116864,0.3746853212830538,0.7129186963732949,2.429668167606395,-0.703506077747641,-0.6659708508338283,0.36520675147033893,1.3336478559156564,3,left
2.6039999999999996,0.9501192655216625,0.14961036995912566,0.37537442700365203,0.7727364372180217,2.367470345621029,-0.6939443170941136,-0.6529999300171397,0.35427534444686065,1.2996992495198474,3,left
2.605,0.9441263558633589,0.1404983315369536,0.37603078044035554,0.8320867263608827,2.3022370467531,-0.6840706820307676,-0.6393961245559827,0.34349996693222545,1.2651173589261164,3,left
2.609,0.9378850757097611,0.13157956831876222,0.37665314337434064,0.8909270759427023,2.2339902911962835,-0.6738823280808025,-0.6251522031325664,0.33289501918092385,1.2299107676880865,3,left
2.609,0.9313998548124219,0.12285899710102136,0.37724024164544356,0.9492149279846482,2.1627567109904926,-0.6633764403303357,-0.6102613162280008,0.32247483904170327,1.1940883685608246,3,left
2.615,0.9246754002877253,0.11434142323165224,0.3777907696332831,1.0069076946855624,2.088567488371678,-0.6525502331055866,-0.5947170092068069,0.3122536817021382,1.157659356810416,3,left
2.616,0.917716692323223,0.1060315444086592,0.3783033949405256,1.0639628012573885,2.0114582766380327,-0.6414009492620801,-0.5785132349325021,0.302245698895808,1.120633222691162,3,left
2.6180000000000003,0.910528979295484,0.09793395395871678,0.37877676322978315,1.1203377314660496,1.931469103328034,-0.6299258590556855,-0.5616443658714693,0.29246491754217935,1.0830197429875092,3,left
2.6189999999999998,0.9031177722795837,0.09005314355688084,0.3792095031619417,1.1759900760434212,1.8486442554972689,-0.6181222585643815,-0.5441052056404422,0.28292521778986035,1.0448289715160863,3,left
2.622,0.8954888389292066,0.08239350536024422,0.37960023138014043,1.2308775841342097,1.7630321468726158,-0.6059874676287141,-0.5258909999510455,0.2736403104345071,1.006071228481495,3,left
2.623,0.8876481967048977,0.07495933354075496,0.3799475574805614,1.2849582179395984,1.6746851666540938,-0.5935188272779768,-0.5069974469029185,0.2646237136833144,0.9667570885778305,3,left
2.628,0.8796021054255535,0.06775482521530421,0.3802500889100269,1.338190210717443,1.5836595097265473,-0.5807136966081973,-0.4874207065750275,0.2558887292387155,0.9268973677262384,3,left
2.6289999999999996,0.871357059115468,0.060784080783263576,0.380506435733091,1.390532128296601,1.4900149880353377,-0.5675694490770663,-0.46715740988665855,0.24744841770824877,0.8865031084009249,3,left
2.63,0.8629197771171297,0.054051103689126696,0.3807152152200697,1.4419429342606682,1.3938148228723666,-0.5540834681799827,-0.44620466681676,0.23931557351632982,0.8455855638131099,3,left
2.633,0.854297194439199,0.04755979962813794,0.38087505622099366,1.4923820588391414,1.2951254183317233,-0.5402531425114235,-0.4245600742827758,0.2315026997968936,0.8041561817944554,3,left
2.635,0.8454964513096725,0.04131397520940505,0.38098460330282224,1.5418094709674206,1.1940161187900136,-0.5260758604198696,-0.4022217240972658,0.22402198391472808,0.7622265895386373,3,left
2.636,0.8365248819063591,0.03531733608986642,0.38104252063527566,1.5901857519410934,1.0905589579449926,-0.5115490048325277,-0.3791882112995035,0.2168852740961923,0.7198085800395544,3,left
2.638,0.8273900022418581,0.02957348459685827,0.38104749561665385,1.6374721685131015,0.984828409542267,-0.49666994903009937,-0.3554586429428211,0.21010405734851315,0.6769141004895886,3,left
2.639,0.8180994971893037,0.024085916866727442,0.38099824223657697,1.6836307438535378,0.8769011473096004,-0.48143605394585287,-0.33103264729735427,0.2036894386797983,0.6335552425812248,3,left
2.6430000000000002,0.8086612066475881,0.01885801953661924,0.38089350417842394,1.728624325822101,0.7668558169257136,-0.4658446671932555,-0.30591038340201304,0.19765212159928816,0.5897442345902009,3,left
2.6430000000000002,0.7990831108598501,0.013893066030891375,0.38073205767324086,1.7724166525741527,0.6547728202406642,-0.4498931238204173,-0.2800925508975114,0.19200238987838997,0.5454934351169872,3,left
2.647,0.7893733149155048,0.009194212483972697,0.38051271412988685,1.8149724156329003,0.5407341114379307,-0.43357874874757774,-0.25358040007028565,0.18675009055408973,0.5008153283620661,3,left
2.648,0.7795400324814397,0.004764493342253805,0.3802343225789269,1.8562573205568835,0.42482300482224183,-0.4168988608428385,-0.22637574203513403,0.18190461815742048,0.4557225208091789,3,left
2.653,0.7695915688206723,0.0006068166910313642,0.37989577197566476,1.896238145328492,0.3071239939113435,-0.3998507785903133,-0.19848095898241166,0.17747490015077802,0.4102277391894475,3,left
2.653,0.7595363031676589,-0.0032760406414875645,0.3794959934100848,1.9348827965856874,0.18772258150427956,-0.38243182730382136,-0.16989901441362323,0.17346938355901564,0.36434382959804884,3,left
2.657,0.7493826705396512,-0.0068814381441162555,0.3790339622698973,1.972160363815464,0.06670512039338702,-0.3646393478382024,-0.14063346328726625,0.16989602278041768,0.31808375763393126,3,left
2.659,0.7391391430730435,-0.01020687678057361,0.37850870039833634,2.0080411716238307,-0.05584133561792813,-0.34647070674927244,-0.11068846199479734,0.16676226856484447,0.2714606094319037,3,left
2.661,0.7288142109821564,-0.013250004172351022,0.3779192782813827,2.0424968301932647,-0.17982917073445737,-0.32792330785237495,-0.0800687780846207,0.16407505814755896,0.22448759345531577,3,left
2.662,0.718416363245012,-0.016008619727130868,0.37726481729116856,2.07550028403466,-0.30517033657296117,-0.30899460512840826,-0.048779799650035774,0.16184080652848584,0.17717804291646255,3,left
2.667,0.707954068126432,-0.01848067962907999,0.37654449200569695,2.1070258591367863,-0.43177647230230065,-0.2896821169251304,-0.016827544295130222,0.1600653988879158,0.12954541869080752,3,left
2.6689999999999996,0.6974357536541246,-0.02066430160607294,0.37575753262038203,2.13704930861218,-0.5595590158759237,-0.2699834414004535,0.01578133240933236,0.15875418413094897,0.08160331259011112,3,left
2.6719999999999997,0.6868697881684975,-0.022557769389761645,0.3749032274624323,2.165547856934227,-0.6884293067165871,-0.24989627315334623,0.04903952906990189,0.15791196955427175,0.03336545085858593,3,left
2.673,0.6762644610698973,-0.02415953678729726,0.3739809256121067,2.192500242855945,-0.8182986802168288,-0.22941842098685875,0.08293909130608432,0.15754301663017847,-0.015154302244727785,3,left
2.677,0.6656279638863519,-0.025468231289271184,0.3729900396241499,2.217886761096672,-0.9490785544220863,-0.20854782674667663,0.11747140537129826,0.1576510379040811,-0.06394194091506136,3,left
2.678,0.6549683717811715,-0.02648265714698129,0.37193004833018706,2.241689302878471,-1.080680509266478,-0.1872825851774933,0.1526271926546703,0.15823919500309733,-0.11298331446103689,3,left
2.682,0.6442936256127676,-0.02720179786297576,0.3708004996925447,2.2638913953896496,-1.2130163587341378,-0.16562096473836987,0.18839650516103507,0.15931009775466434,-0.16226412429316003,3,left
2.6830000000000003,0.6336115146478598,-0.02762481805141989,0.36960101367335707,2.2844782402482764,-1.3459982163216098,-0.14356142931712235,0.224768722068322,0.1608658044154962,-0.21176992138181014,3,left
2.687,0.6229296600165606,-0.02775106463785619,0.36833128507758867,2.3034367510340394,-1.4795385541791677,-0.12110266078264317,0.26173254746330094,0.16290782301257958,-0.2614861043255796,3,left
2.687,0.6122554989883574,-0.027580067380963618,0.36699108632378835,2.320755589952196,-1.6135502563110375,-0.09824358231292549,0.29927600935841875,0.16543711379928874,-0.3113979181715019,3,left
2.6910000000000003,0.601596270143008,-0.027111538713525864,0.36558027009451166,2.3364252036887247,-1.7479466662163547,-0.07498338243541637,0.3373864600941909,0.16845409283109228,-0.3614904541293538,3,left
2.6919999999999997,0.5909589995085354,-0.026345372917688646,0.36409877182071765,2.350437858511117,-1.8826416293542942,-0.05132153971517866,0.37605057823330945,0.17195863666671987,-0.41174865032282126,3,left
2.697,0.5803504877393661,-0.025281644670192623,0.36254661195921,2.3627876746645455,-2.017549530818168,-0.027257848025191482,0.41525437205429194,0.17595008820205582,-0.4621572937208807,3,left
2.698,0.5697772984085243,-0.023920607012150808,0.36092389802718144,2.373470660108401,-2.1525853286043892,-0.002792442331968106,0.4549831847084612,0.18042726361502454,-0.5127010233416409,3,left
2.698,0.5592457474812265,-0.022262688807745325,0.3592308263620544,2.3824847436334426,-2.287664582863061,0.022074175071483484,0.4952217008773195,0.18538846024912464,-0.5633643345632485,3,left
2.701,0.5487618940215798,-0.020308491756396093,0.35746768357645675,2.3898298073950306,-2.4227034815175577,0.04734110795448561,0.5359539543579622,0.1908314649910515,-0.6141315839122751,3,left
2.702,0.5383315321708715,-0.018058787024825204,0.3556348476748959,2.395507718816491,-2.5576188626226086,0.07300703925063474,0.5771633357773696,0.19675356254723372,-0.6649869934422735,3,left
2.7030000000000003,0.5279601844310536,-0.015514511572842653,0.353732788792767,2.399522361428701,-2.6923282337393175,0.09907020407060788,0.6188325998661898,0.2031515431775083,-0.715914654073653,3,left
2.705,0.5176530962818823,-0.012676764249123134,0.3517620695162921,2.401879663517475,-2.826749788441318,0.12552836301419,0.6609438721350145,0.21002170971915382,-0.7668985277309347,3,left
2.7060000000000004,0.5074152321525526,-0.009546801732376996,0.3497233447427954,2.402587623062385,-2.960802419974706,0.15237877627628538,0.7034786550258284,0.21735988388788646,-0.8179224483718265,3,left
2.71,0.4972512727634273,-0.006126034400377194,0.34761736103829455,2.401656327829035,-3.094405732185007,0.1796181789375565,0.7464178336583006,0.22516141187419092,-0.8689701220543813,3,left
2.7110000000000003,0.4871656138458253,-0.0024160222171602224,0.3454449554471685,2.3990979701617734,-3.2274800479877297,0.20724275764200217,0.7897416812918518,0.23342116925471257,-0.9200251261886688,3,left
2.716,0.4771623662313645,0.001581529276999162,0.3432070537145785,2.394926856402261,-3.3599464157491905,0.2352481287596544,0.833429864625646,0.24213356523978208,-0.971070908119503,3,left
2.717,0.46724535727938055,0.005864772806531121,0.34090466789586643,2.389159410931255,-3.4917266139612493,0.26362931811263657,0.8774614490598197,0.2512925462794732,-1.0220907831868369,3,left
2.721,0.45741813358692496,0.010431722987772427,0.33853889334240167,2.3818141748262747,-3.622743154592075,0.29238074234393174,0.9218149040423599,0.26089159905190906,-1.0730679324104555,3,left
2.722,0.4476839649050429,0.015280259717611388,0.3361109050666051,2.372911799123218,-3.7529192854933062,0.3214961920093028,0.9664681086270921,0.2709237528588332,-1.1239853999455731,3,left
2.725,0.4380458491700806,0.020408131316117344,0.33362195350024604,2.3624750326653894,-3.8821789922420167,0.35096881647388295,1.0113983573692222,0.28138158145474174,-1.1748260904558632,3,left
2.7260000000000004,0.4285065185499576,0.0258129574309956,0.3310733596713737,2.350528704518886,-4.010446999793686,0.38079111069601984,1.0565823666858012,0.2922572043371387,-1.2255727665503309,3,left
2.7319999999999998,0.4190684464011085,0.03149223172508564,0.3284665098359402,2.3370997009288184,-4.137648774319985,0.4109549039819979,1.1019962818093387,0.30354228752671564,-1.2762080464302623,3,left
2.7319999999999998,0.40973385502997245,0.03744332437955604,0.32580284960728534,2.3222169367864374,-4.2637105256025345,0.4414513507962909,1.1476156844635896,0.315228043867484,-1.326714401892263,3,left
2.736,0.4005047241517792,0.04366348445427072,0.3230838776291836,2.3059113215729043,-4.388559210350966,0.4722709237129976,1.1934156013912627,0.32730523287808294,-1.3770741568331346,3,left
2.736,0.3913827999382298,0.05014984215223056,0.32031113883824497,2.288215719741187,-4.5121225368105184,0.5034034085950956,1.239370513864062,0.33976416018666383,-1.4272694864020083,3,left
2.739,0.38236960454519453,0.05689941103724273,0.31748621736204935,2.2691649054933993,-4.634328971021188,0.534837902089099,1.2854543683060586,0.3525946765829009,-1.4772824169447933,3,left
2.74,0.373466446013944,0.0639090902531043,0.3146107291032688,2.24879551190681,-4.755107745086904,0.5665628115236357,1.3316405881619091,0.3657861767218021,-1.527094826885568,3,left
2.745,0.36467442844624265,0.07117566678800571,0.31168631406875374,2.2271459743577644,-4.874388867809567,0.5985658573013555,1.3779020871418808,0.3793275975150899,-1.5766884486890758,3,left
2.7460000000000004,0.3559944623629165,0.07869581782019415,0.3087146285151052,2.204256468188862,-4.9921031380388365,0.6308340778744476,1.4242112839760133,0.3932074162469864,-1.6260448720479581,3,left
2.7489999999999997,0.3474272751632455,0.08646611317229412,0.3056973369956468,2.180168840560965,-5.108182161084503,0.663353837394878,1.4705401188100382,0.4074136484522768,-1.6751455484377857,3,left
2.75,0.3389734216070289,0.09448301789299847,0.30263610440454813,2.1549265364279284,-5.22255836853395,0.696110836131254,1.5168600713758942,0.42193384559552466,-1.7239717971823152,3,left
2.755,0.33063329424372756,0.1027428949752563,0.29953258811888483,2.1285745185683855,-5.335165041812721,0.7290901237449866,1.563142181069813,0.4367550925912883,-1.7725048131707188,3,left
2.755,0.3224071337147521,0.11124200820916372,0.29638843033621487,2.1011591816054858,-5.445936339821514,0.7622761155191379,1.6093570690710044,0.4518640052061213,-1.8207256763678026,3,left
2.76,0.3142950388557216,0.11997652515610527,0.2932052506936332,2.072728259942166,-5.554807330978018,0.7956526116340265,1.655474962633941,0.46724672738404177,-1.8686153632574352,3,left
2.761,0.30629697652603666,0.12894252021932154,0.2899846392367088,2.043330729536355,-5.661714029986959,0.8292028195842958,1.701465721687137,0.48288892853802,-1.9161547603585714,3,left
2.765,0.2984127910945074,0.13813597777655887,0.286728149786869,2.0130167034374553,-5.766593439656419,0.8629093798327454,1.747298867871119,0.4987758008508572,-1.9633246799523505,3,left
2.766,0.2906422135121805,0.1475527953339057,0.28343729373628446,1.9818373210025346,-5.869383598073055,0.896754394796771,1.7929436161480126,0.5148920566296158,-2.010105878157808,3,left
2.766,0.28298486990708843,0.15718878665710664,0.28011353428091307,1.9498446307078816,-5.970023631443184,0.9307194612637564,1.8383689090415043,0.5312219257803019,-2.056479075416731,3,left
2.7689999999999997,0.27544028964196227,0.16703968484018464,0.27675828108684386,1.9170914664689545,-6.068453812900903,0.9647857063322113,1.883543453199069,0.5477491535791873,-2.102424979067168,3,left
2.77,0.2680079127858726,0.1771011452821176,0.2733728853772592,1.8836313175710124,-6.1646156273743715,0.9989338268789095,1.9284357573082267,0.5644569991139866,-2.147924307000047,3,left
2.7710000000000004,0.2606870969614614,0.18736874855457092,0.26995863542989046,1.8495181932691427,-6.2584518415750425,1.0331441320679993,1.9730141700315345,0.581328234877705,-2.1929578110122265,3,left
2.7739999999999996,0.253477123536852,0.19783800314869018,0.26651675248619855,1.8148064848399625,-6.349906576332017,1.0673965875459845,2.017246916990726,0.5983451478895497,-2.2375062988480314,3,left
2.775,0.24637720313501385,0.20850434808274865,0.2630483870952604,1.779550828823999,-6.438925377467003,1.1016708594820797,2.061102136489179,0.6154895425216484,-2.2815506546039885,3,left
2.779,0.23938648043613406,0.21936315533856518,0.25955461595082946,1.743805974237127,-6.525455282418876,1.1359463570982533,2.1045479140274193,0.6327427451017983,-2.325071857550092,3,left
2.779,0.23250403825354238,0.23040973208342802,0.2560364393236753,1.7076266548019639,-6.609444881656244,1.1702022732057495,2.1475523157386562,0.6500856103410929,-2.368050999495539,3,left
2.784,0.2257289008728826,0.2416393226328487,0.2524947792297016,1.6710674662898115,-6.6908443749296,1.204417622749574,2.190083420870275,0.6674985296356372,-2.4104693008254148,3,left
2.785,0.2190600366573604,0.2530471101141908,0.24893047849514735,1.634182748870578,-6.769605622611536,1.2385712794593637,2.2321093534360146,0.6849614412918726,-2.4523081253333183,3,left
2.7880000000000003,0.21249635993662142,0.26462821779602025,0.24534430087649073,1.597026474366862,-6.845682192366188,1.2726420107050065,2.273598313162309,0.7024538427252937,-2.493548993973355,3,left
2.7889999999999997,0.20603673220985189,0.2763777100526759,0.2417369323644023,1.5596521383072932,-6.919029401381641,1.3066085106552532,2.3145186058509046,0.7199548046825328,-2.5341735976533033,3,left
2.793,0.19967996270263466,0.28829059294130505,0.23810898375405362,1.5221126566732839,-6.989604354391464,1.3404494318373934,2.354838673278405,0.737442987536938,-2.574163809189122,3,left
2.7939999999999996,0.19342480832077225,0.300361814381357,0.23446099450696245,1.484460267232569,-7.057365977703826,1.3741434151958223,2.394527122751876,0.7548966597078471,-2.613501694539223,3,left
2.799,0.18726997304300114,0.3125862639434979,0.2307934378706362,1.4467464353522796,-7.122275049448795,1.4076691187470327,2.4335527564379844,0.7722937182537886,-2.6521695234351745,3,left
2.8,0.18121410679059918,0.3249587722744556,0.22710672716737376,1.409021764183821,-7.184294226246478,1.4410052449282016,2.471884600581439,0.7896117116898034,-2.6901497795236833,3,left
2.803,0.1752558038081663,0.3374741102049936,0.22340122311638358,1.3713359091115038,-7.243388066490601,1.4741305667361144,2.5094919347266753,0.8068278650789779,-2.7274251701328156,3,left
2.804,0.16939360058819378,0.3501269876078334,0.2196772420155922,1.333737496356694,-7.299523050433885,1.5070239527526963,2.5463443210548315,0.8239191074481148,-2.7639786357735128,3,left
2.8089999999999997,0.1636259733740187,0.3629120520879565,0.2159350645821585,1.2962740456292137,-7.352667597253324,1.5396643911528718,2.5824116339460637,0.8408621015772487,-2.7997933594854603,3,left
2.81,0.1579513352827195,0.3758238875974829,0.21217494523688785,1.258991896717841,-7.402792079265044,1.572031012789864,2.6176640898751744,0.8576332762124081,-2.8348527761343654,3,left
2.8139999999999996,0.15236803310242902,0.38885701307127135,0.20839712162050117,1.221936139911995,-7.449868833449941,1.6041031134523818,2.6520722777463543,0.8742088607506752,-2.8691405817656084,3,left
2.8139999999999996,0.1468743438385044,0.402005881178558,0.2046018241467372,1.1851505501470876,-7.49387217044271,1.6358601753874196,2.6856071897705833,0.8905649224461643,-2.9026407431171224,3,left
2.818,0.14146847110858515,0.41526487728077505,0.20078928542084234,1.1486775247665366,-7.534778381128189,1.6672818881816058,2.718240252986901,0.9066774061850477,-2.9353375073921777,3,left
2.819,0.13614854151121122,0.42862831867587897,0.19695974937451627,1.1125580247940814,-7.572565740980203,1.6983481690931883,2.749943361526328,0.9225221768771948,-2.967215412390543,3,left
2.824,0.13091260110825842,0.4420904541961049,0.1931134799876454,1.0768315196108196,-7.6072145122692785,1.729039182925843,2.7806889097147174,0.9380750645113576,-2.998259297094225,3,left
2.825,0.12575861216460496,0.45564546421160906,0.18925076948632402,1.0415359349322735,-7.6387069442566675,1.759335361534531,2.810449826108214,0.9533119119201392,-3.0284543128016725,3,left
2.8280000000000003,0.12068445028076252,0.4692874610787411,0.18537194592843606,1.0067076039818108,-7.667027271483234,1.7892174230526057,2.8391996085523448,0.9682086253002116,-3.0577859349020025,3,left
2.8289999999999997,0.11568790203865131,0.4830104900591863,0.18147738010934503,0.9723812217578697,-7.692161710252661,1.818666390928292,2.8669123603530022,0.9827412275324066,-3.0862399753783905,3,left
2.833,0.11076666326202252,0.49680853072519615,0.17756749173428654,0.9385898022936695,-7.714098453399432,1.8476636128575346,2.8935628276447556,0.9968859143454033,-3.113802596127334,3,left
2.8339999999999996,0.10591833797698523,0.5106754988578471,0.17364275480899327,0.9053646388094304,-7.7328276634229125,1.8761907796990087,2.9191264379803292,1.0106191132624915,-3.1404603231378934,3,left
2.8360000000000003,0.10114043814433096,0.5246052488427114,0.1697037022015279,0.8727352666585617,-7.748341464059706,1.9042299444558624,2.9435793398685868,1.0239175447535405,-3.166200061371823,3,left
2.838,0.09643038421925311,0.5385915765713599,0.16575092933131733,0.8407294290005697,-7.760633930375878,1.931763541371721,2.966898442456983,1.0367582840838372,-3.1910091098217386,3,left
2.839,0.09178550657822604,0.5526282228631152,0.16178509694548576,0.8093730452838308,-7.769701077544311,1.9587744050085176,2.989061454257833,1.0491188218339695,-3.214875176021226,3,left
2.84,0.08720304784579225,0.5667088774234964,0.15780693294785778,0.7786901828908834,-7.775540848630516,1.985245788850781,3.0100469201080484,1.0609771215799868,-3.2377863894788086,3,left
2.842,0.08268016615979408,0.5808271833506772,0.15381723325520186,0.7487030324494567,-7.778153101793838,2.01116138280094,3.029834256077068,1.0723116741511116,-3.2597313138662107,3,left
2.843,0.07821393942648966,0.5949767421892941,0.14981686166697944,0.7194318871655352,-7.777539597208854,2.0365053291073267,3.048403782327905,1.083101548397201,-3.2806989579893355,3,left
2.847,0.07380137062337949,0.6091511195166301,0.1458067487432822,0.6908951262688957,-7.773703983835256,2.061262236586538,3.0657367539915503,1.0933264384999786,-3.300678785607735,3,left
2.8480000000000003,0.0694393941978396,0.6233438510341814,0.14178788968777095,0.6631092025147721,-7.766651786062283,2.085417193178842,3.081815390111533,1.1029667078605498,-3.3196607241656,3,left
2.8539999999999996,0.06512488358755571,0.6375484491281976,0.13776134123117756,0.6360886336575972,-7.756390390225962,2.1089557769094056,3.096622900711947,1.1120034295941574,-3.3376351724944793,3,left
2.855,0.06085465986398584,0.65175840985507,0.13372821751292807,0.609845997814879,-7.742929030988141,2.13186406532643,3.110143512038695,1.1204184236615053,-3.3545930075450965,3,left
2.858,0.05662550147891673,0.6659672203013147,0.1296896849698797,0.5843919326414225,-7.72627877755708,2.15412864348555,3.1223624900200986,1.1281942906643052,-3.3705255902027864,3,left
2.859,0.05243415507885654,0.6801683662618476,0.12564695626464992,0.5597351382363001,-7.706452519720136,2.1757366105481006,3.1332661619893885,1.135314442330967,-3.385424770238158,3,left
2.862,0.0482773473419981,0.6943553401724338,0.12160128331920317,0.5358823837072052,-7.6834649536499064,2.1966755850590087,3.1428419367078777,1.1417631287165677,-3.399282890441683,3,left
2.863,0.04415179778439967,0.70852164922316,0.11755394955530907,0.512838517319086,-7.657332567436009,2.2169337089682664,3.1510783227238943,1.147525462139406,-3.4120927899879625,3,left
2.8680000000000003,0.04005423247187777,0.7226608235721296,0.11350626147455736,0.49060648015624087,-7.62807362628559,2.2364996504580166,3.1579649450987657,1.1525874378745553,-3.4238478070724585,3,left
2.8689999999999998,0.03598139856129631,0.7367664245748846,0.109459539733028,0.46918732322936274,-7.595708157326551,2.2553626056353844,3.163492560527338,1.1569359516229167,-3.43454178086048,3,left
2.872,0.031930079581484146,0.7508320529463879,0.10541510987980342,0.4485802279613415,-7.560257933938458,2.273512299149223,3.1676530708766752,1.160558813772288,-3.4441690527852207,3,left
2.873,0.02789711135022769,0.7648513567785881,0.10137429293619891,0.4287825299879581,-7.521746459527132,2.2909389837869636,3.170439535162696,1.1634447604649676,-3.4527244672285846,3,left
2.878,0.02387939840816906,0.7788180393481415,0.09733839599583027,0.4097897462119391,-7.480198950649989,2.3076334391057296,3.1718461799806104,1.1655834614843559,-3.460203371615529,3,left
2.8789999999999996,0.019873930833211557,0.792725866666536,0.09330870302580596,0.39159560505116536,-7.435642319390339,2.3235869691498348,3.1718684084010964,1.1669655249709403,-3.4666016159495547,3,left
2.8819999999999997,0.015877801283062723,0.8065686747465081,0.08928646604638803,0.374192079824153,-7.388105154870066,2.33879139930471,3.170502807340209,1.16758249897593,-3.4719155518139218,3,left
2.883,0.011888222102066996,0.8203403765796762,0.08527289685952724,0.357569425218231,-7.337617703781387,2.353239072335199,3.167747153407044,1.1674268698586638,-3.4761420308600615,3,left
2.887,0.007902542322881996,0.8340349688372929,0.08126915948459393,0.341716216788132,-7.284211849809767,2.3669228436540326,3.163600417229228,1.1664920575317455,-3.479278402801554,3,left
2.888,0.0039182643931127735,0.8476465383175499,0.0772763634397002,0.3266193934349793,-7.227921091811465,2.3798360758641413,3.1580627662522955,1.164772407555659,-3.481322512928939,3,left
2.891,-6.693953951068522e-05,0.8611692681685472,0.0732955579771305,0.3122643028178929,-7.168780520600779,2.3919726326163064,3.15113556600504,1.1622631800824088,-3.4822726991574875,3,left
2.892,-0.004055211943469031,0.8745974439172991,0.0693277273445064,0.2986347496526448,-7.106826794193614,2.4033268718214287,3.1428213798189204,1.158960535645481,-3.4821277886169426,3,left
2.8960000000000004,-0.008048494973822137,0.8879254593350694,0.0653737871051445,0.2857130468539624,-7.042098111345747,2.4138936382545104,3.133123966985623,1.1548615177911772,-3.4808870937891006,3,left
2.8960000000000004,-0.012048516442377508,0.9011478221692921,0.06143458151506583,0.2734800694802074,-6.974634183215983,2.4236682555852007,3.1220482793328883,1.149964032544105,-3.4785504081959546,3,left
2.9010000000000002,-0.016056776827813896,0.9142591597704847,0.05751088192208518,0.2619153114412368,-6.904476202976298,2.4326465178675085,3.1096004561947175,1.1442668246973333,-3.475118001637987,3,left
2.9010000000000002,-0.020074537458491765,0.9272542246375612,0.05360338612777925,0.25099694493228597,-6.831666813183106,2.440824680519026,3.0957878177695184,1.1377694509918728,-3.4705906149972385,3,left
2.9019999999999997,-0.024102809985610322,0.9401278998992237,0.04971271864154437,0.24070188255868624,-6.756250070715934,2.4481994508177425,3.080618856962796,1.1304722506300924,-3.4649694547076333,3,left
2.906,-0.028142347240648957,0.9528752047461497,0.04583943175963478,0.23100584207154243,-6.6782714091764275,2.4547679779500795,3.0641032299996733,1.1223763142533933,-3.4582561871556416,3,left
2.907,-0.03219363554785598,0.9654912998282061,0.04198400741345265,0.22188341340332107,-6.597777599104865,2.460527842680769,3.046251746195616,1.1134834528943989,-3.4504529333622305,3,left
2.907,-0.036256888548271776,0.9779714926293999,0.03814685973904904,0.2133081272746384,-6.514816707213231,2.4654770467835774,3.027076357162836,1.1037961680293924,-3.4415622642029,3,left
2.911,-0.040332042583963716,0.9903112428268683,0.034328338318632606,0.2052525244122267,-6.4294380562984035,2.4696140024088478,3.006590145533362,1.0933176231664261,-3.431587196255715,3,left
2.912,-0.044418753681842414,1.002506167627522,0.030528732036742456,0.19768822465273092,-6.341692187019941,2.4729375215222227,2.9848073131689206,1.082051617020006,-3.4205311882731153,3,left
2.915,-0.04851639615910499,1.0145520470606313,0.026748273483855996,0.19058599562800943,-6.25163082187049,2.4754468054758987,2.9617431688025744,1.0700025582445292,-3.4083981382519664,3,left
2.9160000000000004,-0.0526240628455921,1.0264448291914268,0.02298714383208653,0.18391582096212938,-6.159306831188031,2.4771414347321463,2.9374141150532895,1.0571754416963806,-3.3951923810732088,3,left
2.92,-0.056740566885749945,1.03818063521028,0.01924547810069096,0.17764696795826465,-6.064774200957983,2.478021358748644,2.911837634750901,1.0435758261923358,-3.3809186866793492,3,left
2.9210000000000003,-0.060864445049038846,1.0497557643431008,0.015523370722057209,0.17174805475502763,-5.96808800214658,2.478086886032832,2.885032276505237,1.0292098137296646,-3.3655822587549507,3,left
2.927,-0.06499396244687103,1.061166698521082,0.011820881311512585,0.16618711693300856,-5.869304361300416,2.4773386743701487,2.8570176394495665,1.0140840301310994,-3.3491887338721935,3,left
2.928,-0.06912711853043492,1.0724101067422023,0.008138040537846078,0.16093167355344454,-5.768480432140686,2.4757777212286918,2.8278143570849235,0.9982056070756143,-3.3317441810605124,3,left
2.931,-0.07326165422873407,1.0834828490537438,0.004474855989891305,0.15594879261200453,-5.665674367874515,2.4734053543404793,2.797444080148351,0.981582165473758,-3.3132551017562686,3,left
2.932,-0.07739506007879125,1.0943819800855625,0.0008313179428950053,0.15120515589164485,-5.560945293939697,2.4702232224571707,2.76592945842463,0.9642218001441042,-3.2937284300853724,3,left
2.9360000000000004,-0.08152458519793601,1.1051047520680088,-0.0027925950523720994,0.14666712319936662,-5.454353280893356,2.466233286275766,2.733294121417646,0.9461330657452217,-3.273171533428757,3,left
2.937,-0.08564724694936311,1.115648617275142,-0.00639691080868775,0.14230079597248937,-5.345959317149297,2.4614378095274723,2.6995626577941927,0.9273249639154264,-3.251592213217605,3,left
2.9410000000000003,-0.08975984115521138,1.1260112298427392,-0.009981658392709472,0.1380720802407407,-5.235825281263328,2.4558393502205957,2.6647605935097376,0.9078069315704619,-3.2289987059022485,3,left
2.9410000000000003,-0.09385895271526527,1.136190446921359,-0.013546863265210618,0.13394674893105246,-5.124013913460478,2.4494407520260073,2.628914368522446,0.8875888303071648,-3.2053996840357057,3,left
2.946,-0.09794096649372482,1.1461843291356177,-0.01709254265410493,0.12989050350244746,-5.010588786092839,2.442245135791406,2.5920513119986177,0.8666809368591033,-3.180804257409879,3,left
2.946,-0.10200207834110961,1.1559911403298888,-0.020618701138077823,0.12586903489879378,-4.895614272711819,2.4342558911683105,2.5541996159096163,0.8450939345481406,-3.1552219741795278,3,left
2.95,-0.1060383061235132,1.1656093465892814,-0.024125326421252775,0.12184808380750284,-4.779155515433693,2.4254766683334,2.5153883069173704,0.8228389056738653,-3.1286628219062447,3,left
2.951,-0.11004550063928718,1.1750376145360788,-0.027612385284103716,0.1177935002124446,-4.661278390272787,2.4159113697835344,2.4756472164426153,0.7999273247808465,-3.101137228451797,3,left
2.955,-0.11401935631701343,1.1842748089158994,-0.031079819696567333,0.11367130222945315,-4.542049470112113,2.4055641421815253,2.4350069488071946,0.7763710527417257,-3.0726560626473605,3,left
2.955,-0.11795542160944925,1.1933199895012538,-0.03452754306990759,0.10944773421279845,-4.421535984977079,2.394439368227432,2.393498847338994,0.7521823315922361,-3.043230634662382,3,left
2.96,-0.12184910902412605,1.2021724073500748,-0.03795543660196871,0.10508932412090301,-4.299805779273748,2.382541658527917,2.351154958325408,0.727373780052358,-3.012872695994009,3,left
2.9610000000000003,-0.1256957047598639,1.2108315004627648,-0.04136334564156168,0.10056294012938909,-4.176927265649305,2.3698758434339524,2.308007992698657,0.7019583896659626,-2.9815944389952937,3,left
2.965,-0.12949037794763485,1.219296888883729,-0.04475107597451971,0.09583584647925084,-4.052969375128673,2.3564469648149196,2.264091285333784,0.675949521489488,-2.9494084958576736,3,left
2.966,-0.1332281895217403,1.2275683692921224,-0.04811838992880695,0.0908757585475598,-3.928001503177712,2.3422602677349387,2.2194387518377545,0.6493609032584031,-2.9163279369605326,3,left
2.97,-0.13690410077196416,1.2356459091223788,-0.051465002212718186,0.08565089712762991,-3.8020934513401667,2.3273211919950505,2.1740848427057893,0.6222066269584783,-2.8823662684980267,3,left
2.971,-0.14051298164839032,1.2435296402510518,-0.05479057543202749,0.08013004190499283,-3.6753153640924054,2.311635363502687,2.128064494810413,0.5945011467354341,-2.847537429323612,3,left
2.971,-0.14404961890264173,1.2512198522849816,-0.058094715266874354,0.07428258411486637,-3.547737660557108,2.295208585427683,2.0814130806445186,0.5662592771161725,-2.811855787114554,3,left
2.975,-0.14750872414798474,1.2587169854857896,-0.06137696531720141,0.06807857836847174,-3.419430960906434,2.27804682913019,2.034166356561962,0.5374961915875006,-2.7753361342520693,3,left
2.9760000000000004,-0.1508849419127437,1.2660216233654857,-0.06463680164356869,0.061488793646871015,-3.290466008243153,2.26015622498497,1.9863604117151825,0.5082274216179702,-2.737993683974676,3,left
2.9760000000000004,-0.15417285775802683,1.27313448498854,-0.06787362704148642,0.05448476348195459,-3.160913588474691,2.241543053478736,1.9380316189296523,0.47846885616562074,-2.699844067195451,3,left
2.9789999999999996,-0.15736700653639468,1.2800564170196078,-0.07108676509893483,0.047038835355350375,-3.030844451653406,2.222213737096378,1.8892165879289873,0.44823674163858646,-2.660903330075612,3,left
2.98,-0.1604618808776538,1.2867883855634432,-0.07427545410247985,0.039124219332755346,-2.9003292372940632,2.2021748333685225,1.8399521208650476,0.4175476822327786,-2.6211879322800455,3,left
2.984,-0.16345193998853533,1.293331467851083,-0.07743884087275871,0.03071503592810625,-2.7694384044490183,2.1814330291965143,1.790275170014274,0.38641864056119,-2.580714745805234,3,left
2.985,-0.1663316188369078,1.299686843831405,-0.08057597461887968,0.021786363178574478,-2.6382421663596944,2.159995136427555,1.7402227975001041,0.3548669384880079,-2.539501054267746,3,left
2.989,-0.16909533776413657,1.3058557877303858,-0.08368580090427552,0.012314282907592702,-2.506810429309566,2.137868088622455,1.6898321369000229,0.32291025807941104,-2.497564552539234,3,left
2.99,-0.1717375125403523,1.311839659642753,-0.08676715581776102,0.0022759261517023882,-2.375212735302791,2.115058938956421,1.6391403565946212,0.2905666425816636,-2.454923346611711,3,left
2.9939999999999998,-0.17425256485093749,1.3176398972204943,-0.08981876044462292,-0.008350482274479121,-2.2435182081917495,2.0915748591913106,1.5881846247149565,0.25785449733590227,-2.4115959535747384,3,left
2.9939999999999998,-0.1766349331785105,1.3232580075169553,-0.09283921573410313,-0.01958558010243191,-2.111795502876063,2.067423139655804,1.5370020755435319,0.22479259053785416,-2.36760130158411,3,left
2.9989999999999997,-0.1788790840213832,1.328695559033728,-0.09582699786284447,-0.031448824851931616,-1.9801127571952084,2.0426111901679853,1.4856297772233538,0.19140005374960967,-2.322958729699559,3,left
2.9989999999999997,-0.18097952336671289,1.3339541740031646,-0.09878045419914662,-0.043958452021843675,-1.8485375461365448,2.017146541832883,1.4341047006287655,0.15769638206951797,-2.2776879874670635,3,left
3.005,-0.1829308083168025,1.3390355209250515,-0.10169779997782122,-0.05713143426183099,-1.7171368379804974,1.9910368496456041,1.3824636892511004,0.12370143386526795,-2.231809234119417,3,left
3.0060000000000002,-0.18472755875367847,1.3439413073634365,-0.10457711579485689,-0.07098344155909427,-1.5859769520047566,1.964289895828805,1.3307434299516585,0.08943542997426904,-2.1853430372668474,3,left
3.008,-0.18636446892297748,1.3486732730008204,-0.10741634601994135,-0.08552880247611835,-1.4551235173696506,1.936913593831354,1.2789804244340661,0.05491895227455268,-2.1383103709476865,3,left
3.009,-0.18783631882402052,1.3532331829427178,-0.1102132982023043,-0.10078046647730085,-1.3246414328073608,1.9089159929132042,1.2272109612877464,0.02017294152858003,-2.090732612907332,3,left
3.016,-0.18913798530688117,1.3576228212649224,-0.1129656435156644,-0.11674996738428693,-1.1945948267383324,1.8803052832396534,1.1754710884540018,-0.014781305598437345,-2.0426315409720646,3,left
3.017,-0.1902644527961738,1.3618439847977766,-0.11567091825733558,-0.13344738800182326,-1.0650470174391105,1.8510898014063617,1.1237965859660848,-0.049922140444814925,-1.9940293283826498,3,left
3.0189999999999997,-0.19121082358243502,1.365898477145063,-0.11832652638897341,-0.15088132595796963,-0.9360604728869032,1.82127803631472,1.0722229388146154,-0.08522756728304118,-1.9449485379511018,3,left
3.0189999999999997,-0.19197232764232422,1.3697881029370824,-0.12092974308387526,-0.16905886080456628,-0.8076967699074161,1.79087863531539,1.0207853097897865,-0.12067524937515957,-1.895412114902464,3,left
3.025,-0.19254433196539944,1.373514662316355,-0.12347771922847918,-0.1879855224259428,-0.6800165522539374,1.7599004105361076,0.9695185121519878,-0.15624251625378952,-1.8454433782620445,3,left
3.0260000000000002,-0.19292234937773522,1.3770799456511478,-0.1259674868132425,-0.20766526080596667,-0.5530794872472622,1.728352345308133,0.9184569819827653,-0.19190637233016106,-1.7950660106471532,3,left
3.028,-0.1931020468635857,1.3804857284683043,-0.1283959651409724,-0.2281004172056624,-0.4269442206078326,1.6962436006040293,0.867634750068426,-0.22764350693094662,-1.7443040463210877,3,left
3.029,-0.19307925339715792,1.3837337665936826,-0.13075996778040547,-0.24929169680578145,-0.3016683291134297,1.6635835213978003,0.8170854131690859,-0.26343030586601507,-1.6931818573658715,3,left
3.033,-0.19284996730702342,1.3868257914867939,-0.13305621019863104,-0.2712381428708624,-0.17730827071788824,1.6303816428567783,0.7668421045265459,-0.29924286462951083,-1.6417241378290763,3,left
3.033,-0.19241036320503316,1.3897635057571038,-0.1352813180140989,-0.2939371124934877,-0.0539193317686045,1.5966476962730416,0.7169374634650747,-0.3350570033368707,-1.5899558856989575,3,left
3.0380000000000003,-0.1917567985188202,1.3925485788534124,-0.13743183581854876,-0.31738425397961173,0.06844442903692467,1.5623916146405574,0.6674036039399499,-0.3708482835005322,-1.5379023825610902,3,left
3.0389999999999997,-0.19088581967063784,1.395182642923504,-0.13950423652042532,-0.34157348593800047,0.18973024031266655,1.5276235377826939,0.6182720819567974,-0.40659202670475797,-1.4855891708635043,3,left
3.04,-0.18979416794367568,1.3976672888467796,-0.14149493116745296,-0.36649697813898235,0.3098866816180678,1.4923538169332102,0.5695738621222514,-0.4422633350279815,-1.4330420290902295,3,left
3.043,-0.18847878507025428,1.4000040624463428,-0.14340027921454623,-0.39214513422676245,0.42886375119065334,1.4565930187196057,0.5213392841932467,-0.47783711267937723,-1.3802869458152143,3,left
3.043,-0.18693681856856217,1.4021944608884762,-0.14521659921200814,-0.41850657645622474,0.54661293677389,1.4203519287325648,0.47359803082992435,-0.513288088104198,-1.32735009398165,3,left
3.0439999999999996,-0.18516562685064153,1.4042399292772663,-0.14694017989312244,-0.4455681327794324,0.6630872865063088,1.383641555289179,0.4263790974218595,-0.5485908360242374,-1.274257806377246,3,left
3.049,-0.1831627841260986,1.4061418574516276,-0.14856729163856564,-0.47331482669365477,0.778241475708138,1.346473134232548,0.379710764252927,-0.5837197992611299,-1.2210365526025397,3,left
3.05,-0.18092608513253744,1.4079015769925747,-0.15009419829092005,-0.5017298701802544,0.8920318665245316,1.3088581353726554,0.33362057093502295,-0.6186493104018718,-1.1677129174549845,3,left
3.053,-0.1784535497304397,1.4095203584513898,-0.15151716929246128,-0.5307946599135945,1.004416559408266,1.2708082707466741,0.28813529297505375,-0.6533536134079225,-1.1143135805763544,3,left
3.054,-0.175743427402203,1.4109994088142634,-0.15283249212662925,-0.5604887768365479,1.1153554365473455,1.2323355046392197,0.24328092034118845,-0.6878068852687486,-1.0608652972106327,3,left
3.06,-0.1727942016921649,1.4123398692240443,-0.15403648505414916,-0.5907899891841959,1.224810197564317,1.1934520652545164,0.19908263789602598,-0.7219832578000961,-1.0073948799192558,3,left
3.06,-0.16960459462004615,1.4135428129825844,-0.15512551014291376,-0.6216742590391708,1.3327443878100584,1.1541704579311962,0.15556480756606653,-0.7558568396866339,-0.9539291811003692,3,left
3.063,-0.166173571097119,1.4146092438586415,-0.15609598659479965,-0.6531157525038938,1.4391234195706541,1.1145034797892348,0.11275095211868649,-0.7894017388678858,-0.9004950761586097,3,left
3.065,-0.1625003433733151,1.4155400947291654,-0.15694440437515403,-0.6850868535767064,1.5439145865017188,1.074464235697349,0.07066374041969972,-0.8225920853655767,-0.8471194471718673,3,left
3.0669999999999997,-0.15858437554366495,1.416336226587151,-0.15766733815581982,-0.7175581818205624,1.6470870716001538,1.0340661554480388,0.029324974046540647,-0.8554020546496448,-0.7938291669014901,3,left
3.068,-0.1544253881426963,1.4169984279558616,-0.15826146159059368,-0.750498613914541,1.7486119490188718,0.9933230120263489,-0.011244424865874828,-0.8878058916392315,-0.7406510829924879,3,left
3.072,-0.1500233628542836,1.4175274147560504,-0.15872356194674675,-0.7838753091799651,1.848462180025453,0.9522489408573569,-0.05102442466746891,-0.9197779354339402,-0.6876120022104607,3,left
3.073,-0.14537854735840305,1.4179238306777568,-0.1590505551099797,-0.8176537391743381,1.9466126034010631,0.9108584599163643,-0.08999589424221228,-0.9512926448695612,-0.6347386745622183,3,left
3.077,-0.1404914603179632,1.418188248105493,-0.15923950096205194,-0.8517977214476582,2.043039920571227,0.8691664905847766,-0.12814061218072714,-0.9823246249912972,-0.5820577771473846,3,left
3.0780000000000003,-0.13536289646950916,1.4183211696274542,-0.15928761910719333,-0.8862694575569157,2.137722675755248,0.827188379133711,-0.16544127519051893,-1.0128486545362803,-0.5295958975886759,3,left
3.082,-0.12999393171821805,1.418323030123763,-0.15919230489931388,-0.921029575435736,2.230641231416179,0.7849399187164567,-0.2018815058557523,-1.042839714515859,-0.47737951688901986,3,left
3.083,-0.12438592806192929,1.4181941993842289,-0.15895114569190297,-0.9560371762171705,2.321777739288312,0.7424373717500533,-0.23744585985611358,-1.0722730179867488,-0.4254349915642347,3,left
3.0869999999999997,-0.11854053810747982,1.4179349851673009,-0.15856193719455286,-0.9912498856085779,2.4111161072541436,0.6996974925654282,-0.27211983275187945,-1.101124041098679,-0.3737885349006158,3,left
3.088,-0.11245970892233995,1.4175456365899908,-0.1580226997843718,-1.0266239099183676,2.4986419623377074,0.6567375502047609,-0.30588986643984145,-1.1293685555046364,-0.3224661971874834,3,left
3.092,-0.1061456849960298,1.4170263477371223,-0.15733169459324636,-1.0621140968350795,2.5843426100760456,0.61357535124401,-0.33874335538222194,-1.156982662218212,-0.271493844775525,3,left
3.093,-0.0996010101594964,1.4163772613946335,-0.15648743916545782,-1.097674001059862,2.6682069905254373,0.5702292625178617,-0.3706686527081616,-1.183942827000876,-0.2208971378126217,3,left
3.097,-0.09282852840559978,1.4155984728391828,-0.1554887224539626,-1.1332559548938719,2.7502256311537954,0.526718233623724,-0.4016550762847633,-1.2102259173602705,-0.1707015065097793,3,left
3.097,-0.08583138364686069,1.4146900336462316,-0.15433461891650513,-1.1688111438824513,2.8303905968654015,0.4830618190808141,-0.4316929148520477,-1.235809241238796,-0.12093212579078924,3,left
3.1010000000000004,-0.07861301851556171,1.41365195550299,-0.1530245014994478,-1.2042896876181306,2.9086954373988805,0.43928020001985574,-0.4607734343135081,-1.2606705874698916,-0.071613888180323,3,left
3.103,-0.0711771723375221,1.4124842140268348,-0.15155805334661562,-1.23964072580457,2.9851351323340136,0.3953942052784376,-0.48888888427126187,-1.284788268077465,-0.022771374786316065,3,left
3.1060000000000003,-0.06352787838843837,1.4111867525936888,-0.14993527811886603,-1.2748125096834757,3.059706033937669,0.3514253317766576,-0.5160325048443279,-1.3081411624134236,0.025571175683630137,3,left
3.1069999999999998,-0.05566946048746284,1.4097594861774168,-0.1481565088461971,-1.3097524989262983,3.1324058080737855,0.30739576404732866,-0.5421985335671066,-1.3307087627337255,0.07338989951755669,3,left
3.108,-0.047606528926264796,1.4082023051980075,-0.14622241526180563,-1.344407464092159,3.203233373397001,0.2633283927947185,-0.5673822117326968,-1.3524712201047926,0.12066134110668363,3,left
3.111,-0.03934397569162598,1.4065150793817889,-0.14413400959254802,-1.3787235946117637,3.2721888390562133,0.21924683233947673,-0.5915797893041905,-1.3734093891374675,0.16736248505100954,3,left
3.111,-0.03088696892095023,1.404697661652617,-0.1418926508052558,-1.4126466115505825,3.3392734411894325,0.17517543672681796,-0.6147885277529832,-1.3935048704359092,0.21347078616055243,3,left
3.112,-0.02224094653905029,1.4027498920988277,-0.13950004733865068,-1.4461218831332852,3.4044894785946314,0.13113931413017438,-0.6370067006099905,-1.412740050352949,0.2589641969920841,3,left
3.116,-0.013411609067366765,1.400671602108669,-0.13695825839569872,-1.4790945403046252,3.4678402480163704,0.08716433910208045,-0.6582335917515368,-1.4310981380335182,0.30382119297281995,3,left
3.116,-0.004404911672029147,1.3984626188447182,-0.13426969392560176,-1.5115095903066564,3.529329979422159,0.043277162304495236,-0.6784694914865863,-1.4485631998038437,0.348020795243473,3,left
3.12,0.004772944387239986,1.39612277031461,-0.13143711345781497,-1.5433120275213486,3.588963771528411,-0.0004947825043824787,-0.6977156905091397,-1.465120190961631,0.39154259135131747,3,left
3.1210000000000004,0.014115520652933896,1.3936518913590115,-0.12846362393929306,-1.5744469415320412,3.646747527770083,-0.04412327436916013,-0.7159744717767774,-1.4807549850199366,0.4343667539220775,3,left
3.1260000000000003,0.023616150390365805,1.3910498309025927,-0.12535267668121347,-1.6048596224967362,3.7026878928906424,-0.08757930404817534,-0.7332491003734846,-1.495454400454873,0.4764740574375721,3,left
3.127,0.033267947184923166,1.3883164607980742,-0.12210806346458204,-1.6344956639244737,3.756792190323692,-0.1308330760619823,-0.7495438114120523,-1.5092062250046785,0.5178458932440984,3,left
3.1310000000000002,0.043063812876496,1.3854516865352118,-0.11873391178720892,-1.6633010629441145,3.8090683605322657,-0.17385401400467115,-0.7648637960285124,-1.5219992375650346,0.5584642829145362,3,left
3.1310000000000002,0.05299644454129722,1.3824554599780763,-0.11523467914196998,-1.6912223181527763,3.8595249004665115,-0.2166107692427936,-0.7792151855182448,-1.5338232277228392,0.598311890085096,3,left
3.135,0.06305834033778884,1.379327794129342,-0.1116151460928786,-1.7182065251289493,3.9081708042952044,-0.25907123312608565,-0.7926050336605728,-1.5446690129679082,0.6373720308855201,3,left
3.136,0.07324180421046537,1.376068779714825,-0.10788040778577244,-1.7442014696929224,3.95501550556128,-0.3012025528335077,-0.8050412972758765,-1.554528453619342,0.675628683079389,3,left
3.14,0.08353894967775465,1.3726786031791536,-0.10403586344205588,-1.7691557189946179,4.000068820906368,-0.34297115097736103,-0.8165328150564621,-1.5633944655005023,0.7130664940289659,3,left
3.141,0.09394170316135257,1.3691575655338115,-0.10008720338790848,-1.7930187105062396,4.043340895504085,-0.384342749087388,-0.8270892847096725,-1.5712610303937369,0.7496707875967555,3,left
3.1460000000000004,0.10444180746839772,1.365506101429459,-0.09604039329329592,-1.8157408389943008,4.084842150336667,-0.4252823950958159,-0.8367212384489809,-1.5781232043031577,0.7854275700936443,3,left
3.148,0.11503082606503724,1.3617247978383387,-0.09190165550969087,-1.8372735415426105,4.124583231444421,-0.46575449494326027,-0.845440016866107,-1.5839771235509392,0.8203235353811389,3,left
3.1510000000000002,0.12570014867677112,1.3578144118175393,-0.08767744764145774,-1.8575693806946638,4.1625749612722975,-0.505722848424262,-0.8532577412144959,-1.588820008729714,0.8543460692328304,3,left
3.1519999999999997,0.13644099854784672,1.3537758869549932,-0.08337443871099434,-1.8765821257806026,4.198828292232841,-0.5451506893899901,-0.8601872841318611,-1.592650166530775,0.8874832530577702,3,left
3.155,0.14724444143245954,1.349610368245469,-0.07899948345417314,-1.8942668324905085,4.233354262599713,-0.5840007304242986,-0.8662422388268612,-1.5954669894648983,0.919723867085982,3,left
3.155,0.1581013961158077,1.3453192152784514,-0.07455959538740492,-1.9105799207522254,4.266163954840935,-0.6222352121078751,-0.8714368867523964,-1.5972709534896876,0.9510573931138184,3,left
3.161,0.16900264600357556,1.3409040137333013,-0.07006191929191537,-1.9254792509682392,4.29726845649604,-0.6598159569836687,-0.8757861637854615,-1.5980636135544517,0.9814740169043354,3,left
3.162,0.17993885110114008,1.336366585267092,-0.06551370365374776,-1.9389241986623236,4.326678823696327,-0.6967044283351188,-0.8793056249309794,-1.5978475970706973,1.0109646303352768,3,left
3.165,0.19090055956561122,1.331708995937961,-0.060922273417793285,-1.9508757275827218,4.354406047422507,-0.7328617938869436,-0.8820114075645724,-1.5966265953134318,1.0395208333846642,3,left
3.165,0.2018782179959005,1.326933563311241,-0.05629500323415133,-1.961296461304581,4.380461022589098,-0.7682489945363615,-0.8839201932267957,-1.5944053527555542,1.0671349360413502,3,left
3.1719999999999997,0.21286217975024088,1.3220428623313514,-0.05163929124963587,-1.9701507533701765,4.404854520040111,-0.8028268182206355,-0.8850491679789817,-1.5911896543347224,1.0937999602252348,3,left
3.173,0.22384271083402071,1.3170397299188537,-0.0469625334343288,-1.9774047560011838,4.427597161535678,-0.8365559790247232,-0.8854159813285017,-1.5869863106492001,1.1195096417991637,3,left
3.175,0.23480999323859628,1.3119272681045944,-0.04227209841625765,-1.9830264874128496,4.448699397804513,-0.8693972016306097,-0.8850387037289664,-1.5818031410763136,1.1442584327518197,3,left
3.176,0.24575412595636875,1.306708845391679,-0.03757530280787652,-1.9869858977554327,4.468171489732291,-0.9013113112075698,-0.8839357827112577,-1.575648954836062,1.1680415036022909,3,left
3.176,0.2566651241420458,1.3013880959911024,-0.03287938702699586,-1.9892549337036822,4.486023492751297,-0.9322593288401696,-0.8821259979621539,-1.5685335301784222,1.1908547459447048,3,left
3.18,0.2675329169923015,1.2959689166165498,-0.028191491631325956,-1.989807601710435,4.502265244492013,-0.9622025725882689,-0.8796284161386722,-1.5604675921559636,1.2126947748153916,3,left
3.18,0.27834734498666014,1.290455460593743,-0.023518634209301018,-1.9886200299356491,4.516906355752577,-0.9911027642706185,-0.876462346467234,-1.551462789599443,1.2335589304327177,3,left
3.181,0.2890981572641617,1.28485212909541,-0.01886768691023308,-1.9856705288009244,4.529956204822994,-1.0189221418922392,-0.8726472979116631,-1.541531671752452,1.2534452789864936,3,left
3.185,0.29977500998939377,1.2791635593730315,-0.014245354737188985,-1.9809396498325624,4.541423935124088,-1.0456235767896862,-0.8682029382185512,-1.5306876647325691,1.2723526123842408,3,left
3.185,0.3103674664775558,1.27339460994386,-0.00965815475204299,-1.9744102419435103,4.551318455986631,-1.0711706930475644,-0.8631490548835524,-1.5189450478249382,1.2902804469883413,3,left
3.1889999999999996,0.32086499971912813,1.2675503428036383,-0.005112396385266163,-1.966067504017406,4.559648446319262,-1.0955279858933622,-0.857505518027686,-1.506318929579776,1.307229021401194,3,left
3.19,0.33125699789518415,1.2616360028714881,-0.0006141631340085492,-1.9558990329349004,4.566422360981481,-1.1186609366176599,-0.8512922451709256,-1.4928252236826867,1.3231992933526944,3,left
3.195,0.34153277342522087,1.2556569950229346,0.003830703965613503,-1.943894866684984,4.571648439803512,-1.1405361230811868,-0.8445291678885957,-1.4784806245640814,1.338192935741541,3,left
3.195,0.3516815759376572,1.2496188591993829,0.008216620659060718,-1.9300475224809133,4.57533471926252,-1.1611213257099957,-0.8372362003344095,-1.4633025827114654,1.3522123318790547,3,left
3.199,0.36169260933310565,1.2435272441746692,0.012538271188602313,-1.914352029851505,4.577489046834672,-1.1803856290451316,-0.8294332096123394,-1.4473092796458678,1.3652605699813989,3,left
3.2,0.371555052899765,1.2373878806076644,0.016790617105844875,-1.8968059586732966,4.578119098038078,-1.1982995189095682,-0.8211399879779355,-1.4305196025212399,1.377341436953274,3,left
3.2039999999999997,0.3812580862706362,1.2312065540199824,0.020968903021908493,-1.8774094421037792,4.57723239617719,-1.2148349752514824,-0.8123762268481839,-1.4129531183032602,1.3884594115033688,3,left
3.205,0.3907909178856756,1.2249890783172395,0.025068659285166085,-1.8561651943706172,4.574836334794905,-1.2299655607191438,-0.8031614925975323,-1.394630047481644,1.3986196566290612,3,left
3.2089999999999996,0.40014281653417233,1.2187412704269138,0.029085701722701075,-1.8330785233664417,4.570938202834162,-1.243666505018822,-0.793515204116301,-1.375571237267764,1.4078280115050803,3,left
3.2089999999999996,0.40930314549676783,1.2124689265592639,0.03301612871846465,-1.8081573379935056,4.565545212506525,-1.255914785103155,-0.783456612106343,-1.355798134227164,1.416090982808086,3,left
3.214,0.41826139877358404,1.206177800512309,0.03685631602335723,-1.7814121501971816,4.55866452986087,-1.2666892012333906,-0.7730047800875272,-1.3353327562943726,1.423415735506359,3,left
3.215,0.427007238866871,1.1998735843397903,0.040602909787300245,-1.7528560716220007,4.550303308041012,-1.2759704489548143,-0.7621785670873731,-1.3141976641153121,1.4298100831410725,3,left
3.219,0.43553053558007704,1.1935618915853632,0.04425281835247303,-1.722504804818659,4.540468723216763,-1.2837411870205002,-0.7509966119849819,-1.2924159316605477,1.4352824776228978,3,left
3.219,0.44382140530134895,1.1872482431619897,0.04780320333827805,-1.6903766289251918,4.5291680131687055,-1.2899861012942977,-0.7394773194792804,-1.2700111160506342,1.4398419985650044,3,left
3.2239999999999998,0.45187025025925515,1.1809380558309037,0.05125147048476517,-1.6564923797403133,4.516408518502661,-1.2946919646596773,-0.7276388476505167,-1.2470072265328929,1.4434983421708367,3,left
3.225,0.4596677972687963,1.1746366331203053,0.054595260618012766,-1.6208754241017704,4.5021977264656075,-1.2978476929567277,-0.7154990970829241,-1.223428692547098,1.4462618096924134,3,left
3.228,0.46720513551950604,1.1683491584293488,0.057832440982065435,-1.5835516284774602,4.486543317330619,-1.299444396965215,-0.703075701515502,-1.199300330815761,1.4481432954722668,3,left
3.2289999999999996,0.4744737529872799,1.162080689993407,0.06096109707137288,-1.54454932167202,4.469453213314165,-1.2994754304471992,-0.6903860199869402,-1.1746473113929787,1.4491542745795476,3,left
3.233,0.4814655710728733,1.1558361573441125,0.06397952501063636,-1.5038992515466287,4.450935629984986,-1.297936434258253,-0.6774471304398538,-1.1494951226041692,1.4493067900482561,3,left
3.234,0.4881729770844589,1.1496203588821576,0.06688622446970942,-1.4616345356448592,4.430999130119573,-1.2948253765318567,-0.6642758247486769,-1.12386953480743,1.4486134397230312,3,left
3.238,0.4945888541989312,1.143437960190384,0.06967989206615949,-1.4177906056126046,4.409652679955184,-1.2901425889370495,-0.650888605134795,-1.0977965629057538,1.4470873627154266,3,left
3.239,0.5007066085689513,1.1372934927456897,0.0723594151897322,-1.3724051452953716,4.386905707787219,-1.2838907990049109,-0.6373016819317848,-1.0713024275379046,1.44474222547114,3,left
3.2430000000000003,0.5065201932969912,1.131191352737027,0.07492386617495485,-1.3255180223916037,4.362768164853691,-1.2760751585149346,-0.6235309726495639,-1.0444135149304388,1.4415922074517533,3,left
3.2439999999999998,0.5120241290727291,1.1251357997610665,0.07737249675034989,-1.2771712135361633,4.337250588445505,-1.2667032679278518,-0.6095921022186627,-1.0171563356723294,1.437651986459756,3,left
3.2439999999999998,0.5172135213538566,1.1191309552395738,0.07970473270514039,-1.2274087226836785,4.310364167177213,-1.25578519684695,-0.5955004041747105,-0.9895574831768872,1.4329367236829553,3,left
3.248,0.5220840740441535,1.1131808004678796,0.0819201687280308,-1.1762764926571478,4.28212080834892,-1.243333500485457,-0.5812709224757271,-0.9616435928747792,1.4274620485596867,3,left
3.2489999999999997,0.5266320996793363,1.107289174255723,0.08401856337997202,-1.1238223098992148,4.252533207217063,-1.2293632320820573,-0.5669184137112973,-0.9334413029006516,1.421244043536343,3,left
3.25,0.5308545261738752,1.101459770165769,0.08599983416912363,-1.0700957033404683,4.221614917442775,-1.213891951047018,-0.5524573495828152,-0.9049772165304246,1.414299228736841,3,left
3.2539999999999996,0.5347489002117122,1.095696133396086,0.08786405270771959,-1.015147839881008,4.1893804210015535,-1.1969397263377446,-0.5379019196005596,-0.8762778663451791,1.4066445465338573,3,left
3.255,0.538313387388451,1.0900016574022455,0.08961143994247417,-0.9590314198587303,4.1558451952890545,-1.1785291344030644,-0.5232660339563973,-0.8473696800406747,1.398297346003999,3,left
3.258,0.5415467692416623,1.0843795804222465,0.09124236145510409,-0.9018005749931308,4.12102577569904,-1.1586852511863903,-0.5085633265306067,-0.818278947800785,1.389275367247002,3,left
3.259,0.544448437330171,1.0788329821338878,0.09275732282598745,-0.8435107697040974,4.084939812926844,-1.1374356379529311,-0.493807157991034,-0.7890317911524632,1.3795967255470005,3,left
3.264,0.5470183845313815,1.0733647807088933,0.09415696504634703,-0.7842187058208039,4.047606124793061,-1.114810320857086,-0.47901061894256836,-0.7596541332192488,1.3692798953519267,3,left
3.265,0.5492571937260617,1.0679777305220193,0.09544205995966115,-0.7239822305164156,4.009044742487437,-1.090841764193075,-0.4641865330847272,-0.7301716702898009,1.3583436940451634,3,left
3.267,0.5511660240448139,1.0626744207344736,0.09661350571496656,-0.6628602473012773,3.969276951129373,-1.0655648372678252,-0.44934746033498896,-0.700609844617495,1.3468072654816852,3,left
3.267,0.5527465948615444,1.057457274910923,0.09767232222147415,-0.6009126299043771,3.92832532453781,-1.0390167748311887,-0.4345056998753959,-0.6709938183667447,1.3346900632590897,3,left
3.272,0.5540011677325136,1.0523285517604934,0.09861964660219003,-0.5382001388701717,3.886213754099775,-1.0112371309947086,-0.4196732930798668,-0.641348448621408,1.3220118336921451,3,left
3.273,0.5549325264910345,1.0472903470229673,0.09945672865205911,-0.47478434069531356,3.842967471623389,-0.9822677265664026,-0.4048620262796175,-0.6116982633704098,1.3087925984577538,3,left
3.278,0.555543955716414,1.0423445964557367,0.10018492631335346,-0.4107275293274515,3.7986130660577544,-0.9521525897253813,-0.3900834333240796,-0.5820674383855517,1.2950526368755642,3,left
3.278,0.5558392178036724,1.0374930798185134,0.10080570118846281,-0.3460926498460823,3.753178493958789,-0.920937889956589,-0.37534879789473286,-0.5524797749064043,1.2808124677878556,3,left
3.282,0.5558225288714512,1.0327374257051731,0.10132061411598418,-0.28094322414340955,3.706693083576839,-0.8886718651625407,-0.3606691555293269,-0.5229586780471517,1.2660928310007613,3,left
3.283,0.5554985337598181,1.028079117036723,0.10173132083511585,-0.21534327842132778,3.6591875324387075,-0.8554047418656421,-0.34605529531406226,-0.4935271358403211,1.2509146682474055,3,left
3.287,0.5548722803841905,1.0235194970049843,0.10203956775463155,-0.14935727231898985,3.6106938982936407,-0.821188648411523,-0.33151776120142495,-0.46420769883245017,1.2352991036320875,3,left
3.287,0.5539491937225323,1.019059775242889,0.10224718783149074,-0.08305002948393858,3.5612455832897973,-0.7860775210808028,-0.3170668529115283,-0.4350224601469342,1.2192674235132759,3,left
3.292,0.552735049717868,1.0147010339960714,0.1023560965562287,-0.016486669398490188,3.5108773112448044,-0.7501270030138325,-0.3027126263750021,-0.4059930359295537,1.2028410557818527,3,left
3.293,0.5512359493745669,1.0104442340819493,0.10236828803876664,0.050267459728051,3.4596250978711587,-0.713394335850234,-0.28846489367568934,-0.37714054609250236,1.186041548489797,3,left
3.298,0.5494582933124851,1.0062902204443966,0.1022858311873248,0.11714684719168925,3.4075262138144904,-0.6759382439824937,-0.27433322245165753,-0.34848559527312095,1.1688905477832963,3,left
3.299,0.5474087570170589,1.0022397271436554,0.10211086597272943,0.1840858853416238,3.3546191403600845,-0.6378188113204566,-0.26032693471331186,-0.32004825392398945,1.1514097750931456,3,left
3.302,0.5450942669855833,0.9982933816634713,0.10184559976877247,0.2510189346353503,3.3009435176604933,-0.5990973504613232,-0.24645510503769874,-0.2918480394515348,1.133621003534219,3,left
3.303,0.5425219779217908,0.9944517084699656,0.10149230375547728,0.31788038839296306,3.2465400853346678,-0.5598362641576787,-0.2327265580984248,-0.2639038973208807,1.115546033464791,3,left
3.306,0.5396992510782386,0.990715131814985,0.10105330936653104,0.38460473744281454,3.1914506152867044,-0.5200988989741788,-0.21914986549097362,-0.23623418204528826,1.0972066671555374,3,left
3.307,0.5366336337961964,0.9870839778333194,0.10053100475460416,0.45112663485067156,3.135717836590085,-0.4799493910217898,-0.20573334181358985,-0.20885663797921636,1.078624682517158,3,left
3.312,0.5333328402514944,0.9835584760285817,0.09992783123926241,0.517380960924302,3.079385352281232,-0.4394525036569331,-0.19248503999167305,-0.18178837988149213,1.0598218058776947,3,left
3.312,0.5298047333871956,0.9801387602644462,0.09924627969655858,0.5833028886850331,3.022497547904206,-0.398673457031518,-0.17941274597087373,-0.155045873449503,1.040819684014588,3,left
3.313,0.5260573080004552,0.9768248693752184,0.0984888868514319,0.6488279499972407,2.9650994916465256,-0.3576777493786622,-0.16652397315080886,-0.12864491644670092,1.0216398560323505,3,left
3.3160000000000003,0.5220986749439643,0.9736167475034558,0.09765823143965462,0.7138921024806768,2.9072368261474764,-0.3165309702144555,-0.15382595706861027,-0.10260062128023026,1.002303725890836,3,left
3.3169999999999997,0.5179370463965692,0.9705142442749197,0.09675693021013643,0.7784317970031777,2.8489556532740608,-0.275298607118069,-0.1413256507052108,-0.07692739965279154,0.9828325361737709,3,left
3.3169999999999997,0.5135807221546428,0.9675171149192874,0.09578763374315266,0.8423840449626049,2.790302415346055,-0.23404585042085246,-0.12902972054153464,-0.05163894949329148,0.9632473433001819,3,left
3.321,0.5090380768926518,0.964625020438806,0.09475302206736173,0.9056864842391399,2.7313237775056853,-0.19283740161738308,-0.11694454335549145,-0.02674824413821895,0.943568994166164,3,left
3.322,0.5043175483319396,0.9618375279309195,0.09365580006647915,0.9682774430239562,2.672066514710845,-0.15173728982842985,-0.10507620372387869,-0.0022675236900238996,0.9238181041610997,3,left
3.326,0.49942762624320075,0.9591541111760579,0.09249869267782528,1.0300960013161562,2.612577404641954,-0.11080869797677129,-0.0934304921938828,0.0217917115201197,0.9040150365021107,3,left
3.327,0.49437684219564926,0.9565741515904548,0.09128443990530749,1.091082050204408,2.552903126596209,-0.07011379885417518,-0.08201290408947509,0.04541870543664491,0.8841798828302558,3,left
3.332,0.4891737599551522,0.9540969396172131,0.09001579169690346,1.1511763491129607,2.4930901661991025,-0.029713600961607006,-0.07082863891861993,0.06860344882131873,0.8643324450117799,3,left
3.333,0.48382696642505507,0.9517216765956731,0.08869550276067109,1.2103205811894904,2.433184725762405,0.010332195994776206,-0.059882600347852324,0.09133667990145738,0.844492218087568,3,left
3.3360000000000003,0.47834506301833085,0.9494474771137796,0.08732632740425636,1.2684574070098542,2.3732326401172923,0.049965336068620796,-0.049179396711436243,0.11360988319248247,0.8246783743138689,3,left
3.3369999999999997,0.4727366573468305,0.9472733718140366,0.08591101448098547,1.3255305167722546,2.3132792977508827,0.0891291326152906,-0.03872334202298491,0.13541528656140178,0.8049097482373082,3,left
3.341,0.467010355111582,0.9451983105947245,0.08445230251855358,1.381484681150601,2.2533695670741927,0.12776858452561576,-0.028518457458107927,0.15674585659650273,0.7852048227472412,3,left
3.342,0.4611747520794284,0.9432211661268151,0.08295291510105586,1.4362658009739548,2.1935477276493884,0.1658304832652097,-0.018568473277346984,0.1775952923472269,0.765581716048565,3,left
3.346,0.45523842603910325,0.9413407375942469,0.08141555657228089,1.4898209558959004,2.1338574062041884,0.2032635108317426,-0.008876831159371542,0.19795801749685119,0.7460581694982386,3,left
3.3480000000000003,0.4492099286446149,0.9395557545609434,0.07984290812327234,1.5420984522144585,2.0743415172614195,0.24001832874105838,0.0005533130848735706,0.21782917102923952,0.7266515362489439,3,left
3.352,0.44309777707322906,0.9378648808713645,0.07823762431602391,1.59304786999981,2.0150422082119595,0.27604765815136545,0.00971908644564477,0.23720459644954778,0.707378770643554,3,left
3.353,0.43691044544656965,0.9362667185010181,0.07660233007720729,1.6426201096835586,1.9560008086596894,0.31130635123293054,0.018617895323335302,0.2560808296173681,0.6882564183043609,3,left
3.355,0.4306563559842147,0.934759811288107,0.07493961817383633,1.6907674382596103,1.8972577838675693,0.3457514538887609,0.027247421839953868,0.2744550852493883,0.6693006068613458,3,left
3.3560000000000003,0.4243438698786532,0.9333426484962876,0.07325204716117999,1.7374435352429234,1.8388526921345785,0.37934225992967957,0.03560561987947153,0.29232524214721894,0.6505270372641673,3,left
3.361,0.41798127789938083,0.9320136681784247,0.0715421397754344,1.7826035385284373,1.7808241459339975,0.41204035680499096,0.043690710882595823,0.30968982720460936,0.6319509756229637,3,left
3.362,0.41157679075329073,0.9307712603287235,0.06981238173037053,1.8262040902883931,1.7232097766443608,0.4438096629875997,0.051501179420758,0.3265479982468309,0.6135872455235514,3,left
3.365,0.4051385292469659,0.9296137698245063,0.06806522086746075,1.8682033830420368,1.6660462027053813,0.47461645710999806,0.05903576857332039,0.34289952575356203,0.5954502207631202,3,left
3.366,0.3986745143114352,0.9285394991696889,0.06630306660357772,1.9085612060273451,1.6093690010322315,0.5044293989449766,0.06629347513122699,0.35874477351515627,0.5775538184530924,3,left
3.372,0.392192656961165,0.9275467110599496,0.06452828962197153,1.9472389919999384,1.5532126815227458,0.5332195423222513,0.07327354464953195,0.37408467827072195,0.559911492436424,3,left
3.373,0.38570074826833695,0.9266336307941262,0.06274322176017502,1.9841998645797425,1.4976106644934055,0.5609603400694378,0.07997546637044867,0.38892072837498765,0.5425362269672741,3,left
3.375,0.3792064494412619,0.9257984485562932,0.060950156056946,2.0194086862612584,1.4425952608813601,0.5876276410629566,0.08639896803776723,0.40325494153947516,0.5254405306016593,3,left
3.375,0.3727172821000322,0.9250393215890329,0.05915134692439845,2.052832107198468,1.388197655051241,0.6131996794715168,0.09254401062269116,0.41708984169205005,0.5086364302484415,3,left
3.38,0.3662406188398209,0.9243543762736973,0.057349010411611556,2.084438614870482,1.334447890047101,0.6376570562718197,0.0984107829786174,0.43042843501295625,0.49213546534828806,3,left
3.3819999999999997,0.35978367415984264,0.923741710129255,0.05554532452644457,2.114198584729,1.2813748551315078,0.660982713113043,0.10399969643294373,0.44327418528140533,0.47594868223668757,3,left
3.3819999999999997,0.35335349581767617,0.9231993937363753,0.053742429584979906,2.1420843319235323,1.2290062754555793,0.6831618986035248,0.10931137930763532,0.4556309888046918,0.4600866289056964,3,left
3.385,0.34695695665781917,0.922725472587503,0.051942428559389596,2.168070164195122,1.1773687037056209,0.7041821270898702,0.11434667135084217,0.46750314927778763,0.44455935046759915,3,left
3.386,0.34060074696630027,0.922317968858775,0.050147387392591836,2.1921324359136487,1.1264875135899044,0.724033130105973,0.1191066180697024,0.478895352842545,0.42937638553692725,3,left
3.387,0.3342913674055854,0.9219748830976228,0.048359335246455644,2.214249602676703,1.0763868951108952,0.7427068012187312,0.12359246496922359,0.4898126434749045,0.4145467635904605,3,left
3.39,0.3280351225733598,0.9216941958200475,0.04658026465389247,2.2344022748894674,1.0270898517138636,0.7601971359885394,0.12780565170998118,0.5002603987497038,0.4000790032781534,3,left
3.392,0.3218381152150766,0.921473869011318,0.044812131550969365,2.2525732681877924,0.9786181994847246,0.7765001693118718,0.13174780619831064,0.5102443060158265,0.3859811116413891,3,left
3.395,0.31570624111617634,0.9213118475226946,0.043056855169866334,2.268747649112795,0.9309925684924588,0.7916139118573088,0.13542073862188342,0.5197703390130632,0.37226058419597857,3,left
3.395,0.30964518470076025,0.9212060603565022,0.04131631777976122,2.2829127754327727,0.8842324062302266,0.8055382863083345,0.13882643544277323,0.5288447349607122,0.35892440583835894,3,left
3.4,0.3036604153589395,0.9211544218331494,0.03959236427237109,2.2950583310542556,0.8383559830319256,0.8182750635702494,0.14196705335934154,0.5374739721466119,0.34597905253450933,3,left
3.4,0.2977571845140661,0.9211548326356719,0.03788680159749872,2.3051763555686335,0.7933803993274162,0.8298277989846157,0.14484491324749788,0.5456647480439872,0.3334304937521822,3,left
3.405,0.2919405234281597,0.9212051807305561,0.03620139805667671,2.313261268475028,0.7493215946021264,0.8402017685912403,0.14746249409112308,0.5534239579821888,0.3212841955981539,3,left
3.406,0.28621524173199886,0.9213033421694422,0.034537882459732515,2.3193098881142875,0.7061943579292806,0.8494039054742937,0.14982242691068282,0.560758674396131,0.30954512462331873,3,left
3.41,0.28058592665606075,0.9214471817845395,0.03289794314301454,2.323321445343151,0.6640123399455845,0.8574427362257614,0.15192748869830391,0.5676761266779731,0.29821775225958874,3,left
3.41,0.275056942929433,0.921634553799115,0.03128322684304956,2.3252975919718124,0.6227880661438286,0.8643283175560473,0.153780596366839,0.5741836816533483,0.28730605985371777,3,left
3.4139999999999997,0.2696324333059953,0.9218633023809931,0.029695337417952376,2.3252424039822426,0.5825329513585474,0.8700721730781802,0.15538480071970454,0.5802888247032287,0.27681354426433585,3,left
3.415,0.2643163196722315,0.9221312621695551,0.028135834410694886,2.323162379538816,0.5432573153235821,0.8746872302887401,0.1567432804475463,0.5859991415513113,0.266743223989662,3,left
3.418,0.25911230469091207,0.9224362588046685,0.02660623145269672,2.319066431796912,0.5049703991831461,0.8781877577653094,0.15785933615706174,0.591322300735638,0.2570976457945566,3,left
3.4189999999999996,0.25402387393825704,0.9227761094817735,0.02510799451413598,2.312965876509357,0.4676803828407737,0.8805893025969765,0.1587363844365951,0.5962660367820031,0.2478788918067773,3,left
3.424,0.249054298494777,0.9231486235538839,0.02364254001932799,2.3048744144247415,0.4313944030333423,0.8819086280611801,0.15937795196241467,0.6008381340955699,0.23908858705351582,3,left
3.425,0.24420663794874717,0.9235516031989925,0.02221123285884746,2.2948081084658796,0.3961185720201985,0.8821636515569851,0.1597876696488856,0.6050464115860038,0.23072790741050894,3,left
3.429,0.23948374376664341,0.9239828441691785,0.020815384340182375,2.2827853556709115,0.3618579967802788,0.8813733828017257,0.1599692668450655,0.608898708040343,0.22279758793724627,3,left
3.43,0.23488826297881268,0.92444013663509,0.019456250122249486,2.2688268538738314,0.32861679861299803,0.8795578622948418,0.1599265655795738,0.6124028682567552,0.21529793157302354,3,left
3.4339999999999997,0.23042264212230287,0.9249212661373033,0.018135028176025626,2.252955563095578,0.29639813304157914,0.8767381000496833,0.1596634748549198,0.6155667299512879,0.2082288181698258,3,left
3.435,0.2260891313772956,0.9254240146550597,0.016852856806590304,2.235196661611179,0.26520420992041094,0.8729360145910569,0.15918398499181927,0.6183981114486965,0.20158971383925947,3,left
3.438,0.2218897888309307,0.9259461618021504,0.015610812764663758,2.2155774966529087,0.23503631365094826,0.8681743722133426,0.15849216202338534,0.6209048001674321,0.1953796805919882,3,left
3.4389999999999996,0.2178264848033826,0.926485486158198,0.014409909470007266,2.194127529703919,0.20589482341360257,0.8624767264911293,0.15759214213844674,0.623094541907896,0.18959738624936387,3,left
3.443,0.21390090617481025,0.9270397667414009,0.013251095363625532,2.17087827633138,0.177779233326015,0.8558673580314929,0.1564881261726243,0.6249750309521108,0.18424111460817805,3,left
3.444,0.21011456065638565,0.9276067846270988,0.012135252399519543,2.145863240502839,0.15068817244104818,0.8483712144542915,0.1551843741451876,0.6265539009820257,0.17930877584069166,3,left
3.448,0.20646878095320909,0.9281843247161555,0.011063194680680006,2.1191178433242404,0.12461942450077937,0.840013850584161,0.15368519984193377,0.6278387168149084,0.17479791711052298,3,left
3.449,0.2029647287732703,0.9287701776578178,0.010035667239104915,2.090679346132897,0.0995699473657242,0.8308213688352772,0.15199496545783975,0.6288369669141123,0.17070573337216896,3,left
3.45,0.1996033986461528,0.9293621419325354,0.009053344955775675,2.0605867678736227,0.07553589204146019,0.8208203597674074,0.15011807633803448,0.6295560565619407,0.16702907829790525,3,left
3.4539999999999997,0.196385621525408,0.929958026100904,0.00811683161289482,2.0288807968181874,0.05251262124680059,0.8100378428268125,0.14805897586917166,0.6300033015412173,0.1637644752629918,3,left
3.455,0.19331206815645538,0.9305556512250449,0.007226659067373359,1.9956036973679938,0.030494727565821705,0.7985012074707473,0.1458221405586396,0.6301859222106156,0.1609081283353404,3,left
3.455,0.19038325219809232,0.9311528534679515,0.006383286533101015,1.9607992139073693,0.009476051400370085,0.7862381552096286,0.14341207531313935,0.6301110379287002,0.1584559332422426,3,left
3.46,0.18759953309216387,0.9317474868750371,0.005587099960588688,1.9245124743548245,-0.010550300962195185,0.7732766432862772,0.14083330891354406,0.6297856618201234,0.15640348830196568,3,left
3.4610000000000003,0.1849611186836602,0.9323374263404471,0.004838411505829581,1.886789895370533,-0.029591938943610008,0.7596448305218918,0.1380903896796239,0.6292166958845201,0.15474610531200245,3,left
3.4619999999999997,0.18246806760287038,0.9329205707569058,0.004137459085885197,1.8476790899416513,-0.04765716887778661,0.7453710255186848,0.13518788131772255,0.6284109264478968,0.15347882038692107,3,left
3.463,0.18012029143137406,0.9334948463412351,0.003484406026015192,1.80722877737825,-0.06475497486087006,0.7304836372195218,0.1321303589439872,0.6273750199555985,0.15259640473990846,3,left
3.467,0.1779175566818839,0.9340582101205617,0.002879340809783452,1.7654886956115976,-0.08089499930298948,0.7150111277854622,0.1289224052752816,0.6261155191052324,0.15209337540323542,3,left
3.468,0.1758594866253943,0.9346086535588649,0.002322276946981956,1.7225095156825405,-0.09608752323361976,0.6989819677502622,0.1255686069794547,0.6246388393172466,0.15196400588399167,3,left
3.4730000000000003,0.17394556299754357,0.9351442062994025,0.0018131529730632024,1.6783427583038892,-0.11034344640969228,0.6824245934091309,0.1220735511761909,0.6229512655402042,0.15220233675254416,3,left
3.4730000000000003,0.17217512761245862,0.9356629399943142,0.0013518325900539103,1.6330407123770059,-0.12367426727284231,0.6653673663973514,0.11844182207923588,0.6210589493871469,0.15280218616226093,3,left
3.478,0.1705473839095992,0.9361629721878302,0.0009381049586429998,1.5866563553392414,-0.13609206279946098,0.647838535412784,0.11467799777037388,0.6189679065988213,0.1537571603001164,3,left
3.4789999999999996,0.16906139845808107,0.9366424702132393,0.0005716851593539813,1.5392432752154537,-0.14760946828453006,0.6298662000347445,0.11078664709512565,0.6166840148289301,0.15506066376884933,3,left
3.483,0.1677161024438148,0.9370996550554612,0.0002522148544720848,1.4908555942435788,-0.15823965709756121,0.6114782765903197,0.10677232666974396,0.6142130117459882,0.15670590990238265,3,left
3.484,0.16651029316814575,0.9375328051219672,-2.0736808978943587e-05,1.4415478939411244,-0.16799632044634027,0.5927024660178243,0.1026395779887042,0.6115604934457876,0.15868593101723472,3,left
3.487,0.16544263559167172,0.9379402598577014,-0.00024767202008977587,1.3913751414764917,-0.17689364718159092,0.5735662236758283,0.09839292462152076,0.6087319131679236,0.16099358860365187,3,left
3.488,0.16451166396125408,0.938320423137198,-0.00042916283075169397,1.3403926172062424,-0.18494630367312545,0.5540967310449938,0.09403686948736721,0.6057325803092942,0.16362158346117348,3,left
3.4930000000000003,0.16371578356151223,0.9386717663700219,-0.000565849388979191,1.28865584323678,-0.19216941378554114,0.5343208692688391,0.08957589219563777,0.6025676597269656,0.16656246578430214,3,left
3.4939999999999998,0.1630532726356021,0.9389928312623644,-0.0006584378915023351,1.2362205128664319,-0.19857853897905345,0.5142651944785184,0.08501444644025985,0.5992421713222902,0.16980864520489303,3,left
3.497,0.16252228452308037,0.9392822321866326,-0.0007076982729436749,1.1831424207615922,-0.204189658558632,0.49395591484574153,0.08035695743525396,0.5957609898976698,0.17335240079879535,3,left
3.498,0.1621208500624918,0.9395386581226398,-0.0007144616512122078,1.1294773937184186,-0.20901915009222297,0.47341886930708266,0.0756078193787352,0.5921288452768851,0.17718589106517837,3,left
3.503,0.16184688030182892,0.9397608741489891,-0.0006796175522965895,1.0752812218595735,-0.21308377001650336,0.45267950790211847,0.07077139293226202,0.588350322679447,0.1813011638878504,3,left
3.5039999999999996,0.1616981695522318,0.9399477224800485,-0.00060411094414067,1.0206095901136465,-0.21640063444632265,0.4317628736671081,0.06585200270216214,0.58442986333898,0.18569016648873432,3,left
3.5060000000000002,0.16167239881094375,0.9400981230600871,-0.0004889391184988601,0.9655180098232156,-0.21898720020174084,0.4106935860252728,0.060853934709201765,0.5803717653552142,0.19034475538449516,3,left
3.5069999999999997,0.16176713957021532,0.940211073739441,-0.00033514846797462293,0.9100617503259767,-0.2208612460643771,0.38949582561415064,0.0557814338327139,0.5761801847687403,0.19525670635812453,3,left
