time,gFx,gFy,gFz,ax,ay,az,wx,wy,wz,subject_number,foot
6.645,-0.6630979003535696,0.9978452452275336,0.24019854757613923,4.700419492341464,5.184334573714283,0.9134942693441848,0.2160278159628092,-1.7148993964855892,-2.2827444452769283,1,right
6.646,-0.6734680546087746,0.9805050237083983,0.24124088723514853,4.678392192303653,5.258191102387882,0.9318435229464868,0.22324406139020525,-1.7211287216613322,-2.281937901284482,1,right
6.649,-0.6836722795318418,0.9629716497250222,0.24219689984940307,4.654058508940637,5.329177357683812,0.9503106694244265,0.23069031163029136,-1.7270531845604675,-2.280023548881307,1,right
6.65,-0.6937021194477307,0.9452626384567989,0.24306742797163328,4.62740889282918,5.39717487166792,0.9688821751141815,0.23837025379641305,-1.7326726019170489,-2.2769881966869643,1,right
6.654,-0.7035494211763728,0.9273956419133209,0.2438533458462358,4.598435655829925,5.462066151350288,0.9875438735745264,0.246287521999498,-1.7379873187004788,-2.272819305706107,1,right
6.655,-0.7132063522347041,0.9093884201360943,0.2445555528977659,4.567133034393818,5.523734885042108,1.0062809988203454,0.25444569197225225,-1.7429982142916791,-2.267505004990435,1,right
6.659,-0.7226654176361031,0.8912588133002285,0.24517496761193747,4.5334972511063025,5.582066158740823,1.0250782230032784,0.26284827571389185,-1.7477067083201183,-2.261034106956029,1,right
6.66,-0.731919475257879,0.8730247147054636,0.24571252183311942,4.497526574386035,5.636946682729703,1.0439196985930799,0.2714987161781613,-1.752114766176966,-2.253396122344063,1,right
6.665,-0.7409617497544033,0.8547040446327311,0.24616915548600898,4.459221376248194,5.688265028568761,1.0627891051134837,0.28040038202808243,-1.756224904218773,-2.2445812748096077,1,right
6.665,-0.7497858449985749,0.8363147250352906,0.2465458117203715,4.418584188035749,5.735911876644347,1.0816697004865408,0.28955656248158035,-1.760040194675205,-2.234580515119913,1,right
6.666,-0.7583857550405312,0.8178746550319256,0.24684343247685217,4.375619754015358,5.779780274434829,1.1005443770395194,0.2989704622634572,-1.763564270257077,-2.2233855349428504,1,right
6.669,-0.7667558735822093,0.7994016871701413,0.24706295447405993,4.3303350827278635,5.8197659056395405,1.1193957222285396,0.3086451966329791,-1.766801328377959,-2.2109887802160655,1,right
6.67,-0.7748910019776555,0.7809136044263458,0.24720530561783285,4.282739495976645,5.8557673703076585,1.1382060841331427,0.31858378637260026,-1.769756134753956,-2.1973834641078223,1,right
6.6739999999999995,-0.7827863557779989,0.7624280979095106,0.24727140183043123,4.232844675330428,5.8876864760928065,1.1569576417759833,0.3287891525771587,-1.7724340260633287,-2.18256357959032,1,right
6.675,-0.7904375698460857,0.7439627452382556,0.24726214428924426,4.180664705970115,5.91542854028058,1.1756324801697116,0.33926411113055693,-1.7748409114288874,-2.1665239116295885,1,right
6.676,-0.7978407020705277,0.7255349895654716,0.24717841705408708,4.126216117500721,5.938902699887622,1.194212669232787,0.3500113668421711,-1.7769832726331325,-2.1492600489687463,1,right
6.678999999999999,-0.8049922357131669,0.707162119224883,0.24702108505316986,4.069517920979623,5.958022222912221,1.2126803443473901,0.36103350726292416,-1.778868163057412,-2.1307683954646937,1,right
6.68,-0.8118890804288659,0.6888612479743368,0.2467909923872537,4.010591641203943,5.972704811467242,1.2310177855721665,0.3723329962111231,-1.7805032053520267,-2.1110461809321444,1,right
6.684,-0.8185285720029422,0.6706492958167826,0.24648896089596511,3.9494613434951726,5.9828728898511345,1.2492074932824782,0.38391216703893766,-1.7818965878434565,-2.0900914714454,1,right
6.685,-0.8249084708563923,0.6525429703898278,0.2461157889175783,3.8861536545760162,5.988453874807158,1.2672322593789176,0.3957732156711914,-1.783057059684134,-2.0679031790447393,1,right
6.688,-0.8310269593689037,0.6345587489237599,0.24567225017386318,3.820697777329863,5.989380427545399,1.2850752339646783,0.40791819344892893,-1.783993924749484,-2.044481070790757,1,right
6.689,-0.8368826380649528,0.6167128607746606,0.24515909272475342,3.753125499267337,5.98559068755664,1.3027199875439992,0.42034899981102863,-1.7847170342862484,-2.0198257771064605,1,right
6.694,-0.8424745207007698,0.5990212705435884,0.24457703795676589,3.683471194518105,5.9770284882339695,1.3201505687934292,0.4330673748479393,-1.7852367783154504,-1.993938799343373,1,right
6.695,-0.8478020282811788,0.5814996617952386,0.24392677958727368,3.6117718191599995,5.963643554304643,1.3373515579571325,0.4460748917624336,-1.7855640757927114,-1.966822516504366,1,right
6.699,-0.8528649820277344,0.564163421391369,0.24320898267937507,3.5380668996913864,5.945391681061225,1.3543081159168906,0.4593729492730924,-1.78571036352802,-1.9384801910523954,1,right
6.7,-0.8576635953154386,0.5470276244561019,0.2424242826684717,3.4623985144467766,5.922234895367257,1.371006028986839,0.4729627639970603,-1.7856875838664685,-1.9089159737307755,1,right
6.705,-0.862198464595052,0.5301070199909211,0.24157328440378828,3.3848112677497864,5.894141598398951,1.3874317494823234,0.4868453628494415,-1.785508171130925,-1.878134907317106,1,right
6.706,-0.8664705593200791,0.5134160171558501,0.24065656120900755,3.305352256591809,5.861086690070364,1.403572432111554,0.5010215754975422,-1.7851850368270819,-1.8461429292294387,1,right
6.709,-0.8704812109002462,0.49696867222997176,0.23967465396796442,3.22407102961911,5.823051675075473,1.4194159662379982,0.5154920269089996,-1.7847315536108468,-1.8129468728997602,1,right
6.709,-0.8742321007059224,0.4807786762586489,0.23862807024225094,3.1410195382055623,5.780024750466404,1.43495100406067,0.5302571300336825,-1.7841615380175888,-1.7785544678263887,1,right
6.7139999999999995,-0.8777252471495357,0.4648593433839784,0.23751728342323555,3.0562520793828707,5.7320008746727895,1.4501669847586625,0.545317078660086,-1.7834892319523343,-1.7429743382133807,1,right
6.715,-0.8809629918698925,0.4492235998369869,0.23634273190831115,2.9698252303948895,5.67898181785299,1.465054154645404,0.5606718404877957,-1.782729282939647,-1.7062160001016138,1,right
6.718,-0.8839479850441876,0.433883973547483,0.23510481827172555,2.881797774637569,5.620976193453539,1.4796035833772532,0.5763211504584328,-1.7818967231315783,-1.6682898568927556,1,right
6.718999999999999,-0.8866831698521739,0.41885258430756617,0.2338039083842213,2.7922306187411365,5.557999470838891,1.4938071762601184,0.5922645043883481,-1.781006947071795,-1.6292071931639305,1,right
6.724,-0.8891717661192199,0.4041411344142368,0.23244033044144302,2.7011867005463643,5.490073968839149,1.507657682696847,0.6085011529471707,-1.78007568821373,-1.58898016666751,1,right
6.725,-0.8914172531704156,0.3897608997184874,0.23101437390235158,2.6087308877221638,5.4172288300491775,1.5211487008171698,0.6250300960271677,-1.7791189941903942,-1.5476217984070968,1,right
6.728,-0.8934233519350908,0.375722721022646,0.22952628840714917,2.514929866767349,5.33949997569825,1.534274678330983,0.6418500775492167,-1.7781532008333347,-1.505145960677457,1,right
6.729,-0.8951940063485033,0.36203699579175597,0.2279762828088926,2.419852022135162,5.256930040895144,1.5470309096447445,0.6589595807520279,-1.7771949049380942,-1.4615673629528678,1,right
6.733,-0.8967333641044158,0.34871367017176835,0.22636452448193614,2.3235673052150996,5.169568290039495,1.5594135292797286,0.6763568239983975,-1.776260935805651,-1.4169015355725454,1,right
6.734,-0.8980457568163107,0.33576223132709954,0.22469113905226726,2.226147092902728,5.077470512176223,1.5714195016298378,0.6940397570645815,-1.7753683257502568,-1.371164811505874,1,right
6.734,-0.8991356796461397,0.32319170011914955,0.22295621064709883,2.127664035484496,4.98069889605593,1.583046607095605,0.7120060577563818,-1.7745342800538453,-1.3243743070840388,1,right
6.739,-0.900007770468183,0.3110106241583394,0.22115978271333317,2.028191893561111,4.879321884650408,1.5942934246299558,0.7302531286278394,-1.7737761470082147,-1.276547902918804,1,right
6.74,-0.9006667886596254,0.2992270712864596,0.21930185941724603,1.9278053637297585,4.773414008858838,1.6051593107302127,0.7487780936477727,-1.773111388525347,-1.2277042258888486,1,right
6.742000000000001,-0.9011175936368111,0.28784862357197005,0.2173824076005409,1.82657989309622,4.663055700558688,1.6156443749591087,0.767577794783543,-1.7725575515066596,-1.1778626324639845,1,right
6.742999999999999,-0.9013651232656238,0.2768823719070288,0.21540135923092021,1.7245914844540815,4.548333087301468,1.6257494523233131,0.7866487885407556,-1.7721322400012436,-1.1270431932973548,1,right
6.744,-0.9014143722620551,0.26633491127976777,0.2133586142597531,1.6219164971498112,4.429337774827326,1.6354760732811742,0.8059873425121092,-1.771853088151214,-1.0752666789453436,1,right
6.747999999999999,-0.9012703706851058,0.2562123367805794,0.21125404377885376,1.5186314504190663,4.306166625719067,1.6448264323971282,0.8255894319893912,-1.7717377339226228,-1.0225545465720538,1,right
6.75,-0.900938162624653,0.24652024040230378,0.20908749334388843,1.4148128342083983,4.178921540344256,1.6538033564122983,0.8454507366933961,-1.7718037936207456,-0.9689289274924097,1,right
6.752000000000001,-0.9004227851910227,0.23726370869985317,0.20685878632101495,1.3105369293103655,4.047709242335028,1.6624102720554248,0.8655666376773148,-1.7720688371889834,-0.9144126154051904,1,right
6.752999999999999,-0.8997292479066105,0.22844732136956283,0.20456772713280075,1.205879636869305,3.9126410686838247,1.6706511736703613,0.8859322144598961,-1.7725503642910814,-0.8590290551646134,1,right
6.757000000000001,-0.8988625125871026,0.22007515079393256,0.2022141043163457,1.100916316959686,3.77383276408978,1.6785305906859325,0.906542242445426,-1.773265781176894,-0.802802331936464,1,right
6.757999999999999,-0.8978274737890656,0.21215076258028007,0.19979769334049774,0.9957216359376485,3.631404279179025,1.686053554952889,0.9273911906883023,-1.774232378332499,-0.7457571605822129,1,right
6.763,-0.8966289398924361,0.2046772171024829,0.19731825915677223,0.890369422265239,3.485479572211168,1.6932255679716386,0.9484732200606987,-1.7754673089160757,-0.6879188751120692,1,right
6.763999999999999,-0.8952716148783239,0.19765707203077032,0.19477555848746927,0.7849325305059726,3.3361864138734405,1.7000525680334038,0.9697821818825131,-1.7769875679816443,-0.6293134180454996,1,right
6.769,-0.8937600808554466,0.19109238580628019,0.19216934188723242,0.6794827131896841,3.183656194753613,1.7065408972964293,0.9913116170734801,-1.7788099724934738,-0.5699673295153912,1,right
6.769,-0.8920987813879452,0.18498472199135957,0.18949935564375828,0.5740905002441755,3.0280237350727646,1.7126972688178534,1.0130547558879999,-1.7809511421347535,-0.5099077359497606,1,right
6.773,-0.8902920056884981,0.17933515441166747,0.18676534359908337,0.4688250856909214,2.869427096249302,1.7185287335608688,1.0350045182938823,-1.7834274809149182,-0.4491623381627082,1,right
6.774,-0.8883438737614774,0.17414427300589208,0.1839670489696445,0.3637542213020579,2.708007393856335,1.7240426473958292,1.0571535150568412,-1.7862551595809102,-0.38775939868419157,1,right
6.777,-0.8862583226016874,0.1694121903108945,0.18110421622371248,0.2589441169160378,2.5439086115256293,1.7292466381130016,1.0794940495931844,-1.7894500988385567,-0.32572772815614115,1,right
6.778,-0.8840390935636937,0.16513854852832355,0.17817659304745817,0.1544593471096992,2.3772774153428196,1.734148572463729,1.1020181206537416,-1.7930279533912141,-0.2630966706204744,1,right
6.782,-0.8816897210081911,0.16132252713747408,0.1751839324072239,0.05036276392504974,2.2082629682704895,1.7387565232458666,1.1247174259026402,-1.797004096803838,-0.1998960875226767,1,right
6.784,-0.8792135223058982,0.15796285103531774,0.17212599470410156,-0.053284584650186186,2.037016744128014,1.7430787364484492,1.1475833664550894,-1.8013936072016874,-0.13615634025281034,1,right
6.787000000000001,-0.8766135892416717,0.1550577991967783,0.1690025500185884,-0.15642353074827883,1.863692340649801,1.7471235984696973,1.1706070524388623,-1.8062112538139756,-0.07190827104409524,1,right
6.787999999999999,-0.8738927808187928,0.15260521385521142,0.16581338045189833,-0.258996857532373,1.6884452911367271,1.750899603421614,1.1937793096446656,-1.8114714843739261,-0.007183182047567004,1,right
6.791,-0.8710537174241357,0.1506025102047001,0.1625582825783861,-0.3609493652501605,1.5114328742091494,1.7544153205336075,1.2170906873310663,-1.8171884133878717,0.05798718760022769,1,right
6.792000000000001,-0.8680987762878908,0.1490466866233124,0.1592370700245651,-0.4622279327265129,1.3328139211639165,1.7576793616667743,1.2405314672500944,-1.8233758112872682,0.12357068690099894,1,right
6.796,-0.8650300881601406,0.14793433541035902,0.15584957618215595,-0.5627815745896209,1.1527486204322808,1.7607003489497133,1.2640916739600716,-1.8300470944787637,0.1895347804958142,1,right
6.797000000000001,-0.8618495351275386,0.14726165402143787,0.1523956570473761,-0.6625614945234085,0.9713983186305394,1.7634868825459868,1.287761086492611,-1.8372153163087783,0.25584657873067934,1,right
6.8020000000000005,-0.8585587495016482,0.14702445677548975,0.14887519416254796,-0.7615211348370595,0.7889253176906292,1.7660475085626266,1.3115292513984587,-1.8448931589236304,0.3224728703768571,1,right
6.803,-0.8551591137230261,0.1472181870029082,0.1452880976267954,-0.8596162226404127,0.6054926675537418,1.7683906871083763,1.3353854969839583,-1.853092925823803,0.3893801576068882,1,right
6.803,-0.8516517612379657,0.14783792960357273,0.14163430914183825,-0.9568048129117697,0.42126395390633536,1.7705247605096994,1.359318948166412,-1.8618265345814728,0.4565346919455853,1,right
6.807,-0.8480375783119787,0.14887842398187182,0.13791380506068718,-1.053047328742301,0.23640308043470248,1.772457921691924,1.3833185411636624,-1.8711055090080562,0.5239025094257894,1,right
6.808,-0.8443172067434387,0.15033407731806503,0.134126599407833,-1.1483065990387653,0.05107404507148807,1.7741981827322737,1.4073730374467046,-1.8809409702438527,0.5914494636698684,1,right
6.811,-0.8404910474375455,0.15219897812809996,0.13027274684301765,-1.2425478938243095,-0.1345592899677545,1.7757533436154018,1.4314710367681802,-1.8913436265743047,0.6591412565013408,1,right
6.812,-0.8365592648007645,0.15446691006548138,0.1263523455488007,-1.3357389565777023,-0.32033343292684874,1.7771309613438053,1.4556009892930264,-1.9023237619627849,0.726943466182004,1,right
6.813,-0.8325217919188175,0.15713136592673724,0.1223655400316435,-1.4278500317944671,-0.5060854976576048,1.7783383197751454,1.4797512069003553,-1.9138912233281902,0.7948215734685368,1,right
6.816,-0.8283783364815706,0.16018556182632565,0.11831252383579934,-1.518853885253754,-0.6916534331682576,1.7793824006803143,1.5039098737257717,-1.9260554065972453,0.8627409856829629,1,right
6.817,-0.8241283874130609,0.1636224515040247,0.11419354218001085,-1.6087258151684811,-0.876876243200498,1.780269856393235,1.528065056013418,-1.938825241563085,0.9306670589916795,1,right
6.821000000000001,-0.8197712221590392,0.167434740725543,0.11000889453661448,-1.697443653647255,-1.061594194406539,1.781006984202683,1.5522047113470976,-1.9522091755833613,0.9985651190879702,1,right
6.822,-0.8153059145824536,0.17161490174076205,0.10575893717633532,-1.7849877585901033,-1.2456490133319855,1.78159970251361,1.5763166973298568,-1.9662151561528438,1.0664004804730451,1,right
6.825,-0.8107313434187079,0.17615518777063627,0.10144408569722045,-1.871340996276149,-1.4288840727362608,1.7820535287805357,1.600388779781387,-1.9808506123872094,1.1341384645306638,1,right
6.827000000000001,-0.8060462012451721,0.18104764749967156,0.09706481754380682,-1.9564887148980499,-1.611144567780891,1.782373559215132,1.6244086405225677,-1.9961224354564944,1.2017444165903213,1,right
6.83,-0.8012490039225595,0.18628413955585527,0.09262167450681975,-2.0404187092946544,-1.792277682614057,1.7825644502697218,1.6483638848163948,-2.012036958008454,1.2691837221737938,1,right
6.831,-0.7963381004698444,0.19185634696449075,0.08811526517952166,-2.1231211771299145,-1.9721327478774593,1.7826304018980006,1.6722420485344172,-2.02859993262389,1.3364218226195652,1,right
6.835,-0.7913116833396415,0.19775579156573495,0.08354626733703462,-2.204588666762633,-2.1505613896587565,1.7825751425939151,1.696030605117657,-2.0458165093478335,1.4034242302792712,1,right
6.836,-0.7861677990656625,0.20397384838589827,0.07891543019991225,-2.284816017048133,-2.327417670409598,1.7824019162092528,1.7197169724008075,-2.0636912123423135,1.4701565434798225,1,right
6.84,-0.7809043592565059,0.21050175994979106,0.07422357654344451,-2.3638002893094217,-2.502558222345607,1.7821134705501438,1.7432885193682728,-2.0822279157083012,1.5365844614442905,1,right
6.841,-0.7755191519125187,0.21733065051834155,0.06947160462035122,-2.441540691711863,-2.6758423738405783,1.7817120477523163,1.7667325729103647,-2.1014298185262987,1.6026737993639615,1,right
6.846,-0.7700098530472087,0.22445154023456448,0.06466048987501662,-2.5180384962718296,-2.8471322693226457,1.7811993764346215,1.79003642464767,-2.1212994191669305,1.6683905038131877,1,right
6.847,-0.764374038600939,0.23185535916117198,0.05979128643814035,-2.5932969487262305,-3.0162929831752407,1.780576665630002,1.813187337891278,-2.141838488924797,1.7337006686977938,1,right
6.85,-0.758609196640316,0.23953296119252368,0.05486512839841251,-2.6673211714862486,-3.183192628140353,1.77984460049275,1.8361725548061896,-2.1630480450307545,1.798570551926823,1,right
6.851,-0.7527127398409341,0.24747513782036704,0.04988323085116507,-2.740118059895048,-3.3477024587158675,1.7790033397805918,1.8589793038448275,-2.184928323099707,1.8629665929963308,1,right
6.855,-0.7466820182537605,0.25567263172686316,0.0448468907218419,-2.811696172005663,-3.5096969700326497,1.7780525151098057,1.8815948075171214,-2.2074787490729184,1.9268554316727813,1,right
6.855,-0.7405143323559275,0.26411615017171847,0.039757487355937586,-2.882065612091734,-3.669053992690556,1.776991231981272,1.9040062905631752,-2.2306979107157683,1.990203927962319,1,right
6.86,-0.7342069463842098,0.27279637813516383,0.03461648286180562,-2.951237908100238,-3.8256547840256956,1.7758180725750408,1.9262009885940072,-2.2545835287338116,2.0529791835508417,1,right
6.861000000000001,-0.7277571019431119,0.2817039911756696,0.029425422191920046,-3.019225883251851,-3.97938411627405,1.7745311003106805,1.9481661572653008,-2.2791324275719176,2.115148564898338,1,right
6.865,-0.7211620318699843,0.29082966795940546,0.024185932950706913,-3.086043521991128,-4.13013036208898,1.7731278661703562,1.9698890820485235,-2.3043405059631867,2.1766797281694004,1,right
6.8660000000000005,-0.7144189743298731,0.30016410241602,0.018899724921038738,-3.151705830485247,-4.277785577862248,1.7716054167812636,1.9913570886631424,-2.3302027072962574,2.2375406461801846,1,right
6.869,-0.7075251871058555,0.30969801547365505,0.013568589306359936,-3.216228691866642,-4.422245585289924,1.7699603042537169,2.012557554201741,-2.356712989894677,2.297699637452834,1,right
6.87,-0.7004779620476099,0.3194221663304327,0.008194397689495996,-3.279628716411519,-4.563410051616035,1.7681885977708534,2.033477918822778,-2.383864297419744,2.3571253970290544,1,right
6.872000000000001,-0.6932746396404482,0.3293273632307307,0.0027791007104297056,-3.3419230868429186,-4.701182568977854,1.7662858969255715,2.0541056976035432,-2.411648529818588,2.415787027905088,1,right
6.875,-0.6859126236544056,0.3394044737223735,-0.0026752735337687425,-3.403129398943711,-4.835470733267652,1.7642473467999698,2.0744284919887477,-2.4400565153569516,2.4736540715107975,1,right
6.876,-0.6783893958252614,0.34964443436815645,-0.008166621357959238,-3.463265497661698,-4.966186222916209,1.762067654782186,2.0944340004257223,-2.469077984162134,2.530696536090993,1,right
6.879,-0.67070253051022,0.360038259879938,-0.013692765608389317,-3.522349309050693,-5.093244877807481,1.759741109090166,2.1141100280578304,-2.4987015434949016,2.586884922632438,1,right
6.88,-0.6628497092569022,0.3705770516471099,-0.019251458008011053,-3.5803986692127032,-5.216566777592775,1.7572615988465077,2.1334444955031766,-2.528914654855109,2.6421902484152078,1,right
6.881,-0.6548287352256178,0.38125200564263745,-0.024840381704147596,-3.6374311528871606,-5.336076316986738,1.7546226353231482,2.15242544677605,-2.5597036130043787,2.696584068352205,1,right
6.885,-0.6466375474039806,0.39205441969833715,-0.030457153997191233,-3.693463905154521,-5.451702274685936,1.7518173738492533,2.1710410564076086,-2.591053526990915,2.7500384942781806,1,right
6.886,-0.6382742345453378,0.4029757001404363,-0.03609932922572825,-3.7485134788941736,-5.563377873471108,1.7488386360002113,2.189279635821315,-2.622948303263215,2.8025262123470824,1,right
6.89,-0.629737048754448,0.41400736777172165,-0.04176440177653434,-3.8025956791498046,-5.671040830719012,1.745678931910154,2.207129639017628,-2.6553706309610936,2.8540204986939246,1,right
6.89,-0.6210244186423732,0.4251410631842876,-0.04744980918234001,-3.8557254147280897,-5.774633399469719,1.7423304826749315,2.2245796676213994,-2.688301969474049,2.9044952335146825,1,right
6.894,-0.6121349619769098,0.4363685513876421,-0.0531529352685201,-3.9079165571888974,-5.874102400370005,1.7387852428369663,2.2416184753443544,-2.7217225383585544,2.953924913714939,1,right
6.895,-0.6030674977610687,0.4476817257392521,-0.05887111331273757,-3.9591818073823966,-5.969399244802023,1.7350349229428956,2.2582349719138985,-2.7556113097073767,3.002284664275152,1,right
6.899,-0.5938210576782939,0.4590726111681255,-0.06460162918882473,-4.009532569685725,-6.06047994949472,1.7310710121643658,2.2744182265183626,-2.7899460030654852,3.049550248477491,1,right
6.9,-0.5843948968498693,0.47053336668734597,-0.0703417244758555,-4.058978834089177,-6.147305142903661,1.7268848009717745,2.29015747081761,-2.82470308298851,3.095698077136188,1,right
6.903,-0.5747885038582967,0.482056287199438,-0.07608859952222541,-4.107529066279208,-6.2298400636329,1.7224674038501697,2.3054421015667117,-2.859857759341058,3.1407052169702756,1,right
6.905,-0.565001610000727,0.4936338046086629,-0.08183941646038624,-4.155190105862923,-6.308054551160488,1.7178097820458977,2.3202616828991625,-2.89538399043347,3.184549398254439,1,right
6.909,-0.5550341977490518,0.5052584882660869,-0.08759130217122241,-4.201967072876108,-6.381923029116959,1.7129027663319587,2.334605948314826,-2.9312544890968124,3.2272090218805105,1,right
6.91,-0.5448865084073212,0.5169230447866262,-0.09334135119905032,-4.247863282714297,-6.4514244813538335,1.7077370797793572,2.3484648024164985,-2.9674407317970366,3.26866316595884,1,right
6.912000000000001,-0.5345590489711147,0.5286203172912328,-0.0990866286186689,-4.292880169623798,-6.516542421026769,1.7023033605210494,2.3618283224376393,-3.0039129708903105,3.3088915920854616,1,right
6.917999999999999,-0.5240525982067503,0.5403432841387096,-0.10482417285485084,-4.337017218887058,-6.577264852905515,1.696592184494368,2.3746867596024535,-3.0406402501224945,3.3478747513975495,1,right
6.919,-0.5133682119821611,0.5520850572185205,-0.11055099845307444,-4.380271907834242,-6.6335842291103,1.6905940881470713,2.387030540358118,-3.077590423476664,3.3855937905362143,1,right
6.921,-0.5025072278968286,0.5638388798802555,-0.11626409879722548,-4.422639655810315,-6.685497398461706,1.6842995910913763,2.398850267517525,-3.1147301774733824,3.422030557632161,1,right
6.921,-0.49147126927437407,0.575598124578635,-0.12196044876322941,-4.4641137832244295,-6.733005549618412,1.6776992186895587,2.410136721349452,-3.152025057029165,3.4571676084261487,1,right
6.926,-0.480262248596471,0.5873562903131015,-0.12763700729003447,-4.504685479805878,-6.77611414816464,1.6707835245538647,2.4208808606516037,-3.1894394949791987,3.490988212632583,1,right
6.928,-0.4688823704676786,0.5991069999364036,-0.13329071984857213,-4.544343782188282,-6.814832867796412,1.6635431129426277,2.431073823840463,-3.2269368453709513,3.523476360650863,1,right
6.931,-0.45733413420413394,0.61084399739876,-0.13891852079739822,-4.58307556094117,-6.849175515743097,1.655968661033616,2.4407069300903497,-3.264479420635726,3.554616770725402,1,right
6.932,-0.4456203361342832,0.622561144985365,-0.1445173356259323,-4.620865517165458,-6.879159952548146,1.6480509410547193,2.4497716805525345,-3.3020285327455623,3.584394896651427,1,right
6.935,-0.4337440716891537,0.634252420595444,-0.15008408309869414,-4.657696188766733,-6.904808006320224,1.6397808422511548,2.4582597596836755,-3.3395445384631244,3.6127969361198713,1,right
6.936,-0.42170873734461023,0.6459119151010179,-0.1556156773246601,-4.693547966517572,-6.926145381553488,1.6311493926674154,2.4661630367112264,-3.3769868887923393,3.6398098397907694,1,right
6.94,-0.4095180324593808,0.657533829814991,-0.16110902978133224,-4.7283991200174205,-6.94320156260315,1.6221477807211926,2.4734735672653776,-3.4143141826545786,3.6654213211467024,1,right
6.941,-0.39717596103141956,0.6691124740934642,-0.16656105132098706,-4.762225833655793,-6.956009711890078,1.612767376545499,2.480183595223121,-3.4514842244000947,3.689619867003945,1,right
6.942,-0.38468683337388804,0.6806422630954911,-0.17196865417933352,-4.795002252681752,-6.964606562895808,1.6029997530741744,2.486285554840178,-3.4884540840172624,3.7123947482491375,1,right
6.946000000000001,-0.3720552676952083,0.6921177157205651,-0.17732875399874068,-4.82670053947971,-6.96903230799701,1.592836706844897,2.491772073262523,-3.5251801584868616,3.7337360301953653,1,right
6.947,-0.35928619155714264,0.7035334527372983,-0.18263827187126846,-4.85729094014869,-6.9693304811763115,1.5822702784927372,2.496635973489807,-3.561618233143165,3.7536345821173844,1,right
6.9510000000000005,-0.34638484317676776,0.7148841951081916,-0.18789413640185268,-4.886741861479146,-6.96554783563423,1.571292772906172,2.5008702778294283,-3.5977235426499696,3.772082085827496,1,right
6.952000000000001,-0.3333567725295273,0.7261647625086103,-0.19309328579081877,-4.91501995825622,-6.957734216443279,1.5598967790180536,2.5044682118605253,-3.6334508316139833,3.7890710433193697,1,right
6.952999999999999,-0.32020784220350507,0.7373700720355203,-0.19823266993769328,-4.942090230004687,-6.945942429014579,1.548075189211363,2.507423208921853,-3.668754414940151,3.8045947835369716,1,right
6.955,-0.3069442279508329,0.748495137102982,-0.20330925257187984,-4.967916124828607,-6.9302281052897,1.5358212183337192,2.509728915135691,-3.703588238032547,3.818647468321564,1,right
6.956,-0.2935724188769386,0.7595350665207413,-0.2083200134161112,-4.992459647184907,-6.910649570200031,1.5231284223219135,2.5113791949781072,-3.7379059369433567,3.8312240975855802,1,right
6.96,-0.28009921720067466,0.7704850637452308,-0.21326195038478613,-5.015681467237083,-6.887267710283386,1.5099907164280089,2.512368137404048,-3.7716608985712834,3.8423205137579437,1,right
6.961,-0.2665317375135342,0.7813404262854068,-0.21813208181349944,-5.0375410308905435,-6.860145845182241,1.496402393022003,2.51269006253387,-3.804806321009335,3.8519334055412005,1,right
6.965,-0.25287740546809323,0.7920965452467711,-0.22292744871092438,-5.057996670417931,-6.829349602095698,1.4823581389362728,2.5123395289060393,-3.837295274140486,3.86006031101658,1,right
6.966,-0.2391439558324469,0.8027489050038,-0.22764511702261303,-5.077005715741023,-6.794946793118164,1.46785305231405,2.5113113412988257,-3.8690807605780746,3.8666996201288555,1,right
6.97,-0.22533942985642252,0.8132930829985855,-0.23228217990204017,-5.0945246064319365,-6.757007295386957,1.4528826589228796,2.5096005591219086,-3.900115777046055,3.871850576578616,1,right
6.972,-0.21147217190650908,0.8237247496703923,-0.23683575999905956,-5.110509004492301,-6.715602933950516,1.437442927892707,2.5072025053768705,-3.93035337629234,3.875513279145288,1,right
6.975,-0.1975508253385884,0.8340396685279156,-0.24130301179527208,-5.124913907964916,-6.670807367258536,1.4215302868369142,2.504112776183621,-3.9597467296264357,3.8776886824599837,1,right
6.976,-0.18358432758857415,0.8442336963836655,-0.2456811240317589,-5.137693765428122,-6.622695975165217,1.405141636313288,2.5003272508678203,-3.9882491901704302,3.8783785972429725,1,right
6.979,-0.1695819044696343,0.854302783777168,-0.24996732228367635,-5.148802591418708,-6.571345749326796,1.388274363580564,2.495842102602409,-4.015814356910092,3.8775856900162946,1,right
6.98,-0.15555306367092347,0.8642429756185714,-0.2541588717383937,-5.15819408282464,-6.516835185864879,1.3709263556048203,2.490653809594356,-4.042396139630431,3.8753134822977735,1,right
6.985,-0.1415075874584122,0.8740504120855017,-0.25825308022699145,-5.165821736284234,-6.459244180157504,1.353096011268639,2.4847591668057403,-4.0679488248174795,3.8715663492784236,1,right
6.987,-0.1274555245860548,0.8837213298036259,-0.26224730153952147,-5.171638966623557,-6.398653923610605,1.3347822527345745,2.478155298196281,-4.092427142605409,3.8663495179809595,1,right
6.99,-0.11340718143603695,0.8932520633358677,-0.2661389390225623,-5.175599226358971,-6.335146802253441,1.31598453591309,2.4708396694723938,-4.115786334845219,3.8596690648929166,1,right
6.9910000000000005,-0.09937311241668924,0.9026390469964254,-0.2699254494195161,-5.177656126286609,-6.268806296992728,1.2967028599837376,2.4628101013258425,-4.137982224368329,3.8515319130636088,1,right
6.996,-0.08536410965003387,0.9118788169922828,-0.27360434688252894,-5.177763557175408,-6.199716885351592,1.2769377759169704,2.4540647831430085,-4.1589712855152845,3.8419458286499633,1,right
6.997000000000001,-0.07139119197495422,0.9209680138762513,-0.2771732070749809,-5.1758758125749535,-6.127963944511079,1.2566903939425833,2.444602287163751,-4.178710715996589,3.8309194168920495,1,right
6.999,-0.057465593277704057,0.9299033852747502,-0.28062967130215394,-5.1719477127439815,-6.053633655463839,1.2359623899093966,2.434421583066797,-4.197158510149331,3.8184621174949407,1,right
7.0,-0.04359875014139205,0.9386817888347957,-0.2839714506453966,-5.165934729699708,-5.976812908081667,1.2147560104794028,2.4235220529565225,-4.214273533649815,3.8045841993893967,1,right
7.005,-0.029802288783055735,0.9473001953198946,-0.2871963301095563,-5.157793113382495,-5.897589206890989,1.193074077098216,2.411903506723953,-4.230015599738804,3.789296754839705,1,right
7.006,-0.016088011223909585,0.9557556917744304,-0.29030217280339893,-5.147480018924463,-5.816050577342917,1.1709199886822796,2.3995661977527276,-4.244345547012283,3.7726116928629216,1,right
7.0089999999999995,-0.002467880619305045,0.9640454846740317,-0.2932869241535881,-5.134953635004674,-5.73228547235742,1.1482977229619218,2.3865108389273155,-4.257225318755874,3.7545417319418246,1,right
7.01,0.011045994333883646,0.9721669029904026,-0.29614861612263027,-5.12017331326742,-5.646382678914158,1.1252118364179777,2.372738618841741,-4.268618043442292,3.735100392120691,1,right
7.01,0.0244413759906239,0.9801174011203618,-0.2988853713806197,-5.10309969877389,-5.558431224455977,1.1016674627483458,2.358251218002408,-4.278488115368582,3.7143019867684517,1,right
7.015,0.03770591541834807,0.9878945616462266,-0.30149540736698693,-5.083694861451138,-5.4685202828646,1.0776703097994988,2.3430508247596076,-4.286801274050936,3.692161614400655,1,right
7.017,0.050827171176122884,0.9954960978998499,-0.30397704016009347,-5.0619224284958335,-5.37673907976193,1.0532266548966405,2.3271401507571854,-4.293524681345378,3.668695150836886,1,right
7.02,0.06379262924285249,1.002919856304774,-0.3063286880572814,-5.037747717611563,-5.283176797018618,1.028343338550688,2.3105224457903795,-4.298626995896866,3.643919241766925,1,right
7.021,0.076589724102255,1.0101638184804689,-0.3085488747722049,-5.011137870591567,-5.187922477016526,1.0030277567479668,2.293201512016774,-4.302078444869671,3.6178512956842255,1,right
7.021,0.08920586097439008,1.0172261031070342,-0.31063623217811215,-4.982061986103425,-5.091064928413425,0.9772878524394463,2.2751817174746596,-4.30385089297827,3.5905094771193493,1,right
7.023,0.10162843916416135,1.0241049675609797,-0.312589502547745,-4.950491250165047,-4.992692635823749,0.9511321070740903,2.256468008861082,-4.303917908833357,3.561912700102214,1,right
7.024,0.11384487646808696,1.0307988093407048,-0.3144075402548145,-4.9163990631546195,-4.892893675153782,0.9245695327906484,2.237065923519822,-4.302254828612813,3.532080621778307,1,right
7.029,0.125842634550065,1.0373061673058106,-0.3160893129195794,-4.87976116283859,-4.791755635117923,0.8976096654687741,2.216981600587551,-4.298838817062679,3.501033636100367,1,right
7.031000000000001,0.1376092451774879,1.043625722758238,-0.3176339020101506,-4.840555743254868,-4.689365544787771,0.8702625586101549,2.196221791244422,-4.293648925828277,3.4687928675134097,1,right
7.034,0.14913233720227795,1.0497563003944905,-0.31904050294195396,-4.798763569353251,-4.585809806887496,0.8425387779733647,2.1747938680133636,-4.286666149110639,3.4353801645474564,1,right
7.035,0.16039966417388526,1.0556968691555306,-0.3203084247357313,-4.754368087287796,-4.481174136545164,0.8144493968850144,2.1527058330503994,-4.277873476638387,3.400818093228821,1,right
7.039,0.1713991324804697,1.0614465429945605,-0.32143708929588505,-4.707355530248451,-4.375543505206038,0.7860059921486601,2.1299663253663734,-4.267255943940125,3.3651299302173685,1,right
7.04,0.182118829926446,1.0670045815750298,-0.3224260303618045,-4.657715019711859,-4.2690020894105825,0.7572206404718526,2.106584626918534,-4.254800679897242,3.328339655573827,1,right
7.042999999999999,0.19254705466515404,1.0723703909028035,-0.3232748921712518,-4.60543866198377,-4.161633224136728,0.7281059153306568,2.0825706675085507,-4.24049695155183,3.2904719450578996,1,right
7.044,0.20267234441185894,1.0775435238864044,-0.3239834278587781,-4.55052163989798,-4.053519360403164,0.6986748841899595,2.0579350284216527,-4.224336206139189,3.251552161854715,1,right
7.0489999999999995,0.21248350586279027,1.0825236808074437,-0.3245514975932158,-4.492962299529174,-3.9447420268277473,0.668941105996896,2.0326889447397463,-4.206312110309123,3.2116063476239822,1,right
7.05,0.2219696442403375,1.0873107096712895,-0.3249790664408144,-4.432762231769502,-3.835381794832775,0.6389186288637907,2.0068443062595436,-4.186420586494905,3.170661212763111,1,right
7.053,0.23112019287429642,1.0919046063973417,-0.32526620193672634,-4.369926348611092,-3.7255182471867148,0.6086219878560875,1.980413656944959,-4.164659846383485,3.1287441257725583,1,right
7.053999999999999,0.23992494271568937,1.096305514800351,-0.3254130713657296,-4.304462953969193,-3.615229949570069,0.5780662027998869,1.953410192841272,-4.141030421435144,3.0858831016086956,1,right
7.058,0.24837407166437175,1.100513726309261,-0.32541993878501135,-4.2363838088729695,-3.504594424851395,0.5472667760228734,1.9258477583768367,-4.11553519039545,3.0421067889066364,1,right
7.059,0.25645817357608625,1.1045296793677106,-0.32528716185332057,-4.165704190843502,-3.393688129758027,0.5162396899416313,1.8977408409764447,-4.088179403737009,2.9974444559526736,1,right
7.063,0.26416828680113275,1.1083539584620203,-0.3250151885574077,-4.092442947270931,-3.2825864336248554,0.48500140440760237,1.869104563908789,-4.058970704963133,2.9519259752832445,1,right
7.064,0.27149592209734,1.111987292731113,-0.32460455394941545,-4.016622542595221,-3.1713635989034796,0.45356885372324435,1.839954677288887,-4.027919148700186,2.905581806784741,1,right
7.068,0.2784330897552298,1.1154305541293645,-0.3240558770265688,-3.9382690990875178,-3.0600927631133166,0.42195944323929024,1.8103075471547456,-3.995037215500059,2.8584429791659236,1,right
7.068,0.2849723257721674,1.118684755135766,-0.3233698578940988,-3.8574124310217157,-2.9488459219156375,0.39019104544340727,1.780180142536046,-3.9603398232688694,2.8105410696722433,1,right
7.074,0.2911067169121795,1.121751046027738,-0.32254727535055155,-3.774086072018462,-2.837693912991191,0.35828199544999484,1.7495900204311359,-3.9238443352327104,2.761908181909003,1,right
7.075,0.29682992448622525,1.1246307117622818,-0.32158898502291966,-3.688327295336576,-2.726706400401913,0.3262510858003551,1.7185553086072045,-3.8855705643460334,2.712576921638007,1,right
7.077000000000001,0.3021362066835292,1.1273251685288903,-0.3204959181648503,-3.6001771268796836,-2.615951859117293,0.2941175604820135,1.6870946861371203,-3.845540774043012,2.662580370410162,1,right
7.077000000000001,0.30702043928260164,1.129835960055947,-0.31926908121806324,-3.509680350678762,-2.505497559386235,0.26190110807556277,1.6552273616372393,-3.803779675225712,2.611952056958179,1,right
7.077999999999999,0.31147813458200424,1.1321647537594839,-0.317909556219687,-3.416885506604329,-2.395409550635723,0.22962185393705667,1.6229730494298764,-3.7603144193708693,2.56072592659053,1,right
7.082999999999999,0.31550545841841704,1.1343133368171017,-0.3164185021131775,-3.3218448800551377,-2.285752644578273,0.197300351323684,1.5903519443221414,-3.7151745876195945,2.5089363094000485,1,right
7.084,0.31909924516212756,1.1362836122413702,-0.3147971569943151,-3.224614483363512,-2.1765903972109992,0.16495757137021755,1.5573846959523476,-3.6683921757024462,2.4566178884177505,1,right
7.087000000000001,0.3222570105830411,1.1380775950264925,-0.3130468413025317,-3.1252540287510864,-2.0679850894873413,0.13261489185315922,1.5240923833934104,-3.6200015745543355,2.4038056685217555,1,right
7.087999999999999,0.32497696248455704,1.1396974084407636,-0.3111689619503809,-3.0238268931634344,-1.9599977069294832,0.10029408482741851,1.4904964902323845,-3.570039546481359,2.3505349463353764,1,right
7.087999999999999,0.32725800902898033,1.1411452805251192,-0.30916501736905155,-2.9204000762078763,-1.852687919325289,0.06801730348676442,1.4566188800836162,-3.518545196743856,2.296841281027962,1,right
7.091,0.3290997647150408,1.142423540842737,-0.3070366034349342,-2.8150441529137815,-1.7461140621409383,0.03580706874732827,1.422481772439913,-3.4655599404167647,2.2427604658668474,1,right
7.0920000000000005,0.33050255399951806,1.143534617515466,-0.30478542023032507,-2.7078332225276274,-1.6403331207964538,0.003686255905462744,1.388107718765269,-3.4111274643838256,2.188328500367461,1,right
7.097,0.3314674125833444,1.1444810345745653,-0.30241327958305264,-2.5988448536472246,-1.535400718078889,-0.02832191854507432,1.3535195787318703,-3.3552936843177914,2.1335815628874126,1,right
7.098,0.33199608641196476,1.1452654096383288,-0.2999221133268803,-2.488160025492842,-1.4313711044842912,-0.0601939099994864,1.3187404965033651,-3.298106696494533,2.0785559835092857,1,right
7.101,0.3320910284641383,1.1458904519086204,-0.29731398222146416,-2.375863065007415,-1.3282971511846815,-0.09190585882407956,1.2837938769656962,-3.2396167242847658,2.02328821705584,1,right
7.102,0.3317553934165502,1.1463589604569433,-0.294591085458741,-2.262041579472913,-1.2262303453187233,-0.12343360352607874,1.2487033618061876,-3.1798760591631,1.9678148160804276,1,right
7.108,0.33099303027356514,1.1466738227526492,-0.291755770654651,-2.1467863843250816,-1.1252207873073459,-0.15475269410262746,1.2134928053410203,-3.118938996070248,1.9121724036746324,1,right
7.109,0.3298084730445929,1.1468380133735985,-0.2888105441767726,-2.0301914258441442,-1.0253171898983295,-0.18583840566001883,1.1781862499907594,-3.0568617629604677,1.856397645934437,1,right
7.111000000000001,0.328206929537433,1.1468545928333207,-0.2857580815913609,-1.9123536983946903,-0.926566878646748,-0.21666575239367594,1.142807901303176,-2.9937024443627474,1.8005272239256394,1,right
7.112,0.32619426831513954,1.1467267064585898,-0.28260123793769004,-1.7933731558838437,-0.8290157935412018,-0.24720950201879985,1.1073821024222672,-2.9295208987807926,1.7445978049887507,1,right
7.117000000000001,0.3237770038370635,1.1464575832567228,-0.2793430574704834,-1.6733526171029798,-0.7327084914889461,-0.2774441907409324,1.0719333079020974,-2.864378669753605,1.688646013223226,1,right
7.117999999999999,0.3209622797758542,1.1460505347192818,-0.27598678247002084,-1.5523976646146893,-0.6376881493763292,-0.30734413885493805,1.0364860567638823,-2.7983388903953554,1.63270839899061,1,right
7.121,0.31775785047988736,1.1455089535147918,-0.27253586071610264,-1.4306165368434125,-0.5439965674244004,-0.336883467060094,1.0010649446945998,-2.731466181230296,1.576821407276002,1,right
7.121,0.3141720605425237,1.1448363120295466,-0.2689939512590226,-1.30812001302518,-0.45167417256311443,-0.36603611357808946,0.965694595285345,-2.6638265411357063,1.5210213447471879,1,right
7.126,0.31021382244672113,1.1440361607285499,-0.26536492819071594,-1.1850212906692252,-0.3607600215512541,-0.3947758521597734,0.9303996302076509,-2.5954872312033137,1.4653443453508188,1,right
7.127999999999999,0.3058925922700848,1.1431121263302746,-0.2616528822096669,-1.0614358551818632,-0.2712918035730075,-0.42307631106545224,0.8952046382260747,-2.5265166513272117,1.4098263342851738,1,right
7.13,0.30121834345294757,1.1420679098135131,-0.25786211987420543,-0.9374813413009763,-0.1833058420460663,-0.4509109931024297,0.8601341429454905,-2.4569842093241143,1.3545029901892776,1,right
7.131,0.29620153864524024,1.1409072842926298,-0.2539971605473051,-0.8132773859877279,-0.09683709538015436,-0.4782532968022931,0.8252125691917513,-2.3869601823897697,1.2994097053885114,1,right
7.136,0.2908530996601854,1.1396340928014177,-0.25006273114858396,-0.6889454724207297,-0.01191915642904627,-0.5050765388191891,0.7904642079246639,-2.3165155706935514,1.2445815440373031,1,right
7.1370000000000005,0.2851843755850759,1.1382522460123439,-0.2460637589309019,-0.5646087647368302,0.07141574961660886,-0.5313539776289928,0.7559131795825839,-2.2457219429116306,1.1900531980000424,1,right
7.141,0.27920710914270147,1.136765719890277,-0.24200536256349472,-0.44039193316198416,0.15313676914398772,-0.5570588386078603,0.7215833957583621,-2.17465127349772,1.1358589403120303,1,right
7.142,0.27293340146697376,1.1351785532467529,-0.23789284181056197,-0.3164209691752915,0.23321442608419454,-0.5821643405671627,0.68749851910687,-2.103375771489175,1.082032576063031,1,right
7.145,0.2663756755413027,1.133494845133845,-0.23373166604534884,-0.19282299034929237,0.3116206301690966,-0.6066437238202319,0.6536819214648797,-2.0319677009569785,1.0286073906637012,1,right
7.146,0.2595466386086883,1.131718752004977,-0.22952746175911903,-0.06972603450994497,0.3883286877135927,-0.6304702798547044,0.6201566405646022,-1.960499194766044,0.9756160960403765,1,right
7.146,0.25245924388003993,1.129854484572359,-0.22528599914611322,0.052741157139574266,0.4633133151532963,-0.6536173826825266,0.5869453364426964,-1.889042066117346,0.923090776356382,1,right
7.15,0.2451266519030692,1.1279063042917978,-0.22101317779692167,0.17444936828603722,0.5365506555628154,-0.6760585219378864,0.5540702490472269,-1.817667623901724,0.8710628354434327,1,right
7.152,0.23756219206363405,1.125878519394536,-0.21671501152095937,0.2952691475176445,0.6080182983749364,-0.6977673377914613,0.5215531581459902,-1.7464464963363144,0.8195629475436877,1,right
7.155,0.22977932480946348,1.1237754803734215,-0.21239761233130586,0.41507106006345873,0.6776953023876919,-0.718717657724884,0.4894153459207238,-1.6754484645489347,0.7686210119127271,1,right
7.156000000000001,0.22179160519891192,1.1216015748344133,-0.20806717364165425,0.5337259494027564,0.7455622214993782,-0.7388835350946117,0.4576775622327805,-1.60474230621727,0.7182661112509002,1,right
7.156000000000001,0.21361264827608978,1.119361221644798,-0.20372995273708872,0.651105203572627,0.8116011314510851,-0.7582392892094417,0.4263599924669017,-1.5343956490584165,0.6685264738151682,1,right
7.162000000000001,0.20525609666547923,1.117058864333649,-0.19939225260256482,0.7670810191597309,0.8757956552092674,-0.7767595465310565,0.3954822278608112,-1.4644748339649687,0.6194294390651578,1,right
7.162999999999999,0.19673559073188196,1.1146989637221099,-0.19506040323795928,0.8815266577983267,0.9381309852575851,-0.7944192827174079,0.36506323822949843,-1.3950447875846799,0.571001426698833,1,right
7.165,0.18806474160707637,1.1122859897891606,-0.19074074264019655,0.994316693304103,0.9985939022174113,-0.8111938654292654,0.3351213469942659,-1.3261689041417455,0.5232679089349538,1,right
7.166,0.17925710727801053,1.1098244128181498,-0.1864395976679383,1.1053272494088082,1.0571727898530077,-0.8270590979305428,0.305674208427879,-1.257908936298991,0.47625338590133615,1,right
7.17,0.17032617178272125,1.1073186939124917,-0.18216326502094662,1.2144362284241836,1.1138576466404158,-0.8419912635330801,0.276738787028472,-1.1903248948616443,0.4299813639898474,1,right
7.171,0.16128532741336205,1.1047732750037824,-0.17791799257617774,1.3215235311589446,1.168640094073729,-0.8559671709340185,0.2483313389362314,-1.1234749571249636,0.38447433704106393,1,right
7.175,0.15214785970097278,1.1021925684974185,-0.17370996133062958,1.4264712684074534,1.221513381877007,-0.8689642004912937,0.22046739530830198,-1.0574153836697577,0.33975377022358305,1,right
7.176,0.14292693486127034,1.0995809467131032,-0.1695452681976936,1.5291639643232668,1.272472390284656,-0.8809603514800918,0.19316174756882482,-0.9922004434117727,0.2958400864751081,1,right
7.18,0.13363558931484595,1.0969427312872202,-0.16542990987561287,1.6294887519849346,1.3215136295476337,-0.8919342903703715,0.16642843445253494,-0.9278823467130254,0.2527526553746249,1,right
7.18,0.12428672085335603,1.094282182714047,-0.16136976794935748,1.7273355614552917,1.3686352368173602,-0.9018654001627414,0.14028073076190387,-0.8645111863654271,0.21050978431724293,1,right
7.184,0.11489308100073602,1.091603490210911,-0.157370595307304,1.8225973006290042,1.4138369705537186,-0.9107338308171048,0.11473113775941612,-0.8021348862594657,0.16912871186559064,1,right
7.185,0.10546726811221385,1.0889107620944254,-0.15343800386326983,1.9151700291563425,1.4571202025980243,-0.9185205508055582,0.0897913751182101,-0.7407991575532858,0.12862560315402544,1,right
7.19,0.09602172076249983,1.0862080168464294,-0.14957745348724102,2.0049531257240387,1.4984879080463287,-0.9252073998180252,0.0654723743559953,-0.6805474621602202,0.08901554722434343,1,right
7.19,0.0865687109998429,1.0834991750256542,-0.14579424197967905,2.091849448966664,1.5379446530529135,-0.9307771426460663,0.04178427367887359,-0.6214209833756832,0.05031255617414645,1,right
7.196000000000001,0.07712033708892221,1.0807880521437634,-0.14209349588655967,2.1757654922742473,1.5754965806883243,-0.9352135242671883,0.018736414163443106,-0.5634586034673152,0.01252956600154457,1,right
7.197,0.06768851543444107,1.0780783525753503,-0.13848016195059973,2.2566115327538485,1.6111513949707914,-0.9385013261488332,-0.0036626627926556916,-0.5066968880553829,-0.024321560967565062,1,right
7.199,0.058284971465761524,1.0753736645167793,-0.13495899902518638,2.3343017745945147,1.6449183431843966,-0.9406264237880057,-0.025405216819781,-0.4511700771136618,-0.06023003218079845,1,right
7.2,0.04892122936426255,1.072677455956263,-0.13153457033108082,2.4087544870764965,1.6768081965918857,-0.9415758454992547,-0.04648430879110989,-0.39691008242437137,-0.09518611959767892,1,right
7.206,0.03960860061817487,1.0699930715750925,-0.12821123600021364,2.4798921374567846,1.706833229644565,-0.9413378324604232,-0.0668937999675675,-0.34394649132417415,-0.12918115317096554,1,right
7.207000000000001,0.030358171479863177,1.0673237304736747,-0.1249931459155252,2.5476415189539776,1.7350071977863162,-0.9399019000222415,-0.08662835013531096,-0.2923065765817945,-0.1622075131740502,1,right
7.209,0.021180789466232443,1.0646725246080442,-0.12188423290996774,2.611933874046198,1.7613453139433644,-0.9372589002844666,-0.10568341479630923,-0.24201531225144562,-0.1942586214748244,1,right
7.21,0.012087049080871992,1.0620424178295924,-0.11888820642132358,2.672705013286255,1.7858642237860807,-0.9334010859378633,-0.12405524147063861,-0.19309539534997375,-0.22532893185365777,1,right
7.212999999999999,0.003087276948425836,1.0594362454373747,-0.11600854670806839,2.7298954298285323,1.80858197984379,-0.9283221753678806,-0.14174086515974735,-0.14556727315807072,-0.255413919448612,1,right
7.2139999999999995,-0.005808483463099918,1.0568567141741334,-0.11324849971705311,2.7834504098521604,1.8295180145482832,-0.9220174190124133,-0.15873810298084923,-0.09944917569300338,-0.2845100693495266,1,right
7.215,-0.01459048738914297,1.0543064026187992,-0.11061107266518304,2.8333201390549174,1.8486931122765087,-0.9144836669625546,-0.1750455479137865,-0.0547571524420501,-0.31261486425415524,1,right
7.218999999999999,-0.023249304460038478,1.0517877619420912,-0.1080990303695957,2.8794598053820444,1.8661293804577446,-0.9057194377917386,-0.19066256156258912,-0.01150511219305692,-0.339726771038016,1,right
7.22,-0.031775834392602266,1.0493031169954057,-0.10571489234206624,2.9218296981437057,1.8818502198054443,-0.8957249885951539,-0.20558926586912557,0.030295134940656672,-0.3658452261454675,1,right
7.223,-0.04016132250021036,1.0468546677019435,-0.1034609306484541,2.960395303516245,1.895880293718224,-0.8845023860799724,-0.21982653378111794,0.07063383373752795,-0.39097061981231895,1,right
7.224,-0.04839737482725106,1.0444444907187567,-0.10133916851976803,2.99512739567153,1.9082454968361688,-0.8720555778543536,-0.23337597891195697,0.109503238502698,-0.41510427918612036,1,right
7.225,-0.05647597273143709,1.0420745413393258,-0.09935137969131182,3.02600212143563,1.9189729226377688,-0.8583904618193617,-0.24623994423519902,0.14689756624073558,-0.438248450419165,1,right
7.229,-0.064389486743336,1.0397466556040438,-0.09749908843933165,3.0530010756270323,1.92809082990463,-0.8435149508753558,-0.25842148985464847,0.18281294848200325,-0.4604062798063851,1,right
7.23,-0.0721306894973109,1.0374625525773893,-0.09578357027730743,3.0761113649537073,1.9356286079296345,-0.8274390308399551,-0.2699243798889544,0.21724738187431478,-0.4815817940374758,1,right
7.233,-0.0796927674802705,1.0352238367396398,-0.09420585326958068,3.09532565966953,1.9416167404354638,-0.8101748107114746,-0.2807530685076831,0.2502006776472996,-0.501779879629741,1,right
7.234,-0.08706933132484358,1.0330320004350568,-0.0927667199222135,3.1106422329195587,1.946086768219082,-0.7917365650973098,-0.2909126851538684,0.281674410052645,-0.5210062616053228,1,right
7.239,-0.09425442438705,1.0308884263202809,-0.09146670961766323,3.1220649878405484,1.9490712505438987,-0.7721407687611177,-0.3004090189860949,0.31167186387913665,-0.5392674814736577,1,right
7.24,-0.10124252938244084,1.0287943897643548,-0.09030612156607887,3.129603472471889,1.9506037252968833,-0.7514061232392246,-0.3092485025712318,0.3401979811371672,-0.5565708745771949,1,right
7.242999999999999,-0.10802857290115815,1.0267510611626056,-0.0892850182479491,3.1332728825209806,1.9507186679235364,-0.7295535754733313,-0.31743819485701774,0.3672593070031351,-0.5729245468556236,1,right
7.242999999999999,-0.11460792767790531,1.0247595081383236,-0.08840322931936648,3.1330940520158754,1.9494514491493702,-0.7066063284032623,-0.32498576345178865,0.3928639351099195,-0.5883373510810825,1,right
7.247999999999999,-0.12097641255386592,1.022820697617843,-0.08766035594466373,3.129093431866885,1.9468382914923728,-0.6825898434602365,-0.33189946623675876,0.41702145226539283,-0.6028188626140809,1,right
7.247999999999999,-0.12713029013009444,1.0209354977765102,-0.08705577551443756,3.121303056347732,1.9429162245668616,-0.6575318348979369,-0.3381881323343976,0.4397428826767283,-0.6163793547271265,1,right
7.252999999999999,-0.13306626217238648,1.019104679864939,-0.08658864670030485,3.109760497495787,1.9377230391751648,-0.631462255895509,-0.3438611424546031,0.461040631754079,-0.6290297735403597,1,right
7.254,-0.13878146288244844,1.017328919935042,-0.08625791479141101,3.0945088074199707,1.931297240179702,-0.6044132763635567,-0.3489284086385505,0.48092842956304965,-0.6407817126108177,1,right
7.257999999999999,-0.14427345019513926,1.0156088004907835,-0.08606231725509544,3.0755964484940277,1.9236779981442815,-0.5764192523812144,-0.3534003534183043,0.49942127399126085,-0.6516473872143063,1,right
7.2589999999999995,-0.14954019529402715,1.0139448120882593,-0.0860003894698229,3.0530772114020936,1.914905099729775,-0.5475166871894752,-0.357287888408509,0.5165353736902173,-0.661639608356247,1,right
7.263,-0.15458007055749134,1.012337354905923,-0.08607047059385113,3.027010120992859,1.905018896825797,-0.5177441836631426,-0.3606023923447416,0.5322880908496456,-0.6707717565452864,1,right
7.265,-0.15939183615732735,1.0107867403022415,-0.0862707095539701,2.997459329888105,1.8940602543965854,-0.48714238818106564,-0.3633556885813928,0.5466978838574614,-0.6790577553609072,1,right
7.268,-0.16397462553500625,1.0092931923757429,-0.08659907115786991,2.964493999781052,1.882070497015967,-0.4557539258117127,-0.365560022060271,0.5597842498945673,-0.686512044843777,1,right
7.269,-0.1683279299814112,1.0078568495405773,-0.08705334234554707,2.9281881703497774,1.8690913540630962,-0.42362332672864017,-0.36722803575947627,0.5715676675097742,-0.6931495547350986,1,right
7.272,-0.1724515825461852,1.0064777661295121,-0.08763113859758333,2.88862061570095,1.8551649035475786,-0.3907969437680398,-0.3683727466304789,0.5820695392162836,-0.6989856775887953,1,right
7.273,-0.17634574150157473,1.0051559140357413,-0.08832991051297329,2.8458746882493546,1.8403335145296194,-0.3573228610382881,-0.3690075210297639,0.5913121341473697,-0.7040362417779787,1,right
7.277,-0.18001087358103154,1.0038911844035756,-0.08914695056118974,2.8000381499290663,1.824639788098006,-0.32325079348929575,-0.36914604964985953,0.5993185308051572,-0.7083174844148006,1,right
7.278,-0.18344773720593727,1.002683389374356,-0.09007940000699431,2.751202990622792,1.8081264968660091,-0.28863197734745943,-0.36880232195306845,0.606112559932711,-0.7118460242004844,1,right
7.282,-0.18665736590405738,1.0015322638879445,-0.09112425600371118,2.699465233686774,1.7908365229426833,-0.25351905132016,-0.36799060012905466,0.6117187475573437,-0.7146388342301018,1,right
7.2829999999999995,-0.18964105210252571,1.0004374675343484,-0.09227837885053558,2.6449247284397712,1.7728127943345795,-0.21796592847203825,-0.3667253926925225,0.6161622583560104,-0.7167132148245062,1,right
7.284,-0.1924003314444674,0.9993985864469783,-0.09353849941094346,2.5876849294760382,1.7540982197305235,-0.18202765867371049,-0.36502142800954823,0.6194688396819078,-0.7180867665498144,1,right
7.287999999999999,-0.194936967751611,0.9984151352283833,-0.09490122669092346,2.5278526626538875,1.7347356216198797,-0.1457602815221699,-0.3628936281362864,0.6216647666944994,-0.7187773636327778,1,right
7.289,-0.19725293875100142,0.9974865588994413,-0.09636305557596363,2.4655378776033787,1.7147676676926191,-0.10922066963085807,-0.36035708325596627,0.6227767889253327,-0.7188031279282525,1,right
7.292999999999999,-0.19935042268578446,0.9966122348639675,-0.09792037472491107,2.400853386951084,1.6942368005603805,-0.072466362464142,-0.35742702682512356,0.6228320784170246,-0.7181824035028388,1,right
7.294,-0.20123178591519847,0.9957914748832618,-0.09956947461875006,2.333914594263235,1.6731851663001605,-0.0355553922792697,-0.35411881144228646,0.6218581794630827,-0.7169337318467258,1,right
7.294,-0.20289957157948366,0.9950235270591632,-0.10130655576248397,2.2648392159608304,1.651654543156279,0.0014538937611976719,-0.35044788543186395,0.6198829599518171,-0.7150758277138559,1,right
7.297000000000001,-0.20435648937798723,0.9943075778301593,-0.10312773703547057,2.193747004264298,1.6296862721989527,0.038503009854813836,-0.3464297701348511,0.6169345643145576,-0.7126275555886655,1,right
7.297000000000001,-0.20560540648959696,0.993642753993248,-0.1050290641784488,2.1207594764080118,1.6073211912720047,0.07553350214060262,-0.34208003789688063,0.6130413680754428,-0.7096079067758551,1,right
7.301,-0.20664933964488313,0.9930281247723939,-0.10700651839768122,2.0459996520994412,1.5845995727251208,0.11248711203539538,-0.33741429074311,0.6082319339971638,-0.7060359771078915,1,right
7.3020000000000005,-0.2074914483312791,0.9924627039595829,-0.10905602506299991,1.9695917993811205,1.5615610649604845,0.14930593215360077,-0.33244813972843335,0.6025349698142558,-0.7019309452632508,1,right
7.306,-0.2081350290799095,0.9919454521556293,-0.11117346247781051,1.8916611886860302,1.5382446377296368,0.18593255491666005,-0.3271971849505568,0.5959792875428147,-0.6973120516867695,1,right
7.307,-0.20858351075125325,0.991475279135173,-0.11335467070145057,1.8123338548718906,1.5146885311153657,0.22231021395822104,-0.321676996212567,0.5885937643528831,-0.6921985781018798,1,right
7.312,-0.20884045070783608,0.9910510463529585,-0.11559546040353162,1.731736367015139,1.4909302081325289,0.2583829184306784,-0.31590309432076075,0.5804073049872035,-0.6866098276029833,1,right
7.313,-0.20890953173563678,0.9906715695960968,-0.11789162172499473,1.6499956057409886,1.4670063108809128,0.2940955803181756,-0.30989093300268344,0.5714488057075674,-0.6805651053147322,1,right
7.317,-0.20879455955387716,0.9903356217714396,-0.12023893311333188,1.567238547861956,1.4429526201825338,0.3293941348604519,-0.3036558814295532,0.5617471197476055,-0.6740836996035712,1,right
7.319,-0.20849946073727205,0.990041935801922,-0.12263317009184968,1.4835920580935944,1.4188040186352116,0.364225654191043,-0.2972132073265155,0.5513310242485646,-0.6671848638255258,1,right
7.321000000000001,-0.20802828086657543,0.9897892075942861,-0.1250701139162466,1.3991826876128874,1.3945944570137634,0.398538454292312,-0.29057806065349207,0.5402291886523976,-0.6598877985929149,1,right
7.322,-0.2073851827234838,0.9895760990352367,-0.12754556006659334,1.3141364792218353,1.370356923949796,0.43228219536859896,-0.2837654578387428,0.5284701445243573,-0.6522116345414082,1,right
7.3260000000000005,-0.20657444435492495,0.9894012409734814,-0.13005532651933718,1.228578778876214,1.346123418820795,0.46540797573744147,-0.2767902665466675,0.5160822567752349,-0.6441754155776533,1,right
7.327999999999999,-0.20560045684780026,0.9892632361496005,-0.13259526174374517,1.1426340533372947,1.3219249277790366,0.49786841933732756,-0.2696671909608176,0.5030936962514114,-0.6357980825865502,1,right
7.331,-0.20446772167667313,0.989160662043317,-0.13516125237190907,1.0564257137024766,1.2977914028507607,0.5296177569488129,-0.26241075756257914,0.4895324136590011,-0.6270984575761611,1,right
7.332000000000001,-0.20318084751323848,0.9890920736179236,-0.1377492304996393,0.9700759445693142,1.2737517440360555,0.5606119012240618,-0.25503530138552144,0.47542611478656194,-0.6180952282372133,1,right
7.336,-0.20174454641695702,0.9890560059532483,-0.14035518058360294,0.8837055385863138,1.249833784340004,0.5908085156179647,-0.24755495272497938,0.4608022369891207,-0.6088069328931682,1,right
7.337000000000001,-0.2001636293585294,0.9890509767700505,-0.14297514590603344,0.797433736143105,1.2260642776658242,0.6201670773119424,-0.23998362428205453,0.4456879268946138,-0.5992519458159046,1,right
7.341,-0.19844300105892004,0.9890754888582158,-0.145605234583435,0.7113780699521879,1.2024688895010036,0.6486489342193864,-0.2323349987208783,0.43011001929227927,-0.5894484628811931,1,right
7.3420000000000005,-0.19658765415572585,0.9891280324266228,-0.14824162510154174,0.6256542142743955,1.1790721903277772,0.676217356159392,-0.22462251661767715,0.4140950171610485,-0.5794144875373192,1,right
7.345,-0.19460266273683757,0.9892070873936104,-0.15088057136594749,0.540375838540487,1.1558976516897188,0.7028375802830432,-0.21685936477991996,0.3976690727945756,-0.569167817059443,1,right
7.346,-0.1924931753076066,0.9893111256352645,-0.15351840726676946,0.45565446512190577,1.1329676448467163,0.7284768508339887,-0.2090584649136031,0.3808579699782106,-0.5587260290615736,1,right
7.352,-0.19026440727935504,0.98943861320656,-0.15615155076603374,0.3715993310046869,1.1103034419511688,0.7531044533224323,-0.20123246261654643,0.3636871071719656,-0.548106468237371,1,right
7.353,-0.18792163308045812,0.9895880125481333,-0.1587765075252975,0.2883172531217702,1.08792521967888,0.7766917431889392,-0.19339371668513966,0.3461814816606331,-0.5373262333130208,1,right
7.354,-0.18547017799051033,0.9897577846886255,-0.16138987409483668,0.205912497100574,1.0658520652488208,0.7992121690316474,-0.18555428877043711,0.32836567467255984,-0.5264021642580927,1,right
7.355,-0.1829154097841524,0.9899463914499802,-0.16398834068445137,0.12448664918459035,1.0441019847666972,0.8206412904675701,-0.17772593350684673,0.31026383754216186,-0.5153508299135764,1,right
7.356,-0.18026273026075101,0.9901522976617414,-0.16656869353346865,0.04413849108997996,1.0226919138280781,0.8409567906956931,-0.16992008928518965,0.29189967903175423,-0.5041885162590541,1,right
7.36,-0.1775175667419902,0.9903739733896125,-0.16912781689641096,-0.035036122439341705,1.0016377303177104,0.8601384838265096,-0.1621478697933361,0.2732964538859256,-0.4929312154773339,1,right
7.361000000000001,-0.1746853636298933,0.9906098961822435,-0.17166269465999362,-0.11294438347934227,0.9809542693204538,0.878168317070389,-0.1544200563602344,0.25447695261625036,-0.48159461586069446,1,right
7.362,-0.17177157411444532,0.9908585533387333,-0.17417041160595362,-0.18949664761192514,0.9606553399496126,0.8950303680284176,-0.14674709109064635,0.23546349247192339,-0.4701940925393567,1,right
7.365,-0.16878165210340607,0.9911184441986393,-0.17664815433390008,-0.2646065456893419,0.9407537437003491,0.9107108376040719,-0.13913907076828447,0.21627790954292447,-0.4587446989998748,1,right
7.3660000000000005,-0.16572104443459512,0.991388082456469,-0.17909321186032306,-0.33819108825084276,0.921261293826298,0.9251980392052104,-0.1316057415051738,0.1969415519416973,-0.44726115936091443,1,right
7.37,-0.1625951834328126,0.9916659985029512,-0.18150297591492257,-0.41017076082399057,0.9021888353492281,0.9384823847480926,-0.12415649411521751,0.17747527400876917,-0.43575786137369865,1,right
7.37,-0.15940947987892612,0.9919507417947445,-0.18387494096255572,-0.48046960953130863,0.883546265511858,0.9505563676937623,-0.11680036019013174,0.1578994314872424,-0.42424885011426317,1,right
7.374,-0.15616931645418977,0.992240883251794,-0.18620670398635586,-0.5490153170809933,0.8653425545957271,0.9614145431892787,-0.10954600885612822,0.13823387761065406,-0.4127478223345623,1,right
7.376,-0.1528800417077514,0.9925350176776261,-0.18849596407431943,-0.6157392693483064,0.8475857670493532,0.9710535053519433,-0.10240174418996498,0.11849796004832693,-0.4012681214394101,1,right
7.38,-0.14954696457405017,0.9928317661935675,-0.1907405218568865,-0.6805766127494406,0.8302830828731431,0.9794718617311947,-0.09537550327325099,0.09871051865201765,-0.38982273305622367,1,right
7.38,-0.1461753494431425,0.9931297786737235,-0.19293827884321646,-0.743466302604625,0.8134408192087754,0.9866702049793562,-0.08847485486418365,0.07888988394741038,-0.37842428116455795,1,right
7.385,-0.14277041176433405,0.9934277361638495,-0.19508723669675468,-0.8043511426820091,0.7970644520820633,0.9926510817589246,-0.0817069986662115,0.059053876313800095,-0.367085024752482,1,right
7.386,-0.13933731414354714,0.9937243532646454,-0.1971854964790533,-0.8631778161084568,0.7811586382496053,0.9974189589105849,-0.07507876517345514,0.03921980579516115,-0.35581685496694454,1,right
7.388999999999999,-0.13588116287818416,0.9940183804593502,-0.19923125787966853,-0.9198969078277904,0.7657272371008489,1.0009801869026345,-0.06859661607307728,0.019404472485700187,-0.34463129272541054,1,right
7.39,-0.1324070048615931,0.9943086063673874,-0.20122281844264855,-0.9744629187812774,0.7507733325685362,1.0033429605790094,-0.06226664518517478,-0.0003758325670529891,-0.3335394867562191,1,right
7.396,-0.1289198247841776,0.9945938599097103,-0.20315857279758476,-1.0268342719792445,0.7362992550018455,1.0045172772196198,-0.05609457992116541,-0.020105325998558358,-0.322552212035318,1,right
7.398,-0.12542454255864913,0.9948730123762053,-0.20503701190420937,-1.076973310626663,0.722306602957903,1.0045148919232478,-0.05008578324206095,-0.03976873035987152,-0.31167986858726526,1,right
7.399,-0.121926010900686,0.9951449793899283,-0.20685672232084076,-1.1248462884593673,0.7087962648687154,1.0033492703198126,-0.04424525609845458,-0.05935127200333193,-0.30093248061865685,1,right
7.4,-0.11842901300211595,0.995408722765949,-0.2086163855052498,-1.1704233524412728,0.6957684405419414,1.0010355386154037,-0.038577640334503546,-0.07883867867797827,-0.2903196959524396,1,right
7.406000000000001,-0.11493826024037208,0.9956632522636811,-0.21031477715130342,-1.213678517966561,0.6832226624553117,0.9975904309701044,-0.033087222038656015,-0.09821717689114673,-0.2798507857318982,1,right
7.407,-0.11145838987396377,0.9959076272313389,-0.21195076655820674,-1.25458963670429,0.6711578168058827,0.9930322342052877,-0.027777935324354124,-0.11747348909247705,-0.2695346443634622,1,right
7.41,-0.1079939626792611,0.9961409581393659,-0.21352331602341418,-1.2931383572163075,0.6595721642767001,0.9873807298337763,-0.022653366524440617,-0.1365948307362785,-0.25937978966786485,1,right
7.41,-0.10454946048972175,0.9963624079959792,-0.21503148024618995,-1.3293100784726786,0.6484633604848277,0.9806571334030082,-0.017716758783505274,-0.1555689072778968,-0.24939436320959907,1,right
7.414,-0.10112928360418744,0.9965711936339958,-0.21647440572634807,-1.363093896382112,0.6378284760760792,0.9728840311381552,-0.012971017032926507,-0.1743839111593722,-0.23958613077505364,1,right
7.415,-0.09773774803587251,0.996766586855695,-0.217851330142044,-1.394482543448101,0.6276640164331654,0.9640853138690064,-0.008418713333893746,-0.19302851883929356,-0.2299624829701743,1,right
7.419,-0.09437908257994536,0.9969479154222332,-0.21916158169188982,-1.4234723216546594,0.6179659409653381,0.9542861082213484,-0.004062092574235221,-0.2114918879213295,-0.2205304359089815,1,right
7.42,-0.0910574256864528,0.9971145638762177,-0.22040457838928293,-1.4500630286786937,0.6087296819489709,0.9435127050505656,9.692149684330129e-05,-0.22976365441857685,-0.2112966319731017,1,right
7.42,-0.08777682213467089,0.9972659741897643,-0.22157982730014136,-1.4742578775191733,0.59995016288987,0.9317924850922361,0.004056719922782132,-0.24783393010594687,-0.20226734066458543,1,right
7.4239999999999995,-0.0845412195123764,0.9974016462337701,-0.22268692372003832,-1.496063409626377,0.5916218163794441,0.9191538418016312,0.007816001928966403,-0.2656932997603118,-0.19344845964969315,1,right
7.4239999999999995,-0.08135446451151664,0.9975211380657124,-0.223725550292596,-1.5154894016076115,0.5837386014181893,0.9056261013512272,0.01137376810457952,-0.2833328180031557,-0.18484551613348543,1,right
7.428999999999999,-0.07822029906275373,0.9976240660335804,-0.22469547607496876,-1.5325487656940966,0.5762940201961135,0.891239439850654,0.014729313422385468,-0.3007440055443249,-0.17646366866405278,1,right
7.43,-0.07514235634007531,0.9977101046943969,-0.22559655555592537,-1.5472574447227245,0.5692811343953071,0.8760247983410289,0.01788222012083781,-0.31791884477684773,-0.16830770939096806,1,right
7.43,-0.07212415666857197,0.997778986548492,-0.22642872762918095,-1.5596343034161362,0.5626925812148598,0.860013796995357,0.020832350461001174,-0.33484977475659145,-0.1603820667615757,1,right
7.434,-0.06916910337089958,0.9978305015950583,-0.22719201452306842,-1.569701018313644,0.5565205893938711,0.8432386504443806,0.023579839367923877,-0.3515296856167572,-0.15269080863104953,1,right
7.435,-0.06628047859889678,0.9978644967184493,-0.22788652068776843,-1.5774819681229046,0.5507569954352545,0.8257320856547158,0.02612508696551885,-0.36795191246653547,-0.14523764576279866,1,right
7.439,-0.06346143921067572,0.9978808749159226,-0.22851243164041934,-1.5830041252189906,0.5453932601005351,0.8075272629015422,0.028468751013428127,-0.38411022882254503,-0.13802593569646207,1,right
7.441,-0.06071501276015392,0.9978795943761658,-0.2290700127655557,-1.5862969484350076,0.5404204851727502,0.7886576998857593,0.030611739253764484,-0.39999883962095667,-0.13105868696140485,1,right
7.444,-0.058044093664089066,0.9978606674158031,-0.22955960806488526,-1.5873922771666644,0.5358294304708774,0.769157198945388,0.03255520167504353,-0.41561237385746724,-0.12433856361431236,1,right
7.444,-0.05545143960480441,0.9978241592794149,-0.2299816388472649,-1.586324226806726,0.5316105311003622,0.7490597773089932,0.0343005227000409,-0.4309458769015281,-0.1178678900801717,1,right
7.4479999999999995,-0.05293966821698189,0.9977701868072125,-0.23033660234711895,-1.5831290855188758,0.5277539149254403,0.7283996003369912,0.035849313303733255,-0.44599480253046064,-0.11164865627663098,1,right
7.4479999999999995,-0.0505112540956438,0.99769891697237,-0.2306250702589234,-1.5778452123542088,0.524249420250045,0.707210917694897,0.03720340306690913,-0.46075500472830255,-0.10568252300243612,1,right
7.452999999999999,-0.04816852615111452,0.9976105652874258,-0.23084768717828147,-1.5705129367073627,0.5210866136951572,0.6855280024008495,0.03836483217046688,-0.47522272929342246,-0.09997082757136139,1,right
7.454,-0.045913665325140525,0.9975053940777968,-0.23100516894581347,-1.5611744591031957,0.5182548082614997,0.6633850926881392,0.03933584333485302,-0.4893946052981277,-0.09451458967377073,1,right
7.457999999999999,-0.04374870267074467,0.997383710621073,-0.2310983008965625,-1.549873753298914,0.5157430815674838,0.640816336621938,0.040118873708535265,-0.503267636442657,-0.08931451744867361,1,right
7.457999999999999,-0.041675517789632695,0.9972458651526657,-0.23112793602383896,-1.5366564696806768,0.5135402942533,0.6178557394080223,0.040716546708851484,-0.5168391923451146,-0.0843710137498697,1,right
7.462999999999999,-0.039695837617226885,0.9970922487403903,-0.23109499307190381,-1.5215698399279483,0.5116351085429934,0.5945371133299457,0.041131663818029386,-0.5301069998080502,-0.07968418259050945,1,right
7.4639999999999995,-0.03781123554492362,0.9969232910318354,-0.2310004545754949,-1.5046625829132312,0.5100160069572869,0.5708940302499059,0.041367196336631926,-0.5430691341015335,-0.07525383575113286,1,right
7.4670000000000005,-0.03602313086814226,0.9967394578788046,-0.23084536486488863,-1.485984811799313,0.508671311170796,0.5469597766074152,0.04142627709615154,-0.5557240103017048,-0.07107949953698545,1,right
7.468,-0.03433278854514076,0.9965412488436473,-0.23063082805217808,-1.465587942290787,0.5075892010081406,0.5227673108488609,0.041312192131951996,-0.5680703747229134,-0.06716042167114712,1,right
7.475,-0.03274131924655862,0.996329194594351,-0.23035800600681033,-1.4435246019913919,0.5067577335742756,0.49834922322010555,0.04102837231724128,-0.5801072964806763,-0.06349557831074547,1,right
7.476,-0.03124967967176366,0.9961038541992059,-0.23002811631797915,-1.4198485408136214,0.5061648625151515,0.473737697853443,0.04057838495825242,-0.5918341592218085,-0.06008368117426026,1,right
7.477,-0.0298586731071657,0.9958658123362158,-0.2296424302337429,-1.3946145423821201,0.5057984574055732,0.4489644770794799,0.03996592535031164,-0.6032506530571928,-0.05692318476865848,1,right
7.478,-0.028568950204349693,0.9956156764353997,-0.22920227056558765,-1.3678783363676037,0.5056463232618393,0.4240608278938665,0.03919480829398654,-0.614356766731764,-0.05401229370582893,1,right
7.483,-0.027381009961549473,0.9953540737733375,-0.22870900955148923,-1.3396965116834028,0.505696220177435,0.3990575105082431,0.03826895957002919,-0.6251527800653957,-0.05134897009851166,1,right
7.483,-0.026295200898852095,0.9950816485397475,-0.22816406667660707,-1.3101264304722635,0.5059358830806978,0.37398474891430206,0.03719240737136322,-0.635639256697487,-0.04893094102663908,1,right
7.487,-0.025311722423841797,0.9947990588961745,-0.22756890645459882,-1.2792261428067162,0.5063530416139952,0.34887220338948943,0.03596927369514178,-0.6458170371543079,-0.046755706065268826,1,right
7.4879999999999995,-0.024430626388971366,0.9945069740459034,-0.22692503617236615,-1.247054302022181,0.5069354401345281,0.3237489448725852,0.03460376572362787,-0.6556872321930389,-0.0448205448637323,1,right
7.489,-0.023651818844548846,0.9942060713314645,-0.22623400359860335,-1.213670080597986,0.5076708578374245,0.2986434311371969,0.03310016726931974,-0.6652512162599341,-0.04312252476224693,1,right
7.492000000000001,-0.022975061993563507,0.9938970333743721,-0.22549739465477495,-1.1791330864976575,0.5085471290022946,0.27358348469108823,0.03146283038549192,-0.6745106208349193,-0.04165850843067023,1,right
7.492999999999999,-0.02239997635802886,0.9935805452733062,-0.2247168310478562,-1.1435032798761868,0.5095521633648936,0.2485962723292325,0.02969616721674474,-0.6834673274982833,-0.04042516151702991,1,right
7.497000000000001,-0.021926043169255872,0.9932572918795847,-0.22389396786758578,-1.1068408900585005,0.5106739666159797,0.22370828626852773,0.027804642116654916,-0.6921234606698623,-0.03941896029822528,1,right
7.499,-0.021552606993788297,0.9929279551693231,-0.22303049115501472,-1.069206332744092,0.5119006610134653,0.19894532679637175,0.025792764033066757,-0.7004813800344751,-0.03863619932823356,1,right
7.499,-0.0212788786026384,0.9925932117295712,-0.2221281154504682,-1.0306601276598795,0.5132205060123674,0.17433248638615043,0.023665079155958498,-0.7085436726793439,-0.03807299908027052,1,right
7.502000000000001,-0.02110393808641028,0.9922537303723391,-0.2211885813267065,-0.9912628173668154,0.5146219186698667,0.14989413527014075,0.02142616382245959,-0.7163131449683717,-0.03772531358000683,1,right
7.502999999999999,-0.02102673821463926,0.9919101698880961,-0.2202136529091535,-0.9510748881932158,0.5160934935011237,0.12565390848133678,0.01908061767324923,-0.7237928141772926,-0.03758893802758321,1,right
7.507000000000001,-0.021046108033455403,0.9915631769493081,-0.21920511538173534,-0.9101566939949297,0.5176240215437281,0.10163469435548816,0.016633057054233572,-0.7309858999128614,-0.03765951640679766,1,right
7.507999999999999,-0.021160756690760455,0.9912133841720719,-0.2181647724748438,-0.8685683829535817,0.5192025085364319,0.07785862444797455,0.014088108657079873,-0.7378958153384099,-0.03793254908045699,1,right
7.513,-0.021369277473926286,0.9908614083388473,-0.21709444393185606,-0.8263698273516211,0.5208181921999723,0.05434706480005906,0.01145040339187928,-0.7445261582272623,-0.03840340037149137,1,right
7.513999999999999,-0.021670152043015273,0.9905078487800582,-0.21599596295333648,-0.7836205562067569,0.5224605586243609,0.031120608485567778,0.008724570484917085,-0.7508807018646824,-0.0390673061300251,1,right
7.517,-0.022061754841943768,0.9901532859087441,-0.214871173621875,-0.7403796906464372,0.5241193577671486,0.008199069369738769,0.005915231794249437,-0.7569633858182083,-0.039919381287177855,1,right
7.518,-0.022542357669287222,0.9897982799003209,-0.21372192831153342,-0.696705881901276,0.5257846180672856,-0.014398522987257245,0.003026996335519084,-0.7627783065954336,-0.04095462739693888,1,right
7.522,-0.023110134389231762,0.9894433695083688,-0.2125500850826219,-0.6526572517947455,0.5274466601792738,-0.03665392734880543,6.445501018947977e-05,-0.7683297082074944,-0.04216794016801072,1,right
7.522,-0.023763165761673425,0.989089071006694,-0.21135750505754616,-0.6082913356050434,0.5290961098323528,-0.058549693808151,-0.0029678244718632793,-0.7736219726557481,-0.04355411698805961,1,right
7.526,-0.024499444368190158,0.9887358772476774,-0.21014604976955287,-0.5636650271737954,0.5307239098194851,-0.08006916584739657,-0.006065302483687937,-0.7786596103583562,-0.045107864443335484,1,right
7.527,-0.025316879607890315,0.9883842568278443,-0.20891757847494252,-0.518834526135178,0.5323213311208935,-0.10119648151308895,-0.009223472195025726,-0.7834472505327288,-0.04682380583713584,1,right
7.531000000000001,-0.02621330273545614,0.9880346533541657,-0.20767394542241907,-0.4738552871381314,0.5338799831668687,-0.1219165737712603,-0.012437864117209355,-0.7879896315490431,-0.04869648871108436,1,right
7.532,-0.027186471913374005,0.987687484808153,-0.20641699708089406,-0.42878197093358494,0.5353918232445068,-0.142215170103709,-0.015704050488081826,-0.7922915912693187,-0.050720392373676,1,right
7.5360000000000005,-0.028234077249889463,0.9873431430078851,-0.205148569335668,-0.3836683971980287,0.5368491650529472,-0.16207879140618098,-0.019017649505998054,-0.7963580573858128,-0.05288993544100643,1,right
7.5360000000000005,-0.02935374579312769,0.9870019931698684,-0.2038704846679046,-0.3385674989643348,0.5382446864115685,-0.18149475024794423,-0.02237432942213385,-0.800194037771795,-0.05519948339505349,1,right
7.541,-0.0305430464520628,0.9866643735734206,-0.20258454933251346,-0.29353127853046135,0.5395714361254728,-0.20045114855103974,-0.025769812500475688,-0.8038046108570708,-0.057643356165312916,1,right
7.542000000000001,-0.031799494817984574,0.9863305953307651,-0.20129255054717082,-0.2486107647165536,0.5408228400124259,-0.21893687474624432,-0.029199878855001023,-0.8071949160399456,-0.06021583574000859,1,right
7.545,-0.03312055786451502,0.986000942266403,-0.19999625370313004,-0.2038559713409913,0.5419927060952501,-0.2369416004614969,-0.03266037017368282,-0.810370144146662,-0.06291117381349996,1,right
7.546,-0.03450365850892035,0.9856756709093122,-0.198697399608086,-0.1593158567861153,0.5430752289634642,-0.2544557767972206,-0.036147193339063466,-0.8133355279486911,-0.06572359947689475,1,right
7.5520000000000005,-0.03594618002271072,0.9853550106010266,-0.19739770177172758,-0.11503828452469629,0.5440649933077545,-0.27147063024162343,-0.039656323955242836,-0.8160963327476308,-0.06864732695924469,1,right
7.553999999999999,-0.03744547028506969,0.985039163721878,-0.1960988437440692,-0.07106998447868275,0.5449569766306241,-0.2879781582776791,-0.0431838097912127,-0.8186578470368406,-0.07167656342705486,1,right
7.555,-0.038998845877726146,0.9847283060366985,-0.19480247651522267,-0.02745651508237915,0.5457465511363186,-0.30397112473208326,-0.0467257741505456,-0.8210253732483476,-0.07480551685017346,1,right
7.557,-0.040603596024185985,0.9844225871600777,-0.19351021598447346,0.015757774077042326,0.5464294848028604,-0.3194430549150469,-0.05027841917344815,-0.8232042185950534,-0.07802840393470578,1,right
7.557,-0.042256986379599876,0.9841221311402144,-0.1922236405064828,0.05852977916790802,0.5470019416387444,-0.3343882305983325,-0.05383802905693067,-0.825199686028166,-0.0813394580851846,1,right
7.563,-0.04395626268008217,0.9838270371596132,-0.19094428852098555,0.10081767869648105,0.5474604811265557,-0.3488016848774638,-0.057400973142326756,-0.827017065348041,-0.08473293728882937,1,right
7.564,-0.045698654263275865,0.9835373803501165,-0.18967365626888688,0.142580969887522,0.5478020568554595,-0.36267919696254186,-0.0609637087991159,-0.8286616245165417,-0.08820313177628213,1,right
7.565,-0.0474813774760035,0.9832532127193263,-0.18841319559460623,0.18378050492143655,0.5480240143482614,-0.3760172869244774,-0.06452278405433401,-0.830138601208033,-0.0917443713521756,1,right
7.566,-0.04930163898780312,0.9829745641858154,-0.18716431183311089,0.22437852676349795,0.5481240881086938,-0.3888132103413502,-0.0680748399534261,-0.8314531946167938,-0.09535103235881262,1,right
7.566,-0.05115663902962289,0.9827014437204671,-0.1859283617789665,0.2643387037402678,0.5481003979507691,-0.4010649526430413,-0.07161661265870631,-0.8326105575276767,-0.09901754427517034,1,right
7.57,-0.05304357457764694,0.9824338405888529,-0.18470665173310374,0.30362616169513246,0.5479514446919886,-0.4127712228701631,-0.07514493529564227,-0.8336157886542651,-0.10273839596139031,1,right
7.57,-0.05495964250459966,0.9821717256849195,-0.18350043562153537,0.34220751287473716,0.5476761052715566,-0.42393144664233035,-0.07865673955716096,-0.8344739252483189,-0.10650814155910333,1,right
7.575,-0.056902042721630984,0.9819150529414308,-0.1823109131795982,0.38005088127513104,0.547273627317873,-0.4345457582742782,-0.08214905707614374,-0.8351899359838434,-0.11032140605811035,1,right
7.577000000000001,-0.05886798133166506,0.9816637607989324,-0.18113922819608558,0.417125924496095,0.5467436231689342,-0.4446149920573418,-0.08561902057623991,-0.8357687141186795,-0.11417289054009638,1,right
7.581,-0.060854673813086825,0.9814177737132593,-0.17998646681528052,0.4534038522144186,0.5460860633448487,-0.4541406727383575,-0.08906386481108083,-0.8362150709360925,-0.11805737711019545,1,right
7.581,-0.0628593482519177,0.9811770036828489,-0.17885365590154487,0.4888574413847738,0.5453012694713094,-0.4631250052264797,-0.09248092730192105,-0.8365337294684243,-0.12196973352734979,1,right
7.585,-0.06487924863844141,0.9809413517807349,-0.17774176147737925,0.5234610482746307,0.5443899066525018,-0.47157086355684313,-0.09586764888366861,-0.836729318504485,-0.12590491754451605,1,right
7.586,-0.06691163823909815,0.9807107096789042,-0.1766516872474451,0.5571906174373733,0.5433529752915578,-0.4794817791384403,-0.099221574069195,-0.8368063668819742,-0.129857980969867,1,right
7.591,-0.06895380304741619,0.9804849611520152,-0.17558427321699324,0.5900236877254088,0.542191802356304,-0.4868619283120283,-0.10254035124173551,-0.8367692980658598,-0.13382407346021635,1,right
7.5920000000000005,-0.07100305530994303,0.9802639835437952,-0.17454029440626065,0.6219393954426254,0.5409080320876868,-0.4937161192423374,-0.10582173268510386,-0.8366224250132827,-0.13779844605796154,1,right
7.595,-0.07305673711526049,0.9800476491752009,-0.1735204596568709,0.6529184747330466,0.5395036161478991,-0.5000497781673152,-0.1090635744613511,-0.8363699453252207,-0.14177645448288959,1,right
7.596,-0.07511222402724839,0.9798358266708445,-0.17252541052541825,0.6829432552999571,0.5379808032048776,-0.5058689350256177,-0.1122638361453976,-0.8360159366848133,-0.14575356219022945,1,right
7.601,-0.07716692873959768,0.9796283821803008,-0.17155572026389534,0.7119976575471445,0.5363421279494848,-0.51118020848205,-0.11542058042606032,-0.8355643525819352,-0.14972534320635827,1,right
7.602,-0.07921830472847517,0.9794251804742026,-0.17061189289431025,0.7400671852312136,0.5345903995413464,-0.5159907903691642,-0.1185319725827839,-0.8350190183233012,-0.15368748475357952,1,right
7.605,-0.08126384988337981,0.9792260859011824,-0.16969436239272576,0.7671389157111922,0.5327286894789772,-0.520308429561745,-0.12159627984726475,-0.8343836273270955,-0.15763578967538852,1,right
7.606,-0.08330111010124275,0.9790309631992992,-0.16880349200416486,0.7932014878788607,0.5307603188894916,-0.5241414152994578,-0.12461187065903258,-0.8336617377008338,-0.16156617867362605,1,right
7.611000000000001,-0.08532768283541597,0.9788396781631447,-0.16793957371407706,0.8182450878504165,0.528688845232873,-0.5274985599714943,-0.1275772138239242,-0.8328567691009027,-0.16547469236889323,1,right
7.612,-0.08734122059832433,0.9786520981750606,-0.16710282790427528,0.8422614324972179,0.526518048415463,-0.530389181375637,-0.13049087758424868,-0.831971999871956,-0.16935749319556104,1,right
7.614,-0.08933943442149134,0.9784680926152323,-0.1662934032204144,0.8652437508904546,0.5242519163070222,-0.5328230844627725,-0.13335152860930377,-0.8310105644641034,-0.17321086714265724,1,right
7.615,-0.09132009727740018,0.9782875331688657,-0.16551137667319982,0.8871867637316745,0.5218946296554196,-0.5348105425765202,-0.136157930914759,-0.8299754511255844,-0.17703122535185029,1,right
7.619,-0.09328104746537397,0.9781102940480114,-0.1647567539868257,0.9080866608381434,0.5194505463927241,-0.5363622781962973,-0.13890894471927287,-0.8288694998683949,-0.1808151055836768,1,right
7.62,-0.09522019196115994,0.9779362521424754,-0.16402947019758757,0.9279410767490452,0.5169241853261967,-0.5374894431908378,-0.141603525246559,-0.8276954007041082,-0.1845591735630742,1,right
7.625,-0.09713550972767969,0.9777652871110256,-0.16332939049665676,0.946749064515557,0.5143202092074199,-0.5382035985878966,-0.1442407214809617,-0.8264556921469246,-0.18826022421518593,1,right
7.626,-0.09902505498092182,0.9775972814213264,-0.16265631130575472,0.9645110677348271,0.5116434071725556,-0.5385166938646201,-0.1468196748844406,-0.8251527599807785,-0.19191518280230271,1,right
7.626,-0.1008869604006353,0.9774321203442284,-0.162009961571801,0.9812288908848951,0.5088986765464796,-0.5384410457618473,-0.1493396180815142,-0.8237888362893255,-0.1955211059695955,1,right
7.631,-0.10271944027305754,0.9772696919053667,-0.1613900042654031,0.9969056680145828,0.5060910040033264,-0.5379893166244176,-0.15179987351259955,-0.8223659987583952,-0.19907518269170946,1,right
7.632000000000001,-0.10452079355329902,0.977109886795198,-0.16079603806884724,1.0115458298393873,0.5032254460757638,-0.5371744922684121,-0.1541998520453122,-0.8208861702800301,-0.20257473508432244,1,right
7.635,-0.10628940683492762,0.9769525982380989,-0.16022759924115768,1.025155069291407,0.5003071090051227,-0.5360098593751378,-0.15653905152717487,-0.819351118898005,-0.20601721902916725,1,right
7.635,-0.10802375721013116,0.9767977218221463,-0.15968416364883206,1.037740305568346,0.4973411279243275,-0.5345089824105854,-0.15881705526895845,-0.8177624581236009,-0.20940022457633162,1,right
7.636,-0.10972241499737323,0.976645155293551,-0.15916514895138892,1.0493096467467027,0.4943326453973972,-0.5326856800801898,-0.16103353045841182,-0.816121647630528,-0.21272147611532746,1,right
7.638999999999999,-0.1113840463105898,0.976494798321706,-0.15866991693224258,1.0598723511364663,0.4912867894990872,-0.5305540013884282,-0.1631882265099103,-0.8144299943267835,-0.21597883232172113,1,right
7.64,-0.1130074154465335,0.9763465522413528,-0.15819777596715315,1.0694387877590303,0.48820865190602275,-0.5281282014811005,-0.16528097335656577,-0.8126886537988827,-0.2191702858890382,1,right
7.643,-0.11459138706865421,0.9762003197796301,-0.15774798362296455,1.0780203964422912,0.4851032666305015,-0.5254227175079196,-0.1673116796911654,-0.8108986321237512,-0.22229396305547902,1,right
7.644,-0.11613492816109591,0.9760560047793194,-0.15731974937763368,1.0856296479088365,0.48197558986808786,-0.5224521446814466,-0.16928033116212843,-0.8090607880434246,-0.22534812293479842,1,right
7.649,-0.11763710971816338,0.975913511932526,-0.1569122374497887,1.092280004022943,0.4788304811421087,-0.5192312125982829,-0.171186988530493,-0.8071758354975505,-0.22833115666051365,1,right
7.65,-0.11909710812940075,0.9757727465384177,-0.15652456972495918,1.0979858782440977,0.4756726857681318,-0.5157747618269205,-0.17303178579376605,-0.805244346508557,-0.23124158635241066,1,right
7.653,-0.1205142062195403,0.9756336142961878,-0.156155828767448,1.1027625963089325,0.47250681862945176,-0.5120977207537494,-0.17481492828229253,-0.8032667544142087,-0.23407806391411828,1,right
7.654,-0.12188779390428842,0.9754960211425178,-0.1558050609099077,1.1066263571607076,0.4693373492545593,-0.5082150826779996,-0.17653669073362097,-0.8012433574421325,-0.23683936967031732,1,right
7.659,-0.12321736842729636,0.9753598731411521,-0.15547127941486458,1.1095941941427683,0.46616858818753176,-0.5041418831457228,-0.17819741535016612,-0.799174322620771,-0.23952441085194207,1,right
7.66,-0.12450253415231617,0.9752250764301124,-0.15515346770281976,1.1116839364697322,0.4630046746422605,-0.4998931775122799,-0.1797975098452907,-0.7970596900210797,-0.24213221993752024,1,right
7.664,-0.12574300189742083,0.9750915372301227,-0.15485058264063026,1.1129141709875419,0.4598495654314184,-0.4954840187222152,-0.18133744548275443,-0.7948993773231563,-0.2446619528585816,1,right
7.665,-0.12693858781287176,0.9749591619158554,-0.1545615578827988,1.113304204230949,0.4567070251610738,-0.49092943529484806,-0.18281775511430123,-0.7926931847018591,-0.2471128870768463,1,right
7.667999999999999,-0.12808921181819768,0.9748278571492791,-0.1542853072573736,1.112874024784472,0.4535806176818708,-0.48624440950340814,-0.18423903121998197,-0.7904408000253388,-0.2494844195406829,1,right
7.669,-0.1291948956255458,0.9746975300722571,-0.15402072818694496,1.1116442659504036,0.4504736987877195,-0.4814438557350816,-0.1856019239556387,-0.7881418043602776,-0.2517760645281016,1,right
7.672999999999999,-0.13025576038407993,0.9745680885535284,-0.1537667051339098,1.1096361687250316,0.4473894101529771,-0.47654259901891505,-0.1869071392118035,-0.7857956777774966,-0.25398745138332246,1,right
7.675,-0.1312720239840244,0.9744394414826667,-0.1535221130579688,1.106871545081882,0.44433067449914454,-0.4715553537081514,-0.18815543668809626,-0.7834018054514617,-0.2561183221537302,1,right
7.678999999999999,-0.13224399805948098,0.9743114991015168,-0.15328582087251166,1.1033727415584962,0.44130019198216053,-0.46649670230323853,-0.1893476279870388,-0.7809594840470805,-0.2581685291337979,1,right
7.68,-0.13317208472638073,0.9741841733633375,-0.15305669488505536,1.0991626031410213,0.43830043779143996,-0.4613810744014629,-0.19048457473103564,-0.7784679283870506,-0.2601380323223323,1,right
7.684,-0.13405677308694033,0.9740573783108668,-0.15283360220528378,1.09426443743872,0.4353336609518746,-0.45622272575891154,-0.19156718670610964,-0.7759262783928794,-0.26202689679916097,1,right
7.685,-0.13489863552776243,0.9739310304653026,-0.15261541410290158,1.0887019791383974,0.432401884320095,-0.45103571745026266,-0.19259642003581937,-0.7733336062925579,-0.26383529002715206,1,right
7.687,-0.13569832383747582,0.9738050492183268,-0.15240100929696962,1.0824993547266997,0.4295069057663827,-0.44583389511173827,-0.19357327538862576,-0.7706889240877312,-0.2655634790852235,1,right
7.688,-0.13645656517096622,0.9736793572189177,-0.15218927715878383,1.0756810474662681,0.4266503005337126,-0.44063086825243175,-0.19449879622182087,-0.7679911912730593,-0.2672118278377688,1,right
7.692,-0.13717415788832382,0.9735538807460375,-0.15197912081291898,1.0682718626098155,0.4238334247655087,-0.4354399896191388,-0.19537406706497712,-0.7652393228003198,-0.2687807940456954,1,right
7.693,-0.13785196729642363,0.9734285500581911,-0.1517694601275999,1.0602968928343646,0.42105742019379844,-0.43027433459977754,-0.19620021184572548,-0.7624321972796514,-0.27027092642403994,1,right
7.694,-0.13849092132063825,0.9733032997122854,-0.1515592345939424,1.0517814838761101,0.418323219979564,-0.42514668065047956,-0.19697839226004388,-0.7595686654042179,-0.27168286165117167,1,right
7.6979999999999995,-0.13909200613336745,0.97317806884697,-0.1513474060983728,1.0427512003446782,0.41563155569719934,-0.4200694867314684,-0.19770980618669035,-0.7566475585545647,-0.2730173213357343,1,right
7.699,-0.13965626176366858,0.9730528014285921,-0.15113296159217313,1.0332317916939238,0.41298296545510144,-0.4150548727369136,-0.19839568614095296,-0.7536676974850514,-0.27427510894971624,1,right
7.702999999999999,-0.14018477771040183,0.9729274464604173,-0.1509149156600727,1.0232491583248626,0.4103778031445427,-0.4101145989040559,-0.19903729776034884,-0.750627900964736,-0.27545710673718277,1,right
7.704,-0.14067868858159902,0.972801958157655,-0.15069231298877017,1.0128293178079226,0.40781624878588585,-0.4052600452126528,-0.19963593831717125,-0.7475269942747668,-0.2765642726066122,1,right
7.706,-0.14113916978138896,0.9726762960918219,-0.15046423073603382,1.0019983712756797,0.40529831982529624,-0.40050219091401024,-0.20019293525697687,-0.7443638175178995,-0.27759763701209467,1,right
7.707999999999999,-0.14156743325962762,0.9725504253081252,-0.15022978080091406,0.9907824701535867,0.40282388302637395,-0.39585159455954855,-0.2007096447643785,-0.7411372337254369,-0.2785582998270642,1,right
7.709,-0.14196472333068177,0.9724243164191924,-0.1499881119961774,0.9792077834603276,0.40039266648522015,-0.39131837502713535,-0.2011874503578661,-0.7378461367526762,-0.2794474272137481,1,right
7.712000000000001,-0.14233231255922657,0.9722979456774199,-0.14973841212686495,0.9673004658428688,0.3980042714136103,-0.3869121939156557,-0.2016277615152588,-0.734489458953779,-0.28026624849130305,1,right
7.712000000000001,-0.14267149770302312,0.9721712950266345,-0.14947990998419347,0.9550866263924972,0.39565818354392734,-0.38264223944812786,-0.20203201233127543,-0.7310661786267902,-0.2810160530054016,1,right
7.718,-0.14298359569652114,0.9720443521329246,-0.1492118772692652,0.9425922982217265,0.39335378412566313,-0.37851721189597115,-0.2024016602085992,-0.7275753272193491,-0.2816981870018248,1,right
7.718999999999999,-0.14326993965617332,0.9719171103949171,-0.14893363046318048,0.9298434087679194,0.391090360506626,-0.3745453105117861,-0.20273818458370474,-0.7240159962854482,-0.282314050506417,1,right
7.722,-0.14353187488873378,0.9717895689341336,-0.14864453265895475,0.9168657507885952,0.3888671162921132,-0.37073422195840067,-0.20304308568861146,-0.7203873441834033,-0.2828650942135587,1,right
7.723,-0.1437707548863199,0.9716617325652814,-0.1483439953671259,0.9036849540125887,0.3866831810754269,-0.36709111022235014,-0.20331788334962864,-0.7166886025050044,-0.2833528163851208,1,right
7.728,-0.1439879372946996,0.9715336117449068,-0.148031480301088,0.8903264574104873,0.38453761973323064,-0.3636226080003961,-0.20356411582406225,-0.7129190822256211,-0.28377875976167244,1,right
7.729,-0.14418477984283432,0.9714052224959591,-0.1477065011415935,0.8768154820471235,0.3824294412793557,-0.36033480954815256,-0.20378333867576284,-0.7090781795648355,-0.2841445084875284,1,right
7.732,-0.1443626362223189,0.9712765863063357,-0.14736862527581526,0.8631770044783106,0.38035760727078366,-0.3572332649803674,-0.20397712369030638,-0.7051653815469789,-0.2844516850510405,1,right
7.733,-0.14452285190624967,0.9711477300018081,-0.14701747550546052,0.8494357306535022,0.3783210397596377,-0.354322976012908,-0.20414705783052,-0.7011802712507377,-0.28470194724136033,1,right
7.736000000000001,-0.1446667598993226,0.9710186855973932,-0.14665273171869256,0.8356160702856146,0.3763186287851249,-0.3516083931370189,-0.20429474223298494,-0.6971225327367949,-0.28489698512272726,1,right
7.737,-0.144795676414271,0.970889490135062,-0.14627413252056634,0.8217421116488868,0.3743492393994757,-0.349093414216951,-0.20442179124607662,-0.6929919556422691,-0.285038518027168,1,right
7.7410000000000005,-0.14491089647287062,0.9707601855187382,-0.14588147681581573,0.8078375967653537,0.3724117182220273,-0.34678138450261226,-0.20452983151003448,-0.6887884394304978,-0.28512829156632996,1,right
7.742000000000001,-0.1450136894321393,0.9706308183597029,-0.14547462533654756,0.793925896940286,0.37050489951569565,-0.3446750980494503,-0.20462050107948848,-0.6845119972845105,-0.2851680746630125,1,right
7.747000000000001,-0.1451052944389188,0.9705014398470441,-0.14505350210677895,0.7800299886067918,0.36862761078017653,-0.3427768005383485,-0.20469544858881092,-0.6801627596323236,-0.2851596566028067,1,right
7.747999999999999,-0.14518691582057436,0.9703721056588764,-0.14461809583642377,0.7661724294396848,0.36677867785630736,-0.34108819348890096,-0.20475633246060754,-0.6757409772919831,-0.28510484410610454,1,right
7.751,-0.1452597184266931,0.9702428759303046,-0.14416846123817723,0.7523753346987051,0.36495692953610953,-0.3396104398600184,-0.20480482015761217,-0.6712470242240689,-0.2850054584205971,1,right
7.751,-0.14532482294488605,0.9701138152924635,-0.14370472025891146,0.7386603537612222,0.3631612016731151,-0.3383441710324168,-0.20484258747820336,-0.6666813998791683,-0.28486333243423984,1,right
7.755,-0.14538330122138968,0.9699849929927238,-0.14322706321142198,0.7250486468046573,0.3613903407876642,-0.33728949516814066,-0.20487131789572147,-0.6620447311276169,-0.2846803078085325,1,right
7.756,-0.14543617162319927,0.9698564831004571,-0.14273574978513384,0.7115608615990378,0.3596432071619375,-0.3364460069428757,-0.20489270194172973,-0.6573377737585953,-0.2844582321318315,1,right
7.763,-0.1454843944825,0.9697283647977817,-0.14223110990928967,0.6982171103703284,0.35791867741956257,-0.33581279864741487,-0.20490843663333075,-0.6525614135354717,-0.28419895609229123,1,right
7.763999999999999,-0.1455288676657775,0.9696007227516834,-0.14171354444158688,0.6850369466954835,0.35621564658470395,-0.33538847265524635,-0.2049202249433009,-0.6477166667989523,-0.283904330672977,1,right
7.765,-0.14557042230771516,0.9694736475629984,-0.14118352565947373,0.6720393423905137,0.35453302961561567,-0.33517115525383817,-0.20492977530516263,-0.6428046806338226,-0.28357620438691156,1,right
7.767,-0.14560981874419074,0.9693472362883193,-0.14064159753724126,0.6592426643532765,0.3528697624077007,-0.33515851183779866,-0.20493880113338103,-0.6378267326588147,-0.28321642059729946,1,right
7.767,-0.14564774267505154,0.9692215930319867,-0.14008837579512234,0.6466646513231719,0.35122480226118075,-0.3353477634626882,-0.20494902033223977,-0.6327842305233603,-0.28282681498340184,1,right
7.771,-0.14568480158978536,0.9690968296066146,-0.13952454770541906,0.6343223905204396,0.3495971278085419,-0.3357357047588539,-0.20496215477356491,-0.6276787111703728,-0.28240921319710993,1,right
7.773,-0.1457215214926853,0.9689730662622277,-0.13895087163654782,0.6222322941283375,0.3479857383969756,-0.3363187232052448,-0.20497992973538112,-0.6225118398800662,-0.28196542872758146,1,right
7.774,-0.14575834396228465,0.9688504324857246,-0.13836817631032067,0.610410075628713,0.3463896529339106,-0.337092819739447,-0.20500407330020956,-0.6172854090852098,-0.28149726097589056,1,right
7.776,-0.1457956235733806,0.9687290678734923,-0.13777735974449612,0.5988707262352091,0.34480790826790264,-0.3380536305592631,-0.20503631571304887,-0.612001336943157,-0.2810064935384952,1,right
7.777,-0.14583362570372072,0.9686091230802816,-0.13717938785580971,0.587628492088558,0.3432395572926117,-0.3391964497530475,-0.20507838869909384,-0.6066616656498083,-0.2804948926982518,1,right
7.78,-0.1458725247453566,0.968490760847211,-0.13657529270626848,0.5766968531122345,0.3416836670257607,-0.3405162522750701,-0.2051320247412652,-0.6012685594804985,-0.2799642061216353,1,right
7.781000000000001,-0.14591240274313982,0.9683741571123058,-0.1359661703818748,0.5660885041945007,0.34013931685089066,-0.34200771690420256,-0.20519895631764637,-0.5958243025426323,-0.27941616176075934,1,right
7.785,-0.14595324848645383,0.9682595022083876,-0.13535317849616194,0.5558153389442388,0.33860559699434895,-0.3436652490434184,-0.20528091509895227,-0.5903312962247346,-0.2788524669587295,1,right
7.787000000000001,-0.1459949570809344,0.9681470021526317,-0.13473753331106675,0.545888436035803,0.3370816072458635,-0.34548300333958865,-0.20537963110618765,-0.5847920563264271,-0.2782748077568098,1,right
7.79,-0.14603733002217953,0.968036880027143,-0.1341205064654434,0.5363180481124421,0.33556645591826445,-0.3474549061278462,-0.2054968318286908,-0.5792092098536955,-0.2776848484018315,1,right
7.791,-0.14608007578383791,0.9679293774422116,-0.13350342130093523,0.5271135932188056,0.3340592590419447,-0.34957467770526773,-0.2056342413028027,-0.5735854914636744,-0.2770842310522284,1,right
7.796,-0.14612281092175294,0.9678247560680092,-0.132887648779193,0.5182836487340348,0.33255913978968055,-0.3518358544390823,-0.20579357915144778,-0.5679237395430414,-0.27647457568104267,1,right
7.797000000000001,-0.14616506168758184,0.9677232992184202,-0.13227460299114766,0.5098359477779709,0.3310652281274566,-0.3542318107150571,-0.20597655958496744,-0.5622268919039893,-0.27585748017421025,1,right
7.8,-0.14620626613986537,0.9676253134709928,-0.13166573626572864,0.5017773780640524,0.32957666068696434,-0.3567557807321371,-0.2061848903636045,-0.5564979810816263,-0.27523452062240333,1,right
7.801,-0.14624577673654268,0.9675311303085913,-0.13106253389339118,0.494113983173554,0.32809258085546245,-0.359400880149819,-0.20642027172210003,-0.5507401292165456,-0.27460725180468293,1,right
7.803999999999999,-0.1462828633895861,0.9674411077712665,-0.1304665084883243,0.48685096622691415,0.3266121390787059,-0.3621601275951287,-0.20668439525693208,-0.5449565425062071,-0.2739772078621911,1,right
7.805,-0.14631671695898998,0.9673556321094772,-0.12987919401783368,0.47999269592901406,0.32513449337266503,-0.3650264660364375,-0.20697894277679785,-0.5391505052086776,-0.27334590316009727,1,right
7.81,-0.14634645315782133,0.9672751194302063,-0.12930213952701486,0.47354271496640343,0.32365881003976993,-0.3679927840317014,-0.20730558511702013,-0.5333253731821985,-0.27271483333599994,1,right
7.811,-0.14637111683104223,0.9672000173262512,-0.12873690258614381,0.4675037507356193,0.32218426458542493,-0.3710519368590344,-0.2076659809186396,-0.5274845669439711,-0.2720854765329768,1,right
7.814,-0.14638968655993737,0.9671308064767496,-0.12818504249191298,0.46187772838290214,0.3207100428305475,-0.37419676753783476,-0.20806177537304307,-0.5216315642314886,-0.2714592948154732,1,right
7.815,-0.14640107953410195,0.9670680022028779,-0.12764811326130068,0.456665786136787,0.3192353422158896,-0.37742012774896966,-0.20849459893306932,-0.5157698920496888,-0.2708377357662186,1,right
7.819,-0.14640415662552456,0.967012155956298,-0.12712765646460833,0.45186829291622527,0.31775937329390375,-0.38071489866279296,-0.2089660659916317,-0.5099031181871535,-0.2702222342623678,1,right
7.82,-0.1463977275955114,0.9669638567113806,-0.12662519394998709,0.4474848681980767,0.3162813614039175,-0.38407401168401245,-0.2094777735289977,-0.5040348421845506,-0.26961421442906897,1,right
7.825,-0.14638055636678426,0.9669237322281159,-0.12614222051644253,0.4435144041290013,0.31480054852637834,-0.38749046912265284,-0.21003129972997275,-0.49816868573848677,-0.26901509176867794,1,right
7.8260000000000005,-0.14635136629948386,0.966892450151844,-0.1256801965964152,0.43995508986796733,0.31331619531192645,-0.39095736480056387,-0.21062820257234594,-0.49230828252392406,-0.2684262754638525,1,right
7.829,-0.14630884541691122,0.9668707189175948,-0.1252405410127804,0.4368044381467813,0.3118275832810486,-0.39446790460310743,-0.21127001838807077,-0.48645726741831097,-0.26784917085278365,1,right
7.829,-0.14625165153127903,0.9668592884302706,-0.12482462387878047,0.43405931403722925,0.310334017190057,-0.398015426985825,-0.2119582603981241,-0.4806192651347593,-0.2672851820726054,1,right
7.83,-0.14617841722374117,0.9668589504978401,-0.12443375970980775,0.4317159659145997,0.3088348275591283,-0.40159342344602844,-0.21269441721885576,-0.47479787839249493,-0.26673571485585595,1,right
7.835,-0.1460877546408079,0.9668705390032502,-0.1240692008107336,0.42977005860853057,0.3073293733581235,-0.4051955589693867,-0.2134799513319133,-0.468996675970419,-0.26620217944473834,1,right
7.836,-0.14597826007940576,0.9668949298104885,-0.12373213099872699,0.4282167087332849,0.30581704484589783,-0.4088156924616828,-0.21431629750670494,-0.4632191811105339,-0.2656859935767656,1,right
7.841,-0.14584851834063212,0.9669330404099075,-0.12342365972387111,0.4270505221467898,0.30429726656147627,-0.41244789715718866,-0.21520486116775597,-0.45746886061715525,-0.265188585506618,1,right
7.8420000000000005,-0.14569710683790524,0.9669858293162036,-0.1231448166475659,0.426265633269282,0.3027695004788736,-0.4160864809010637,-0.21614701670531355,-0.45174911478030805,-0.26471139704924473,1,right
7.8420000000000005,-0.14552259945218057,0.9670542952377812,-0.12289654672313502,0.42585574559819767,0.30123324936147733,-0.41972600603385307,-0.21714410573095388,-0.44606326813089286,-0.2642558866404886,1,right
7.843999999999999,-0.14532357013698655,0.9671394760398654,-0.12267970580289869,0.42581417253742554,0.2996880603653096,-0.4233613085120889,-0.21819743528074786,-0.4404145610111102,-0.263823532413809,1,right
7.845,-0.1450985962890319,0.967242447527046,-0.12249505678151561,0.4261338778797678,0.29813352892704154,-0.42698751599312207,-0.21930827596869476,-0.4348061419437185,-0.26341583529173573,1,right
7.849,-0.14484626191414743,0.9673643220708114,-0.12234326627532711,0.4268075156778601,0.2965693029484515,-0.43060006478170343,-0.22047786009329073,-0.4292410607837997,-0.2630343220907471,1,right
7.851,-0.14456516063015343,0.9675062471014466,-0.12222490182707231,0.4278274694594908,0.2949950872755712,-0.43419471562992684,-0.22170737970026108,-0.42372226263681123,-0.2626805486383352,1,right
7.853,-0.14425389855522633,0.9676694034739555,-0.12214042961499064,0.42918589078822267,0.29341064846805337,-0.4377675684009408,-0.22299798460465015,-0.4182525825268199,-0.26235610290108835,1,right
7.854,-0.1439110971315514,0.9678550037086169,-0.12209021263758058,0.43087473717123526,0.29181581985426713,-0.44131507560679734,-0.22435078037563108,-0.41283474079893623,-0.2620626081227004,1,right
7.86,-0.14353539593011092,0.9680642901018216,-0.12207450934133919,0.4328858093173008,0.29021050686759753,-0.44483405483075705,-0.22576682628757008,-0.40747133924010237,-0.2618017259708918,1,right
7.86,-0.14312545547481537,0.9682985327029864,-0.12209347265909752,0.43521078774877964,0.2885946926593975,-0.4483217000443053,-0.22724713324105522,-0.40216485790252643,-0.2615751596923156,1,right
7.864,-0.14267996011423814,0.9685590271564196,-0.122147149431333,0.437841268772468,0.28696844398401095,-0.4517755918290648,-0.2287926616577782,-0.3969176526142037,-0.26138465727460786,1,right
7.865,-0.14219762095770055,0.9688470924107827,-0.12223548019083917,0.4407687998150581,0.28533191735125457,-0.45519370651370694,-0.2304043193533393,-0.39173195316112325,-0.2612320146148371,1,right
7.869,-0.14167717887996673,0.9691640683029248,-0.12235829929926709,0.44398491412987223,0.28368536544171735,-0.4585744242358765,-0.23208295939222975,-0.38660986212592185,-0.26111907869370543,1,right
7.87,-0.14111740758627722,0.9695113130270256,-0.12251533542890995,0.44748116488240747,0.2820291437802059,-0.4619165359390468,-0.23382937792943373,-0.38155335436791427,-0.26104775075495856,1,right
7.872999999999999,-0.14051711671815834,0.9698902005031695,-0.12270621238265449,0.45124915862308485,0.280363717662635,-0.46521924931412145,-0.23564431204328154,-0.37656427712960794,-0.26101998948956906,1,right
7.874,-0.13987515497209357,0.970302117661471,-0.12293045023949267,0.45528058815642247,0.2786896693316344,-0.46848219369549193,-0.2375284375643782,-0.37164435075499325,-0.26103781422437367,1,right
7.877999999999999,-0.1391904131988074,0.9707484616593194,-0.12318746680559817,0.45956726481665894,0.27700770539611447,-0.47170542392115,-0.23948236690562566,-0.3667951700050855,-0.2611033081149634,1,right
7.879,-0.13846182744995988,0.9712306370505469,-0.12347657934711914,0.46410115016063314,0.27531866449000764,-0.4748894231663422,-0.2415066468985543,-0.36201820595639145,-0.26121862134275126,1,right
7.885,-0.13768838194070407,0.9717500529257198,-0.12379700658319222,0.46887438708948465,0.2736235251653785,-0.47803510476014055,-0.24360175664137712,-0.3573148084681689,-0.2613859743162729,1,right
7.886,-0.136869111901243,0.972308120041054,-0.1241478709226154,0.4738793304114716,0.27192341401507203,-0.48114381299418935,-0.24576810536438143,-0.35268620920455357,-0.26160766087691345,1,right
7.8870000000000005,-0.1360031062980591,0.9729062479489067,-0.12452820092947342,0.47910857685891345,0.2702196140200503,-0.4842173229327774,-0.24800603031847393,-0.34813352519783175,-0.2618860515093962,1,right
7.888,-0.13508951041421133,0.9735458421361931,-0.1249369340000872,0.4845549945729546,0.2685135731165503,-0.4872578392332745,-0.2503157946928991,-0.3436577629393509,-0.2622235965575195,1,right
7.894,-0.13412752828679422,0.9742283011703565,-0.12537291922766847,0.4902117520705115,0.2668069129781816,-0.49026799398586723,-0.2526975855683545,-0.33925982298477314,-0.2626228294457825,1,right
7.895,-0.13311642500853482,0.9749550138473375,-0.12583492042330793,0.49607234670840894,0.26510143800807257,-0.4932508435814279,-0.25515151191193297,-0.33494050506059586,-0.26308636990770656,1,right
7.898,-0.1320555289100461,0.975727356333001,-0.12632161925264349,0.5021306326603381,0.26339914453616703,-0.49620986461625666,-0.25767760262052725,-0.33070051365908315,-0.2636169272218256,1,right
7.899,-0.1309442336478278,0.9765466892886054,-0.1268316184393023,0.5083808484228715,0.26170223021677347,-0.4991489488423509,-0.2602758046173355,-0.3265404641027006,-0.26421730345073186,1,right
7.9,-0.12978200022676747,0.9774143549720032,-0.12736344498553076,0.5148176438673586,0.2600131036214712,-0.5020723971717787,-0.2629459809952938,-0.3224608890279961,-0.2648903966499054,1,right
7.902,-0.12856835898471372,0.9783316743086199,-0.12791555336989643,0.5214361068550935,0.2583343940224877,-0.5049849127436647,-0.26568790918163365,-0.31846224518262056,-0.26563920396134,1,right
7.903,-0.12730291156852971,0.9792999439277404,-0.12848632869365206,0.5282317894336969,0.2566689613616782,-0.507891593062242,-0.26850127908694893,-0.3145449203980371,-0.2664668244783376,1,right
7.907,-0.12598533294153028,0.9803204331587206,-0.1290740897544029,0.5352007336331954,0.2550199064002601,-0.5107979212143752,-0.27138569121338474,-0.3107092406320722,-0.2673764617968929,1,right
7.9079999999999995,-0.12461537347602337,0.9813943809805695,-0.12967709203164812,0.5423394968807993,0.2533905810444864,-0.5137097561749379,-0.2743406547165995,-0.3069554770321726,-0.2683714262212189,1,right
7.9079999999999995,-0.12319286119207287,0.9825229929198237,-0.13029353057596615,0.5496451770178454,0.25178459882936455,-0.5166333222037103,-0.277365585427379,-0.3032838530018394,-0.26945513662002907,1,right
7.912999999999999,-0.12171770419938828,0.9837074378951967,-0.13092154279673746,0.557115436722628,0.25020584547699537,-0.5195751973140187,-0.28045980384118563,-0.29969455125922223,-0.27063112193619704,1,right
7.914,-0.12018989338621407,0.9849488450109002,-0.13155921113853453,0.5647485268188928,0.24865848932812254,-0.5225423007511344,-0.28362253308413216,-0.2961877208770891,-0.2719030223526591,1,right
7.917999999999999,-0.11860950538594575,0.9862483003022176,-0.1322045656250491,0.5725433077700125,0.24714699137997015,-0.5255418793950316,-0.2868528968640674,-0.2927634842936257,-0.2732745901176809,1,right
7.917999999999999,-0.1169767058427394,0.9876068434354675,-0.1328555862367708,0.5804992688395734,0.24567611472910525,-0.5285814930256115,-0.2901499174156613,-0.2894219442837531,-0.27474969003287353,1,right
7.922000000000001,-0.11529175298619727,0.9890254643600801,-0.13351020508424669,0.5886165447240086,0.24425093333619458,-0.5316689984307884,-0.29351251344857315,-0.2861631908808893,-0.2763322996076217,1,right
7.9239999999999995,-0.1135550015081974,0.990505099906177,-0.13416630835103982,0.5968959296436226,0.24287684009520805,-0.5348125323613789,-0.29693949810798054,-0.2829873082393188,-0.27802650888387226,1,right
7.9270000000000005,-0.11176690671457677,0.9920466303194238,-0.13482173800704128,0.6053388889148598,0.2415595542028541,-0.5380204933415457,-0.300429576956939,-0.2798943814275708,-0.2798365199355295,1,right
7.928,-0.10992802890533547,0.9936508757257352,-0.1354742933204674,0.6139475680271411,0.24030512782416494,-0.5413015223436796,-0.3039813459902288,-0.2768845031434444,-0.28176664604701124,1,right
7.932,-0.108039037922979,0.9953185925212511,-0.13612173221235546,0.6227247992480534,0.2391199520502961,-0.5446644823367724,-0.3075932896895309,-0.2739577803415579,-0.28382131057584353,1,right
7.933,-0.10610071780020537,0.9970504696884623,-0.13676177249705448,0.6316741057811512,0.23801076214476904,-0.548118436717512,-0.3112637791299557,-0.2711143407645363,-0.2860050455045016,1,right
7.937,-0.10411397143337463,0.9988471250465532,-0.13739209304289499,0.6407997035011097,0.23698464207456768,-0.5516726266335447,-0.314991070148124,-0.2683543393691927,-0.28832248968705193,1,right
7.938,-0.10207982520608833,1.0007091014501492,-0.138010334878965,0.6501065002914468,0.2360490283226979,-0.555336447208586,-0.3187733015821737,-0.26567796463929383,-0.2907783867965076,1,right
7.942,-0.09999943348849306,1.002636862954595,-0.1386141022728081,0.659600093010537,0.23521171297903928,-0.5591194226793225,-0.32260849359423144,-0.2630854447767431,-0.29337758297918004,1,right
7.942,-0.09787408294298053,1.004630790969194,-0.13920096380928013,0.6692867621121408,0.23448084610655737,-0.5630311804543328,-0.326494546086054,-0.2605770537632523,-0.2961250242226953,1,right
7.947,-0.09570519657526422,1.0066911804233003,-0.13976845350729314,0.6791734639471961,0.23386493738020497,-0.5670814241055759,-0.3304292372186999,-0.2581531172848142,-0.29902575344473953,1,right
7.9479999999999995,-0.0934943374802196,1.008818235972213,-0.1403140720128611,0.6892678207741612,0.2333728569961254,-0.5712799053033346,-0.3344102220472441,-0.2558140185115284,-0.3020849073100118,1,right
7.9510000000000005,-0.09124321224233423,1.0110120682697736,-0.14083528790138314,0.6995781085057484,0.2330138358490758,-0.5756363947058705,-0.3384350312816948,-0.2535602037255762,-0.30530771278328805,1,right
7.952000000000001,-0.08895367395912157,1.013272690333047,-0.14132953911195234,0.7101132422204691,0.2327974649763209,-0.5801606518154492,-0.34250107018541076,-0.2513921877903812,-0.30869948342693954,1,right
7.956,-0.08662772486221311,1.0156000140214767,-0.14179423452712522,0.7208827594680042,0.23273369426660262,-0.5848623938128167,-0.3466056176224499,-0.24931055945423708,-0.3122656154517051,1,right
7.957000000000001,-0.08426751851586808,1.0179938466479472,-0.14222675570710785,0.7318968013980394,0.23283283043317604,-0.5897512633826629,-0.35074582526540543,-0.24731598648192935,-0.31601158352998804,1,right
7.961,-0.08187536157623718,1.0204538877335056,-0.14262445878784352,0.7431660917428505,0.2331055342503101,-0.5948367955430911,-0.3549187169754051,-0.24540922060812392,-0.3199429363814318,1,right
7.962000000000001,-0.07945371509632725,1.022979725913532,-0.1429846765553288,0.7547019136845974,0.23356281705309365,-0.6001283834926193,-0.3591211883660586,-0.24359110230654457,-0.3240652921410311,1,right
7.966,-0.07700519536134101,1.025570836001657,-0.14330472070980074,0.766516084638991,0.23421603650085315,-0.6056352434887807,-0.3633500065632395,-0.24186256536921025,-0.3283843335205521,1,right
7.9670000000000005,-0.0745325742382963,1.028226576217215,-0.1435818843304353,0.7786209289877313,0.23507689160499018,-0.6113663787729507,-0.36760181016962673,-0.24022464128880683,-0.33290580276865916,1,right
7.968,-0.07203877902477734,1.0309461855814792,-0.14381344454515835,0.7910292487928798,0.2361574170225762,-0.6173305425566231,-0.37187310942773005,-0.2386784634302737,-0.3376354964061625,1,right
7.97,-0.06952689178495611,1.0337287814877378,-0.14399666540492972,0.8037542925271354,0.23746997661760688,-0.6235362000849732,-0.37616028654768996,-0.2372252709648939,-0.3425792596601986,1,right
7.971,-0.06700014816522547,1.0365733574500902,-0.14412880095870392,0.816809721854811,0.23902725629241442,-0.6299914897941927,-0.38045959615092245,-0.23586641253318838,-0.3477429804922047,1,right
7.975,-0.06446193568607096,1.0394787810350208,-0.14420709852302896,0.8302095764991878,0.24084225609236884,-0.636704183579746,-0.38476716579601994,-0.2346033496104283,-0.3531325831446817,1,right
7.976,-0.06191579151106506,1.0424437919788445,-0.1442288021390165,0.8439682372525629,0.24292828158232024,-0.6436816462384015,-0.38907899658087597,-0.23343765956189355,-0.358754021185517,1,right
7.977,-0.05936539969691379,1.0454670004939355,-0.1441911562104359,0.8581003872849198,0.2452989344672075,-0.6509307943726447,-0.39339096383031874,-0.23237103838252826,-0.36461327005880695,1,right
7.981,-0.056814587929552685,1.0485468857673528,-0.14409140932021566,0.8726209720857269,0.24796810238188693,-0.6584580554518863,-0.39769881788161954,-0.2314053031173676,-0.3707163191576756,1,right
7.982,-0.05426732375209254,1.0516817946562262,-0.14392681822747808,0.8875451584730619,0.2509499477492829,-0.6662693279506806,-0.40199818498025464,-0.2305423939593911,-0.37706916343525076,1,right
7.986000000000001,-0.05172771029231092,1.0548699405840891,-0.14369465205111537,0.9028882930066736,0.25425889563351084,-0.6743699432599046,-0.4062845682982973,-0.22978437602174231,-0.38367779457064205,1,right
7.987,-0.04919998149848464,1.0581094026417983,-0.1433921966470392,0.9186658599651223,0.2579096205635953,-0.6827646296625819,-0.410553349087807,-0.22913344078154446,-0.3905481917074676,1,right
7.99,-0.046688496890550615,1.0613981248969178,-0.1430167591848819,0.9348934389496352,0.261917032331034,-0.6914574784418102,-0.4147997879815562,-0.22859190719283778,-0.3976863117831906,1,right
7.9910000000000005,-0.04419773583008148,1.0647339159158806,-0.14256567292784872,0.9515866621587855,0.2662962607707459,-0.7004519121440725,-0.4190190264533994,-0.2281622224664657,-0.4050980794682646,1,right
7.995,-0.041732291310365585,1.068114448502838,-0.1420363022179209,0.9687611713793569,0.27106263953592163,-0.709750655022058,-0.4232060884505361,-0.22784696251504488,-0.41278937673483684,1,right
7.996,-0.03929686326826487,1.0715372596585035,-0.14142604766733208,0.9864325747400418,0.27623168887832233,-0.7193557056819709,-0.4273558822098571,-0.2276488320614686,-0.4207660320755282,1,right
8.0,-0.036896251422038936,1.0749997507624514,-0.14073235155506988,1.0046164032759632,0.2818190974466394,-0.7292683119611719,-0.4314632022704835,-0.22757066440971466,-0.4290338093935951,1,right
8.001,-0.03453534764395732,1.0784991879831711,-0.13995270342406255,1.0233280673533924,0.2878407031166422,-0.73948894806287,-0.4355227316945164,-0.22761542087705838,-0.43759839658657956,1,right
8.006,-0.03221912788256455,1.0820327029210424,-0.13908464587190963,1.0425828130054604,0.2943124728679959,-0.7500172939754605,-0.4395290445079064,-0.22778618988712704,-0.4464653938463766,1,right
8.006,-0.029952643654505003,1.0855972934900315,-0.1381257805269241,1.062395678231133,0.3012504817238344,-0.7608522172049851,-0.4434766083732319,-0.2280861857235779,-0.45564030169948067,1,right
8.01,-0.027741013128482806,1.0891898250448941,-0.13707377420187664,1.0827814493112367,0.30867089077042265,-0.7719917568500744,-0.447359787506035,-0.22851874694453495,-0.46512850881202716,1,right
8.011000000000001,-0.02558941182471589,1.092807031762089,-0.1359263652180646,1.10375461719688,0.31658992427553306,-0.7834331100496179,-0.4511728458462137,-0.22908733445828214,-0.4749352795851147,1,right
8.014,-0.023503062953004732,1.0964455182834916,-0.13468136989031562,1.1253293340272226,0.325023845925503,-0.7951726208342806,-0.4549099504957975,-0.2297955292610816,-0.4850657415667754,1,right
8.015,-0.02148722741298593,1.100101761631401,-0.13333668915967442,1.147519369835184,0.3339889342023244,-0.8072057714138617,-0.4585651754342498,-0.2306470298383672,-0.49552487270786155,1,right
8.02,-0.019547193483693093,1.103772113400503,-0.13189031535593715,1.1703380695013723,0.3435014569235504,-0.8195271759333566,-0.4621325055222381,-0.2316456492309549,-0.5063174884900337,1,right
8.021,-0.017688266236665667,1.1074528022263819,-0.13034033906708403,1.1937983100182414,0.3535776449692822,-0.8321305767314353,-0.46560584080459533,-0.23279531176831159,-0.5174482289549605,1,right
8.024,-0.015915756715334902,1.111139936520608,-0.12868495608622954,1.217912458128252,0.3642336652220252,-0.8450088431358956,-0.4689790011229594,-0.2341000494713373,-0.5289215456647894,1,right
8.025,-0.014234970931049216,1.1148295074504033,-0.12692247439785292,1.2426923284016145,0.3754855927467769,-0.8581539728314711,-0.47224573104832684,-0.23556399812753806,-0.540741688624901,1,right
8.029,-0.01265119873234008,1.1185173921286196,-0.12505132115362075,1.2681491418210384,0.3873493822403271,-0.8715570958361871,-0.4753997051434832,-0.2371913930419001,-0.5529126932009316,1,right
8.03,-0.011169702609951348,1.12219935696962,-0.12307004957573119,1.2942934849427854,0.39984083878041743,-0.8852084811232431,-0.47843453356498905,-0.23898656446722355,-0.5654383670630361,1,right
8.033999999999999,-0.009795706506428843,1.1258710611616098,-0.12097734571618271,1.3211352697052352,0.4129755879071177,-0.8990975459261624,-0.48134376800942374,-0.2409539327107094,-0.5783222771844575,1,right
8.035,-0.008534384701778338,1.1295280602094888,-0.11877203499947463,1.3486836939581202,0.42676904507053476,-0.9132128677656954,-0.4841209079849228,-0.24309800287696656,-0.5915677368880099,1,right
8.036,-0.007390850843317756,1.1331658095135095,-0.11645308848589556,1.3769472027875522,0.4412363844807729,-0.9275421992376671,-0.48675940734669265,-0.24542335914130917,-0.6051777928730477,1,right
8.04,-0.0063701471886293045,1.1367796679599793,-0.11401962880393782,1.4059334507139765,0.4563925073979108,-0.9420724856016464,-0.48925268101148156,-0.24793465841061121,-0.6191552121220482,1,right
8.041,-0.005477234145316779,1.140364901505911,-0.11147093570342395,1.4356492648422015,0.4722520099016531,-0.9567898852109584,-0.491594111788947,-0.2506366232665916,-0.6335024686214461,1,right
8.044,-0.0047169802085112005,1.1439166867439248,-0.1088064511786928,1.4661006090317223,0.4888291501804848,-0.9716797927702954,-0.4937770573094767,-0.2535340341537013,-0.6482217298944574,1,right
8.045,-0.0040941523964376485,1.1474301144406125,-0.10602578411370994,1.4972925490925892,0.5061378153733158,-0.9867268651333384,-0.49579485705094306,-0.2566317208114174,-0.6633148433791558,1,right
8.046,-0.0036134072651300866,1.150900193049415,-0.10312871441026966,1.5292292188971528,0.5241914879827464,-1.0019150488594024,-0.49764083947110355,-0.2599345529587162,-0.6787833226930234,1,right
