time,gFx,gFy,gFz,ax,ay,az,wx,wy,wz,subject_number,foot
3.228,-0.6347534223917011,0.2586959713669967,0.20390974785865768,-1.0473949366046307,1.4329008408491808,-0.35407212716341463,0.0483655413396787,-0.20028905834866315,-0.1757622624468242,3,right
3.2310000000000003,-0.6297294066401385,0.2549660330795698,0.20300065057437952,-1.023023917560623,1.3601787062494426,-0.3321031644092986,0.07055465607794797,-0.19740445807564813,-0.13330299819391914,3,right
3.2319999999999998,-0.6247596611111248,0.25152074472427477,0.20200946457918387,-0.9976397912815905,1.2857704074981557,-0.31006546099423193,0.09306232157121626,-0.19479146260630983,-0.09034760137030393,3,right
3.236,-0.6198464699891152,0.2483634030410943,0.2009372899995346,-0.971266209836007,1.2097169679794009,-0.28797745329674423,0.11587989458113536,-0.19245809301982506,-0.046904352328581485,3,right
3.237,-0.6149918806007066,0.24549698030146902,0.19978530779183284,-0.9439280904911131,1.1320614710828134,-0.2658570869398414,0.1389984301870465,-0.19041219155972344,-0.002981961721258512,3,right
3.24,-0.610197694554965,0.24292412040360092,0.19855477916024247,-0.9156516048168369,1.0528490305231113,-0.2437218109531252,0.16240868435224354,-0.1886614179909787,0.04141042675238265,3,right
3.241,-0.6054654598037988,0.2406471357841794,0.1972470447311571,-0.8864641665131954,0.9721267553571753,-0.22158857466042786,0.18610111717294822,-0.18721324634228473,0.0862632349851567,3,right
3.241,-0.6007964636853865,0.23866800518067396,0.19586352347188607,-0.856394417882697,0.8899437094756988,-0.19947382722945287,0.2100658967496498,-0.18607496188820236,0.13156645035633177,3,right
3.247,-0.5961917270025952,0.23698837226484842,0.19440571134487336,-0.8254722148665752,0.8063508653419489,-0.17739351981987014,0.23429290343118586,-0.18525365801753052,0.17730962636793043,3,right
3.248,-0.5916519991814869,0.2356095451555066,0.19287517969197768,-0.7937286105610671,0.7214010517458529,-0.15536311026631816,0.25877173407713455,-0.1847562325189128,0.22348188329707588,3,right
3.2510000000000003,-0.5871777545584116,0.23453249680921415,0.19127357334722034,-0.7611958371335306,0.6351488954728154,-0.13339757019718226,0.28349170609048663,-0.18458938293179122,0.2700719083534589,3,right
3.252,-0.5827691898459028,0.23375786628071293,0.18960260847987706,-0.7279072860863176,0.5476507574595599,-0.11151139431193928,0.3084418611634317,-0.18475960082091047,0.3170679552168915,3,right
3.252,-0.5784262228184429,0.2332859608390149,0.18786407017239834,-0.6938974868689882,0.45896466522387214,-0.08971861121928269,0.333610968785433,-0.1852731649497148,0.3644578430448274,3,right
3.2560000000000002,-0.5741484922482236,0.23311675891932612,0.186059809742108,-0.6592020838677455,0.36915024402831764,-0.06803279506025157,0.35898752958458074,-0.1861361333521727,0.41222895508366436,3,right
3.2560000000000002,-0.569935359116622,0.23324991388175728,0.18419174182423728,-0.6238578117682415,0.27826864855749933,-0.046467077318989754,0.3845597785738757,-0.18735433430353193,0.46036823701880963,3,right
3.26,-0.5657859091217571,0.2336847585340432,0.18226184124475736,-0.5879024692308124,0.18638249566652948,-0.025034158544747234,0.4103156883747221,-0.18893335619149318,0.5088621951996198,3,right
3.261,-0.5616989564868151,0.23442031035921687,0.180272139721089,-0.5513748907846622,0.09355579807822303,-0.0037463198872194742,0.43624297249050376,-0.1908785362902938,0.5576968948764207,3,right
3.266,-0.5576730490502027,0.23545527737332222,0.17822472243452683,-0.5143149168395452,-0.00014610123193234653,0.017384565616700733,0.4623290887036813,-0.19319494844121365,0.6068579585878684,3,right
3.266,-0.5537064745962085,0.23678806452569426,0.17612172451810135,-0.47676336171173733,-0.09465659422685609,0.038347022066303416,0.4885612426703724,-0.1958873896440503,0.6563305648379334,3,right
3.27,-0.5497972683707202,0.2384167805467604,0.17396532749610924,-0.43876197955944995,-0.18990787284152952,0.059129960091702294,0.5149263917868715,-0.19896036556516253,0.7060994472027653,3,right
3.2710000000000004,-0.5459432217216219,0.24033924514665336,0.17175775569792454,-0.40035342812131086,-0.2858309941282631,0.07972266668041503,0.5414112494030188,-0.20241807496874697,0.7561488940086319,3,right
3.275,-0.5421418918042068,0.2425529964729731,0.1695012726538027,-0.3615812301501257,-0.3823559457849338,0.1001147954960785,0.5680022894577492,-0.2062643930790925,0.8064627487230228,3,right
3.2760000000000002,-0.538390612294217,0.24505529874651802,0.16719817746894267,-0.3224897324328448,-0.4794117123396743,0.12029635774897994,0.594685751612532,-0.21050285388264872,0.8570244112018555,3,right
3.28,-0.5346865050519654,0.24784315000655607,0.16485080116549783,-0.2831240622864908,-0.5769263422674269,0.14025771367753875,0.6214476469587565,-0.21513663137985037,0.9078168399365277,3,right
3.28,-0.5310264926775773,0.25091328991028966,0.16246150298048334,-0.24353008141876145,-0.6748270163154982,0.15998956469929912,0.6482737643754236,-0.22016851979775445,0.9588225554453205,3,right
3.286,-0.527407311888081,0.25426220754488593,0.1600326666111779,-0.20375433704110427,-0.773040117316775,0.1794829462893882,0.6751496776137658,-0.22560091277567315,1.0100236449543607,3,right
3.286,-0.5238255276331281,0.2578861492250404,0.15756669640798796,-0.1638440101212755,-0.8714913017705778,0.1987292216437643,0.7020607531856459,-0.2314357815371199,1.0614017685140253,3,right
3.2889999999999997,-0.5202775478509637,0.2617811262628829,0.1550660135244916,-0.12384686066174021,-0.9701055734722377,0.21772007618391936,0.7289921591327687,-0.23767465206252933,1.112938166697269,3,right
3.29,-0.516759638753508,0.26594292270867104,0.15253305204235568,-0.08381116988975021,-1.0688073594733747,0.236447512959017,0.7559288747538798,-0.2443185812783607,1.1646136700269243,3,right
3.2939999999999996,-0.513267940521904,0.2703671030705844,0.14997025509427334,-0.04378567924455109,-1.1675205886555404,0.2549038490007372,0.7828557013672285,-0.2513681322793505,1.2164087102795307,3,right
3.295,-0.5097984832925255,0.27504902002974807,0.1473800710103313,-0.0038195260469209855,-1.2661687732003555,0.27308171268536624,0.8097572741856295,-0.2588233486018391,1.2683033338137029,3,right
3.299,-0.5063472033170049,0.27998382217033485,0.14476494951080235,0.036037824263865786,-1.3646750932395213,0.29097404215691425,0.8366180753814717,-0.2666837275672582,1.3202772170714399,3,right
3.3,-0.5029099591867545,0.2851664617438245,0.142127337962079,0.07573664944052688,-1.462962484968118,0.3085740848642646,0.8634224484189964,-0.2749481927160322,1.3723096844011329,3,right
3.304,-0.4994825480212451,0.2905917024830051,0.13946967770557564,0.1152270454004175,-1.5609537325044123,0.3258753982645602,0.8901546137310907,-0.28361506535330705,1.4243797283513033,3,right
3.305,-0.49606072152786407,0.2962541274759317,0.1367944004640365,0.15445900497472578,-1.6585715637789953,0.34287185174421214,0.9167986858177266,-0.2926820352290869,1.4764660325843333,3,right
3.31,-0.492640201849187,0.3021481471030401,0.13410392482615174,0.19338250054815478,-1.755738750735433,0.35955762980807626,0.943338691795624,-0.3021461304265059,1.528546997473462,3,right
3.3110000000000004,-0.48921669712423965,0.3082680070348596,0.13140065280888633,0.2319475707024287,-1.8523782141237675,0.37592723658648775,0.9697585911915501,-0.31200368678306745,1.5806007680156264,3,right
3.3110000000000004,-0.4857859167037779,0.31460779628660995,0.12868696649665495,0.27010441097621846,-1.9484131331671348,0.3919755017089667,0.9960422963448934,-0.3222503176207439,1.6326052629173349,3,right
3.3139999999999996,-0.482343585968013,0.32116145532661267,0.12596522475654975,0.30780346885319604,-2.043767060380464,0.40769758759251673,1.0221736925479017,-0.3328808848119159,1.6845382032799516,3,right
3.315,-0.4788854606950564,0.3279227842318658,0.12323776003100805,0.34499554308889724,-2.1383640418187153,0.4230889981915308,1.0481366572885746,-0.3438894719593119,1.7363771397414878,3,right
3.319,-0.4754073409279572,0.33488545087727645,0.12050687521480277,0.38163188733479086,-2.2321287428009944,0.43814558920789326,1.0739150783873406,-0.35526936001931253,1.7880994777072898,3,right
3.32,-0.4719050842947157,0.3420429991422607,0.1177748406285164,0.4176643172610854,-2.3249865780080374,0.452863579521414,1.0994928710551566,-0.36701300544913584,1.839682500732606,3,right
3.32,-0.46837461874553893,0.34938885712220086,0.115043891103174,0.4530453190183573,-2.416863842783967,0.46723956317224996,1.124853993947583,-0.3791120209095143,1.891103392205897,3,right
3.327,-0.4648119546783582,0.3569163453361107,0.11231622319479048,0.4877281561209387,-2.507687841323948,0.48127052098849415,1.1499824642888543,-0.3915571585555375,1.9423392554814345,3,right
3.3280000000000003,-0.4612131964272044,0.3646186849195729,0.10959399255620189,0.5216669725888183,-2.5973870085736643,0.494953831188654,1.174862372139386,-0.4043382959493803,1.9933671326093187,3,right
3.3280000000000003,-0.4575745530933303,0.3724890057863641,0.10687931150065005,0.5548168915429345,-2.6858910247281087,0.5082872787152921,1.1994778938795423,-0.41744442462965237,2.0441640218105817,3,right
3.3289999999999997,-0.4538923487067809,0.38052035473925255,0.1041742467905986,0.5871341092022849,-2.7731309223610854,0.5212690632926267,1.223813304981815,-0.4308636413731,2.0947068938445192,3,right
3.333,-0.450163031712289,0.38870570351043293,0.10148081767760236,0.6185759843802558,-2.8590391864429416,0.5338978062473959,1.2478529921428556,-0.44458314218535244,2.144972707414787,3,right
3.3339999999999996,-0.4463831837767877,0.3970379567118547,0.09880099420989935,0.6491011235753041,-2.94354984750064,0.5461725561312859,1.271581464846039,-0.4585892190583377,2.1949384237601386,3,right
3.339,-0.44254952791952984,0.4055099596754288,0.09613669581638679,0.6786694617487418,-3.0265985681706327,0.5580927931822114,1.2949833664244337,-0.47286725953289055,2.2445810205749535,3,right
3.34,-0.4386589359712813,0.4141145061648647,0.09348979016902483,0.707242338879856,-3.108122723391191,0.5696584326607284,1.3180434846932052,-0.487401749105935,2.293877505403903,3,right
3.344,-0.4347084353750583,0.42284434594479725,0.09086209232034509,0.7347825723859708,-3.1880614744768256,0.5808698270968372,1.340746762219588,-0.5021762765224461,2.3428049286542443,3,right
3.344,-0.4306952153461173,0.43169219219832683,0.0882553641078848,0.761254525492307,-3.2663558373132524,0.5917277674814212,1.363078306297616,-0.5171735419931742,2.3913403963683058,3,right
3.3489999999999998,-0.4266166324131708,0.44065072879127487,0.08567131381233133,0.7866241716336447,-3.3429487449069497,0.602233483435546,1.385023398693826,-0.53237536837985,2.4394610828977212,3,right
3.35,-0.42247021536623736,0.44971261738941776,0.08311159605174591,0.8108591549668256,-3.417785104518838,0.6123886423898285,1.4065675052291264,-0.547762715390277,2.487144243619928,3,right
3.352,-0.418253669638292,0.45887050444197347,0.0805778118909478,0.8339288470700705,-3.4908118496068723,0.6221953478050709,1.4276962852609454,-0.5633156968263544,2.5343672278363103,3,right
3.353,-0.4139648811469011,0.4681170280500088,0.07807150914203972,0.8558043999019209,-3.5619779867974573,0.6316561364643418,1.448395601128677,-0.5790136009286613,2.5811074919901635,3,right
3.358,-0.4096019196186903,0.4774448247419679,0.07559418282964367,0.8764587950893593,-3.6312346381005627,0.640773974865684,1.468651527624278,-0.5948349138617622,2.627342613341429,3,right
3.358,-0.40516304141470544,0.4868465361795665,0.07314727579475942,0.8958668896113213,-3.6985350785782103,0.6495522547436255,1.4884503615486886,-0.6107573463848696,2.673050304233795,3,right
3.363,-0.4006466918693474,0.4963148158151599,0.07073217941352197,0.9140054579403818,-3.7638347696706673,0.6579947877466792,1.5077786314135053,-0.6267578637529116,2.718208427088398,3,right
3.364,-0.3960515071513103,0.5058423355158725,0.06835023440873417,0.9308532307018963,-3.827091388379208,0.666105799297029,1.5266231073460674,-0.6428127188934105,2.7627950102568954,3,right
3.367,-0.3913763156531894,0.5154217921613156,0.06600273173315274,0.9463909299063028,-3.8882648524986747,0.6738899216576316,1.5449708112548084,-0.6588974889048584,2.8067882648651605,3,right
3.3680000000000003,-0.38662013891721597,0.5250459142131964,0.06369091350573367,0.9606013008066423,-3.9473173420873455,0.6813521862309955,1.5628090273103645,-0.6749871149225087,2.850166602777292,3,right
3.372,-0.3817821921074161,0.5347074682480806,0.06141597398420257,0.9734691404296603,-4.0042133173557355,0.6884980151129454,1.5801253127965513,-0.6910559453976498,2.8929086558079646,3,right
3.373,-0.37686188404238063,0.5443992654390931,0.05917906055804801,0.9849813228250847,-4.058919533149983,0.6953332119237483,1.5969075093838845,-0.7070777828365147,2.9349932963094645,3,right
3.377,-0.3718588168067609,0.5541141679684325,0.05698127474598034,0.9951268210738701,-4.111405050199395,0.7018639519380473,1.6131437548768666,-0.7230259340449922,2.9763996592579707,3,right
3.377,-0.36677278496270493,0.5638450953506126,0.05482367318137217,1.0038967260923468,-4.161641243291519,0.7080967715341442,1.6288224954640063,-0.7388732638453077,3.017107165894857,3,right
3.378,-0.3616037743825951,0.5735850306485443,0.05270726856864095,1.0112842622653235,-4.209601806531832,0.7140385569822808,1.6439324983942485,-0.7545922518310112,3.057095548642006,3,right
3.3819999999999997,-0.35635196072145087,0.5833270265719337,0.050633030594001364,1.0172847999372667,-4.255262755838769,0.7196965325906948,1.658462864815168,-0.770155051006955,3.096344876405422,3,right
3.383,-0.35101770754667516,0.593064211454065,0.048601886774422176,1.0218958647867382,-4.298602428818341,0.7250782482273662,1.6724030424029241,-0.785533546760962,3.134835579044538,3,right
3.388,-0.34560156414805115,0.6027897951029084,0.04661472322730404,1.0251171441053024,-4.339601482156073,0.7301915662345444,1.6857428375160939,-0.8006994150132044,3.1725484701174214,3,right
3.388,-0.34010426305657726,0.6124970745195433,0.04467238534203923,1.0269504899815103,-4.378242886649886,0.7350446477533457,1.6984724267905962,-0.8156241791083116,3.209464767612736,3,right
3.389,-0.3345267172996615,0.6221794394786836,0.042775678335958675,1.0273999193034498,-4.414511919963419,0.7396459384800406,1.710582368194982,-0.830279265414387,3.2455661127120266,3,right
3.3930000000000002,-0.32887001741294636,0.631830377973227,0.04092536768059278,1.0264716103397322,-4.448396157105087,0.7440041538840881,1.7220636115843895,-0.8446360576724379,3.280834586690613,3,right
3.395,-0.3231354282232854,0.6414434815312605,0.03912217938692244,1.0241738955716688,-4.479885458593918,0.7481282639223452,1.7329075087897128,-0.8586659501390345,3.3152527260631177,3,right
3.3960000000000004,-0.31732438541836183,0.651012450415556,0.03736680013952285,1.0205172505285556,-4.508971956303919,0.7520274772780395,1.7431058232767551,-0.8723403995642329,3.348803536077282,3,right
3.397,-0.3114384919222425,0.6605310987149231,0.03565987727073137,1.01551427852366,-4.535650037039284,0.7557112251431867,1.7526507394083273,-0.8856309760459483,3.3814705026573666,3,right
3.404,-0.3054795140971177,0.6699933593383988,0.034002018568439756,1.009179691267706,-4.559916323923415,0.7591891445573397,1.76153487134043,-0.8985094128010161,3.413237602895965,3,right
3.405,-0.299449377790617,0.6793932889272625,0.032393791913533435,1.0015302853493804,-4.581769655685283,0.7624710613138953,1.769751271581794,-0.9109476548921669,3.4440893141905753,3,right
3.406,-0.2933501642495947,0.6887250727036895,0.030835724741850923,0.9925849145685189,-4.601211063919781,0.7655669724445586,1.777293439244188,-0.9229179069490329,3.474010622118748,3,right
3.407,-0.28718410592610194,0.6979830292768505,0.02932830331842418,0.9823644581038115,-4.618243748391749,0.768487028291979,1.7841553280089975,-0.9343926799201213,3.502987027143022,3,right
3.412,-0.28095358220626737,0.7071616154269226,0.02787197180032203,0.9708917844930919,-4.632873050446488,0.7712415141800075,1.7903313538336647,-0.9453448368914281,3.5310045502342566,3,right
3.4130000000000003,-0.2746611150938931,0.7162554308850544,0.026467131053381925,0.9581917114005606,-4.645106424582584,0.773840831690489,1.795816402419645,-0.9557476380060179,3.5580497374992786,3,right
3.4160000000000004,-0.26830936487638674,0.7252592231238891,0.025114137182317538,0.9442909611416272,-4.654953408236012,0.7762954795550034,1.8006058364615776,-0.9655747845174782,3.584109663896058,3,right
3.417,-0.2619011257928462,0.7341678921697128,0.02381329973558249,0.9292181119324706,-4.662425589817541,0.7786160341694874,1.8046955026954032,-0.9748004620086509,3.609171936116869,3,right
3.4219999999999997,-0.25543932171465294,0.7429764954435547,0.022564879555073778,0.9130035448278871,-4.667536575038621,0.7808131297392295,1.8080817387611767,-0.9833993828054703,3.6332246947171014,3,right
3.4219999999999997,-0.24892700183938266,0.7516802526341868,0.02136908625330479,0.8956793863075586,-4.670301951554052,0.7828974380613104,1.8107613798943218,-0.9913468276140831,3.6562566155645633,3,right
3.426,-0.24236733639044786,0.7602745506012025,0.02022607531514202,0.8772794464675031,-4.670739251942937,0.7848796479511808,1.8127317654570692,-0.9986186864076961,3.6782569106812373,3,right
3.427,-0.23576361230755657,0.7687549483016053,0.01913594483812393,0.8578391527701983,-4.668867915042633,0.7867704443197071,1.8139907453198016,-1.0051914985878043,3.6992153285465768,3,right
3.432,-0.22911922890629158,0.7771171817283002,0.018098731944334537,0.837395479303682,-4.664709245643681,0.7885804869067004,1.8145366860999967,-1.0110424924425758,3.719122153928469,3,right
3.4330000000000003,-0.2224376934796694,0.7853571688432417,0.017114408914062046,0.8159868714968492,-4.658286372547012,0.790320388676642,1.8143684772644204,-1.0161496239232342,3.737968207305057,3,right
3.435,-0.21572261681100435,0.7934710144820776,0.0161828791035733,0.7936531662351772,-4.649624204978106,0.7920006938820635,1.8134855370981875,-1.0204916147572716,3.7557448439375953,3,right
3.4360000000000004,-0.20897770856409126,0.8014550152017421,0.015303972716340992,0.770435507318233,-4.638749387346197,0.7936318557998019,1.811887818542255,-1.0240479899152528,3.772443952651517,3,right
3.4410000000000003,-0.20220677251146033,0.8093056640380912,0.014477442501597678,0.746376256197547,-4.6256902523301315,0.7952242141451512,1.8095758148988628,-1.0267991144458355,3.788057954379829,3,right
3.4419999999999997,-0.1954137015547547,0.8170196551372905,0.013702959458349304,0.7215188979307846,-4.610476772266061,0.7967879721687607,1.806550565402386,-1.028726229691437,3.8025798005198803,3,right
3.445,-0.1886024724856878,0.8245938882217713,0.012980108626853025,0.6959079422856058,-4.593140508805772,0.7983331734409881,1.802813660651008,-1.0298114888947205,3.8160029711514665,3,right
3.446,-0.18177714043354348,0.8320254728499965,0.012308385050872454,0.6695888199241936,-4.573714560808219,0.799869678328301,1.7983672478830575,-1.0300379921851108,3.828321473158281,3,right
3.446,-0.17494183294679844,0.839311732432517,0.011687189988885217,0.6426077735971358,-4.552233510420617,0.8014071401662467,1.7932140360321989,-1.029389820838906,3.839529838277405,3,right
3.451,-0.16810074366094857,0.846450207974834,0.011115827441407006,0.6150117442731867,-4.528733367299359,0.8029549811334442,1.7873573004079366,-1.0278520705362462,3.8496231210729217,3,right
3.452,-0.16125812550774674,0.8534386615213566,0.010593501055952637,0.586848252129399,-4.5032515109150335,0.8045223678310374,1.7808008867982605,-1.025410883242457,3.858596896812371,3,right
3.4560000000000004,-0.15441828342159078,0.8602750792678405,0.010119311478741806,0.5581652723242189,-4.475826630879911,0.8061181865720439,1.7735492148368275,-1.022053477432056,3.866447259235746,3,right
3.457,-0.14758556650122226,0.8669576742995568,0.009692254232719506,0.5290111056614114,-4.446498665296529,0.8077510184147153,1.765607280560742,-1.017768176539038,3.8731708182290334,3,right
3.458,-0.14076435959155736,0.8734848889106493,0.00931121819968508,0.4994342451862651,-4.415308737450681,0.8094291141223127,1.756980658130588,-1.0125444356077535,3.8787646974252246,3,right
3.46,-0.1339590742595331,0.8798553964676927,0.00897498477043496,0.46948324143740955,-4.3822990917611255,0.8111603694986173,1.7476755006918925,-1.0063728661347024,3.8832265317553496,3,right
3.4610000000000003,-0.1271741391485782,0.886068102786476,0.008682227714947616,0.4392065700114353,-4.3475130302232206,0.8129523016968319,1.7376985403552152,-0.9992452590889138,3.8865544649688406,3,right
3.465,-0.12041398970860467,0.8921221469869507,0.008431513822805273,0.4086525041610839,-4.310994850248011,0.8148120269514227,1.7270570872700977,-0.9911546060958842,3.8887471471392945,3,right
3.466,-0.11368305731088253,0.8980169017826483,0.008221304362761458,0.37786899346332115,-4.272789784198429,0.8167462399157792,1.715759027766156,-0.9820951187673275,3.8898037321684327,3,right
3.47,-0.10698575776896924,0.903751973157,0.008049957399261998,0.3469035486574637,-4.232943940588855,0.8187611946404998,1.7038128215326707,-0.9720622461562454,3.8897238752978383,3,right
3.471,-0.10032647929815432,0.9093271993812257,0.007915730986077119,0.3158031325656874,-4.191504246843212,0.820862687197662,1.6912274978061168,-0.9610526903140646,3.888507730634747,3,right
3.4760000000000004,-0.09370956995699205,0.9147426493350373,0.007816787239740863,0.28461405700758763,-4.148518393501958,0.8230560399566466,1.678012650533204,-0.9490644199238033,3.8861559486949404,3,right
3.477,-0.0871393246263917,0.9199986201026752,0.0077511972790334175,0.25338188561993713,-4.104034779763606,0.8253460875173154,1.664178432475121,-0.9360966819804403,3.882669673962503,3,right
3.4819999999999998,-0.08061997159526581,0.9250956338331476,0.00771694700004734,0.222151342492398,-4.058102460241815,0.8277371643065938,1.6497355482168525,-0.9221500114868543,3.878050542462957,3,right
3.483,-0.07415565883600637,0.9300344338732671,0.007711943639607042,0.19096622652968803,-4.010771092814689,0.8302330938447663,1.6346952460436317,-0.9072262391308912,3.872300679343021,3,right
3.485,-0.06775044006651054,0.9348159802025314,0.007734023063522951,0.15986933145057539,-3.962090887438592,0.8328371796880756,1.6190693086448045,-0.8913284969063101,3.8654226964469753,3,right
3.485,-0.06140826070776083,0.939441444218691,0.00778095770054584,0.12890237133407978,-3.912112555794624,0.8355521980545021,1.6028700426036406,-0.8744612216375452,3.857419689876379,3,right
3.49,-0.055132943856545505,0.9439122029414171,0.007850465028081883,0.09810591162338524,-3.8608872616319214,0.8383803921398987,1.5861102666299118,-0.8566301563654191,3.8482952375166137,3,right
3.492,-0.048928176399910275,0.9482298327173256,0.00794021650258308,0.06751930549822155,-3.808466571668018,0.84132346813197,1.5688032984903695,-0.8378423495481457,3.8380533965105124,3,right
3.4939999999999998,-0.04279749540020519,0.9523961025202272,0.008047846817571326,0.037180635526841505,-3.7549024069028216,0.8443825929298998,1.5509629405906222,-0.8181061520291827,3.8266987006560846,3,right
3.495,-0.03674427487807662,0.9564129669443533,0.008170963365810665,0.007126660509209014,-3.700246994199153,0.8475583935777558,1.532603464160285,-0.7974312117207211,3.8142361577021404,3,right
3.5010000000000003,-0.030771713117810035,0.9602825589877015,0.008307155777805893,-0.022607232576387176,-3.6445528179793634,0.8508509584201268,1.5137395919917196,-0.7758284659488618,3.8006712465123913,3,right
3.503,-0.024882820617411053,0.9640071827220186,0.0084540054063434,-0.051987071610369855,-3.5878725718842808,0.8542598399887841,1.4943864796811441,-0.7533101314037994,3.7860099140654326,3,right
3.5060000000000002,-0.01908040880525757,0.9675893059469308,0.00860909462788486,-0.08098033743882077,-3.5302591102375764,0.857784059629488,1.4745596953193982,-0.7298896916356453,3.770258572254809,3,right
3.5069999999999997,-0.013367079644390833,0.9710315529252741,0.00877001583689578,-0.1095559971356833,-3.4717653991556747,0.8614221138783998,1.4542751975782096,-0.7055818820338559,3.7534240944502058,3,right
3.51,-0.007745216242148755,0.9743366972909303,0.008934380018310947,-0.13768453250455095,-3.4124444671404937,0.8651719825978885,1.4335493121363974,-0.6804026722256081,3.7355138117776687,3,right
3.51,-0.002216974575219714,0.9775076552088225,0.009099824796850961,-0.1653379639032647,-3.352349354989616,0.869031138881852,1.4123987063890902,-0.6543692458258713,3.716535509073613,3,right
3.515,0.0032157235717720574,0.9805474788510168,0.00926402187907639,-0.19248986947334576,-3.2915330648559817,0.8729965607410027,1.3908403623817218,-0.6274999774693805,3.696497420464279,3,right
3.516,0.008551196371832045,0.9834593502350173,0.009424683822241611,-0.2191153998550095,-3.2300485082867842,0.8770647445788818,1.368891547966911,-0.599814407094884,3.6754082245391406,3,right
3.517,0.013788006363261617,0.9862465754522055,0.009579570082093845,-0.24519128846714427,-3.1679484530690667,0.8812317204696831,1.3465697864691766,-0.5713332116629328,3.6532770391834224,3,right
3.5189999999999997,0.01892496345992075,0.9889125792982957,0.009726492310005733,-0.2706958574302022,-3.1052854687074096,0.8854930692492703,1.3238928256597655,-0.542078174870101,3.630113416311328,3,right
3.5189999999999997,0.023961126541109996,0.9914609003032007,0.00986331888685415,-0.295609019208439,-3.042111870357198,0.8898439414310656,1.3008786071308165,-0.5120721556335298,3.6059273368382785,3,right
3.5239999999999996,0.028895803604530958,0.9938951861419412,0.009987978695360281,-0.3199122740623597,-2.9784796611293154,0.89427907791586,1.2775452368689497,-0.48133905590405984,3.580729206127746,3,right
3.5239999999999996,0.033728550469793867,0.9962191893939256,0.010098464143903575,-0.34358870348055165,-2.9144404731511173,0.898792832250308,1.2539109573088458,-0.4499037879799737,3.554529849965821,3,right
3.525,0.03845916802942816,0.9984367636096542,0.010192833463653897,-0.36662295990233024,-2.85004550861423,0.9033791938029212,1.2299941208583516,-0.41779224127786896,3.5273405110139984,3,right
3.528,0.04308769805783207,1.0005518596348784,0.010269212311738843,-0.3890012531208388,-2.7853454825090154,0.908031811012061,1.2058131648281216,-0.3850312484724277,3.4991728456678226,3,right
3.529,0.047614417601290475,1.002568522124295,0.010325794731463138,-0.4107113336744803,-2.72039056827375,0.9127440140752122,1.1813865876979412,-0.3516485509148341,3.4700389212461435,3,right
3.533,0.05203983198343351,1.0044908861572457,0.010360843543429574,-0.43174247338878247,-2.655230346738404,0.9175088368352322,1.1567329266510602,-0.31767276323764804,3.439951213432906,3,right
3.533,0.05636466647275224,1.0063231738573881,0.010372690261167796,-0.45208544314894766,-2.589913758271387,0.9223190378340139,1.1318707363071159,-0.28313333705208316,3.4089226038905815,3,right
3.5380000000000003,0.06058985667271567,1.008069690916875,0.010359734638434556,-0.4717324879654339,-2.524489057942768,0.9271671205470841,1.1068185685835137,-0.2480605236418494,3.3769663779615735,3,right
3.5389999999999997,0.06471653770818207,1.0097348229297598,0.010320443962024832,-0.4906772993929618,-2.4590037735168866,0.9320453528128111,1.0815949536144789,-0.21248533555602156,3.3440962223711916,3,right
3.543,0.06874603229250165,1.0113230314482777,0.010253352202012886,-0.5089149853613733,-2.3935046660868258,0.936945785470022,1.0562183816563995,-0.17643950700177513,3.3103262228430825,3,right
3.5439999999999996,0.0726798377702664,1.012838849688165,0.010157059121364779,-0.5264420374747657,-2.328037693162897,0.9418602702179425,1.030707285907532,-0.1399554529363026,3.275670861535345,3,right
3.548,0.0765196122442143,1.0142868778237062,0.010030229432249625,-0.5432562958333178,-2.2626479740271184,0.9467804767124542,1.005080026169648,-0.10306622675577978,3.240145014202943,3,right
3.549,0.08026715991035673,1.0156717778288282,0.009871592069446773,-0.5593569114301891,-2.1973797571656237,0.9516979089127307,0.9793548732787623,-0.06580547647790214,3.203763946989417,3,right
3.553,0.08392441573883616,1.0169982678369844,0.00967993963260628,-0.5747443061738408,-2.1322763895910315,0.956603920692351,0.953549994231694,-0.028207399313253282,3.1665433127483937,3,right
3.554,0.08749342964639224,1.018271116010128,0.009454128030166717,-0.5894201305840775,-2.067380287867017,0.9614897307290086,0.9276834379348814,0.009693305480394697,3.1284991467928487,3,right
3.5580000000000003,0.09097635030836115,1.0194951339256653,0.009193076340375214,-0.6033872192080648,-2.002732910647688,0.9663464366869222,0.9017731215015873,0.04786148556781572,3.089647861967652,3,right
3.5589999999999997,0.09437540875307546,1.020675169507948,0.008895766889588392,-0.6166495438005284,-1.93837473254483,0.9711650287060238,0.8758368170234037,0.08626158643803353,3.0500062429385086,3,right
3.563,0.09769290187082046,1.021816099545812,0.008561245534581074,-0.6292121643103025,-1.874345219136677,0.9759364022119396,0.8498921387417849,0.12485770434679773,3.0095914395880343,3,right
3.5639999999999996,0.10093117595744097,1.0229228218494302,0.008188622124307357,-0.6410811777133589,-1.810682802932587,0.9806513700606978,0.8239565305452176,0.16361364140940257,2.9684209594073976,3,right
3.568,0.10409261040232162,1.0240002471084535,0.007777071108240386,-0.6522636647304265,-1.747424860108816,0.9853006740319858,0.7980472537175531,0.20249296295408423,2.926512658769678,3,right
3.57,0.10717960162091487,1.025053290519519,0.007325832253978866,-0.6627676344653038,-1.6846076878315386,0.9898749956846425,0.772181374863012,0.24145905724679512,2.8838847329688866,3,right
3.572,0.11019454732189356,1.0260868632547668,0.006834211436649657,-0.672601966997976,-1.6222664819843093,0.9943649665879115,0.746375753933388,0.2804751976986124,2.8405557049064067,3,right
3.573,0.11313983118947872,1.0271058638425512,0.00630158146587263,-0.681776353964678,-1.5604353151183212,0.9987611779417928,0.7206470322830592,0.3195046076673914,2.796544412304509,3,right
3.5780000000000003,0.11601780805394964,1.0281151695258572,0.005727382921034711,-0.6903012371550977,-1.4991471144450754,1.0030541895996108,0.695011620677539,0.35851052796552435,2.7518699933245188,3,right
3.5780000000000003,0.11883078961652896,1.029119627654931,0.0051111249702172614,-0.6981877451549928,-1.4384336396924504,1.0072345385056802,0.6694856871814665,0.3974562871858082,2.706551870465203,3,right
3.583,0.12158103078460333,1.0301240471613988,0.004452386150543854,-0.7054476280605967,-1.3783254606466162,1.0112927465606754,0.6440851448521622,0.43630537495746324,2.660609732614989,3,right
3.5839999999999996,0.12427071665627694,1.0311331901523046,0.0037508150888575205,-0.71209319028933,-1.3188519342037965,1.0152193279270172,0.6188256391919315,0.4750215181173291,2.614063515203106,3,right
3.5839999999999996,0.12690195017283376,1.0321517636530588,0.003006131144366202,-0.7181372215094968,-1.2600411807575311,1.0190047957862653,0.5937225354465792,0.513568759146354,2.566933378759841,3,right
3.5869999999999997,0.12947674044018215,1.0331844115189315,0.0022181249598453904,-0.7235929257098482,-1.2019200597488273,1.0226396685601549,0.568790906079089,0.5519115350786824,2.5192396868548106,3,right
3.5869999999999997,0.13199699170525206,1.0342357065278474,0.0013866589130080522,-0.7284738484281338,-1.1445141442084095,1.026114475606535,0.5440455188817932,0.5900147544555281,2.471002984747373,3,right
3.594,0.13446449295644955,1.0353101426634261,0.0005116674640393196,-0.7327938021560274,-1.0878476941221757,1.0294197624010661,0.5195008260568394,0.6278438705302731,2.422243979714661,3,right
3.595,0.13688090810170087,1.0364121275945852,-0.00040684259969586006,-0.7365667900262355,-1.031943628546618,1.0325460952290004,0.49517095435412367,0.6653649500731779,2.3729835233606136,3,right
3.595,0.13924776667128097,1.037545975355372,-0.001368792016153091,-0.7398069283364386,-0.9768234968713285,1.0354840654804445,0.4710696962224236,0.7025447377581413,2.3232425958408647,3,right
3.5989999999999998,0.14156645499609619,1.038715899226429,-0.0023740289907220823,-0.7425283692740176,-0.9225074504708288,1.038224293767166,0.4472105019032541,0.7393507162401111,2.2730422918634643,3,right
3.6,0.1438382078152386,1.0399260048173928,-0.0034223292192266,-0.7447452256544446,-0.8690142164584564,1.040757434148021,0.4236064723975804,0.7757511620308588,2.2224038083239646,3,right
3.6039999999999996,0.1460641002631245,1.0411802833467176,-0.004513395979536952,-0.7464714990341859,-0.8163610747889792,1.0430741786800108,0.4002703532361831,0.8117151972798595,2.1713484334320228,3,right
3.605,0.14824504018427256,1.042482605111692,-0.005646860275987088,-0.74772101174657,-0.7645638391159302,1.0451652623862522,0.37721452898515934,0.8472128375659405,2.119897537185356,3,right
3.6060000000000003,0.15038176073191478,1.0438367131369015,-0.006822281023380707,-0.7485073429571186,-0.7136368413436893,1.0470214686620267,0.3544510184187819,0.8822150358042005,2.068072563045623,3,right
3.6069999999999998,0.15247481322423473,1.0452462169839807,-0.00803914526621041,-0.74884376874333,-0.663592919723091,1.0486336351255439,0.33199147029270376,0.9166937223714517,2.0158950206696087,3,right
3.611,0.1545245602540377,1.0467145866991854,-0.0092968684357526,-0.7487432062025339,-0.6144434103417876,1.0499926599194025,0.30984715965130016,0.9506218415520973,1.9633864795479556,3,right
3.612,0.1565311690701291,1.048245146868326,-0.010594794646124473,-0.7482181615901042,-0.5661981418630968,1.0510895084680674,0.2880289846037804,0.9839733844049321,1.910568563402605,3,right
3.617,0.15849460526834205,1.0498410707423604,-0.011932197021535562,-0.7472806824890257,-0.5188654333695943,1.0519152206959714,0.26654746350457315,1.0167234181498623,1.8574629451931066,3,right
3.6189999999999998,0.16041462684510446,1.0515053743947385,-0.013308278037002021,-0.7459423140105506,-0.47245209517027986,1.0524609187101266,0.2454127324743943,1.0488481121719497,1.8040913425809986,3,right
3.6210000000000004,0.16229077867648548,1.0532409108761025,-0.014722169848959672,-0.7442140590244647,-0.4269634324327381,1.052717814950375,0.2246345431993419,1.080324760738539,1.7504755137005723,3,right
3.622,0.16412238749033167,1.0550503643429026,-0.016172934591934668,-0.7421063424162925,-0.3824032515043357,1.0526772208096367,0.2042222609463293,1.1111318025234984,1.6966372530835112,3,right
3.6260000000000003,0.16590855739711563,1.056936244151623,-0.01765956462165758,-0.7396289793676226,-0.3387738687891325,1.0523305557256977,0.18418486273416337,1.1412488370308118,1.6425983875841257,3,right
3.627,0.16764816603699745,1.0589008789267753,-0.019180982694474085,-0.7367911476546094,-0.2960761220498381,1.0516693567452622,0.16453093560059753,1.1706566380078978,1.588380772151211,3,right
3.6310000000000002,0.16933986138928725,1.0609464106257658,-0.02073604208890547,-0.7336013639586171,-0.25430938400680814,1.0506852885601317,0.14526867490673998,1.199337163937113,1.5340062852919103,3,right
3.6319999999999997,0.17098205927992421,1.0630747886351142,-0.022323526694764312,-0.7300674641819105,-0.21347157810874934,1.049370154014496,0.1264058826212733,1.2272735656919174,1.4794968240723885,3,right
3.639,0.17257294161673,1.0652877639395222,-0.023942151113262786,-0.7261965877602581,-0.17355919635246997,1.0477159050814213,0.10794996552804297,1.2544501914421415,1.4248742984996157,3,right
3.64,0.17411045538262301,1.0675868834078712,-0.02559056082553519,-0.7219951659633005,-0.13456731903168787,1.0457146543056883,0.08990793330169587,1.2808525888907127,1.370160625128099,3,right
3.641,0.17559231242149068,1.069973484238252,-0.02726733249616543,-0.7174689141725473,-0.0964896362975723,1.043358686709186,0.07228639639719746,1.3064675049220602,1.3153777197350254,3,right
3.642,0.1770159900565535,1.072448688598556,-0.02897097448130376,-0.7126228281258962,-0.05931847141635104,1.040640472154093,0.05509156370022322,1.3312828827402372,1.2605474889069381,3,right
3.645,0.17837873258451753,1.0750133984924328,-0.030699927605570637,-0.7074611841166183,-0.023044805611955953,1.0375526781580784,0.038329239886608996,1.3552878565725812,1.2056918203808253,3,right
3.6460000000000004,0.17967755368952265,1.07766829087522,-0.03245256625702148,-0.701987543133817,0.01234169561569633,1.0340881831547393,0.0220048224402515,1.3784727440124707,1.1508325719822832,3,right
3.6510000000000002,0.18090923981842869,1.080413813041364,-0.03422719982691389,-0.696204758930448,0.04685265480359111,1.0302400901914504,0.006123298280075491,1.4008290360724398,1.0959915590032938,3,right
3.6519999999999997,0.18207035455354478,1.0832501783022699,-0.03602207449640814,-0.6901149900040798,0.08050095357389647,1.02600174105574,-0.009310760028769644,1.4223493850252173,1.041190539930098,3,right
3.6519999999999997,0.18315724401103392,1.0861773619701902,-0.03783537535377656,-0.6837197154746772,0.1133007025193192,1.0213667308202248,-0.02429319838653835,1.4430275901510088,0.9864512007717389,3,right
3.656,0.18416604328347966,1.0891950976608982,-0.03966522881694019,-0.6770197548428006,0.14526721002470433,1.0163289227950338,-0.03882028528938027,1.4628585815845703,0.931795138852095,3,right
3.656,0.1850926839344274,1.092302873927528,-0.041509705330674454,-0.6700152916107273,0.1764169501215715,1.0108824638755347,-0.052888715556922504,1.4818384024963382,0.8772438472684397,3,right
3.66,0.18593290254159953,1.0954999312400482,-0.04336682229952074,-0.6627059007481279,0.20676752946984583,1.0050218002720301,-0.06649561335039939,1.4999641897963456,0.8228187008796364,3,right
3.661,0.18668225027324814,1.0987852593267573,-0.04523454721101105,-0.6550905799830491,0.23633765355865,0.9987416936069426,-0.07963853438322496,1.5172341534696208,0.7685409440751262,3,right
3.661,0.18733610346968074,1.1021575948940978,-0.047110800905573805,-0.6471677848621906,0.2651470921871595,0.9920372373530952,-0.09231546734111166,1.5336475546062123,0.7144316802360688,3,right
3.6660000000000004,0.18788967519408864,1.105615419739539,-0.048993460958457684,-0.6389354673441258,0.2932166441416257,0.9849038735318484,-0.10452483455081892,1.549204682177903,0.6605118627323289,3,right
3.667,0.1883380277157872,1.1091569592712704,-0.050880365150082714,-0.6303911173652199,0.32056810072574315,0.9773374094920547,-0.1162654919352836,1.563906828611229,0.6068022872994299,3,right
3.67,0.18867608588810167,1.112780181449655,-0.05276931500970429,-0.6215318066376583,0.3472242076567505,0.9693340345359143,-0.12753672829154605,1.5777562642039484,0.5533235856400802,3,right
3.6710000000000003,0.1888986513752572,1.1164827961683055,-0.054658079423075615,-0.6123542341175581,0.3732086249801356,0.960890336210245,-0.1383382639265439,1.5907562104296584,0.5000962200954162,3,right
3.675,0.18900041767176812,1.1202622550953516,-0.056544398302234886,-0.6028547729032677,0.39854588491044224,0.9520033161770298,-0.1486702486844996,1.6029108121728026,0.44714047923171485,3,right
3.676,0.1889759858519112,1.124115751997178,-0.0584259863262098,-0.5930295185025033,0.4232613476462844,0.9426704056295071,-0.1585332593982806,1.614225108933855,0.3944764741889914,3,right
3.68,0.18881988098717714,1.128040223567828,-0.06030053677220868,-0.5828743384419498,0.4473811552342669,0.9328894802295441,-0.16792829679576193,1.6247050050420424,0.3421241356386148,3,right
3.681,0.18852656917344968,1.1320323507867018,-0.062165725464284546,-0.5723849231920306,0.47093218355465427,0.9226588745407556,-0.17685678189087414,1.634357238910527,0.2901032111978583,3,right
3.685,0.1880904751154833,1.1360885608248523,-0.06401921486843345,-0.5615568383786093,0.493941992499846,0.9119773959305532,-0.18532055188767205,1.6431893513665679,0.23843326315013832,3,right
3.6860000000000004,0.18750600022370542,1.1402050295170665,-0.06585865835945919,-0.5503855782524418,0.5164387744150046,0.9008443379130247,-0.19332185562441692,1.6512096530867817,0.18713366632058995,3,right
3.69,0.18676754118720762,1.144377684414177,-0.06768170467822135,-0.5388666203862373,0.5384513008685521,0.8892594929032483,-0.20086334858332527,1.658427191165246,0.13622360595757807,3,right
3.69,0.1858695089965743,1.148602208428389,-0.06948600259150348,-0.5269954815682105,0.5600088678186967,0.8772231643523595,-0.2079480874903034,1.664851714839837,0.08572207547175305,3,right
3.695,0.18480634840082139,1.1528740440850527,-0.07126920576289093,-0.5147677748600242,0.5811412392406796,0.8647361782313825,-0.21457952452765883,1.6704936403998598,0.03564787388532137,3,right
3.696,0.18357255779389217,1.1571883983978393,-0.07302897784224273,-0.5021792677860218,0.6018785892780392,0.8517998938305514,-0.2207615011814598,1.6753640152957259,-0.01398039715467848,3,right
3.7,0.18216270953633765,1.1615402483895692,-0.07476299778287192,-0.48922594161963723,0.6222514429798887,0.8384162138395435,-0.226498241743903,1.6794744814691573,-0.06314433694413207,3,right
3.701,0.18057147072538188,1.165924347285983,-0.07646896539883744,-0.47590405173184624,0.6422906156849779,0.8245875936727555,-0.2317943464897482,1.6828372379201504,-0.11182575001444654,3,right
3.705,0.17879362443182864,1.1703352314116664,-0.07814460718076478,-0.4622101889654876,0.6620271511121774,0.8103170500024659,-0.23665478454458783,1.6854650025247115,-0.16000665129251893,3,right
3.7060000000000004,0.17682409142525232,1.1747672278144319,-0.07978768239806416,-0.4481413419982346,0.6814922582159791,0.7956081684614392,-0.24108488646144194,1.6873709731152042,-0.20766927226927084,3,right
3.7089999999999996,0.17465795240347587,1.179214462642768,-0.08139598952035235,-0.4336949606559384,0.7007172468646458,0.7804651104752542,-0.24509033652090323,1.6885687878329916,-0.2547960683165597,3,right
3.71,0.1722904707166926,1.183670870316952,-0.08296737297350279,-0.4188690201369993,0.7197334623977744,0.764892619183368,-0.2486771647688062,1.6890724847609533,-0.30136972729083883,3,right
3.715,0.16971711552569868,1.1881302035797257,-0.08449973019942639,-0.4036620861073432,0.7385722191192603,0.7488960244066691,-0.2518517388041597,1.6888964608413808,-0.347373179560451,3,right
3.715,0.16693358526782454,1.1925860445706835,-0.08599101893276027,-0.38807338062449925,0.7572647327809572,0.7324812466180294,-0.25462075532886197,1.6880554300827222,-0.3927896095919004,3,right
3.72,0.16393583124070701,1.1970318170998724,-0.08743926456592648,-0.3721028488481836,0.775842052111728,0.7156547998711291,-0.2569912314695163,1.6865643810566533,-0.4376024692288606,3,right
3.721,0.16072008106261998,1.2014608002743352,-0.08884256744863436,-0.3557512264937038,0.7943349894460732,0.698423793641616,-0.25897049588048093,1.6844385336850067,-0.4817954927960373,3,right
3.722,0.157282861730679,1.2058661435691704,-0.09019910995048845,-0.33902010798339943,0.812774050506103,0.6807959335334545,-0.26056617963310713,1.6816932953621184,-0.5253527140910935,3,right
3.727,0.15362102198625208,1.2102408833688285,-0.09150716311339045,-0.32191201525024415,0.8311893633902865,0.6627795208021448,-0.2617862068798923,1.678344216696063,-0.5682584849899784,3,right
3.728,0.14973175371591074,1.21457796095702,-0.09276509274365409,-0.3044304671466357,0.849610606822168,0.6443834506453274,-0.2626387852540054,1.6744069475819807,-0.6104974947841838,3,right
3.7289999999999996,0.14561261213697846,1.2188702418962438,-0.09397136482593572,-0.28658004931743875,0.8680669377417809,0.6256172092289581,-0.2631323959484577,1.6698971945586918,-0.6520547890304941,3,right
3.73,0.14126153452405027,1.2231105367032329,-0.09512455016609864,-0.2683664839308655,0.8865869184708762,0.6064908695101608,-0.2632757834331962,1.6648306801582893,-0.6929157870280555,3,right
3.73,0.13667685726164278,1.2272916227041508,-0.09622332820328679,-0.24979669782379846,0.9051984439503356,0.5870150860860436,-0.2630779447944889,1.659223104525152,-0.7330662976407154,3,right
3.734,0.1318573310741205,1.2314062669354566,-0.09726648999071999,-0.23087888715270724,0.9239286696966994,0.567201089390737,-0.2625481186950226,1.6530901093394057,-0.7724925335167594,3,right
3.735,0.1268021343705314,1.2354472499242315,-0.09825294042792045,-0.21162257710466492,0.9428039409764579,0.5470606794678451,-0.261695773955144,1.6464472440303093,-0.8111811238233942,3,right
3.739,0.12151088475750225,1.2394073901460092,-0.09918169992803082,-0.19203867605786162,0.9618497234297828,0.5266062193752283,-0.2605305977546965,1.6393099342634962,-0.8491191256112918,3,right
3.74,0.11598364892782181,1.2432795689379632,-0.10005190581163152,-0.17213952404441074,0.9810905352272565,0.505850628184031,-0.25906248345394994,1.631693452684482,-0.8862940339224246,3,right
3.7430000000000003,0.11022095129596919,1.2470567556376349,-0.10086281380066936,-0.15193893546015355,1.0005498808138795,0.48480737351412245,-0.25730151803119655,1.623612891899386,-0.922693790752308,3,right
3.7439999999999998,0.10422378188147886,1.2507320327165072,-0.10161379999568847,-0.1314522359652291,1.0202501862951177,0.4634904635472186,-0.2552579691336868,1.6150831396724026,-0.9583067929756071,3,right
3.7489999999999997,0.09799360400496998,1.254298620688995,-0.10230436362147616,-0.11069629351827404,1.0402127365203189,0.44191443845808936,-0.2529422717377094,1.606118856318171,-0.9931218993418764,3,right
3.75,0.09153236233668667,1.2577499026029204,-0.10293413061755018,-0.08968954348625513,1.0604576139194444,0.42009436120342736,-0.2503650144127784,1.5967344542658612,-1.0271284366459754,3,right
3.755,0.08484249170920095,1.2610794479469365,-0.1035028578698575,-0.06845200777111723,1.0810036391497568,0.39804580760717523,-0.2475369251840805,1.586944079770506,-1.0603162051754387,3,right
3.755,0.07792692687714384,1.2642810358305485,-0.10401043761143301,-0.047005307893660704,1.1018683136098557,0.3757848556803588,-0.2444688569865509,1.5767615967458577,-1.0926754835347985,3,right
3.758,0.0707891131047642,1.2673486773041958,-0.1044569013578081,-0.02537267197434437,1.123067763879257,0.35332807411277795,-0.2411717727031995,1.5662005726918407,-1.124197032944523,3,right
3.759,0.0634330171406376,1.2702766367084475,-0.10484242274355128,-0.003578935550051031,1.1446166881425783,0.3306925098732491,-0.2376567297795846,1.555274266688505,-1.1548721011098924,3,right
3.763,0.05586313787058215,1.273059451988514,-0.10516731878371773,0.01834946383474531,1.1665283046583053,0.3078956748544867,-0.2339348644056447,1.5439956194272575,-1.1846924257527525,3,right
3.764,0.04808451579897198,1.2756919539756524,-0.10543204933745765,0.04038449832450172,1.1888143023330677,0.284955531498147,-0.23001737525544066,1.5323772452490614,-1.2136502378966794,3,right
3.7680000000000002,0.040102740543683624,1.278169284697994,-0.10563721480304447,0.06249656779936868,1.2114847934633604,0.26189047733504606,-0.2259155067747342,1.5204314261582437,-1.2417382649936577,3,right
3.7689999999999997,0.03192395573487357,1.2804869148276694,-0.10578355223695822,0.08465452433512664,1.2345482687076803,0.23871932837510154,-0.22164053200573494,1.5081701077795366,-1.2689497339779237,3,right
3.773,0.02355486101711853,1.282640660401193,-0.10587193013576511,0.1068257031395338,1.258011554353122,0.21546130128113705,-0.21720373493778627,1.4956048972250018,-1.2952783743301428,3,right
3.7739999999999996,0.015002711173463856,1.2846266989602237,-0.10590334207137501,0.1289759600285401,1.2818797719415778,0.19213599426032968,-0.21261639237223107,1.4827470628365491,-1.3207184212326006,3,right
3.778,0.006275312637448144,1.2864415852228346,-0.10587889926632166,0.15106971550595097,1.3061563003218097,0.16876336660677788,-0.20788975528920026,1.4696075357688474,-1.3452646188935597,3,right
3.779,-0.0026189822053405737,1.2880822662799667,-0.10579982207715583,0.17307000551015927,1.3308427401948117,0.14536371682841728,-0.203035029703603,1.4561969133765602,-1.3689122241164098,3,right
3.782,-0.01167128249683177,1.2895460961147998,-0.10566743026526823,0.1949385388915003,1.3559388812210331,0.12195765929132057,-0.19806335699716449,1.442525464368987,-1.3916570101866794,3,right
3.783,-0.020872167784880408,1.290830849005233,-0.1054831319120078,0.21663576168362006,1.381442671759209,0.09856609931428142,-0.19298579371295754,1.4286031356943902,-1.4134952711474165,3,right
3.787,-0.030211698005374342,1.2919347311700666,-0.10524841088772112,0.23812092823197506,1.407350191307714,0.07521020664650609,-0.18781329082741127,1.4144395610972125,-1.4344238265064666,3,right
3.7880000000000003,-0.039679424379728774,1.2928563899467902,-0.10496481288672005,0.2593521792422012,1.433655625720528,0.05191138726121844,-0.18255667265898118,1.4000440711991866,-1.454440026294637,3,right
3.7889999999999997,-0.04926440116450834,1.2935949198528358,-0.10463393017557417,0.2802866268105943,1.4603512452710736,0.028691253398026112,-0.17722661583251997,1.3854257047899894,-1.473541756171601,3,right
3.793,-0.058955198352866445,1.2941498649616654,-0.10425738540306323,0.3008804464983326,1.4874273856383375,0.005571591786998646,-0.17183362886265147,1.3705932209209513,-1.4917274421518392,3,right
3.795,-0.06873991564650521,1.2945212170363392,-0.10383681508481857,0.3210889765103417,1.5148724318908238,-0.017425670012427036,-0.16638803277467235,1.3555551114861177,-1.5089960546422365,3,right
3.798,-0.0786061982632759,1.2947094089106383,-0.10337385358578574,0.3408668240388458,1.5426728055450143,-0.04027849922437221,-0.16089994292113416,1.340319614138938,-1.5253471116998691,3,right
3.799,-0.08854125534648129,1.2947153028299678,-0.10287011845065744,0.36016797883067014,1.570812954776088,-0.0629647954876424,-0.1553792520075422,1.3248947254836985,-1.540780681537817,3,right
3.8,-0.09853188183026783,1.2945401738332447,-0.10232719776432887,0.3789459339073098,1.5992753479212027,-0.08546243051767002,-0.149835614311549,1.3092882144985198,-1.555297384328621,3,right
3.805,-0.10856448455301396,1.2941856885954859,-0.10174663994457409,0.39715381272083633,1.6280404707240752,-0.10774928954446758,-0.144278431079898,1.2935076361461657,-1.5688983933523495,3,right
3.806,-0.11862511321490155,1.2936538803292181,-0.1011299460736267,0.41474450086687764,1.6570868283239502,-0.129803313790694,-0.13871683708727908,1.2775603451283684,-1.5815854355336154,3,right
3.807,-0.1286994965363493,1.2929471204388427,-0.10047856460609618,0.4316707798296963,1.6863909533003862,-0.1516025429863879,-0.13315968834119016,1.2614535097388562,-1.593360791409248,3,right
3.807,-0.138773083752112,1.2920680877522108,-0.09979388805215113,0.44788546087745873,1.7159274207787292,-0.17312515718332278,-0.12761555091686078,1.2451941257697623,-1.6042272945656963,3,right
3.812,-0.14883109133666192,1.2910197362484015,-0.09907725107406731,0.46334151838448173,1.7456688710485786,-0.1943495176118842,-0.12209269090627951,1.2287890304256202,-1.6141883305826135,3,right
3.813,-0.15885855457491693,1.2898052621510188,-0.09832992942429941,0.4779922225000394,1.775586039840864,-0.21525420658964328,-0.11659906546537949,1.2122449161986892,-1.623247835516458,3,right
3.8169999999999997,-0.16884038331936416,1.288428071097923,-0.09755313930309653,0.4917912712102082,1.805647796348315,-0.23581806654340898,-0.1111423149434729,1.1955683446589163,-1.6314102939553343,3,right
3.818,-0.17876142106642168,1.2868917459264297,-0.09674803695118207,0.5046929218370519,1.835821189074709,-0.256020238205685,-0.10572975607908633,1.1787657601114194,-1.6386807366736973,3,right
3.822,-0.18860650636128812,1.2852000154822152,-0.09591571852026756,0.516652122017134,1.8660714995987693,-0.2758401980455392,-0.10036837624643093,1.161843503073984,-1.6450647379129533,3,right
3.822,-0.1983605355019531,1.2833567247875703,-0.09505722041162622,0.527624640198899,1.896362304339003,-0.2952577949929157,-0.09506482873684821,1.1448078235266752,-1.6505684123114206,3,right
3.826,-0.2080085255478827,1.2813658068824918,-0.09417352032099413,0.5375671956958914,1.9266555444060847,-0.31425328651437945,-0.08982542905969713,1.1276648938853107,-1.6551984115045488,3,right
3.8280000000000003,-0.2175356767232741,1.279231256657217,-0.09326553919572794,0.546437588330069,1.9569116036296081,-0.3328073740971888,-0.08465615224729509,1.1104208216501972,-1.6589619204137427,3,right
3.833,-0.22692743341003518,1.2769571070028778,-0.09233414423115391,0.554194827696641,1.9870893948461394,-0.3509012381974351,-0.0795626311486909,1.0930816616812016,-1.6618666532396218,3,right
3.833,-0.23616954302908316,1.2745474075996457,-0.09138015293829126,0.5607992620789026,2.017146454535516,-0.3685165727067751,-0.07455015569723114,1.075653428049923,-1.6639208491730328,3,right
3.838,-0.2452481121993455,1.2720062066285456,-0.09040433822621906,0.5662127070384582,2.047039045892215,-0.38563561899101895,-0.06962367313708194,1.0581421054194442,-1.6651332678346342,3,right
3.839,-0.2541496596394706,1.269337535632191,-0.08940743437165559,0.570398573703033,2.0767222704183945,-0.40224119955251136,-0.06478778919408547,1.040553659901863,-1.6655131844514262,3,right
3.841,-0.2628611653369422,1.2665453976652263,-0.0883901437014102,0.5733219967707656,2.106150188124859,-0.41831675136687274,-0.06004677017656221,1.022894049343548,-1.6650703847761386,3,right
3.842,-0.271370115554418,1.2636337587714657,-0.08735314379236998,0.574949962246451,2.13527594642573,-0.43384635894324153,-0.05540454599191637,1.0051692329878288,-1.6638151597529836,3,right
3.845,-0.27966454328155854,1.260606542704432,-0.08629709499951214,0.5752514349216868,2.1640519178119852,-0.44881478715568524,-0.05086471406516156,0.9873851804646043,-1.6617582999308835,3,right
3.846,-0.28773306378540286,1.257467628677758,-0.08522264815400109,0.5741974856072468,2.1924298463883156,-0.4632075138919273,-0.046430544145755454,0.969547880056154,-1.6589110896229247,3,right
3.8510000000000004,-0.29556490497395127,1.2542208518059874,-0.08413045232322384,0.5717614181222944,2.2203610033568593,-0.4770107625639688,-0.04210498398941526,0.9516633461882426,-1.6552853008084563,3,right
3.852,-0.30314993236915744,1.2508700057937292,-0.0830211625750641,0.5679188960412386,2.247796351530378,-0.4902115345235741,-0.037890665901879464,0.933737626095444,-1.6508931867719456,3,right
3.8560000000000003,-0.310478668585318,1.247418847369469,-0.08189544771688714,0.5626480691951472,2.274686718956293,-0.5027976414239381,-0.03378991413188388,0.9157768056094562,-1.6457474754704404,3,right
3.8569999999999998,-0.31754230731763294,1.2438711019554307,-0.08075399797300915,0.5559296999206673,2.3009829817317162,-0.5147577375671589,-0.02980475308881225,0.897787014035371,-1.6398613626202996,3,right
3.8569999999999998,-0.32433272193886925,1.2402304701283182,-0.07959753253548639,0.5477472890453672,2.326636256088178,-0.5260813522754126,-0.0259369163002036,0.8797744281623945,-1.6332485044969351,3,right
3.861,-0.3308424688652536,1.2365006345384177,-0.07842680689367944,0.5380872015943161,2.351598099823205,-0.5367589223219622,-0.022187855915550347,0.8617452756023809,-1.6259230104486304,3,right
3.862,-0.3370647859180763,1.232685267055834,-0.07724261981705757,0.5269387921985671,2.375820723154173,-0.5467818244563368,-0.018558752502555564,0.8437058377311065,-1.6178994351286526,3,right
3.866,-0.3429935860014577,1.2287880359644654,-0.07604581982821673,0.5142945299690572,2.3992572086692463,-0.5561424079901789,-0.015050524942951138,0.8256624524254974,-1.6091927704425186,3,right
3.866,-0.34862344648802673,1.2248126130543961,-0.07483731098652996,0.5001501215304487,2.4218617380542686,-0.5648340270783562,-0.011663840344393267,0.80762151664301,-1.599818437195726,3,right
3.867,-0.3539495947059312,1.2207626804996417,-0.07361805782920357,0.4845046289886141,2.443589819683253,-0.5728510717339632,-0.008399123945892461,0.789589488807684,-1.589792276419988,3,right
3.87,-0.3589678899148121,1.216641937430386,-0.07238908936017344,0.46736057853642465,2.4643985091639107,-0.5801889962838888,-0.005256569006701304,0.7715728909510491,-1.5791305403529947,3,right
3.872,-0.3636748022156089,1.2124541060949667,-0.07115150201020698,0.448724056462952,2.4842466169212223,-0.5868443442997551,-0.0022361466689318466,0.7535783105560718,-1.5678498830448038,3,right
3.8760000000000003,-0.3680673889189057,1.2082029374683187,-0.06990646152436168,0.428604791243441,2.503094900488643,-0.5928147696311896,0.000662384215475589,0.7356124020523565,-1.5559673505620935,3,right
3.877,-0.3721432689329101,1.2038922161225305,-0.06865520377870815,0.40701622144786637,2.52090624116784,-0.5980990534964922,0.0034394673024600057,0.7176818879108556,-1.5435003707596853,3,right
3.8819999999999997,-0.3759005957292493,1.1995257641442822,-0.06739903457445594,0.3839755494145564,2.537645805113894,-0.6026971176498114,0.006095739026901082,0.6997935592864128,-1.5304667425869685,3,right
3.883,-0.3793380294357302,1.1951074438705422,-0.06613932848890332,0.35950378063111516,2.5532811889000384,-0.6066100336419789,0.008632018935361955,0.6819542761565388,-1.516884624895125,3,right
3.886,-0.38245470860352787,1.1906411592243629,-0.06487752687679846,0.3336257487606626,2.5677825496130198,-0.6098400281901813,0.011049300088492602,0.664170966904927,-1.502772524709382,3,right
3.886,-0.38525022219971705,1.1861308554699443,-0.0636151351164037,0.30637012624724747,2.581122719527104,-0.6123904846696826,0.013348739540726363,0.6464506272983365,-1.488149284928886,3,right
3.891,-0.38772458237661117,1.1815805172687364,-0.06235371918465163,0.2777694204301857,2.5932773054015756,-0.6142659407388397,0.01553164890455779,0.6288003188056062,-1.4730340714152257,3,right
3.892,-0.3898781985584196,1.1769941650002644,-0.061094901628180286,0.24785995509304617,2.6042247724433376,-0.6154720821067011,0.0175994850063485,0.6112271662077327,-1.457446359429099,3,right
3.895,-0.39171185335731545,1.172375849402658,-0.059840356978032784,0.2166818373690548,2.6139465129728716,-0.6160157324505228,0.019553840640269535,0.5937383544481171,-1.441405919373156,3,right
3.8960000000000004,-0.39322668078111384,1.1677296446766607,-0.05859180664320101,0.1842789099208336,2.6224268998284397,-0.6159048394886008,0.021396435426654297,0.5763411246722954,-1.4249328017976461,3,right
3.9,-0.39442414712031537,1.163059640271933,-0.05735101331491496,0.15069868830863892,2.6296533245399276,-0.6151484572119027,0.023129106780705826,0.5590427694066828,-1.4080473216241205,3,right
3.9010000000000002,-0.39530603480154086,1.1583699316259448,-0.05611977491785137,0.11599228345762666,2.635616220300231,-0.6137567242760742,0.024753800997176438,0.5418506268261062,-1.3907700415411655,3,right
3.905,-0.39587442936938544,1.1536646101467878,-0.05489991815549001,0.08021430913116238,2.6403090697585143,-0.611740838553523,0.026272564456316982,0.5247720740601644,-1.3731217545248768,3,right
3.906,-0.39613170961897987,1.148947752720691,-0.05369329171460324,0.043422774313818774,2.643728397656086,-0.6091130278434294,0.027687534956077398,0.5078145194887383,-1.3551234654356188,3,right
3.91,-0.39608054076312516,1.1442234109899454,-0.052501759213767686,0.005678960404476214,2.6458737483220007,-0.6058865167357078,0.029000933175230295,0.49098539397727814,-1.3367963716414775,3,right
3.911,-0.39572387039595835,1.1394956005992336,-0.051327191994720724,-0.032952716883129424,2.6467476480418655,-0.6020754896231573,0.030215054271785204,0.47429214100282013,-1.3181618426177553,3,right
3.9160000000000004,-0.3950649269193333,1.1347682905591459,-0.050171461858654516,-0.07240486101797201,2.646355552309672,-0.597695049854277,0.03133225962076299,0.457742205622037,-1.2992413984708462,3,right
3.9160000000000004,-0.3941072200338035,1.1300453928332865,-0.04903643384350615,-0.11260726365570264,2.644705777968821,-0.5927611750175111,0.03235496869510855,0.44134302223299,-1.2800566873338917,3,right
3.9189999999999996,-0.3928545428645996,1.125330752226045,-0.047923959126478406,-0.15348708925985274,2.6418094202448614,-0.5872906683460072,0.033285651093234656,0.42510200108264534,-1.2606294615807294,3,right
3.92,-0.3913109752902777,1.1206281366339148,-0.046835868122120435,-0.1949690754534572,2.6376802546688407,-0.581301106230336,0.03412681871641155,0.4090265134726257,-1.2409815528038295,3,right
3.925,-0.38948088805999204,1.1159412277204819,-0.0457739638341253,-0.2369757492164314,2.632334623886544,-0.5748107818250395,0.03488101809894571,0.3931238756161037,-1.2211348455011515,3,right
3.926,-0.3873689473155276,1.1112736120773028,-0.04474001550906543,-0.27942765904597694,2.6257913093453333,-0.5678386447333259,0.03555082289382665,0.377401331099196,-1.2011112494161607,3,right
3.926,-0.3849801191715717,1.1066287729334816,-0.04373575262954841,-0.32224362319901634,2.6180713878467623,-0.5604042367527468,0.036138826518297085,0.3618660319495351,-1.1809326705243592,3,right
3.929,-0.3823196740579542,1.1020100824700587,-0.04276285927160281,-0.3653409941371587,2.6091980729496482,-0.5525276236632506,0.03664763497371885,0.3465250185593953,-1.160620980907879,3,right
3.93,-0.3793931905869274,1.0974207947815093,-0.041822968838746075,-0.40863593929597597,2.599196541204852,-0.5442293230376275,0.037079859872164514,0.33138519915083653,-1.14019798820694,3,right
3.935,-0.37620655874667774,1.092864039514544,-0.04091765917538763,-0.45204373778766166,2.5880937435982876,-0.5355302281854539,0.03743811171209679,0.3164533297150712,-1.1196854055853025,3,right
3.9360000000000004,-0.37276598222921487,1.088342816208588,-0.040048448055770354,-0.49547909007821106,2.57591820456866,-0.5264515290024983,0.03772499343510322,0.30173599511461313,-1.099104822897686,3,right
3.9360000000000004,-0.369077979707221,1.0838599893584864,-0.039216789041274104,-0.5388564330570952,2.562699814551068,-0.5170146316881553,0.03794309427713375,0.2872395915977763,-1.0784776792990483,3,right
3.9389999999999996,-0.36514938488596843,1.079418284218314,-0.038424067697756366,-0.5820902503489848,2.548469623987743,-0.5072410799544449,0.03809498391730906,0.2729703107314823,-1.0578252372865964,3,right
3.94,-0.3609873451509703,1.0750202833692515,-0.03767159816548064,-0.6250953702858967,2.533259644750815,-0.49715247968690046,0.038183206925129665,0.25893412471011223,-1.0371685581154528,3,right
3.943,-0.3565993186218235,1.0706684240799151,-0.036960620076862974,-0.6677872485817038,2.5171026613311405,-0.48677042782482977,0.038210277506717606,0.24513677299877165,-1.0165284785287632,3,right
3.944,-0.35199306943482944,1.0663649964872128,-0.03629229581944799,-0.7100822353192747,2.500032052151031,-0.47611644556534005,0.03817867455053272,0.23158375026998998,-0.9959255887429673,3,right
3.948,-0.3471766611095891,1.0621121426174038,-0.03566770814017789,-0.7518978263736041,2.482081620957257,-0.46521191586219335,0.03809083697282222,0.21828029559354392,-0.9753802116289334,3,right
3.949,-0.3421584478946655,1.057911856250985,-0.035087858080947165,-0.7931528993933973,2.4632854382479854,-0.45407802518971313,0.037949159362886835,0.20523138283978118,-0.9549123830297075,3,right
3.9530000000000003,-0.33694706403023855,1.0537659836126283,-0.034553663225162436,-0.8337679344624308,2.4436776926846875,-0.44273570954118124,0.03775598792807778,0.19244171225752124,-0.9345418331557345,3,right
3.9539999999999997,-0.33155141091041646,1.0496762248406482,-0.03406595622301929,-0.8736652195606429,2.4232925524375197,-0.43120560463044677,0.037513616738277605,0.17991570318832636,-0.9142879689985747,3,right
3.9589999999999996,-0.325980642173173,1.045644136162106,-0.03362548355439526,-0.9127690409432944,2.402164036410255,-0.4195080002648058,0.037224284269462754,0.16765748787966767,-0.8941698577043576,3,right
3.96,-0.3202441467907898,1.0416711326741335,-0.03323290448686709,-0.9510058585547104,2.3803258952885114,-0.4076627988566138,0.03689017024579802,0.15567090636025377,-0.8742062108484963,3,right
3.963,-0.31435153027646195,1.0377584916152736,-0.032888790192715386,-0.9883044665910538,2.3578115023527895,-0.39568947804055093,0.03651339277957134,0.14395950234154717,-0.8544153695535193,3,right
3.965,-0.3083125941610299,1.0339073560068557,-0.032593623000558423,-1.0245961393243066,2.334653753995697,-0.3836070573629793,0.03609600580814252,0.13252652011026228,-0.8348152903922679,3,right
3.968,-0.30213731392604876,1.030118738553516,-0.03234779577105361,-1.059814762297152,2.310884979880694,-0.3714340690094057,0.035639996826950585,0.12137490237741826,-0.815423532019146,3,right
3.969,-0.2958358156050037,1.026393525710664,-0.032151611397891855,-1.0938969489957542,2.2865368626777545,-0.3591885325356956,0.035147284917501805,0.11050728905031001,-0.7962572424726075,3,right
3.9730000000000003,-0.2894183512831581,1.0227324818507548,-0.0320052824428391,-1.1267821431045537,2.2616403673094827,-0.3468879335683671,0.03461971906914365,0.09992601689455981,-0.7773331470926153,3,right
3.9739999999999998,-0.28289527373875195,1.0191362534851844,-0.03190893091737882,-1.1584127064441152,2.2362256796394777,-0.33454920643903546,0.03405907679331881,0.08963312005421939,-0.7586675369973985,3,right
3.9789999999999996,-0.27627701047575176,1.015605373520847,-0.03186258822439249,-1.1887339926898015,2.2103221545330665,-0.32218872071786686,0.03346706302888782,0.07963033139870805,-0.7402762580644876,3,right
3.9789999999999996,-0.2695740374026762,1.0121402655472873,-0.03186619527171647,-1.2176944069656273,2.183958273218942,-0.30982227161074166,0.032845309337008605,0.06991908466619384,-0.7221747003616954,3,right
3.983,-0.26279685241339,1.0087412481593876,-0.03191960276668423,-1.2452454514040343,2.1571616098787714,-0.2974650741847168,0.03219537338396597,0.06050051737385276,-0.7043777879744604,3,right
3.984,-0.2559559491232983,1.005408539320969,-0.03202257169759389,-1.2713417567585874,2.129958807390409,-0.28513176138631224,0.031518738710253916,0.05137547446627385,-0.6868999691767479,3,right
3.989,-0.24906179100677067,1.0021422607688373,-0.03217477400432847,-1.2959411001526784,2.1023755621490494,-0.2728363858171301,0.030816814784127983,0.04254451267411478,-0.6697552068935441,3,right
3.99,-0.24212478616886246,0.9989424424475444,-0.03237579343838497,-1.31900440904329,2.0744366178893903,-0.2605924252313378,0.03009093733776374,0.034007905555952546,-0.6529569694038463,3,right
3.992,-0.2351552629676844,0.9958090269544684,-0.032625126615210866,-1.3404957514746942,2.046165768430717,-0.24841279171961547,0.029342368984080623,0.025765649197116932,-0.636518221233971,3,right
3.9930000000000003,-0.2281634466805491,0.9927418739649398,-0.0329221842677095,-1.3603823126926688,2.017585869265721,-0.2363098445442758,0.028572300109115937,0.017817468535223067,-0.6204514142104756,3,right
3.9939999999999998,-0.22115943737068305,0.9897407646013233,-0.03326629271429683,-1.3786343581854101,1.9887188579128445,-0.22429540659041003,0.027781850019256562,0.010162824258389339,-0.6047684787355876,3,right
3.998,-0.2141531890662778,0.9868054057095592,-0.03365669555429013,-1.3952251832128102,1.9595857829509837,-0.212380784398098,0.026972068294655694,0.002800920178736227,-0.5894808155157449,3,right
3.9989999999999997,-0.2071544903323091,0.983935434007512,-0.034092555597670236,-1.4101310488811611,1.9302068416544995,-0.2005767917409394,0.026143936284591697,-0.004269289039969416,-0.5745992880675209,3,right
4.003,-0.20017294631038948,0.981130420066581,-0.034572957027183604,-1.4233311048156667,1.9006014261456492,-0.18889377671641608,0.02529836869597575,-0.01104908989624216,-0.560134216233708,3,right
4.004,-0.19321796230598162,0.9783898720833106,-0.03509690778003825,-1.434807298478365,1.8707881779807916,-0.17734165231388113,0.024436215254074235,-0.017540001857019292,-0.5460953707767862,3,right
4.004,-0.18629872899529495,0.9757132393971705,-0.03566334212729141,-1.4445442714788421,1.8407850509009067,-0.16592993033721953,0.023558262429967194,-0.023743768981244272,-0.5324919690255698,3,right
4.008,-0.1794242093051656,0.9730999157167449,-0.036271123425496064,-1.4525292447432128,1.8106093805507726,-0.15466775811423003,0.022665235232315523,-0.029662351380372192,-0.5193326715334978,3,right
4.0089999999999995,-0.17260312699797817,0.9705492420261631,-0.03691904701713456,-1.4587518971432976,1.780277958304586,-0.1435639566235393,0.0217577990609619,-0.03529791653444765,-0.5066255797082578,3,right
4.013999999999999,-0.16584395698097576,0.9680605091520016,-0.03760584325876475,-1.4632042437059305,1.74980710540973,-0.13262705822492127,0.020836561619844908,-0.04065283048158101,-0.49437823437368433,3,right
4.015,-0.1591549173588932,0.9656329599775327,-0.038330180655837924,-1.4658805179943057,1.7192127445854222,-0.12186534262466457,0.019902074886662305,-0.045729648897830225,-0.4825976152261444,3,right
4.018,-0.1525439632509545,0.9632657912991378,-0.03909066908273739,-1.4667770605068222,1.6885104678785066,-0.1112868705096986,0.018954837136678008,-0.05053110808368285,-0.47129014114892387,3,right
4.019,-0.14601878238350163,0.9609581553298208,-0.03988586306569294,-1.4658922134107986,1.65771560050378,-0.10089951473000942,0.01799529501802744,-0.05506011587252692,-0.4604616713494454,3,right
4.022,-0.13958679244120104,0.9587091608643082,-0.04071426510221794,-1.4632262216187455,1.6268432605809975,-0.09071098899844712,0.017023845675837795,-0.05931974247570093,-0.4501175072854897,3,right
4.023,-0.13325514011651293,0.9565178741271201,-0.041574328985258,-1.4587811402097604,1.595908414680389,-0.0807288740775524,0.016040838922443065,-0.06331321127792254,-0.4402623953479488,3,right
4.03,-0.12703070174994432,0.9543833193304769,-0.04246446309896641,-1.4525607481935077,1.5649259290882558,-0.07096064142357913,0.015046579450938126,-0.0670438895961132,-0.43090053026901554,3,right
4.031000000000001,-0.12092008541394807,0.9523044789757569,-0.043383033659207905,-1.444570468609129,1.5339106167039893,-0.061413674258460255,0.01404132908928195,-0.07051527941386242,-0.4220355592261045,3,right
4.032,-0.11492963426659136,0.9502802939413088,-0.044328367884452394,-1.4348172949463198,1.5028772794796803,-0.05209528604105698,0.01302530909212667,-0.07373100810301116,-0.41367058661320144,3,right
4.032,-0.10906543098743797,0.9483096634098093,-0.045298757097597044,-1.4233097238707195,1.4718407463133432,-0.043012736309646,0.01199870246751686,-0.07669481914307906,-0.40580817945275455,3,right
4.039,-0.10333330310503949,0.9463914446985956,-0.04629245977113705,-1.4100576942306688,1.4408159063066872,-0.034173243868234296,0.010961656335571621,-0.07941056284851576,-0.3984503734226478,3,right
4.04,-0.09773882902869305,0.9445244530643034,-0.047307704533115454,-1.3950725323173438,1.409817737298318,-0.025583997289948094,0.00991428431623118,-0.08188218711302211,-0.39159867947423244,3,right
4.042,-0.09228734460241812,0.9427074615569686,-0.04834269314882246,-1.3783669033452224,1.378861329583245,-0.0172521627114198,0.008856668943119124,-0.08411372817946415,-0.38525409101883357,3,right
4.042,-0.08698395000513097,0.940939200999101,-0.0493956034862034,-1.3599547691148393,1.3479619047295932,-0.009184888892794753,0.007788864100541355,-0.08610930144318964,-0.3794170916615981,3,right
4.047,-0.0818335168286162,0.9392183601631917,-0.05046459246642445,-1.3398513518148123,1.3171348294035101,-0.0013893095186988088,0.006710897480613128,-0.08787309229585631,-0.37408766346300376,3,right
4.047,-0.07684069517415754,0.9375435862162719,-0.051547798998714305,-1.3180731039151723,1.2863956241133667,0.00612745728375315,0.005622773057476051,-0.08940934701619134,-0.36926529570980277,3,right
4.052,-0.0720099206189894,0.9359134854923362,-0.05264334690074303,-1.2946376840991431,1.2557599667845196,0.013358312233067415,0.004524473575537578,-0.09072236371342365,-0.36494899417863286,3,right
4.053,-0.06734542091532432,0.9343266246436024,-0.05374934781071109,-1.2695639391756528,1.2252436910761138,0.020296181009979715,0.003415963048636296,-0.09181648332846525,-0.3611372908769845,3,right
4.055,-0.06285122229806815,0.9327815322105625,-0.054863904102878946,-1.2428718919100497,1.1948627793516489,0.026934023224139902,0.0022971892670070886,-0.09269608069726419,-0.3578282542476685,3,right
4.056,-0.058531155292312356,0.9312767006386626,-0.05598511182248658,-1.2145827347057419,1.1646333502153385,0.03326484425163015,0.0011680863088909632,-0.09336555568011014,-0.3550194998243818,3,right
4.061,-0.05438885992767751,0.9298105887561934,-0.05711106365739768,-1.1847188290647717,1.1345716405266326,0.039281709963232124,2.8577053604987312e-05,-0.09382932436004529,-0.35270820132741604,3,right
4.061,-0.05042779028294342,0.9283816247148106,-0.05823985196187545,-1.1533037107506936,1.1046939818056574,0.04497776436249685,-0.0011214243080529499,-0.09409181032308377,-0.3508911021841144,3,right
4.061,-0.04665121830132028,0.9269882093834657,-0.05936957184362464,-1.1203621005725353,1.0750167709427692,0.050346250151789056,-0.0022820097747754922,-0.09415743608317283,-0.34956452743069405,3,right
4.067,-0.04306223683391874,0.9256287201786412,-0.060498324319844095,-1.0859199207041002,1.0455564351258995,0.05538053224357624,-0.003453275064034907,-0.0940306148057396,-0.34872439590051735,3,right
4.067,-0.03966376188360501,0.9243015153048431,-0.061624219541609744,-1.0500043164484207,1.0163293908998945,0.06007412423331089,-0.004635317191217662,-0.09371574253392241,-0.3483662325758923,3,right
4.07,-0.03645853403183618,0.9230049383675621,-0.06274538007880069,-1.0126436833527825,0.987351997272628,0.064420717849314,-0.005828232115606672,-0.09321719107018654,-0.3484851810113132,3,right
4.071000000000001,-0.03344911904053296,0.9217373233112867,-0.06385994425181306,-0.9738676994286042,0.9586405029372363,0.06841421531465905,-0.007032112462043323,-0.09253930157397036,-0.34907601579041103,3,right
4.071000000000001,-0.030637907631652722,0.9204969996338502,-0.06496606949351026,-0.933707361492062,0.930210988450205,0.072048764157832,-0.008247045322576382,-0.09168637888463342,-0.35013315500968833,3,right
4.0760000000000005,-0.028027114456963376,0.9192822978341927,-0.06606193572552752,-0.8921950233157071,0.9020793055912344,0.07531879329290518,-0.00947311014152489,-0.0906626865682837,-0.3516506727893705,3,right
4.077,-0.025618776281745543,0.9180915550545481,-0.06714574873388647,-0.8493644325430965,0.8742610169012925,0.07821904879170412,-0.010710376687413693,-0.08947244268654572,-0.35362231181305803,3,right
4.081,-0.0234147494240592,0.9169231208751119,-0.06821574352583545,-0.8052507640486497,0.8467713376263594,0.08074462816666074,-0.011958903115271905,-0.08811981628482876,-0.35604149589920425,3,right
4.081,-0.02141670651403212,0.9157753632151983,-0.06927018764409641,-0.7598906487425547,0.8196250809097333,0.0828910126970413,-0.013218734122816664,-0.08660892459716321,-0.3589013426087637,3,right
4.085,-0.0196261326584927,0.9146466742955927,-0.07030738441077759,-0.7133221975509235,0.792836606306963,0.08465409772742111,-0.014489899204076622,-0.08494383096419492,-0.3621946758946621,3,right
4.087,-0.01804432111132338,0.9135354766204022,-0.07132567607256567,-0.6655850204445509,0.7664197715444651,0.08603022094565181,-0.015772411004041923,-0.08312854346046064,-0.36591403880002127,3,right
4.09,-0.016672368558563664,0.91244022893979,-0.07232344682011757,-0.6167202403860506,0.7403878874438767,0.08701618864647821,-0.017066263777959927,-0.08116701422661302,-0.37005170621334116,3,right
4.091,-0.015511170130495303,0.9113594321567513,-0.07329912565745367,-0.5667705020616763,0.714753675935214,0.08760929998586171,-0.018371431958928406,-0.07906313950182019,-0.37459969769008217,3,right
4.095,-0.014561414252913076,0.9102916351417253,-0.074251189102356,-0.5157799752607789,0.6895292310829768,0.08780736922995673,-0.01968786883747053,-0.07682076035113386,-0.3795497903513162,3,right
4.096,-0.013823577448308805,0.9092354404190681,-0.07517816370555722,-0.46379435276261616,0.6647259830504468,0.08760874600156676,-0.021015505356808465,-0.07444366408219924,-0.38489353187131586,3,right
4.1,-0.01329791919529383,0.9081895096907334,-0.07607862838249771,-0.4108608425871186,0.640354664928562,0.0870123335257791,-0.022354249027584865,-0.07193558634527127,-0.39062225356712965,3,right
4.101,-0.012984476951708944,0.9071525691653711,-0.07695121655562011,-0.3570281544632274,0.6164252823569303,0.08601760487534371,-0.023703982965813927,-0.0693002139101034,-0.39672708360434433,3,right
4.105,-0.012883061444399907,0.9061234146637593,-0.07779461810871213,-0.30234648036556533,0.5929470858657531,0.08462461721522342,-0.02506456505787572,-0.06654118811288848,-0.40319896033436764,3,right
4.106,-0.012993252327481667,0.9051009164729559,-0.07860758115845802,-0.24686746896748174,0.5699285458686658,0.08283402404460094,-0.026435827256399414,-0.06366210896605434,-0.41002864577966897,3,right
4.11,-0.013314394311357476,0.9040840239226583,-0.07938891365065809,-0.19064419385593193,0.5473773302377749,0.08064708543348521,-0.027817575010912518,-0.060666539923351456,-0.41720673928449636,3,right
4.11,-0.01384559386565048,0.903071769657364,-0.08013748478780044,-0.13373111535121807,0.5253002843934608,0.07806567624991664,-0.029209586837164316,-0.05755801329231437,-0.4247236913496421,3,right
4.115,-0.014585716598798325,0.9020632735742413,-0.08085222629201932,-0.07618403577232775,0.5037034138428397,0.07509229237263046,-0.030611614029062432,-0.054340036285833795,-0.43256981767085534,3,right
4.1160000000000005,-0.015533385414084876,0.9010577463881355,-0.08153213350550678,-0.01806004798647417,0.48259186910211355,0.07173005488289935,-0.032023380517191356,-0.05101609770424147,-0.44073531340150346,3,right
4.12,-0.01668697953512914,0.9000544927742742,-0.082176266329561,0.040582522920538606,0.46196993293939925,0.06798271222814521,-0.03344458287791136,-0.04758967523898539,-0.449210267661055,3,right
4.121,-0.018044634482758243,0.8990529140297496,-0.08278375000330787,0.09968418501831924,0.44184100987600755,0.06385464034878505,-0.0348748904970648,-0.04406424338865861,-0.457984678311902,3,right
4.125,-0.01960424307160739,0.8980525101898901,-0.08335377572423103,0.15918435211711118,0.42220761788553246,0.05935084075866017,-0.03631394589234473,-0.040443281977840174,-0.4670484670279585,3,right
4.126,-0.021363457482718312,0.8970528815374016,-0.08388560111323858,0.21902142373256908,0.40307138223151673,0.05447693656829308,-0.03776136519840803,-0.03673028526891261,-0.4763914946793604,3,right
4.129,-0.02331969246019558,0.8960537294515016,-0.08437855052376118,0.2791328725997428,0.38443303138587437,0.049239166439124,-0.03921673881572585,-0.032928771638682436,-0.48600357703943653,3,right
4.13,-0.025470129673472335,0.8950548565596733,-0.08483201518892265,0.33945533990706406,0.366292394971672,0.043644376455800854,-0.040679632208613946,-0.02904229370108923,-0.495874500725884,3,right
4.131,-0.027811723279706064,0.894056166173621,-0.08524545319841188,0.3999247384220975,0.348648403675297,0.03770000990253474,-0.04214958680987327,-0.02507444859454428,-0.5059940391177579,3,right
4.1339999999999995,-0.030341206715483484,0.8930576610131934,-0.08561838929756553,0.46047636368160333,0.33149909107446984,0.03141409492848895,-0.043626120973918325,-0.021028888061919132,-0.5163519678955873,3,right
4.1339999999999995,-0.03305510074375113,0.8920594412500451,-0.08595041450113355,0.5210450134190645,0.3148415973299843,0.02479523008614512,-0.04510873093586808,-0.01690932804122684,-0.5269380799477439,3,right
4.138999999999999,-0.035949722774896074,0.8910617019351553,-0.08624118551239776,0.581565115176193,0.29867217469824575,0.017852567760064695,-0.04659689176213032,-0.01271955764728528,-0.5377421995580282,3,right
4.14,-0.03902119746757948,0.8900647298982884,-0.08649042393772079,0.6419708609098748,0.28298619486190213,0.010595795674870078,-0.048090058293605034,-0.00846344751469539,-0.5487541958851938,3,right
4.141,-0.042265468598339836,0.8890689002146064,-0.08669791528885165,0.7021963453625362,0.26777815814711853,0.003035116980610319,-0.0495876660857649,-0.004144957490308092,-0.5599639957647983,3,right
4.145,-0.04567831216626371,0.8880746723406168,-0.08686350776960311,0.7621757038284864,0.25304170473625354,-0.004818770414866317,-0.0510891323498866,0.000231856336847844,-0.5713615958643965,3,right
4.145,-0.049255350663324315,0.8870825860462683,-0.08698711084924127,0.8218432460837515,0.23876962794727655,-0.012954694770198363,-0.05259385689972146,0.00466283528039516,-0.5829370742236882,3,right
4.151,-0.052992068394510185,0.8860932572988368,-0.08706869363235352,0.8811335852899167,0.22495388958278903,-0.021361031506288767,-0.05410122310790608,0.00914371238859178,-0.594680601211803,3,right
4.152,-0.056883827682858705,0.8851073742649523,-0.08710828304380902,0.9399817618170878,0.2115856373140606,-0.0300257242616349,-0.055610598876425305,0.013670107476033281,-0.6065824499344421,3,right
4.154,-0.06092588574787661,0.8841256935879882,-0.08710596185567207,0.9983233621572368,0.1986552240590636,-0.038936306030558254,-0.05712133762544863,0.018237522867793968,-0.6186330061241089,3,right
4.155,-0.06511341200461991,0.8831490370771581,-0.08706186658628688,1.0560946330981171,0.18615222931479763,-0.04807992040845699,-0.05863277930486911,0.022841339868869492,-0.6308227775471446,3,right
4.159,-0.06944150549933545,0.8821782889156663,-0.08697618529666304,1.1132325913266647,0.17406548240547987,-0.05744334296894595,-0.06014425143287928,0.027476815971914446,-0.6431424029617382,3,right
4.16,-0.07390521217986362,0.8812143934597523,-0.08684915529810151,1.1696751286293494,0.16238308760943332,-0.06701300279845405,-0.06165507016592272,0.032139082816385944,-0.6555826606615085,3,right
4.164,-0.07849954169578828,0.8802583536610776,-0.0866810607752034,1.2253611128552997,0.151092451128731,-0.0767750042145178,-0.06316454140436176,0.036823144912308516,-0.6681344766396555,3,right
4.165,-0.08321948343287598,0.8793112301045987,-0.0864722303263682,1.280230484806213,0.14018030986684846,-0.08671514869464036,-0.06467196193820177,0.04152387914196631,-0.6807889324090539,3,right
4.169,-0.08806002150641415,0.8783741406160255,-0.08622303443118423,1.3342243512150596,0.1296327619807373,-0.09681895704317724,-0.06617662063721097,0.04623603505290529,-0.693537272514005,3,right
4.17,-0.09301614846714723,0.8774482603599965,-0.08593388286827497,1.3872850739734255,0.1194352991748557,-0.10707169182426167,-0.06767779968977046,0.050954235955690444,-0.7063709117696868,3,right
4.173,-0.09808287751089731,0.8765348223235901,-0.08560522212381276,1.4393563557649902,0.1095728407057787,-0.11745838008929413,-0.06917477589478313,0.05567298083991067,-0.719281442265635,3,right
4.1739999999999995,-0.10325525302788334,0.8756351180606163,-0.08523753284509673,1.4903833222601275,0.10002976906705689,-0.1279638364279893,-0.07066682201096276,0.060386647121956565,-0.7322606401698613,3,right
4.178,-0.10852835937968243,0.87475049856111,-0.0848313274010669,1.5403126010239345,0.09078996732499581,-0.13857268637240203,-0.072153208167814,0.06508949423811322,-0.7453004723704568,3,right
4.178,-0.11389732785047803,0.8738823751063077,-0.08438714761101052,1.5890923972871598,0.08183685807699079,-0.14926939018373753,-0.07363320334260205,0.06977566809651187,-0.7583931029917507,3,right
4.183,-0.11935734178290085,0.8730322199686289,-0.08390556269547692,1.6366725667265032,0.07315344400496762,-0.1600382670520923,-0.07510607690759702,0.07443920640146884,-0.7715308998222946,3,right
4.184,-0.1249036399738782,0.8722015668168093,-0.0833871674912765,1.6830046853976062,0.06472234999734972,-0.1708635197395686,-0.07657110025186091,0.0790740448637096,-0.7847064406921154,3,right
4.189,-0.13053151846973332,0.8713920106890711,-0.08283258095684502,1.728042116960759,0.056525866813795574,-0.18172925969745743,-0.07802754848182769,0.08367402430992679,-0.7979125198368294,3,right
4.19,-0.13623633096063023,0.8706052074020162,-0.08224244497747128,1.771740077335903,0.048545996267723775,-0.19261953268839213,-0.07947470220490596,0.08823289870505653,-0.8111421542863467,3,right
4.194,-0.14201348803018699,0.8698428722681284,-0.08161742346384644,1.814055696919932,0.04076449790236715,-0.20351834494453636,-0.08091184940031108,0.09274434410057426,-0.8243885903159969,3,right
4.195,-0.14785845556429425,0.8691067780007092,-0.080958201722916,1.8549480804955707,0.03316293713677104,-0.21440968989298684,-0.0823382873813095,0.09720196852201143,-0.8376453099980009,3,right
4.198,-0.1537667526611554,0.8683987516946698,-0.08026548606807285,1.8943783649572747,0.02572273485877245,-0.22527757547964072,-0.08375332485303079,0.10159932280877541,-0.8509060378912783,3,right
4.199,-0.1597339494084768,0.8677206707877132,-0.07954000362657121,1.932309774975624,0.018425218442566015,-0.23610605212280306,-0.08515628406997446,0.10592991241921944,-0.8641647479076296,3,right
4.199,-0.16575566489632043,0.8670744579302399,-0.0787825022954841,1.9687076767176,0.011251674168979727,-0.2468792413277873,-0.08654650309325028,0.1101872101897532,-0.8774156703697781,3,right
4.204,-0.17182756580294567,0.8664620747222193,-0.07799375079603947,2.003539629735939,0.004183401027046349,-0.25758136499369555,-0.08792333812726906,0.11436466991660812,-0.8906532991638274,3,right
4.205,-0.17794536583048573,0.8658855143103915,-0.07717453877987292,2.036775437136453,-0.0027982341241334983,-0.2681967754434513,-0.08928616587904681,0.11845574041267153,-0.9038723986854137,3,right
4.208,-0.18410482621704094,0.8653467928860422,-0.07632567694135715,2.068387194127812,-0.009711740053884558,-0.2787099862079994,-0.09063438586295995,0.12245387957159039,-0.9170680101658641,3,right
4.209,-0.1903017575345657,0.8648479401848566,-0.07544799708318854,2.09834933498063,-0.01657544338650258,-0.2891057035524545,-0.09196742259403941,0.12635256809111908,-0.9302354570775802,3,right
4.21,-0.19653202296230365,0.8643909891446762,-0.07454235207818011,2.1266386780523328,-0.02340742986005296,-0.29936885851708317,-0.09328472764937092,0.13014532272344478,-0.9433703495210849,3,right
4.213,-0.20279154317057874,0.8639779649079496,-0.07360961567875773,2.1532344678712274,-0.03022548534758349,-0.3094846388593473,-0.09458578159741579,0.1338257090399616,-0.9564685876090472,3,right
4.215,-0.20907630287395093,0.8636108733961497,-0.07265068214191586,2.1781184129026796,-0.03704703760752223,-0.31943852006825263,-0.0958700957990801,0.137387353721679,-0.9695263638850994,3,right
4.218,-0.21538235903286945,0.8632916897678227,-0.07166646565297903,2.2012747179812786,-0.043889099493186305,-0.329216294836512,-0.09713721408431565,0.14082395638614661,-0.9825401648151729,3,right
4.218999999999999,-0.22170585059323383,0.8630223471699581,-0.07065789954751164,2.222690111046423,-0.050768213925129875,-0.3388041007619757,-0.0983867143079895,0.14412930096145424,-0.9955067713889706,3,right
4.2219999999999995,-0.22804300955388124,0.8628047262540794,-0.06962593535054121,2.2423538641796137,-0.057700400693315286,-0.34818844626396434,-0.09961820978870994,0.1472972666175252,-1.0084232588690794,3,right
4.223,-0.23439017305779936,0.8626406459448999,-0.06857154167323495,2.260257809009957,-0.06470110510879823,-0.3573562347425621,-0.10083135063424876,0.15032183826456214,-1.0212869957251036,3,right
4.227,-0.24074379612490746,0.862531855932298,-0.06749570302258569,2.276396346549366,-0.07178514852472347,-0.36629478700838614,-0.10202582495714796,0.15319711662812696,-1.0340956417900613,3,right
4.228,-0.2471004645836861,0.8624800313093832,-0.06639941858279605,2.2907664515139414,-0.07896668074657856,-0.3749918620097607,-0.10320135998404813,0.15591732790994386,-1.0468471456761408,3,right
4.234,-0.25345690771388524,0.862486769695504,-0.06528370101504594,2.303367671182943,-0.08625913435184872,-0.38343567588360766,-0.10435772306222302,0.15847683304310017,-1.0595397414867715,3,right
4.235,-0.25981001008310106,0.8625535910585787,-0.0641495753005325,2.314202118841717,-0.09367518093945382,-0.39161491935570275,-0.10549472256675071,0.16087013654989354,-1.0721719448617963,3,right
4.237,-0.2661568220505126,0.8626819402891613,-0.06299807763337134,2.323274461849847,-0.10122668932962707,-0.39951877351525805,-0.10661220871169814,0.16309189501012697,-1.084742548392375,3,right
4.237,-0.27249456842846853,0.8628731923947695,-0.06183025436851837,2.3305919043707495,-0.10892468573521195,-0.4071369239880631,-0.10771007426864047,0.1651369251471932,-1.0972506164420777,3,right
4.242,-0.27882065484084795,0.8631286600025377,-0.06064716104789005,2.336164164793833,-0.11677931592570734,-0.4144595735316573,-0.10878825519578135,0.16700021153881203,-1.1096954794104568,3,right
4.243,-0.2851326713957209,0.8634496027077635,-0.05944986155436045,2.3400034478753056,-0.12479980940577787,-0.4214774530752176,-0.10984673118088396,0.16867691395879195,-1.1220767274752026,3,right
4.246,-0.2914283933974636,0.8638372377031648,-0.058239427462446466,2.3421244116186775,-0.1329944456303659,-0.42818183122602554,-0.11088552610116659,0.17016237435568002,-1.1343942038488177,3,right
4.247,-0.29770577895812367,0.8642927510727119,-0.05701693765391898,2.342544128910982,-0.14137052227898883,-0.43456452226352865,-0.11190470840325993,0.1714521234736426,-1.1466479975855588,3,right
4.252,-0.30396296352262536,0.8648173091284147,-0.055783478239282175,2.3412820439257858,-0.14993432561228084,-0.4406178926411398,-0.11290439140626708,0.17254188712038324,-1.1588384359742128,3,right
4.254,-0.31019825148329255,0.8654120691981144,-0.05454014277261474,2.3383599232991106,-0.15869110293433522,-0.44633486601501454,-0.11388473353091053,0.1734275920863555,-1.1709660765520933,3,right
4.257,-0.3164101052084754,0.8660781893264106,-0.05328803268010023,2.3338018020795177,-0.16764503718492368,-0.45170892681812747,-0.1148459384576942,0.17410537171896695,-1.1830316987754603,3,right
4.257,-0.32259713193306844,0.8668168364204094,-0.05202825776356125,2.3276339244487763,-0.17679922368620488,-0.45673412239702105,-0.1157882552169525,0.17457157115489588,-1.195036295381382,3,right
4.261,-0.32875806904751786,0.8676291924519303,-0.05076193660839662,2.319884679204771,-0.1861556490690872,-0.46140506372763673,-0.11671197821360338,0.17482275221305665,-1.2069810634758826,3,right
4.262,-0.3348917683759709,0.8685164584162255,-0.049490196726404104,2.3105845299936165,-0.19571517240497524,-0.46571692472565385,-0.11761744718936702,0.17485569795015338,-1.2188673953830378,3,right
4.266,-0.34099718004849705,0.8694798558404092,-0.048214174293565434,2.2997659402733097,-0.2054775085692008,-0.4696654401657603,-0.11850504712459246,0.17466741688286896,-1.2306968692840947,3,right
4.2669999999999995,-0.3470733365261121,0.8705206257231438,-0.04693501339081264,2.2874632929867396,-0.21544121386301976,-0.4732469022232629,-0.11937520807895274,0.17425514689369806,-1.2424712396484516,3,right
4.2669999999999995,-0.3531193372375161,0.8716400248617507,-0.0456538647078476,2.273712804917394,-0.22560367392163552,-0.4764581556504161,-0.1202284049651274,0.1736163588612468,-1.254192427409449,3,right
4.272,-0.3591343342054568,0.8728393195862711,-0.04437188371633886,2.258552435696767,-0.2359610939362907,-0.4792965915988028,-0.12106515724671138,0.17274876006876486,-1.2658625098106906,3,right
4.273,-0.365117519025022,0.8741197769830322,-0.043090228358099766,2.2420217914281984,-0.24650849121904453,-0.4817601400980496,-0.1218860285543678,0.17165029743045448,-1.2774837098755285,3,right
4.277,-0.37106811154822567,0.8754826537520137,-0.041810056322807244,2.2241620230205394,-0.2572396901225268,-0.48384726122516597,-0.12269162621928333,0.17031916055001073,-1.2890583855009021,3,right
4.2780000000000005,-0.376985350564779,0.8769291828806598,-0.04053252199835521,2.205015719985071,-0.26814731924303925,-0.48555693512306886,-0.12348260072576522,0.16875378461161106,-1.3005890182036512,3,right
4.2780000000000005,-0.3828684866673801,0.878460558322096,-0.039258773164127445,2.184626801640488,-0.27922281068386334,-0.486888651251406,-0.1242596450853398,0.16695285310019542,-1.3120782015526937,3,right
4.281000000000001,-0.3887167774015026,0.8800779178722264,-0.037989947480704445,2.163040408331027,-0.2904564010716797,-0.48784239737705104,-0.12502349413466807,0.16491530034720897,-1.3235286293203214,3,right
4.283,-0.39452948473885063,0.8817823244793686,-0.03672716882497074,2.1403027945950517,-0.3018371341039876,-0.4884186486852181,-0.12577492375955196,0.16264031389730793,-1.3349430833857465,3,right
4.285,-0.40030587486463926,0.8835747462707777,-0.03547154352538111,2.116461225022503,-0.3133528645579488,-0.4886183571654363,-0.12651475004726523,0.16012733669085277,-1.3463244214239072,3,right
4.2860000000000005,-0.4060452202217374,0.8854560356105513,-0.034224156559892305,2.0915638728721175,-0.3249902637760066,-0.48844294130019283,-0.12724382836940498,0.1573760690563334,-1.3576755644124352,3,right
4.291,-0.41174680371331807,0.8874269075138792,-0.03298606778538188,2.065659721383202,-0.3367348266609494,-0.48789427605790336,-0.1279630523974242,0.15438647050618978,-1.3689994839895816,3,right
4.293,-0.41740992493068174,0.8894879177455098,-0.03175830826959095,2.0387984677135704,-0.348570880213471,-0.48697468319078574,-0.12867335305297234,0.15115876132880843,-1.3802991896958006,3,right
4.296,-0.42303390823821674,0.8916394409279532,-0.03054187679126519,2.01103042943223,-0.36048159364562754,-0.48568692183713774,-0.12937569739514065,0.14769342396879076,-1.391577716131609,3,right
4.297,-0.42861811250967546,0.8938816489750665,-0.02933773656002419,1.982406453492507,-0.37244899010389615,-0.4840341794264472,-0.13007108744668008,0.14399120418690572,-1.4028381100642564,3,right
4.3,-0.4341619422712765,0.8962144901481109,-0.028146812184801945,1.9529778276085519,-0.38445396003580135,-0.48202006288469934,-0.13076055896123465,0.14005311199045503,-1.4140834175156751,3,right
4.301,-0.4396648599703058,0.898637669005784,-0.026969986890238818,1.922796193955569,-0.39647627623428594,-0.4796485901361875,-0.1314451801336096,0.13588042232409805,-1.4253166708641165,3,right
4.3069999999999995,-0.4451263990544223,0.9011506274917278,-0.025808099950878252,1.8919134651116472,-0.4084946105941657,-0.4769241818970882,-0.13212605025507487,0.13147467551050268,-1.4365408759918286,3,right
4.308,-0.45054617751951964,0.9037525273776824,-0.024661944294328362,1.8603817421567617,-0.42048655261511014,-0.47385165375502347,-0.1328042983156864,0.12683767742951205,-1.4477589995110836,3,right
4.311,-0.4559239115650763,0.9064422342605379,-0.02353226422466969,1.8282532348423615,-0.4324286296856411,-0.47043620852780627,-0.13348108155559443,0.12197149942384333,-1.4589739561008352,3,right
4.311,-0.461259428984576,0.9092183032963496,-0.02241975323572888,1.7955801837429297,-0.44429632918262535,-0.46668342889355363,-0.13415758396729735,0.11687847791866601,-1.4701885959862564,3,right
4.315,-0.4665526819133849,0.912078966840831,-0.021325051912722864,1.762414784299051,-0.4560641224206623,-0.462599270283352,-0.13483501475079193,0.11156121374174306,-1.4814056925933865,3,right
4.317,-0.47180375855866663,0.9150221241496143,-0.020248745949987816,1.7288091126597998,-0.4677054904856176,-0.4581900540266746,-0.13551460672356655,0.10602257113016104,-1.4926279304111163,3,right
4.321000000000001,-0.4770128935490241,0.9180453332675518,-0.019191364332930613,1.694815053230704,-0.47919295198634293,-0.45346246073878443,-0.1361976146873837,0.1002656764090237,-1.5038578930927295,3,right
4.321000000000001,-0.4821804765694405,0.9211458051993997,-0.018153377739927742,1.6604842278321161,-0.49049809275832923,-0.4484235239384015,-0.1368853137538005,0.0942939163268403,-1.5150980518292352,3,right
4.325,-0.4873070589917848,0.9243204004005413,-0.01713519721676262,1.6258679263715676,-0.501591597552677,-0.44308062388298464,-0.13757899763038192,0.08811093603170407,-1.5263507540267307,3,right
4.327,-0.4923933582716519,0.9275656275563284,-0.01613717316704462,1.591017038932559,-0.5124432837433232,-0.43744148160805985,-0.13827997686957189,0.08172063667173053,-1.5376182123200626,3,right
4.329,-0.4974402599558288,0.93087764453819,-0.01515959469082434,1.5559819891812758,-0.5230221370849377,-0.43151415315613745,-0.13898957708220014,0.0751271726026077,-1.5489024939550802,3,right
4.33,-0.5024488172279045,0.9342522613422373,-0.014202689291570498,1.5208126689918926,-0.5332963495532937,-0.4253070239798839,-0.13970913711762115,0.06833494818450503,-1.560205510571814,3,right
4.334,-0.5074202480079397,0.9376849447397032,-0.013266622956896621,1.4855583741904603,-0.543233359299218,-0.41882880350336743,-0.1404400072125012,0.061348614149992056,-1.5715290084209501,3,right
4.335,-0.5123559297050395,0.9411708243132871,-0.012351500600166201,1.4502677413168368,-0.5527998927464447,-0.41208851982436784,-0.14118354710776782,0.05417306353061108,-1.5828745590321442,3,right
4.336,-0.5172573917784485,0.9447046995452343,-0.01145736683348432,1.4149886853037308,-0.5619620088628159,-0.4050955145399364,-0.1419411241206294,0.04681342716205662,-1.5942435502833725,3,right
4.3389999999999995,-0.5221263062876115,0.948281047662699,-0.010584207031525218,1.3797683379716958,-0.5706851456333044,-0.39785943767661736,-0.14271411113586036,0.03927506884654047,-1.6056371776956746,3,right
4.34,-0.5269644766414259,0.9518940319800078,-0.009731948633330052,1.3446529872387896,-0.5789341687622678,-0.3903902427059853,-0.14350388446794907,0.03156358028325733,-1.6170564357083022,3,right
4.345,-0.531773824825876,0.9555375104664322,-0.008900462609398046,1.3096880169436544,-0.5866734226311788,-0.38269818162543323,-0.14431182155838101,0.02368477584445809,-1.6285021087587535,3,right
4.346,-0.5365563774666613,0.9592050442529952,-0.008089565003863345,1.274917847230912,-0.5938667835320013,-0.37479380007263857,-0.14513929849511795,0.01564468721494256,-1.6399747621171534,3,right
4.346,-0.5413142511071177,0.9628899058272928,-0.007299018461398859,1.2403858756978918,-0.6004777151709314,-0.3666879323874492,-0.14598768735401807,0.007449557879406806,-1.6514747324939074,3,right
4.35,-0.5460496370458848,0.9665850867411525,-0.00652853366522323,1.2061344199518638,-0.6064693263924168,-0.35839169643705104,-0.1468583533645206,-0.0008941625649755765,-1.6630021184535098,3,right
4.351,-0.5507647860525506,0.9702833047261331,-0.005777770630780254,1.172204662477331,-0.6118044310477124,-0.34991648796565084,-0.1477526519019756,-0.009379824293821762,-1.6745567706674644,3,right
4.355,-0.5554619933102659,0.9739770101610187,-0.005046339812151958,1.1386365984637905,-0.6164456099546402,-0.3412739742833486,-0.14867192530905848,-0.018000583362186195,-1.6861382820393547,3,right
4.355,-0.5601435839765531,0.9776583918891812,-0.0043338029960856405,1.1054689867954588,-0.6203552749367859,-0.3324760872055673,-0.1496174995487739,-0.026749408056540188,-1.6977459777351802,3,right
4.361000000000001,-0.5648118997446925,0.981319382462435,-0.0036396739891528932,1.0727393041555457,-0.6234957349525652,-0.323535015207913,-0.1505906806916204,-0.03561908551644695,-1.7093789051521486,3,right
4.362,-0.5694692867237432,0.9849516629814006,-0.002963419137435965,1.0404837021487268,-0.6258292643274076,-0.31446319477166407,-0.15159275123955987,-0.044602228650682044,-1.7210358238591938,3,right
4.364,-0.5741180848577367,0.9885466677897877,-0.0023044577431793455,1.008736967346614,-0.6273181731002114,-0.30527330089464155,-0.15262496628951097,-0.05369128337291677,-1.7327151955425648,3,right
4.365,-0.5787606189896378,0.9920955893479191,-0.001662162455689824,0.9775324841622806,-0.6279248794930085,-0.295978236741802,-0.153688549539165,-0.06287853618242877,-1.7444151739898976,3,right
4.368,-0.5833991915586434,0.9955893836534969,-0.0010358597161940423,0.9469022004612492,-0.6276119845104612,-0.2865911224095192,-0.15478468913800553,-0.07215612211562977,-1.756133595146261,3,right
4.369,-0.5880360768163939,0.9990187765955182,-0.0004248303301459845,0.9168765958178199,-0.6263423486733893,-0.27712528277718235,-0.1559145333864996,-0.08151603309450438,-1.767867967275716,3,right
4.374,-0.5926735163683029,1.0023742716247936,0.0001716897732555253,0.8874846523271611,-0.6240791708879876,-0.2675942344194377,-0.15707918628651868,-0.0909501266983352,-1.7796154612620008,3,right
4.375,-0.5973137157913437,1.0056461591064625,0.000754508551504965,0.8587538278852392,-0.6207860694497562,-0.2580116715521338,-0.15827970294614047,-0.1004501353853496,-1.7913729010819963,3,right
4.379,-0.6019588420447844,1.0088245276890697,0.0013244765981917051,0.8307100318503914,-0.6164271651784168,-0.24839145098480842,-0.15951708484207994,-0.11000767619115848,-1.8031367544856785,3,right
4.38,-0.6066110213697019,1.01189927798067,0.0018824856027416716,0.8033776030021665,-0.6109671666772344,-0.23874757605236563,-0.16079227494309759,-0.11961426093107151,-1.8149031239162947,3,right
4.3839999999999995,-0.6112723373609453,1.0148601387604395,0.0024294664903866045,0.7767792897149556,-0.6043714577072086,-0.22909417949844463,-0.16210615269783565,-0.1292613069335612,-1.826667737704537,3,right
4.385,-0.6159448288873755,1.0176966858686871,0.0029663872160583735,0.7509362322658982,-0.5966061866635353,-0.21944550528287457,-0.1634595288906391,-0.1389401483323141,-1.838425941570495,3,right
4.388,-0.6206304875334808,1.0203983638083336,0.0034942501969719647,0.7258679471985985,-0.587638358138579,-0.2098158892855413,-0.1648531403690265,-0.1486420479444479,-1.8501726904671825,3,right
4.388999999999999,-0.6253312542450937,1.0229545099657669,0.004014089382148962,0.7015923136662844,-0.5774359265523363,-0.20021973887896513,-0.16628764464658718,-0.15835820976258885,-1.8619025407994219,3,right
4.395,-0.630049014891963,1.0253543812350443,0.004526966969677202,0.6781255616802138,-0.5659678918280103,-0.19067151134190258,-0.16776361438519377,-0.1680797920885956,-1.8736096430518574,3,right
4.396,-0.6347855945129173,1.0275871827240552,0.005033969794645065,0.6554822621913491,-0.5532043970868659,-0.1811856910863394,-0.16928153176053526,-0.17779792133678166,-1.8852877348598278,3,right
4.399,-0.6395427500820795,1.0296420981462868,0.00553620542338669,0.6336753189356001,-0.5391168283329905,-0.17177676567033914,-0.17084178271509282,-0.1875037065345288,-1.8969301345567835,3,right
4.4,-0.6443221617212962,1.0315083214620027,0.006034798002114931,0.6127159619752515,-0.5236779160949508,-0.16245920056934915,-0.1724446511027992,-0.19718825454820058,-1.9085297352318666,3,right
4.4030000000000005,-0.6491254223785089,1.0331750893271454,0.006530883918137424,0.5926137428715542,-0.5068618389876179,-0.15324741267874434,-0.1740903127297432,-0.20684268606225373,-1.9200789993311875,3,right
4.404,-0.653954026082843,1.0346317139360315,0.007025607336855762,0.5733765314258618,-0.48864432915363193,-0.14415574252061095,-0.1757788292996487,-0.21645815231583673,-1.9315699538365374,3,right
4.405,-0.6588093549509263,1.0358676159073397,0.007520115674851142,0.5550105139291179,-0.4690027795400998,-0.13519842512803457,-0.17751014229420994,-0.22602585248323037,-1.9429941860567,3,right
4.407,-0.6636926651455503,1.0368723569474918,0.008015555061977818,0.5375201928619676,-0.44791635296216475,-0.1263895595804601,-0.1792840668567057,-0.23553705137223138,-1.9543428400691714,3,right
4.408,-0.6686050720143565,1.0376356720851765,0.008513065846288501,0.5209083879902389,-0.42536609290106514,-0.11774307716403644,-0.18110028576866674,-0.24498309699659487,-1.9656066138514747,3,right
4.413,-0.6735475346984022,1.0381475012788188,0.009013778211545429,0.5051762388030455,-0.40133503598021325,-0.10927270813124405,-0.18295834358826518,-0.25435543769638663,-1.9767757571395121,3,right
4.415,-0.6785208405663029,1.0383980201898733,0.009518807995247989,0.4903232082690234,-0.3758083259481533,-0.10099194708778805,-0.1848576409809974,-0.263645638692104,-1.9878400700473964,3,right
4.416,-0.6835255898392258,1.0383776699338596,0.010029252797295244,0.47634708801748926,-0.34877332844043685,-0.09291401730149373,-0.18679742925212386,-0.27284539807610775,-1.998788902481409,3,right
4.419,-0.6885621807249823,1.0380771856680315,0.01054618845313502,0.4632440052855965,-0.3202197447934921,-0.0850518347077676,-0.18877680508620195,-0.2819465622682716,-2.009611154380149,3,right
4.419,-0.6936307953428555,1.0374876239214827,0.011070665922483664,0.45100843210384345,-0.2901397226266468,-0.07741797265301927,-0.1907947054991667,-0.2909411409625201,-2.0202952768126314,3,right
4.423,-0.6987313867363432,1.0366003886110728,0.011603708621411113,0.43963319706604403,-0.25852796145676166,-0.07002462815173352,-0.19284990300852975,-0.2998213215906651,-2.0308292739657667,3,right
4.423,-0.7038636672961587,1.0354072557356475,0.01214631019508612,0.4291094998006175,-0.22538181260028592,-0.06288358995418027,-0.1949410010273808,-0.30857948332966895,-2.041200706052287,3,right
4.428,-0.7090270988949818,1.0339003968153506,0.012699432690025962,0.41942692813378263,-0.1907013731657877,-0.056006208456116195,-0.19706642948798522,-0.3172082106781567,-2.0513966931697825,3,right
4.428999999999999,-0.7142208849674584,1.0320724012245097,0.013264005052208216,0.41057347791195975,-0.15448957404614172,-0.04940336742926475,-0.19922444070087938,-0.32570030662767135,-2.061403920141084,3,right
4.4319999999999995,-0.7194439646785921,1.0299162976268426,0.013840921863963625,0.40253557545312674,-0.11675226181515466,-0.04308545755208422,-0.20141310545546717,-0.3340488054538164,-2.071208642365762,3,right
4.433,-0.7246950092279316,1.0274255747438619,0.014431042238048485,0.3952981025992868,-0.07749827442900638,-0.03706235172109066,-0.20363030936821963,-0.34224698515205737,-2.080796692711998,3,right
4.437,-0.7299724202460615,1.0245942016698497,0.015035188802387136,0.3888444243445859,-0.036739510628493184,-0.031343382123789884,-0.2058737494846735,-0.3502883795425639,-2.090153489477552,3,right
4.437,-0.7352743301599233,1.0214166478983702,0.015654146725250558,0.38315641901595565,0.0055090070663171295,-0.025937319055089912,-0.20814093114151075,-0.3581667900680596,-2.0992640454479554,3,right
4.442,-0.7405986043355799,1.0178879031584036,0.016288662745191102,0.37821451098545616,0.04922907588175911,-0.02085235145991139,-0.2104291650950844,-0.36587629730821825,-2.1081129780794474,3,right
4.4430000000000005,-0.7459428447495204,1.0140034970845133,0.016939444182868336,0.37399770589573844,0.09439926295362891,-0.01609606918558568,-0.21273556492282947,-0.37341127223369297,-2.1166845208335037,3,right
4.447,-0.7513043948928508,1.0097595186750874,0.017607157921791548,0.37048362838224463,0.14099486224895863,-0.011675446928528128,-0.21505704470406642,-0.38076638722239875,-2.124962535689088,3,right
4.449,-0.7566803455822102,1.0051526354330773,0.01829242935185384,0.36764856227790466,0.1889878583720554,-0.007596829860595022,-0.21739031698676467,-0.3879366268601829,-2.1329305268580216,3,right
4.452,-0.7620675413450099,1.0001801120372786,0.018995841279122194,0.3654674932881669,0.23834689738451395,-0.00386592092147582,-0.21973189104688462,-0.3949172985475184,-2.140571655728054,3,right
4.452,-0.7674625870695896,0.9948398283571229,0.019717932822700276,0.3639141541262162,0.28903726477299946,-0.0004877697644349889,-0.22207807144696062,-0.4017040429333385,-2.1478687570573873,3,right
4.456,-0.772861854662425,0.9891302965966833,0.020459198340228153,0.362961072100182,0.3410208707026036,0.0025332366563010403,-0.22442495690061998,-0.40829284419660095,-2.1548043564434973,3,right
4.457,-0.7782614895293085,0.9830506773302071,0.021220086440243143,0.3625796191460143,0.3942562426974947,0.005193381867218819,-0.22676843944975672,-0.41468004019562527,-2.1613606890881765,3,right
4.462,-0.7836574167867266,0.9766007941702127,0.022000999147557182,0.362740064301504,0.4486985258943994,0.007489626035949818,-0.22910420396109196,-0.4208623325046919,-2.167519719879712,3,right
4.463,-0.7890453472004508,0.9697811467947142,0.022802291283466607,0.36341162861865184,0.5042994910181624,0.009419610519129902,-0.23142772794885344,-0.42683679635682287,-2.1732631648120977,3,right
4.467,-0.794420782926269,0.9625929220620213,0.02362427010733787,0.364562542513222,0.5610075502322179,0.010981660805321678,-0.23373428173029764,-0.4326008905110853,-2.1785725137600656,3,right
4.468,-0.7997790231852443,0.9550380029665078,0.02446719524800012,0.36616010555187783,0.6187677810202673,0.012174787859591127,-0.2360189289207748,-0.4381524670621715,-2.1834290546275916,3,right
4.473,-0.8051151700452145,0.9471189752363119,0.02533127893957296,0.3681707486787591,0.6775219582587788,0.012998687875279254,-0.23827652727500118,-0.4434897812094139,-2.187813898886344,3,right
4.474,-0.8104241345036342,0.9388391314359514,0.02621668656782137,0.37056009888473723,0.7372085946430977,0.013453740437453988,-0.24050172988217305,-0.4486115009813467,-2.1917080084947127,3,right
4.475,-0.8157006430670797,0.930202472498423,0.0271235375268967,0.3732930463238658,0.7977629896329715,0.013541005101469192,-0.24268898672758815,-0.453516716809112,-2.19509222406397,3,right
4.476,-0.8209392449993095,0.9212137066610051,0.028051906378963695,0.3763338138827271,0.859117287086143,0.013262216388998462,-0.24483254664253226,-0.45820495065741934,-2.1979472939156786,3,right
4.476,-0.8261343203861227,0.9118782458191076,0.02900182429800353,0.37964602920946494,0.9212005417513349,0.012619777202853222,-0.24692645966919013,-0.46267616431894576,-2.200253903550266,3,right
4.4830000000000005,-0.8312800891571441,0.9022021993478928,0.02997328076486608,0.38319279916606697,0.9839387946979278,0.01161675067582714,-0.24896457986213522,-0.4669307665796462,-2.2019927051680144,3,right
4.485,-0.8363706211917585,0.892192365462214,0.03096622547037794,0.3869367864473033,1.0472551572793687,0.01025685054269668,-0.25094056853865676,-0.4709696191457948,-2.203144347103247,3,right
4.485,-0.8413998476002212,0.8818562201845077,0.031980570381377076,0.3908402877126261,1.1110699023608448,0.008544430258352708,-0.2528478979849461,-0.4747940413251617,-2.2036895031537456,3,right
4.486000000000001,-0.8463615732241995,0.8712019039863741,0.03301619192443625,0.3948653123569645,1.175300561061081,0.00648447115894146,-0.2546798556239821,-0.4784058134745478,-2.2036089018103455,3,right
4.486000000000001,-0.8512494903587978,0.8602382061832118,0.03407293323818487,0.3989736612679607,1.2398620237423206,0.004082569886931508,-0.2564295486507792,-0.48180717922528576,-2.202883355389978,3,right
4.4910000000000005,-0.8560571936591952,0.848974547184977,0.03515060644289761,0.40312700531552526,1.3046666448525783,0.0013449251651236306,-0.2580899091404627,-0.4850008464976944,-2.2014937890736808,3,right
4.492,-0.8607781961566754,0.8374209587232139,0.0362489948800024,0.40728696354098415,1.3696243517079818,-0.001721676071314457,-0.2596536996344184,-0.4879899873148703,-2.199421269849308,3,right
4.495,-0.8654059462749818,0.8255880621823123,0.037367855280908864,0.4114151810575382,1.4346427574004874,-0.0051098731916752165,-0.26111351920952897,-0.49077823642559076,-2.196647035356811,3,right
4.496,-0.8699338457118935,0.813487045164741,0.038506919829973604,0.41547340667388233,1.4996272780169395,-0.00881174704325013,-0.26246181003525004,-0.49336968874551157,-2.193152522632061,3,right
4.5,-0.8743552680317278,0.8011296364168052,0.03966589809056703,0.4194235702528526,1.564481254355882,-0.012818835790373958,-0.26369086442300366,-0.49576889562525306,-2.1889193967432163,3,right
4.501,-0.8786635777986931,0.788528079236585,0.040844478770411266,0.4232278598168788,1.6291060783286948,-0.01712215142869076,-0.2647928323720653,-0.49798085995339336,-2.1839295793116227,3,right
4.505,-0.882852150066737,0.7756951034847988,0.042042331316762445,0.4268487984118185,1.693401324231537,-0.021712196985257927,-0.2657597296158018,-0.5000110301018243,-2.178165276907176,3,right
4.506,-0.8869143900316232,0.7626438963244196,0.04325910734930856,0.43024932074043815,1.7572648850741863,-0.026578984415980195,-0.26658344617177415,-0.5018652927203718,-2.171609009305941,3,right
4.511,-0.8908437526508134,0.7493880718225756,0.044494441948163585,0.43339284957639046,1.8205931141512142,-0.03171205321271542,-0.2672557553988531,-0.5035499643870475,-2.16424363759565,3,right
4.512,-0.8946337620485688,0.7359416395546166,0.045747954811139524,0.4362433719690091,1.8832809720399735,-0.03710048973321667,-0.267768323564108,-0.5050717821197759,-2.1560523921124988,3,right
4.516,-0.8982780305447542,0.7223189723543361,0.04701925128414567,0.4387655152486115,1.9452221792086428,-0.04273294726786899,-0.2681127199218177,-0.5064378927549384,-2.1470189001903557,3,right
4.5169999999999995,-0.9017702771708536,0.7085347733573303,0.04830792326054263,0.4409246228412626,2.0063093744160256,-0.04859766685794335,-0.2682804273065162,-0.5076558411975873,-2.13712721370119,3,right
4.52,-0.9051043455614354,0.6946040424875104,0.04961354994486387,0.4426868299011119,2.066434279082959,-0.054682498880822876,-0.26826285324152854,-0.5087335575477171,-2.1263618363631593,3,right
4.521,-0.9082742211322365,0.680542042540724,0.0509356984825003,0.4440191387674746,2.1254878678130456,-0.06097492541835645,-0.2680513415639671,-0.5096793431065343,-2.1147077507903673,3,right
4.525,-0.9112740474772543,0.6663642650241598,0.05227392446559795,0.4448894942527867,2.1833605452379565,-0.0674620834251616,-0.2676371845666514,-0.5105018552662421,-2.1021504452558397,3,right
4.526,-0.9140981419363307,0.6520863959138804,0.053627772332115,0.4452668587664251,2.2399423293598004,-0.0741307887143295,-0.26701163565688324,-0.5112100912864526,-2.0886759401367665,3,right
4.53,-0.9167410103014201,0.6377242814933018,0.054996775676051136,0.4451212872781516,2.2951230415599615,-0.080967560778581,-0.2661659225314494,-0.5118133709599619,-2.0742708140084916,3,right
4.531000000000001,-0.919197360644577,0.6232938944313087,0.05638045748194803,0.4444240021236137,2.348792503440425,-0.0879586484654812,-0.26509126086664475,-0.5123213181702733,-2.0589222293511544,3,right
4.534,-0.9214621162642601,0.608811300249745,0.05777833028917864,0.44314746765292184,2.400840740659899,-0.09509005652584075,-0.2637788685214991,-0.5127438413429183,-2.042617957830241,3,right
4.535,-0.9235304277591107,0.5942926243182924,0.05918989628383007,0.4412654647218233,2.4511581939230114,-0.10234757305491492,-0.2622199802517591,-0.5130911127923343,-2.0253464051096337,3,right
4.539,-0.9253976842500778,0.5797540195034673,0.06061464730937025,0.4387531650234101,2.499635937276527,-0.10971679784645326,-0.26040586293151957,-0.5133735469657759,-2.007096635153049,3,right
4.54,-0.9270595237821808,0.5652116345860629,0.06205206478535435,0.435587205256637,2.5461659038618665,-0.11718317168005635,-0.2583278312665693,-0.5136017776074961,-1.9878583939708987,3,right
4.541,-0.9285118429440778,0.5506815835400706,0.06350161952888406,0.4317457611261904,2.5906411192682395,-0.12473200656265726,-0.25597726392207526,-0.5137866339762109,-1.9676221327864016,3,right
4.544,-0.9297508057454328,0.5361799157365921,0.06496277148308212,0.42720862116644,2.632955942625432,-0.1323485169452664,-0.25334561987718235,-0.5139391164466621,-1.946379030627132,3,right
4.545,-0.9307728517919653,0.5217225871165704,0.06643496936474945,0.42195726038033143,2.673006315569673,-0.14001785193639674,-0.2504244547576139,-0.5140703719359367,-1.9241210163649207,3,right
4.551,-0.9315747037983226,0.5073254323777013,0.0679176502452294,0.41597491368214135,2.710690019210129,-0.14772512853382377,-0.2472054369573083,-0.5141916694850795,-1.9008407902045916,3,right
4.552,-0.9321533744756516,0.4930041382305525,0.06941023907132379,0.40924664913102043,2.7459069392173556,-0.15545546589652803,-0.24368036346863625,-0.5143143761284549,-1.876531844583954,3,right
4.553,-0.9325061728221027,0.4787742177803952,0.0709121481195544,0.4017594408251637,2.778559338783092,-0.16319402062617291,-0.23984117540064176,-0.514449933073256,-1.8511884844249993,3,right
4.553999999999999,-0.9326307098346052,0.4646509860812226,0.07242277636654085,0.3935022407491519,2.808552137366718,-0.17092602276434288,-0.2356799731760426,-0.5146098321895372,-1.824805846669412,3,right
4.553999999999999,-0.932524903652258,0.45064953689133164,0.07394150875697009,0.38446604782951704,2.8357931898475623,-0.17863681173800708,-0.231189031396846,-0.5148055928111435,-1.7973799190285513,3,right
4.561,-0.9321869841346115,0.436784720646206,0.07546771535462762,0.3746439718762066,2.8601935588676053,-0.18631187122246073,-0.2263608133675335,-0.5150487388479545,-1.768907557875086,3,right
4.562,-0.9316154968697926,0.42307112366157096,0.0770007503652349,0.36403129066061546,2.881667774968766,-0.19393686215421496,-0.22118798526384476,-0.5153507762099248,-1.739386505200481,3,right
4.565,-0.9308093065976619,0.40952304858126803,0.07853995102324564,0.3526254994139743,2.9001340824101174,-0.20149765360007063,-0.21566342993424223,-0.515723170543508,-1.7088154045595472,3,right
4.565,-0.9297676000246339,0.39615449608314834,0.08008463634062346,0.34042635260282894,2.915514670369498,-0.20898035145174643,-0.20978026032017075,-0.5161773252811903,-1.677193815920252,3,right
4.569,-0.9284898880015761,0.38297914785173265,0.0816341057211417,0.32743589795111755,2.9277358895910273,-0.2163713249679354,-0.20353183248023723,-0.5167245600050216,-1.6445222293339845,3,right
4.569,-0.9269760070334838,0.37001035082092965,0.0831876374457073,0.3136585026760794,2.936728454531406,-0.22365723118548037,-0.1969117582024244,-0.5173760891252425,-1.6108020773384504,3,right
4.574,-0.9252261200872783,0.35726110268448,0.08474448703330635,0.2991008719029551,2.9424276310490343,-0.2308250372211341,-0.1899139171874237,-0.5181430008753338,-1.5760357460023542,3,right
4.575,-0.9232407166619105,0.3447440386672427,0.08630388547964207,0.28377205922116894,2.9447734096708995,-0.237862040485108,-0.18253246878512347,-0.5190362366250864,-1.5402265845180205,3,right
4.578,-0.9210206120855445,0.3324714195467752,0.08786503737073105,0.26768346934243,2.94371066446293,-0.24475588682731247,-0.17476186326522172,-0.5200665705135848,-1.5033789132450879,3,right
4.579,-0.9185669460104702,0.32045512090998557,0.08942711886156945,0.25084885281895,2.9391892975200564,-0.2514945866368515,-0.1665968526018476,-0.5212445894043343,-1.4654980301054086,3,right
4.584,-0.9158811800865421,0.3087066236227164,0.09098927550448045,0.23328429277776833,2.931164369082607,-0.2580665289149612,-0.1580325007509751,-0.5225806731651174,-1.4265902152262897,3,right
4.585,-0.9129650948042368,0.29723700548113974,0.09255061991526005,0.2150081836249945,2.919596213275865,-0.2644604933411706,-0.1490641933982947,-0.5240849752755652,-1.386662733726241,3,right
4.588,-0.9098207855057592,0.2860569340034328,0.09411022928175543,0.19604120167164174,2.9044505394597118,-0.2706656603520178,-0.13968764715407586,-0.5257674037658483,-1.3457238365344142,3,right
4.5889999999999995,-0.9064506575675029,0.27517666030911553,0.09566714274465023,0.17640626763063336,2.885698519165215,-0.2766716192511769,-0.12989891817040866,-0.5276376024903479,-1.3037827591319817,3,right
4.595,-0.9028574207611118,0.26460601402253886,0.09722035870532988,0.1561285009325232,2.863316858584851,-0.28246837436934075,-0.11969441015505011,-0.5297049327406501,-1.2608497181007705,3,right
4.596,-0.8990440828027148,0.25435439912721275,0.09876883213517096,0.13523516580549327,2.8372878565727992,-0.28804634929166245,-0.10907088175493165,-0.5319784552027176,-1.2169359053615636,3,right
4.598,-0.8950139420986134,0.24443079068906742,0.10031147197366154,0.1137556090632762,2.8075994481013775,-0.2933963891699883,-0.09802545328119901,-0.5344669122636302,-1.1720534799816065,3,right
4.598,-0.8907705796904436,0.23484373235848083,0.1018471387107707,0.09172118954280889,2.77424523310929,-0.2985097611365131,-0.08655561274646288,-0.5371787106738545,-1.126215557428008,3,right
4.604,-0.886317850396883,0.2256013345522158,0.10337464225284412,0.06916519913165947,2.737224490666892,-0.30337815283486336,-0.07465922118373562,-0.540121904571591,-1.0794361961409074,3,right
4.604,-0.8816598731483442,0.21671127320765157,0.1048927401694109,0.0461227753235899,2.696542178373157,-0.30799366908395753,-0.06233451721531774,-0.5433041788763665,-1.0317303812975025,3,right
4.6080000000000005,-0.876801020518915,0.2081807889967485,0.10640013640736252,0.022630805239027177,2.6522089168885437,-0.3123488266893157,-0.04958012085885655,-0.5467328330643918,-0.9831140057133316,3,right
4.609,-0.8717459074711676,0.20001668689302204,0.10789548053924622,-0.0012721789542789023,2.604240959497406,-0.31643654741578686,-0.03639503665745672,-0.5504147653624356,-0.933603848214722,3,right
4.609,-0.8664993793385468,0.19222533600117342,0.10937736759024878,-0.02554611328652641,2.5526601465831176,-0.320250149134937,-0.022778656401081114,-0.5543564574400671,-0.8832175505160547,3,right
4.614,-0.8610664990818695,0.18481266957386747,0.1108443384710549,-0.050149523964463844,2.4974938448885697,-0.3237833351595934,-0.008730761806129014,-0.5585639597043948,-0.8319735940231022,3,right
4.615,-0.8554525338777147,0.17778418514626385,0.11229488103139817,-0.07503965815190514,2.438774871424307,-0.32703018177727483,0.005748472582039705,-0.5630428772785873,-0.7798912775909076,3,right
4.619,-0.8496629411189144,0.17114494472443853,0.11372743173614863,-0.10017262341249478,2.3765414021140434,-0.3299851240359602,0.02065847618169243,-0.5677983567037925,-0.7269906965597633,3,right
4.62,-0.8437033539144415,0.164899574976312,0.1151403779513286,-0.12550353462947667,2.310836866446416,-0.3326429400474053,0.03599827888260273,-0.5728350733812665,-0.6732927230001665,3,right
4.62,-0.8375795661654907,0.15905226738877193,0.11653206081647645,-0.15098666533429117,2.241709831532507,-0.3349987344550027,0.05176650731081403,-0.5781572197675899,-0.6188189870171739,3,right
