time,gFx,gFy,gFz,ax,ay,az,wx,wy,wz,subject_number,foot
7.782,0.5776517902038548,0.7112200487584777,0.15353861610443412,-5.525242902013898,6.4525440234181595,-1.5286810725266147,-0.9843855808657762,0.038040063044027315,2.4095821673758624,1,left
7.785,0.5888009522148449,0.6935934342563522,0.15431170298004157,-5.530489502845859,6.472233924049805,-1.5125225372338884,-0.9858062269410698,0.021675394231305194,2.4059786801164034,1,left
7.7860000000000005,0.5998205546871921,0.6760068149797712,0.1550225429867575,-5.533296834941448,6.4882832920890925,-1.495829189929455,-0.9868946080242132,0.005228870444567004,2.4014596565230377,1,left
7.79,0.610700554107246,0.658474713107387,0.15567222598701336,-5.533628642082058,6.500620145443626,-1.4786168122436019,-0.9876428169374819,-0.01128051818033256,2.396011856260618,1,left
7.791,0.6214311613494812,0.6410115118815929,0.15626192671990982,-5.531451149174654,6.509176149383694,-1.4609018296974663,-0.9880430641726896,-0.027833370918615898,2.389622485135436,1,left
7.795,0.6320028577521064,0.6236314386260482,0.1567929004685539,-5.526733160253348,6.513886772891709,-1.4427012900124914,-0.9880876882991071,-0.04440990477408778,2.3822792088205835,1,left
7.796,0.6424064100616501,0.6063485485841374,0.15726647867828336,-5.519446149982406,6.5146914356240835,-1.424032840158294,-0.987769166381958,-0.06098998465677308,2.373970166057916,1,left
7.8,0.652632884160915,0.5891767096054514,0.15768406457662132,-5.509564348654375,6.511533645509989,-1.4049147020880892,-0.9870801244126249,-0.07755315546819626,2.3646839813182385,1,left
7.801,0.6626736575116051,0.5721295876917716,0.15804712883177444,-5.497064820669702,6.504361127000391,-1.3853656471094207,-0.9860133477506781,-0.09407867614187938,2.3544097768985948,1,left
7.803999999999999,0.672520430259821,0.5552206333999743,0.15835720526692362,-5.481927536476875,6.493125939969561,-1.3654049688366146,-0.9845617915767946,-0.11054555568664456,2.343137184432765,1,left
7.805,0.6821652349693048,0.5384630690883068,0.1586158866270122,-5.464135437944632,6.477784589259864,-1.3450524546700688,-0.982718591354575,-0.12693259128025772,2.3308563557882716,1,left
7.81,0.6916004449657179,0.5218698769835791,0.15882482037823267,-5.443674497130289,6.458298124849139,-1.3243283557462642,-0.9804770732981751,-0.14321840846084213,2.3175579733203504,1,left
7.811,0.7008187812955402,0.5054537880383655,0.1589857045100314,-5.420533768400674,6.434632232608281,-1.3032533553011951,-0.9778307648415723,-0.1593815034633208,2.3032332594504945,1,left
7.817,0.7098133183219015,0.4892272715401682,0.15910028330516465,-5.39470543385452,6.406757315604874,-1.2818485353887992,-0.9747734051041521,-0.17540028774791744,2.287873985534262,1,left
7.818,0.7185774879934681,0.47320252543049474,0.15917034304446614,-5.366184841987517,6.374648565896829,-1.2601353418948937,-0.9712989553461657,-0.19125313476745429,2.2714724799801282,1,left
7.819,0.7271050828310286,0.4573914672905008,0.15919770761787222,-5.33497053953351,6.338286026747976,-1.238135547786123,-0.9674016094064397,-0.2069184290198326,2.254021635578214,1,left
7.82,0.7353902576810358,0.441805725949425,0.15918423402028098,-5.301064296407671,6.2976546451854745,-1.215871214532469,-0.9630758041135448,-0.22237461743166742,2.23551491599475,1,left
7.825,0.7434275302876917,0.42645663367152187,0.1591318077198151,-5.2644711236696855,6.252744314806749,-1.1933646516410026,-0.9583162296604282,-0.23760026311857024,2.2159463613851473,1,left
7.825,0.7512117807366183,0.4113552188766338,0.15904233789661382,-5.225199284417282,6.20354990873149,-1.170638374237714,-0.9531178399313024,-0.2525741015670362,2.195310593075521,1,left
7.829,0.75873824982421,0.39651219934927306,0.1589177525598579,-5.183260297512727,6.150071302581941,-1.1477150586335216,-0.9474758627670131,-0.267275099189811,2.1736028172887165,1,left
7.83,0.7660025364062161,0.3819379758912721,0.15875999355641882,-5.138668934037182,6.092313387362468,-1.124617495809842,-0.941385810147179,-0.28168251374355385,2.150818828033903,1,left
7.831,0.7730005937766077,0.3676426263744454,0.15857101148673755,-5.091443206360112,6.030286072097076,-1.1013685427584905,-0.9348434882540931,-0.2957759552645731,2.1269550095386944,1,left
7.835,0.7797287251276802,0.35363590015338375,0.15835276054690317,-5.041604349703313,5.964004276071256,-1.0779910716101069,-0.927845007375417,-0.30953544571523073,2.1020083387457618,1,left
7.836,0.7861835781482372,0.3399272128042859,0.15810719332440143,-4.989176796071497,5.893487910512261,-1.0545079164848012,-0.9203867916080987,-0.3229414759951663,2.0759763882467217,1,left
7.8389999999999995,0.792362138824303,0.326525641162334,0.15783625558739708,-4.934188140413805,5.818761849529667,-1.0309418179982823,-0.9124655883366878,-0.33597505980290704,2.0488573297600423,1,left
7.84,0.7982617245102323,0.3134399186358659,0.1575418811208356,-4.8766690988731325,5.739855890125834,-1.0073153653563591,-0.9040784774645945,-0.3486177842948691,2.0206499381105143,1,left
7.841,0.8038799763372024,0.300678430778504,0.15722598667525226,-4.8166534590819445,5.656804701249524,-0.9836509360701166,-0.8952228803768627,-0.36085185758022253,1.9913535956354993,1,left
7.845,0.809214851022304,0.288249211099726,0.15689046710019908,-4.754178023001999,5.569647762732822,-0.959970633822377,-0.8858965686116955,-0.3726601530890206,1.9609682969400433,1,left
7.845,0.8142646121377125,0.27615993709271347,0.15653719072946892,-4.689282543781158,5.478429296521465,-0.9362962259132883,-0.876097672216631,-0.38402625084987535,1.9294946539198252,1,left
7.848,0.8190278209049006,0.2644179264607986,0.15616799507934515,-4.622009658639397,5.3831981934758195,-0.912649082211316,-0.8658246877639253,-0.39493447571228757,1.8969339009677826,1,left
7.849,0.8235033265983706,0.25303013353298504,0.15578468292455477,-4.552404819242958,5.284007938128945,-0.8890501170373257,-0.8550764859983477,-0.405369932547518,1.8632879002771203,1,left
7.853,0.8276902566663252,0.2420031458722919,0.15538901882150227,-4.480516220035644,5.180916532194553,-0.865519734512052,-0.8438523190892353,-0.4153185384606175,1.8285591471502958,1,left
7.854,0.831588006688568,0.23134318109450036,0.1549827261395184,-4.406394724443313,5.073986416727145,-0.84207777739878,-0.8321518274572902,-0.42476705204492043,1.792750775220441,1,left
7.859,0.8351962302921785,0.22105608392734113,0.15456748463549208,-4.330093788751729,4.963284392649539,-0.8187434793734906,-0.8199750461452441,-0.43370309970895005,1.7558665614885742,1,left
7.86,0.8385148291364558,0.21114732355010615,0.15414492857307777,-4.251669383451351,4.848881539351746,-0.7955354206549126,-0.8073224107001433,-0.4421151991042858,1.7179109310768403,1,left
7.8629999999999995,0.8415439430630957,0.2016219912611453,0.15371664535226928,-4.171179911836266,4.7308531310541655,-0.7724714869271841,-0.7941947625336435,-0.44999277968151025,1.6788889615949214,1,left
7.864,0.8442839404884206,0.192484798526343,0.1532841745827646,-4.088686125638155,4.609278550617242,-0.7495688314881285,-0.7805933537253337,-0.4573262003998808,1.638806387013666,1,left
7.867999999999999,0.846735409094143,0.18374007546461557,0.15284900750952787,-4.0042510374701665,4.484241200469087,-0.7268438405565114,-0.7665198512327437,-0.4641067646148697,1.597669600936916,1,left
7.867999999999999,0.8488991468513944,0.17539176982520385,0.15241258668680063,-3.917939829849574,4.355828410312167,-0.7043121016720622,-0.7519763404703262,-0.4703267321661816,1.5554856591594377,1,left
7.872999999999999,0.8507761533883796,0.16744344650611556,0.15197630580025026,-3.8298197605623905,4.224131341260007,-0.6819883751224993,-0.7369653282183414,-0.47597932868729714,1.512262281395829,1,left
7.874,0.8523676216873295,0.15989828765479813,0.15154150955341242,-3.7399600641275117,4.0892448860448765,-0.6598865683323115,-0.7214897448212221,-0.4810587521560038,1.4680078520622417,1,left
7.879,0.8536749300782642,0.15275909338190094,0.1511094935577698,-3.648431849112581,3.9512675649277753,-0.6380197131485994,-0.7055529456336447,-0.4855601767037688,1.4227314199897496,1,left
7.879,0.8546996344919843,0.14602828310735447,0.15068150418898907,-3.5553079910485876,3.8103014169325786,-0.6163999459598757,-0.6891587116711883,-0.48947975370017943,1.376442696945218,1,left
7.882999999999999,0.8554434609428434,0.13970789754658738,0.1502587383916457,-3.4606630206852027,3.6664518860170756,-0.5950384905843615,-0.6723112494211321,-0.4928146101270323,1.329152054832553,1,left
7.8839999999999995,0.8559082982268298,0.13379960133623117,0.14984234343123387,-3.364573007324072,3.5198277017847333,-0.5739456438649857,-0.6550151897676187,-0.4955628442549942,1.2808705214442964,1,left
7.888,0.856096190835672,0.1283046862945242,0.14943341660522527,-3.2671154369627136,3.3705407543324677,-0.5531307639090034,-0.6372755859840944,-0.49772351863408937,1.2316097746306014,1,left
7.888999999999999,0.8560093321008004,0.1232240753104262,0.14903300493346028,-3.168369084977287,3.2187059628214096,-0.532602260910892,-0.6190979107446385,-0.49929665040758825,1.181382134749768,1,left
7.893,0.8556500575921611,0.11855832685469338,0.1486421048519896,-3.0684138830683665,3.064441137349695,-0.5123675904979488,-0.6004880521045063,-0.5002831989571911,1.1302005552616587,1,left
7.894,0.8550208388053654,0.11430764010486505,0.14826166193296114,-2.967330780189912,2.9078668336986624,-0.4924332495388136,-0.5814523083989367,-0.500685050885713,1.0780786113225111,1,left
7.898,0.8541242771743082,0.11047186067511544,0.14789257064569333,-2.8652015971779403,2.749106200516535,-0.47280477435595986,-0.5619973820377616,-0.500505002385844,1.025030486312806,1,left
7.899,0.852963098443365,0.10705048694153578,0.14753567416354596,-2.762108874791926,2.5882848184966862,-0.453486741284038,-0.542130372320849,-0.49974673926213076,0.9710709566067464,1,left
7.9,0.8515401474247196,0.10404267695207159,0.14719176421179406,-2.658135714878728,2.425530531100947,-0.4344827695168184,-0.5218587676659031,-0.4984148152681152,0.9162153755725261,1,left
7.904,0.849858383156592,0.10144725590685844,0.14686158094329615,-2.553365614365821,2.2609732663721642,-0.41579552618635574,-0.5011904377876727,-0.49651462963915094,0.8604796581695326,1,left
7.905,0.8479208744694842,0.09926272419015308,0.146545812819042,-2.447882291787862,2.094744849374279,-0.39742673361888675,-0.4801336262177055,-0.4940524044795037,0.8038802671263924,1,left
7.907,0.8457307959576629,0.0974872659309967,0.14624509646122213,-2.3417695060480757,1.9269788047926528,-0.37937717871287513,-0.45869694328490834,-0.4910351622642299,0.7464342009978557,1,left
7.9079999999999995,0.8432914243402462,0.09611875806600692,0.145960016440832,-2.2351108671136686,1.7578101492222042,-0.3616467243855218,-0.436889359527301,-0.4874707034944397,0.6881589840163717,1,left
7.909,0.8406061351836488,0.09515477987361455,0.14569110496122709,-2.127989638711262,1.5873751730406915,-0.34423432302882584,-0.41472019947449446,-0.4833675844988866,0.6290726575757916,1,left
7.912000000000001,0.8376783999502225,0.0945926229461773,0.14543884140331714,-2.020488534930708,1.4158112136330119,-0.32713803188644613,-0.3921991357393278,-0.4787350953732324,0.5691937731822153,1,left
7.912999999999999,0.8345117833376999,0.09442930156614868,0.14520365170618066,-1.9126895159636135,1.2432564250996279,-0.31035503020818683,-0.3693361833560392,-0.4735832380467662,0.5085413867046067,1,left
7.917000000000001,0.8311099408735864,0.09466156345133421,0.14498590756526636,-1.804673590045755,1.0698495514515318,-0.29388163800909034,-0.3461416943013044,-0.46792270446481066,0.4471350537554806,1,left
7.917999999999999,0.8274766167216706,0.0952859008282531,0.14478592543654634,-1.6965206268272834,0.8957297084179889,-0.2777133362917781,-0.322626352133467,-0.4617648548735286,0.3849948260296864,1,left
7.922999999999999,0.8236156416481278,0.09629856178426523,0.14460396534193304,-1.588309184074235,0.7210361756191694,-0.2618447886469215,-0.2988011666843043,-0.45512169619235365,0.32214124842709035,1,left
7.922999999999999,0.8195309310902684,0.09769556184262497,0.14444022948295698,-1.4801163477600534,0.5459081989804069,-0.2462698641783598,-0.2746774687367203,-0.44800586045780727,0.25859535678279855,1,left
7.928,0.8152264832750756,0.09947269569989535,0.1442948606850547,-1.3720175852366039,0.3704848028881821,-0.23098166170640586,-0.2502669046208355,-0.4404305833210391,0.1943786760264503,1,left
7.928999999999999,0.8107063773460501,0.10162554906037317,0.14416794070929043,-1.2640866111739784,0.1949046115862838,-0.2159725352037416,-0.2255814306600553,-0.43240968258003387,0.12951321859006695,1,left
7.932,0.805974771471907,0.1041495104966902,0.14405948847839195,-1.1563952659584449,0.01930567930935,-0.2012341204191446,-0.20063330739784013,-0.42395753672607,0.06402148288195143,1,left
7.932,0.8010359009242094,0.10703978326028435,0.14396945826892651,-1.0490134062381633,-0.15617467134985633,-0.18675736264511117,-0.17543509353507933,-0.41508906348269997,-0.002073548357791388,1,left
7.937,0.795894076119254,0.11029139696168883,0.1438977379227122,-0.9420088073067628,-0.33140000334353464,-0.1725325455862401,-0.14999963950717923,-0.4058196983142398,-0.06874841000640596,1,left
7.938,0.7905536806216497,0.11389921903988857,0.1438441471293068,-0.8354470770155645,-0.5062349118464508,-0.1585493212860185,-0.12434008062922403,-0.3961653728795204,-0.13597915700039992,1,left
7.942,0.7850191691046436,0.11785796594201935,0.14380843582763492,-0.7293915809061151,-0.6805451642118715,-0.144796741070401,-0.09846982973684867,-0.38614249340545564,-0.2037413674600434,1,left
7.943,0.7792950652581848,0.12216221393856813,0.14379028276946376,-0.6239033782557777,-0.8541978337089146,-0.13126328746729515,-0.07240256924978336,-0.37576791895383477,-0.2720101466879414,1,left
7.947,0.7733859596327693,0.1268064095052576,0.14378929428253287,-0.5190411687303915,-1.0270614275432777,-0.11793690706176038,-0.04615224258438509,-0.3650589395536393,-0.3407601322347623,1,left
7.9479999999999995,0.7672965074066521,0.13178487921117893,0.14380500326738452,-0.4148612493394649,-1.199006009661808,-0.10480504424738754,-0.019733044840867554,-0.3540332541701274,-0.4099655002267322,1,left
7.9510000000000005,0.7610314260660116,0.13709183906219147,0.14383686845907798,-0.31141748139098696,-1.3699033188394871,-0.09185467583495537,0.006840587309624923,-0.3427089484809203,-0.47959997315095787,1,left
7.952000000000001,0.7545954929914103,0.14272140325822424,0.14388427398292,-0.20876126714473878,-1.539626882545143,-0.0790723464800536,0.033553986613479005,-0.3311044724283645,-0.5496368292960234,1,left
7.956,0.7479935429478006,0.14866759233366242,0.1439465292308011,-0.10694153586493835,-1.7080521270795614,-0.06644420489192046,0.0603922671744737,-0.3192386175165344,-0.620048914046613,1,left
7.956,0.7412304654768779,0.15492434066219363,0.14402286907970124,-0.0060047389751641134,-1.8750564844766684,-0.05395604078626235,0.08734033742134889,-0.3071304938203844,-0.6908086532321419,1,left
7.961,0.7343112021887357,0.1614855033210826,0.144112454466909,0.09400514597924146,-2.0405194966550866,-0.041593322545305934,0.11438291417978948,-0.2947995066737532,-0.7618880687305366,1,left
7.962000000000001,0.7272407439462453,0.16834486232404264,0.14421437333027273,0.19304660285368952,-2.2043229173036427,-0.02934123554877468,0.14150453792589163,-0.28226533300217516,-0.8332587965293778,1,left
7.966,0.720024127932755,0.1754961322449158,0.14432764191787212,0.2910805562016531,-2.366350811980322,-0.017184721139883268,0.1686895892984932,-0.2695478972657562,-0.9048921074476227,1,left
7.9670000000000005,0.7126664345927645,0.18293296526405867,0.1444512064692907,0.3880703426339782,-2.526489656899748,-0.005108516190803392,0.19592230694802099,-0.2566673469767335,-0.9767589307220336,1,left
7.9670000000000005,0.7051727844358183,0.19064895567472492,0.14458394526943982,0.4839816745246339,-2.684628436879508,0.006902806767628683,0.22318680675409355,-0.24364402776541394,-1.0488298805536884,1,left
7.97,0.6975483346946008,0.19863764388817684,0.14472467107503287,0.5787825963444468,-2.84065874291053,0.01886479888691791,0.25046710221609836,-0.2304984580159584,-1.1210752851627248,1,left
7.973,0.6897982758284372,0.20689251997541155,0.144872133912536,0.6724434339013728,-2.9944748698113166,0.03079309384735464,0.2777471254103322,-0.21725130317994645,-1.1934652169137854,1,left
7.975,0.6819278278645163,0.21540702678340964,0.14502502424401556,0.7649367368331733,-3.145973914225422,0.042703366259975666,0.3050107476791838,-0.20392334992354522,-1.265969521527247,1,left
7.976,0.6739422365712316,0.22417456266540878,0.1451819764941732,0.8562372150472233,-3.295055872242136,0.05461128975167757,0.3322417994460844,-0.1905354802154561,-1.3385578449397888,1,left
7.977,0.6658467694586068,0.23318848386532212,0.1453415729298016,0.9463216704325887,-3.4416237341619422,0.06653249500087834,0.35942408896071626,-0.1771086453755858,-1.411199657364621,1,left
7.989,0.6576467116003848,0.242442106596098,0.14550234788222197,1.0351689255182042,-3.585583572948298,0.07848252806876986,0.3865414200071252,-0.16366384005585916,-1.4838642746500033,1,left
7.99,0.6493473612751011,0.2519287088524053,0.14566279230197443,1.1227597503955176,-3.726844623873707,0.09047680929349874,0.4135776086529293,-0.15022207611475885,-1.55652087714451,1,left
7.9910000000000005,0.6409540254298082,0.26164153199783086,0.1458213586323826,1.2090767885867981,-3.865319354612908,0.10253059287479341,0.4405164991176775,-0.13680435634706523,-1.62913852627766,1,left
7.9910000000000005,0.6324720149765105,0.27157378216331396,0.14597646598585184,1.2941044821847085,-4.000923526001856,0.11465892719893983,0.46734197883822237,-0.12343164803021867,-1.7016861790645865,1,left
7.992000000000001,0.6239066399357877,0.28171863148753634,0.14612650560442128,1.377828996514731,-4.133576243868123,0.12687661593859478,0.494037992808742,-0.11012485624873479,-1.774132700743409,1,left
7.992000000000001,0.6152632044451166,0.29206921922334306,0.1462698465833102,1.460238144568376,-4.263200002330337,0.1391981799620967,0.5205885572727628,-0.09690479695817199,-1.8464468757538477,1,left
7.995,0.6065470016514198,0.30261865272787714,0.14640484183242322,1.5413213114514106,-4.389720718956031,0.1516378200871472,0.546977772844212,-0.08379216975028049,-1.9185974172654234,1,left
7.996,0.5977633085082315,0.3133600083480108,0.14652983424695376,1.6210693790875934,-4.513067762158825,0.1642093807139928,0.5731898371341564,-0.07080753028115062,-1.990552975463297,1,left
8.0,0.5889173804982608,0.3242863322073755,0.14664316305518388,1.6994746514146366,-4.633173971207137,0.1769263143735341,0.599209056959464,-0.05797126232442724,-2.0622821447994197,1,left
8.0,0.5800144463024504,0.3353906408979496,0.14674317030886763,1.7765307803053028,-4.74997566920775,0.18980164722612783,0.6250198602091658,-0.045303549411965516,-2.1337534704161967,1,left
8.006,0.5710597024360891,0.34666592207763314,0.14682820747885303,1.8522326924427173,-4.863412669418428,0.20284794554722568,0.6506068074437827,-0.032824346024670596,-2.204935453949301,1,left
8.007,0.5620583078716065,0.35810513497426333,0.146896642115642,1.9265765173751193,-4.973428275234468,0.21607728323640996,0.6759546033023319,-0.02055334829668936,-2.275796558915639,1,left
8.01,0.553015378669216,0.3697012107964334,0.146946864532086,1.9995595169713987,-5.0799692741846085,0.22950121038684082,0.7010481077911241,-0.008509964196606334,-2.3463052158917024,1,left
8.011000000000001,0.543935982642231,0.3814470530542818,0.14697729446675403,2.07118001649489,-5.182985926262038,0.2431307229526197,0.725872347527827,0.003286716850163225,-2.4164298276867417,1,left
8.016,0.5348251340910457,0.3933355377999637,0.14698638769370656,2.141437337508978,-5.282431946906453,0.2569762335520978,0.7504125270135772,0.014817954932992624,-2.4861387747142474,1,left
8.017000000000001,0.5256877886440736,0.405359513806479,0.1469726425537832,2.2103317328241774,-5.378264484943087,0.27104754344571713,0.774654040005195,0.026065391256231717,-2.555400420764227,1,left
8.019,0.5165288382439868,0.417511802713242,0.1469346063885553,2.277864323692434,-5.470444095774598,0.28535381572756013,0.7985824810587865,0.03701108040181193,-2.6241831193776615,1,left
8.02,0.5073531063151677,0.4297851991759321,0.1468708818582842,2.3440370394504706,-5.558934710111355,0.2999035497704036,0.8221836573151955,0.047637523287355,-2.6924552210233212,1,left
8.024,0.4981653431445476,0.4421724710652872,0.14678013312073998,2.4088525598101054,-5.64370359851538,0.31470455696471983,0.8454436005969151,0.05792770085205759,-2.7601850812758517,1,left
8.025,0.4889702215030583,0.454666359763811,0.14666109184230086,2.4723142599895382,-5.7247213320226376,0.3297639377927411,0.8683485798851696,0.06786510850175828,-2.8273410701926505,1,left
8.03,0.47977233252994594,0.4672595806110015,0.1465125630088161,2.5344261588757164,-5.80196173909786,0.3450880602794022,0.8908851142449336,0.07743379134367705,-2.8938915830855976,1,left
8.03,0.4705761818989097,0.4799448235463608,0.1463334305002794,2.5951928704039826,-5.875401859165308,0.36068253986269516,0.9130399862646821,0.08661838024035275,-2.9598050528821327,1,left
8.035,0.46138618628390077,0.492714753994568,0.14612266238919466,2.654619558337322,-5.9450218929481995,0.37655222072671224,0.9348002560766396,0.0954041287112918,-3.0250499642685442,1,left
8.035,0.45220667014170834,0.5055620140297886,0.1458793159184853,2.7127118946236477,-6.010805149838615,0.3927011586414104,0.9561532759906328,0.10377695064470675,-3.089594869738178,1,left
8.036,0.44304186282487207,0.5184792238490968,0.1456025421138088,2.769476021505703,-6.072737992508833,0.40913260535390733,0.9770867056155097,0.1117234584552396,-3.1534084073234263,1,left
8.039,0.4338958960316663,0.5314589835799624,0.145291589988836,2.824918517554312,-6.13080977896405,0.4258489945769067,0.9975885270564752,0.11923100073673254,-3.2164593191728392,1,left
8.04,0.4247728015962398,0.5444938754412243,0.1449458103055424,2.8790463677918723,-6.185012802225425,0.4428519296206513,1.0176470596174743,0.12628769813254287,-3.2787164697906435,1,left
8.044,0.41567650962638647,0.5575764662690219,0.1445646588495969,2.931866938069175,-6.23534222782137,0.46014217271561264,1.0372509735945998,0.13288247647005638,-3.3401488630958975,1,left
8.044,0.40661084700361877,0.5706993104108904,0.1441476991779703,2.9833879538548365,-6.28179602925385,0.4777196360739419,1.056389303029742,0.13900509679048298,-3.400725658071924,1,left
8.045,0.39757953626231873,0.5838549529850384,0.14369460479923013,3.033617483487819,-6.324374921638854,0.49558337473216413,1.075051457450466,0.1446461822291063,-3.4604161831163966,1,left
8.05,0.38858619486013096,0.5970359334999665,0.1432051607568419,3.0825639254146306,-6.363082293926068,0.5137315811865958,1.0932272326524137,0.1497972417649099,-3.5191899492684966,1,left
8.051,0.3796343348435335,0.6102347898328692,0.14267926459842883,3.1302359979837657,-6.397924140482432,0.5321615817765069,1.1109068205791854,0.15445069085714905,-3.5770166624870954,1,left
8.055,0.3707273629061519,0.62344406256704,0.14211692672682444,3.1766427298411086,-6.428908993030177,0.5508698347390414,1.1280808183532907,0.1585998689850547,-3.6338662351513698,1,left
8.056000000000001,0.361868580836698,0.6366562996817685,0.14151827014099588,3.2217934494914866,-6.456047853701775,0.5698519298925538,1.1447402365103603,0.16223905410545145,-3.6897087969526248,1,left
8.06,0.3530611863555192,0.6498640615770285,0.14088352958673866,3.265697773533156,-6.479354129572385,0.5891025899631082,1.1608765064873905,0.16536347404164237,-3.744514705343382,1,left
8.061,0.34430827433792394,0.6630599264071624,0.14021305014938493,3.3083655935935288,-6.498843568802258,0.6086156736015084,1.1764814874143337,0.16796931481546906,-3.798254555706985,1,left
8.065,0.33561283841677775,0.6762364956937776,0.13950728533413,3.3498070620958624,-6.514534198467079,0.6283841801453809,1.1915474722568773,0.17005372593299017,-3.8508991914080744,1,left
8.066,0.3269777729479317,0.6893864001862153,0.13876679469232497,3.3900325769830633,-6.526446264143247,0.6484002561815965,1.2060671933567468,0.1716148226327459,-3.9024197138813186,1,left
8.068,0.318405875311836,0.7025023059375645,0.13799224106138827,3.429052765521198,-6.534602171304106,0.6686552039650728,1.2200338274143463,0.17265168510408874,-3.952787492912705,1,left
8.068,0.30989984851528374,0.7155769205655209,0.1371843874902744,3.4668784673017874,-6.539026428572244,0.6891394917507314,1.233440999957002,0.17316435468156374,-4.001974177264577,1,left
8.073,0.30146230405117064,0.7286029996706224,0.13634409392072153,3.5035207165584605,-6.5397455928621495,0.709842766096089,1.246282789334502,0.17315382701982143,-4.049951705792351,1,left
8.074,0.29309576497208284,0.7415733533884994,0.13547231368569496,3.5389907239100866,-6.536788216436682,0.7307538661926523,1.2585537302820466,0.17262204225204167,-4.096692319197555,1,left
8.08,0.28480266913288976,0.7544808530562418,0.1345700898716606,3.5732998576390735,-6.530184795890152,0.7518608402849376,1.2702488170891062,0.1715718721333436,-4.142168572558413,1,left
8.08,0.2765853725563348,0.767318437975737,0.13363855157476948,3.606459624610117,-6.519967723060101,0.773150964236568,1.2813635064110704,0.17000710416915568,-4.186353348775761,1,left
8.084,0.268446152874787,0.7800791222596986,0.13267891006733096,3.6384816509313263,-6.50617123785938,0.7946107623034927,1.2918937197589246,0.1679324227270241,-4.229219873068491,1,left
8.085,0.2603872128016541,0.7927560017486838,0.1316924548825648,3.669377662456307,-6.488831383009626,0.8162260301749368,1.3018358457005443,0.165353387128851,-4.2707417286491225,1,left
8.088,0.25241068358664626,0.8053422609886979,0.1306805498220908,3.6991594652224893,-6.467985960646842,0.8379818603432141,1.3111867418055274,0.16227640671907728,-4.310892873706358,1,left
8.089,0.24451862841052835,0.81783118025901,0.12964462888915682,3.727838925917715,-6.443674490759534,0.859862669864019,1.3199437363638056,0.15870871290286218,-4.349647659817721,1,left
8.093,0.23671304567934617,0.8302161426390444,0.12858619214884098,3.7554279524638647,-6.415938171409685,0.8818522305692612,1.32810462990659,0.15465832814686434,-4.386980851911507,1,left
8.094,0.22899587218622142,0.8424906411016895,0.1275068015145277,3.7819384748031064,-6.384819840676741,0.9039337017949086,1.3356676965565093,0.15013403193380076,-4.422867649893315,1,left
8.099,0.2213689861191251,0.8546482856183177,0.12640807645887925,3.8073824259691817,-6.350363940254882,0.9260896656866605,1.3426316852320903,0.14514532366055163,-4.457283712048458,1,left
8.1,0.21383420990326574,0.8666828102587258,0.12529168964716783,3.8317717235230084,-6.3126164806239835,0.9483021651465852,1.3489958207300212,0.13970238246819447,-4.490205180327431,1,left
8.102,0.2063933128756413,0.878588080267289,0.12415936248997826,3.855118251428785,-6.271625007704964,0.9705527444841179,1.3547598047069231,0.13381602399099063,-4.521608707617498,1,left
8.103,0.19904801379632261,0.8903580990958978,0.12301286061005065,3.8774338424437147,-6.22743857090064,0.9928224928350307,1.3599238165702283,0.12749765408356642,-4.5514714870470305,1,left
8.105,0.19179998320415134,0.9019870153773628,0.12185398921559314,3.898730261091438,-6.18010769241375,1.0150920904121437,1.3644885142340184,0.12075921995198087,-4.579771283104202,1,left
8.107000000000001,0.184650845622102,0.9134691298296406,0.12068458837173482,3.919019187286266,-6.129684337724499,1.0373418576516562,1.3684550346003124,0.11361315977505997,-4.606486463877806,1,left
8.107999999999999,0.17760218161334043,0.9247989020842818,0.11950652816278462,3.9383122006723568,-6.076221887100801,1.059551807319033,1.3718249935725455,0.10607235226889063,-4.631596033462786,1,left
8.113,0.17065552968895237,0.9359709574269338,0.11832170373956069,3.956620765739026,-6.0197751080053425,1.0817016996383781,1.3746004854582856,0.09815006727840804,-4.655079663829376,1,left
8.113999999999999,0.16381238807156276,0.9469800934302007,0.11713203024824184,3.9739562177706422,-5.9604001282719725,1.1037711004182669,1.3767840817101566,0.08985991781688116,-4.676917725919565,1,left
8.116,0.1570742163196472,0.9578212864594523,0.11593943763970405,3.9903297496873247,-5.898154410001252,1.1257394416924047,1.3783788290042498,0.08121581360521297,-4.697091319990853,1,left
8.118,0.15044243681412828,0.9684896980398614,0.11474586536026934,4.0057523998310245,-5.833096724271397,1.1475860835752012,1.3793882466640022,0.07223191608832645,-4.715582305274697,1,left
8.119,0.1439184361069743,0.9789806810778152,0.11355325692610059,4.020235040749418,-5.765287126838555,1.169290375577627,1.3798163234358198,0.06292259490485062,-4.7323733290123515,1,left
8.123,0.13750356613353412,0.9892897859255061,0.11236355438465179,4.033788369026618,-5.694786934905993,1.1908317160829192,1.379667513621038,0.053302385785304884,-4.747447854926015,1,left
8.124,0.13119914529260018,0.9994127662695635,0.11117869266821519,4.046422896205821,-5.621658704878751,1.2121896094994586,1.378946732567123,0.043385949853004466,-4.760790191178357,1,left
8.127,0.1250064593978726,1.0093455848202122,0.11000059384661046,4.058148940845643,-5.545966210926296,1.233343721062222,1.3776593515193594,0.033188034300974896,-4.772385517868643,1,left
8.13,0.1189267625037784,1.0190844187758328,0.10883116128757392,4.0689766217490995,-5.4677744241508055,1.2542739293446494,1.3758111918326004,0.022723434417270885,-4.782219914108714,1,left
8.133,0.11296127761025472,1.0286256650353987,0.10767227373531804,4.078915852401557,-5.3871494921511225,1.2749603765422386,1.373408518541026,0.012006956930244027,-4.790280384717124,1,left
8.134,0.1071111972549584,1.037965945128196,0.10652577932289464,4.087976336651353,-5.304158718765085,1.2953835165885907,1.3704580332822243,0.0010533846444952609,-4.796554886564712,1,left
8.137,0.10137768400577808,1.0471021098291922,0.10539348954287661,4.09616756566422,-5.218870543765754,1.315524161163995,1.3669668665702939,-0.010122557662517939,-4.801032354599836,1,left
8.138,0.09576187087025967,1.0560312434301915,0.10427717321033354,4.103498816180075,-5.1313545222800565,1.3353635236559336,1.3629425694110875,-0.021506236113973492,-4.803702727576393,1,left
8.142000000000001,0.09026486164053946,1.0647506676396292,0.10317855045888107,4.109979150098239,-5.041681303691592,1.3548832611301391,1.3583931042511308,-0.0330831394087107,-4.80455697350264,1,left
8.142999999999999,0.08488773119162768,1.073257945086381,0.10209928681355113,4.1156174154146274,-4.949922609782738,1.374065514370018,1.3533268352502064,-0.04483890932986431,-4.803587114823638,1,left
8.146,0.07963152574713867,1.0815508824060183,0.1010409873836163,4.120422248531994,-4.856151211864797,1.3928929460414006,1.3477525178660574,-0.05675937011977762,-4.800786253344986,1,left
8.146,0.07449726312056253,1.0896275328918554,0.10000519121497445,4.124402077961859,-4.760440906638738,1.4113487770386481,1.3416792877381596,-0.06883055675442118,-4.796148594900273,1,left
8.152000000000001,0.06948593293334507,1.0974861986964521,0.09899336583550752,4.127565129434348,-4.662866490523075,1.4294168210671883,1.335116648856027,-0.08103874215105761,-4.789669473759447,1,left
8.152999999999999,0.06459849680410425,1.1051254325697102,0.09800690201753393,4.129919432429752,-4.563503732179679,1.4470815175165264,1.32807446099606,-0.09337046334336695,-4.781345376770051,1,left
8.157,0.05983588849582505,1.1125440391171217,0.0970471087692391,4.131472828143265,-4.4624293429627295,1.46432796267672,1.3205629264095033,-0.1058125466586801,-4.771173967217983,1,left
8.158,0.055199014000210954,1.1197410755578912,0.09611520855389138,4.132232978892009,-4.359720945010653,1.481141939350185,1.312592575742691,-0.11835213193236224,-4.759154108389169,1,left
8.161,0.05068875153290854,1.1267158519590192,0.0952123327246977,4.132207378971112,-4.255457036695784,1.4975099449095461,1.3041742531693619,-0.13097669579474389,-4.74528588680822,1,left
8.162,0.046305951412863686,1.1334679309188487,0.0943395171559187,4.131403366963318,-4.149716955141551,1.5134192178510515,1.2953191007134928,-0.14367407406631422,-4.729570635124859,1,left
8.167,0.04205143580373329,1.139997126672601,0.09349769804618037,4.129828139504359,-4.042580835512303,1.5288577628918183,1.2860385417397786,-0.15643248329717305,-4.712010954613594,1,left
8.168,0.037925998301246565,1.146303503592145,0.09268770786337674,4.127488766503985,-3.9341295667764196,1.5438143746579052,1.2763442635875948,-0.16924054148698192,-4.6926107372467785,1,left
8.172,0.03393040335236948,1.1523873740507409,0.09191027138807242,4.1243922078203985,-3.824444743639128,1.558278660008888,1.2662481993230317,-0.18208728802186525,-4.671375187295946,1,left
8.173,0.030065385486825302,1.1582492956207955,0.09116600179850015,4.120545331383558,-3.7136086143374123,1.5722410590432683,1.2557625086131667,-0.19496220282980084,-4.648310842399252,1,left
8.174,0.026331648331346488,1.16389006757235,0.09045539673856788,4.115954932760655,-3.601704023985652,1.5856928648276527,1.2448995578795554,-0.20785522458074376,-4.623425593969046,1,left
8.175,0.022729863368253864,1.1693107266442533,0.08977883432937832,4.110627756154884,-3.488814353157057,1.5986262418912423,1.2336719001639815,-0.22075676744204992,-4.5967287067029154,1,left
8.176,0.019260668393758264,1.1745125420635187,0.08913656912114552,4.104570516826466,-3.375023451382692,1.6110342435257168,1.2220922552923936,-0.23365773572440895,-4.568230836897764,1,left
8.182,0.015924665624054143,1.1794970097875548,0.08852872802786507,4.097789924922757,-3.2604155652467868,1.6229108279291424,1.2101734907678616,-0.24654953592898793,-4.537944049319755,1,left
8.183,0.012722419388860623,1.1842658459466373,0.08795530633188553,4.090292710702147,-3.1450752607542074,1.6342508732310466,1.1979286035451364,-0.2594240860223023,-4.5058818324832135,1,left
8.184,0.009654453345784983,1.1888209794781965,0.08741616387482126,4.082085651099024,-3.0290873398194265,1.6450501914086224,1.1853707026843754,-0.2722738219407691,-4.472059112244928,1,left
8.186,0.006721247148004886,1.193164543965512,0.08691102155143018,4.073175597398274,-2.9125367516041067,1.655305540974206,1.1725129928498208,-0.2850917013619592,-4.436492263626874,1,left
8.187000000000001,0.003923232502449877,1.1972988687138528,0.08643945819640017,4.063569503467645,-2.7955085010126193,1.6650146380816686,1.1593687586182848,-0.2978712047795183,-4.399199120775286,1,left
8.191,0.0012607885577495838,1.2012264691206858,0.08600090791952253,4.053274453817535,-2.678087557533091,1.674176165569511,1.1459513495613933,-0.3106063339186542,-4.36019898495894,1,left
8.192,-0.001265763444748382,1.2049500364303398,0.08559465791611971,4.0422976909324735,-2.560358766729827,1.682789779585186,1.1322741660646796,-0.32329160752900027,-4.319512630504533,1,left
8.196,-0.0036561663265211675,1.208472427003459,0.08521984675232261,4.03064664163465,-2.442406765107276,1.6908561136645757,1.1183506458457995,-0.3359220545915523,-4.277162308562048,1,left
8.197000000000001,-0.00591023398853271,1.2117966512667444,0.08487546309376369,4.018328942414592,-2.3243158981844374,1.6983767802672751,1.1041942511333487,-0.3484932049762537,-4.233171748588118,1,left
8.202,-0.0080278593084144,1.2149258625307007,0.08456034481711418,4.0053524636974664,-2.2061701414416954,1.7053543697924316,1.0898184564670232,-0.36100107758665806,-4.187566157430559,1,left
8.202,-0.010009022889467433,1.217863345867777,0.0842731784233044,3.991725333011566,-2.0880530238014052,1.7117924470983117,1.0752367370791518,-0.3734421660279436,-4.140372215892457,1,left
8.206,-0.011853802578808461,1.2206125072286744,0.08401249866240769,3.9774559570235954,-1.9700475533031776,1.7176955455472072,1.060462557816961,-0.38581342183438544,-4.091618072649496,1,left
8.207,-0.013562383616265834,1.2231768629422892,0.08377668828506382,3.9625530424035054,-1.8522361446346376,1.723069158595737,1.0455093625643064,-0.39811223529220935,-4.041333335389564,1,left
8.211,-0.015135069220516316,1.22556002969834,0.0835639778549056,3.947025615479744,-1.7347005481785174,1.7279197289490433,1.0303905641210085,-0.41033641389355996,-3.9895490590391343,1,left
8.212,-0.016572291366685345,1.2277657150560783,0.0833724455921228,3.930883040643954,-1.6175217802372623,1.7322546352958572,1.0151195344973793,-0.42248415845711723,-3.9362977309364133,1,left
8.216000000000001,-0.017874621463584334,1.2297977084645186,0.08320001726968747,3.9141350374623185,-1.500780054096885,1.7360821766398795,0.9997095955810127,-0.43455403695068845,-3.881613252806875,1,left
8.217,-0.019042780603985433,1.2316598727268646,0.08304446624291051,3.8967916964489744,-1.3845547115925958,1.7394115542414335,0.9841740101324344,-0.44654495605088784,-3.825530919392492,1,left
8.22,-0.020077649043376725,1.2333561357999905,0.08290341374884447,3.878863493455137,-1.2689241548397563,1.7422528511818518,0.9685259730657728,-0.4584561304747981,-3.768087393581757,1,left
8.22,-0.020980274565341805,1.2348904827919336,0.08277432965991528,3.860361302625851,-1.153965777794959,1.744617009561622,0.9527786029702074,-0.4702870501182855,-3.7093206778834693,1,left
8.225,-0.02175187941665209,1.2362669480080155,0.08265453391505868,3.8412964078745606,-1.03975589731352,1.7465158053418697,0.9369449338275962,-0.48203744503541235,-3.649270082083272,1,left
8.226,-0.022393865541674992,1.237489606901154,0.08254119887660806,3.821680512824021,-0.926369683371373,1.7479618208373697,0.9210379068813563,-0.4937072482931653,-3.587976186917983,1,left
8.229,-0.022907817910685233,1.2385625678042747,0.08243135286496274,3.8015257491604286,-0.8138810881212873,1.7489684148679017,0.9050703626113875,-0.5052965567354838,-3.525480803599,1,left
8.23,-0.023295505816354548,1.2394899633582301,0.08232188510099882,3.780844683346016,-0.7023627734554722,1.7495496905734278,0.8890550327695828,-0.5168055896903456,-3.461826929012346,1,left
8.235,-0.02355888210417877,1.2402759415904119,0.08220955223625358,3.759650321633803,-0.5918860367490043,1.7497204608972807,0.8730045324302546,-0.5282346456534339,-3.397058696419369,1,left
8.236,-0.023700080400508215,1.240924656640684,0.08209098657318492,3.737956113326616,-0.48252073446108185,1.7494962117402793,0.8569313520096351,-0.5395840569816788,-3.3312213214786586,1,left
8.24,-0.023721410489543338,1.241440259164376,0.08196270598239765,3.715775952221002,-0.3743352032738955,1.7488930627874788,0.8408478492184301,-0.55085414270304,-3.26436104352669,1,left
8.241,-0.023625352039195552,1.2418268864577917,0.08182112543976441,3.6931241761751727,-0.26739617845189934,1.747927726008075,0.8247662409611047,-0.5620451599151902,-3.1965250626529675,1,left
8.242,-0.023414546876439967,1.2420886523494572,0.08166257005634713,3.670015564738699,-0.16176870910744906,1.7466174618278547,0.8086985952851614,-0.5731572549052627,-3.1277614741849233,1,left
8.245,-0.023091790003995027,1.2422296368922905,0.08148328943585233,3.6464653347802543,-0.05751607006216478,1.7449800329724967,0.7926568235334367,-0.5841904154891228,-3.058119202796334,1,left
8.245,-0.02266001956516051,1.2422538758893318,0.0812794731344323,3.6224891340483736,0.04530033000304993,1.7430336559789843,0.7766526728026479,-0.5951444257018726,-2.987647937848798,1,left
8.249,-0.022122305979896933,1.2421653502890873,0.08104726692859111,3.598103032598883,0.1466210444126356,1.740796950371407,0.7606977187218239,-0.6060188233113368,-2.916398070490548,1,left
8.25,-0.021481840459862338,1.2419679754923638,0.08078278955842266,3.5733235120386384,0.24638868843873996,1.7382888855349965,0.7448033585145167,-0.6168128602595265,-2.8444206324329335,1,left
8.251,-0.020741923065596246,1.2416655906172815,0.0804821496288052,3.5481674526203735,0.34454804219893964,1.7355287255139238,0.7289808042988469,-0.62752546606355,-2.7717672362022356,1,left
8.254,-0.019905950416363047,1.241261947770914,0.08014146240952846,3.522652118377719,0.44104615325623103,1.7325359723041596,0.71324107657957,-0.638155214207207,-2.698490016662246,1,left
8.255,-0.018977403122721205,1.240760701381767,0.07975686632949087,3.4967951405746973,0.5358324344823997,1.7293303084044864,0.6975949978865299,-0.6487002915542724,-2.624641573600942,1,left
8.262,-0.017959832991072504,1.2401653976653495,0.07932453897944555,3.4706144996565316,0.6288587539226078,1.725931539195465,0.6820531865140687,-0.6591584708142421,-2.550274915172665,1,left
8.263,-0.01685685003714929,1.2394794643194698,0.07884071244929308,3.4441285057321624,0.7200795155206893,1.7223595353688748,0.6666260503162004,-0.6695270860910707,-2.475443401985398,1,left
8.264,-0.015672109331468405,1.2387062005649687,0.07830168786011783,3.4173557775314922,0.8094517307410767,1.7186341754369732,0.6513237805126226,-0.6798030115451932,-2.4002006916211203,1,left
8.265,-0.014409297687136257,1.237848767658562,0.0777038489978936,3.390315219762183,0.8969350813545017,1.7147752883118552,0.6361563454609431,-0.6899826431988653,-2.324600683375715,1,left
8.267999999999999,-0.013072120194430076,1.2369101800101945,0.07704367499467844,3.363025998789971,0.9824919736494293,1.710802595944695,0.6211334843508242,-0.7000618839146034,-2.248697463003572,1,left
8.269,-0.011664286608801009,1.2358932970391594,0.07631775202868983,3.3355075165656234,1.066087584325881,1.7067356560142086,0.6062647007761085,-0.7100361315762364,-2.172545247250855,1,left
8.273,-0.010189497609003857,1.2348008159007446,0.0755227840296756,3.3077793827208923,1.1476898983228838,1.7025938046532918,0.5915592561413725,-0.7199002705018028,-2.096198327960363,1,left
8.274,-0.008651430959018255,1.2336352652087101,0.07465560238478207,3.2798613847551232,1.2272697388252498,1.698396099202471,0.5770261628597737,-0.7296486661172412,-2.0197110155300586,1,left
8.279,-0.007053727630671774,1.232398999870539,0.07371317464741402,3.2517734562334955,1.3048007896897684,1.694161260978515,0.5626741772994972,-0.7392751629195111,-1.9431375815066163,1,left
8.279,-0.005399977973119535,1.2310941971435616,0.07269261226137974,3.223535642917295,1.380259610525166,1.6899076180463624,0.548511792436575,-0.7487730857574746,-1.8665322000947802,1,left
8.285,-0.003693708049634916,1.229722854011077,0.07159117732639349,3.1951680667460476,1.4536256446543925,1.6856530479823324,0.5345472301723483,-0.7581352444585269,-1.78994888836292,1,left
8.286,-0.0019383662995374723,1.2282867859695714,0.07040628844753487,3.16669088759088,1.5248812201819066,1.6814149206165045,0.5207884332743612,-0.7673539418286163,-1.713441444924929,1,left
8.288,-0.0001373107206007882,1.226787627311825,0.06913552572819576,3.1381242626980232,1.594011544382692,1.6772100407420798,0.5072430569000196,-0.7764209850529237,-1.6370633868785112,1,left
8.289,0.0017062031982426641,1.2252268329843903,0.06777663498139821,3.1094883037410135,1.661004691623723,1.6730545907795402,0.493918459662914,-0.7853277005240802,-1.5608678847799742,1,left
8.295,0.003589033535828576,1.2236056820896097,0.06632753124735555,3.080803031399821,1.725851585022551,1.6689640733834683,0.4808216942022995,-0.7940649521243867,-1.4849076954358544,1,left
8.297,0.005508161711437169,1.2219252830915157,0.06478630171685971,3.052088327384893,1.788545972041576,1.6649532539799807,0.4679594972168349,-0.8026231629880649,-1.4092350922920736,1,left
8.298,0.007460700681182035,1.2201865807701944,0.06315120817342205,3.0233638838238868,1.8490843942104374,1.6610361032228738,0.4553382789243197,-0.8109923407691071,-1.3339017932018558,1,left
8.299,0.009443901261688285,1.2183903649474763,0.06142068908488399,2.9946491499287324,1.9074661511627993,1.6572257393567595,0.44296411190981816,-0.8191621064398031,-1.2589588853543,1,left
8.304,0.011455156285446091,1.2165372809767707,0.05959336149710627,2.9659632758605743,1.9636932591676266,1.653534370475701,0.4308427193252364,-0.8271217266445086,-1.1844567471463325,1,left
8.304,0.013492002305805885,1.2146278419532086,0.05766802290369778,2.9373250537101208,2.0177704043288625,1.649973236666124,0.41897946240410666,-0.8348601496326749,-1.1104449667817413,1,left
8.307,0.015552118604618463,1.2126624425607238,0.055643653278717196,2.908752855510945,2.069704890621222,1.646552552023081,0.40737932725604425,-0.8423660447945874,-1.0369722573821036,1,left
8.308,0.01763332331913197,1.2106413744376032,0.0535194174532711,2.8802645682033794,2.1195065829236444,1.6432814465292935,0.3960469109485029,-0.8496278457356233,-0.9640863685819899,1,left
8.309,0.01973356659110332,1.2085648429247653,0.05129466798313411,2.851877525466773,2.1671878452057656,1.640167907786759,0.3849864070963726,-0.8566337963890521,-0.8918339955137121,1,left
8.312999999999999,0.021850920737021762,1.2064329850646403,0.04896894859718652,2.8236084363380605,2.212763474016624,1.6372187225911163,0.37420159156264143,-0.863371998883462,-0.8202606877651033,1,left
8.314,0.02398356755101432,1.2042458887167387,0.04654199825049144,2.795473310534851,2.256250627418694,1.6344394183393924,0.3636958090862875,-0.8698304614450415,-0.7494107618269823,1,left
8.317,0.026129782990002823,1.2020036126267672,0.044013755741151066,2.7674873805916915,2.2976687495309265,1.6318342043709013,0.3534719614421716,-0.87599714504936,-0.6793272196172926,1,left
8.318,0.028287919609155738,1.1997062072543612,0.04138436479648032,2.7396650218693512,2.3370394909717565,1.6294059138850425,0.3435324973565688,-0.881860008319796,-0.6100516739941784,1,left
8.318999999999999,0.030456387175349063,1.1973537361549798,0.03865417950149041,2.712019673208894,2.3743866257270545,1.6271559480585462,0.33387940419060136,-0.8874070506041131,-0.5416242812408567,1,left
8.322000000000001,0.03263363195622883,1.1949462976905447,0.03582376991652974,2.6845637619535774,2.409735965095395,1.6250842245287231,0.32451420136220643,-0.8926263532468696,-0.4740836803210423,1,left
8.323,0.03481811533605847,1.192484046775995,0.03289392769168237,2.6573086361112486,2.4431152692237945,1.623189131866263,0.31543793547809135,-0.8975061190744803,-0.4074669387060023,1,left
8.327,0.03700829258063102,1.1899672162853598,0.02986567145227955,2.6302645047188604,2.4745541565012696,1.6214674906833324,0.3066511771479476,-0.9020347101088392,-0.34180950457674936,1,left
8.328,0.03920259265653735,1.1873961376871014,0.02674025173307127,2.603440386520431,2.5040840109384916,1.6199145214797142,0.29815401945402226,-0.9062006835244713,-0.27714516520742766,1,left
8.332,0.04139939998814853,1.1847712604603886,0.023519155276113764,2.576844066880177,2.5317378876294887,1.6185238192215428,0.2899460780499748,-0.9099928258632082,-0.21350601133859606,1,left
8.332,0.0435970389340952,1.1820931698518786,0.020204108557635186,2.55048206285314,2.5575504163857836,1.6172873346476746,0.2820264928637771,-0.9134001855193704,-0.1509224073518644,1,left
8.338,0.04579376159689371,1.1793626025674575,0.016797080456289967,2.524359596336274,2.5815577036278627,1.616195362299219,0.2743939313802462,-0.9164121035074011,-0.08942296706018893,1,left
8.339,0.04798773936140751,1.1765804600594116,0.013300284016516426,2.4984805752235952,2.6037972326134944,1.6152365352682185,0.26704659347962795,-0.9190182425228206,-0.029034534931073882,1,left
8.342,0.050177058317000346,1.1737478191640094,0.009716177305145226,2.472847582489682,2.6243077620771342,1.6143978266619081,0.25998221780947844,-0.9212086143062683,0.03021782743704509,1,left
8.343,0.05235971847987918,1.1708659399554384,0.006047463413845729,2.4474618731264877,2.6431292233494577,1.613664557779385,0.25319808966791324,-0.9229736053192615,0.08831084976184961,1,left
8.347000000000001,0.054533636518264074,1.167936270790147,0.0022970897136440254,2.4223233788591236,2.660302616020991,1.613020412997914,0.24669105037711178,-0.9243040007391354,0.14522305662104495,1,left
8.347999999999999,0.05669665151511069,1.1649604506031783,-0.001531753503179465,2.397430720566987,2.675869902208854,1.6124474613664226,0.2404575081267778,-0.9251910067794389,0.20093476626329027,1,left
8.351,0.05884653319652698,1.161940308578522,-0.005435634872689238,2.3727812283372973,2.689873899480763,1.611926184904044,0.23449345026805968,-0.925626271340833,0.2554280848529923,1,left
8.353,0.06098099201115188,1.1588778613534032,-0.009410884237252195,2.3483709690788332,2.702358172485729,1.6114355136018241,0.22879445703922974,-0.9256019029962975,0.30868689631241386,1,left
8.356,0.06309769045759551,1.1557753079396496,-0.013453595370134788,2.3241947816243442,2.713366923336255,1.6109528671258988,0.22335571670520685,-0.9251104883131746,0.36069684792110296,1,left
8.357000000000001,0.06519425510946605,1.1526350225607662,-0.01755962923964457,2.3002463192508227,2.722944880782364,1.610454203220601,0.21817204209377986,-0.9241451075132836,0.41144533182915327,1,left
8.361,0.06726828886555293,1.1494595456169325,-0.021724617954084112,2.276518099547498,2.7311371882134043,1.6099140728100396,0.21323788851214942,-0.9226993484710213,0.46092146263726297,1,left
8.362,0.06931738304409633,1.146251573004162,-0.025943969550874166,2.2530015615620926,2.737989290519373,1.60930568179671,0.20854737302815313,-0.9207673190480186,0.5091160511929755,1,left
8.366,0.07133912903804233,1.143013944025749,-0.03021287379693932,2.2296871301565186,2.7435468198393527,1.6086009595556532,0.20409429510127067,-0.9183436577615708,0.556021574748866,1,left
8.366,0.07333112934874955,1.1397496281404076,-0.03452630915732591,2.206564287503841,2.747855480220702,1.60777063412255,0.199872158549222,-0.9154235427826714,0.6016321436247843,1,left
8.372,0.07529100791070964,1.136461710791724,-0.03887905106798666,2.183621651658919,2.7509609312087764,1.6067843140739417,0.19587419483667048,-0.9120026992580902,0.6459434645125908,1,left
8.373,0.07721641969724855,1.133153378558958,-0.043265681620871174,2.1608470621357343,2.7529086703832517,1.6056105770974958,0.19209338767322434,-0.9080774049495212,0.6889528005581163,1,left
8.376,0.07910505964749717,1.1298279038577004,-0.04768060073750387,2.138227672424958,2.753743914853516,1.6042170652498575,0.18852249887375222,-0.9036444942074959,0.73065892838649,1,left
8.376,0.08095467097602387,1.1264886293913579,-0.05211803887384944,2.1157500493858152,2.7535114817221613,1.6025705868991933,0.1851540952604672,-0.8987013604267828,0.7710620924088663,1,left
8.377,0.0827630529263724,1.1231389525102773,-0.0565720712688893,2.0934002794467976,2.752255667522254,1.6006372253489805,0.18198057607328957,-0.8932459573633745,0.8101639570609522,1,left
8.382,0.0845280680260258,1.1197823095989805,-0.06103663372094179,2.0711640815502164,2.750020126630891,1.5983824541389697,0.17899420018139642,-0.8872767998221748,0.8479675577956274,1,left
8.382,0.08624764890600393,1.1164221606032179,-0.0655055398429981,2.049026926775993,2.7468477486584613,1.595771259018518,0.1761871125636521,-0.8807929640925672,0.884477251472577,1,left
8.386000000000001,0.08791980475890293,1.113061973809584,-0.06997249971357901,2.026974164353754,2.7427805349866126,1.5927682664310183,0.17355136983974134,-0.8737940882727467,0.9196986664680161,1,left
8.387,0.08954262751222072,1.1097052109748429,-0.07443113981775208,2.004991152639162,2.7378594755075913,1.589337877569011,0.17107896480856777,-0.8662803724917536,0.9536386526482401,1,left
8.387,0.09111429778733941,1.1063553128731156,-0.07887502416771838,1.9830633915904243,2.7321244282034898,1.5854444056577452,0.168761849985837,-0.8582525790105869,0.9863052313118937,1,left
8.391,0.0926330907108986,1.1030156853088973,-0.08329767647914868,1.9611766521477163,2.7256140050838433,1.5810522133456082,0.16659196013323518,-0.8497120321822886,1.0177075452021571,1,left
8.392000000000001,0.09409738165241922,1.0996896856427913,-0.08769260323939475,1.939317099051913,2.7183654671150697,1.576125847856831,0.16456123377208295,-0.8406606182494176,1.0478558086863645,1,left
8.395,0.09550565196950746,1.0963806098851354,-0.09205331745652444,1.9174714056794375,2.710414629184372,1.5706301729613525,0.16266163367479125,-0.8311007849558519,1.0767612581969201,1,left
8.396,0.09685649483679913,1.093091680418965,-0.09637336285046687,1.895626860603629,2.7017957752559867,1.5645304975935,0.16088516632786776,-0.8210355409483916,1.1044361030237415,1,left
8.4,0.09814862121672939,1.0898260344172301,-0.10064633824059799,1.8737714658198068,2.6925415836990303,1.5577927011052572,0.1592239003606235,-0.8104684549421627,1.1308934765448642,1,left
8.401,0.09938086600496038,1.0865867130222573,-0.1048659218879846,1.8518940265712405,2.682683062764175,1.5503833551382642,0.15766998393410472,-0.799403654622368,1.1561473879782693,1,left
8.405,0.1005521943559696,1.0833766513573593,-0.10902589555852607,1.8299842327132518,2.67224949618447,1.542269842096943,0.15621566108512996,-0.7878458252534755,1.1802126747344677,1,left
8.406,0.1016617081694413,1.0801986694385965,-0.11312016807988,1.808032731552638,2.661268398873784,1.5334204702033298,0.15485328702064322,-0.7758002079654983,1.2031049554458741,1,left
8.411,0.10270865269771454,1.0770554640459655,-0.11714279816874783,1.7860311920995469,2.649765482694617,1.5238045851122544,0.15357534235790204,-0.7632725976855902,1.224840583745551,1,left
8.412,0.10369242321706329,1.0739496015952026,-0.12108801631080043,1.7639723606688393,2.637764632265362,1.5133926780634905,0.1523744463063065,-0.7502693406817642,1.245436602864488,1,left
8.415,0.10461257168779727,1.0708835120241385,-0.12495024548754914,1.7418501077678654,2.6252878907755295,1.502156490545393,0.1512433687869391,-0.7367973316841436,1.2649107011132201,1,left
8.416,0.1054688133066949,1.0678594836759996,-0.12872412056106333,1.7196594662074318,2.6123554557759423,1.4900691154423278,0.1501750414861285,-0.7228640105477713,1.2832811683102554,1,left
8.42,0.10626103282843964,1.0648796591332759,-0.13240450614774926,1.697396660372577,2.5989856849094712,1.4771050946359277,0.14916256783957182,-0.7084773584196357,1.3005668532165215,1,left
8.421,0.10698929050329702,1.0619460319342993,-0.13598651284017585,1.6750591265895924,2.585195111546513,1.4632405130278388,0.14819923194375045,-0.6936458933712295,1.3167871220318137,1,left
8.425,0.1076538274522668,1.0590604440920626,-0.1394655116702695,1.652645524525535,2.570998470288098,1.4484530889491753,0.14727850639155626,-0.6783786654566305,1.3319618180060573,1,left
8.426,0.10825507028307228,1.0562245843320657,-0.14283714674185813,1.630155739556271,2.556408732298257,1.4327222609193904,0.14639405902920435,-0.6626852511547947,1.3461112222150844,1,left
8.43,0.1087936347433824,1.053439986974016,-0.14609734599426835,1.6075908760388775,2.5414371504260598,1.4160292707146866,0.14553975863165175,-0.6465757471534737,1.359256015547564,1,left
8.431000000000001,0.10927032821509727,1.0507080314005606,-0.14924233009238588,1.5849532414240117,2.5260933140765744,1.3983572427034423,0.14470967949386274,-0.6300607634309184,1.37141724194672,1,left
8.436,0.10968615087836137,1.0480299420823593,-0.15226861946756595,1.5622463211436446,2.5103852137888567,1.3796912594034187,0.1438981049353671,-0.6131514155903087,1.3826162729475342,1,left
8.436,0.11004229541623808,1.0454067891571759,-0.15517303955382972,1.5394747442093408,2.4943193154779784,1.3600184332127612,0.14309952971564424,-0.5958593164006515,1.3928747735472338,1,left
8.44,0.11034014518812231,1.0428394895840196,-0.15795272427691415,1.51664423945606,2.477900644297037,1.3393279742639945,0.14230866135793657,-0.5781965664967308,1.4022146694440543,1,left
8.441,0.11058127086645816,1.0403288089066431,-0.16060511786369505,1.493761582366261,2.461132878074035,1.3176112543473613,0.14152042037914817,-0.5601757441895567,1.4106581156764875,1,left
8.445,0.11076742559812462,1.0378753636620943,-0.16312797504805418,1.4708345324089012,2.444018450277484,1.2948618668469662,0.14072993942352416,-0.5418098943376642,1.4182274666925365,1,left
8.446,0.11090053880597438,1.0354796244603142,-0.16551935975481552,1.4478717608277594,2.426558662463581,1.2710756826302687,0.13993256131706994,-0.5231125162417997,1.4249452478596116,1,left
8.446,0.11098270877127736,1.03314191974397,-0.1677776423404973,1.4248827688133678,2.4087538061567813,1.2462509018285244,0.13912383615589277,-0.5040975505907559,1.430834128341904,1,left
8.45,0.11101619413203363,1.0308624402191033,-0.1699014954575525,1.401877795992704,2.3906032941146202,1.2203881014428146,0.13829951771482704,-0.4847793656043833,1.4359168951233652,1,left
8.451,0.11100340442096242,1.028641243927474,-0.17188988859904394,1.3788677191706982,2.3721058009266156,1.1934902787073254,0.1374555595588996,-0.4651727425851029,1.4402164278707505,1,left
8.456,0.11094688977032931,1.0264782619081272,-0.1737420813849283,1.3558639412575388,2.3532594128961084,1.1655628901385655,0.13658811114394506,-0.44529286102208565,1.4437556744100255,1,left
8.456,0.1108493299126357,1.0243733043699799,-0.17545761566783072,1.33287827031571,2.334061787152893,1.1366138861962325,0.1356935140194514,-0.42515528327213514,1.446557626733322,1,left
8.457,0.11071352258782041,1.0223260672763397,-0.17703630655566488,1.3099227889851368,2.314510319621568,1.1066537414280855,0.13476829815044578,-0.4047759387742345,1.4486452975325983,1,left
8.459,0.11054237143599203,1.0203361392362904,-0.1784782324583513,1.287009716167098,2.2946023198599166,1.075695479716335,0.13380917835592068,-0.38417110774067964,1.450041697270221,1,left
8.461,0.11033887342506674,1.018403008607841,-0.17978372426180428,1.2641512657676919,2.274335187883261,1.0437546937866955,0.13281305086122325,-0.36335740426698393,1.4507698117945682,1,left
8.464,0.11010610584476571,1.0165260707272512,-0.18095335373130256,1.2413595089239946,2.25370658648012,1.0108495578864545,0.13177698996174253,-0.34235175880204516,1.4508525805066983,1,left
8.465,0.10984721289608483,1.0147046351756417,-0.181987921264565,1.2186462445139015,2.2327146041330748,0.9770008327869455,0.13069824479513295,-0.32117139991941795,1.4503128750821492,1,left
8.469,0.10956539191572455,1.0129379329891588,-0.18288844313970298,1.1960228798307335,2.211357906555074,0.9422318627164256,0.1295742362192058,-0.2998338353299358,1.449173478750007,1,left
8.469,0.10926387929331403,1.0112251237265228,-0.18365613841431674,1.173500321681612,2.189635876459978,0.9065685640784918,0.12840255379250665,-0.2783568320753768,1.4474570661295292,1,left
8.474,0.10894593616296958,1.0095653023242515,-0.18429241562910628,1.1510888778443713,2.167548741507042,0.8700394058588512,0.12718095285447417,-0.2567583958423647,1.4451861836228255,1,left
8.475,0.10861483397729267,1.007957505685949,-0.18479885946335478,1.1287981688180477,2.14509769035798,0.8326753816206144,0.1259073517019461,-0.23505674933524648,1.442383230360368,1,left
8.479,0.1082738400975317,1.0064007189650193,-0.1851772174852697,1.1066370498022635,2.1222849767842082,0.7945099729857266,0.12457982885864172,-0.2132703096462879,1.4390704396944496,1,left
8.48,0.10792620355423167,1.0048938815111854,-0.18542938713395535,1.0846135428411452,2.0991140117608267,0.7555791044976624,0.12319662043410672,-0.1914176645611795,1.435269861234116,1,left
8.482999999999999,0.10757514114596327,1.003435892460911,-0.18555740305772034,1.0627347790677586,2.075589443482842,0.7159210897581197,0.12175611756845818,-0.1695175477375494,1.431003343413568,1,left
8.485,0.10722382404915629,1.0020256159597658,-0.1855634249165822,1.0410069509854156,2.0517172252381046,0.6755765687281508,0.12025686395911173,-0.14758881269393673,1.4262925165845626,1,left
8.488,0.1068753651085561,1.0006618860107106,-0.18544972573785937,1.019435274722601,2.0275046710704077,0.634588436081976,0.11869755346551397,-0.12565040554648885,1.4211587766219416,1,left
8.488999999999999,0.1065328069644265,0.9993435109462963,-0.18521868089280466,0.9980239621986794,2.002960499165179,0.5930017604996409,0.1170770277877389,-0.10372133643051011,1.4156232690300814,1,left
8.494,0.1061991111513675,0.9980692775252683,-0.18487275774013048,0.9767762031379773,1.9780948628892077,0.5508636947827079,0.11539427421463842,-0.08182064954390719,1.4097068735367722,1,left
8.495,0.10587714827757744,0.9968379546557021,-0.18441450596281236,0.9556941568702773,1.9529193694148639,0.5082233766753351,0.11364842343706522,-0.059967391749549064,1.4034301891598278,1,left
8.5,0.10556968936413519,0.9956482967482977,-0.18384654861058342,0.9347789538562233,1.927447085858323,0.4651318202713727,0.11183874742151026,-0.03818057967358604,1.3968135197305698,1,left
8.5,0.10527939839325885,0.99449904670585,-0.18317157385123367,0.9140307068766038,1.9016925328603937,0.4216417978865333,0.109964657339319,-0.01647916523685419,1.3898768598572286,1,left
8.504,0.10500882608557986,0.9933889385595872,-0.18239232742715034,0.8934485318249494,1.8756716655376482,0.3778077122732519,0.10802570154646936,0.005118000443372616,1.3826398813102814,1,left
8.505,0.10476040490155068,0.9923166997708519,-0.18151160580720518,0.8730305780433643,1.849401841730717,0.3336854590545581,0.1060215636087115,0.026592204843829837,1.3751219198107563,1,left
8.508,0.10453644524149758,0.991281053226029,-0.1805322500147973,0.852774068141983,1.8229017774757932,0.28933227925214233,0.10395206036668467,0.047924913580210414,1.3673419622016196,1,left
8.509,0.10433913280134374,0.9902807189615086,-0.17945714009865812,0.8326753472429231,1.796191489624632,0.24480660178281258,0.10181714003544035,0.0690978117686165,1.3593186339815002,1,left
8.513,0.10417052702659815,0.9893144156624084,-0.17828919019713188,0.8127299415900723,1.7692922255376227,0.20016787579671425,0.09961688033162633,0.0900928471839919,1.3510701871907804,1,left
8.514,0.1040325605999455,0.988380861980915,-0.1770313441371607,0.7929326264665081,1.7422263797738435,0.15547639273002314,0.09735148661646167,0.11089227478974287,1.3426144886972862,1,left
8.514,0.1039270398987689,0.9874787777156115,-0.17568657151047526,0.7732775033618066,1.7150173977014194,0.11079309794433001,0.0950212900335569,0.13147870148174223,1.3339690090324094,1,left
8.517999999999999,0.10385564635667169,0.9866068848884908,-0.17425786417450093,0.7537580863319274,1.6876896659509542,0.06617939182461056,0.09262674561550914,0.15183512948353847,1.325150811985799,1,left
8.519,0.1038199386477832,0.9857639087588488,-0.17274823312643825,0.734367397494792,1.6602683896343324,0.021696920207525835,0.09016843033795272,0.171944997234893,1.3161765451082141,1,left
8.524,0.10382135559497863,0.9849485788178635,-0.1711607056994804,0.7150980713691075,1.6327794565895533,-0.02259264561063831,0.08764704110844676,0.1917922173457125,1.3070624311672767,1,left
8.525,0.10386121970116663,0.984159629804261,-0.169498323036102,0.6959424665845414,1.6052492906057756,-0.06662783714918269,0.08506339268233505,0.21136121159264645,1.2978242605424195,1,left
8.525,0.10394074121718817,0.9833958027696872,-0.1677641378014348,0.6768927813680011,1.5777046986314276,-0.11034761976591052,0.08241841549851717,0.2306369430160859,1.2884773845332795,1,left
8.529,0.10406102267265231,0.9826558462100112,-0.16596121210153125,0.6579411680312854,1.550172718661901,-0.15369161900404646,0.0797131534278898,0.24960494517454482,1.2790367095553918,1,left
8.53,0.1042230637945964,0.9819385172705531,-0.16409261556439342,0.6390798428655414,1.522680473309379,-0.19660033672642815,0.07694876142703774,0.2682513486126091,1.2695166921966758,1,left
8.533999999999999,0.1044277667308924,0.9812425830269669,-0.16216142353271965,0.6203011899719745,1.4952550310083528,-0.23901535489719597,0.07412650308957869,0.2865629045977957,1.2599313351078976,1,left
8.533999999999999,0.10467594149188701,0.9805668218363062,-0.16017071531325627,0.6015978587383846,1.467923275116565,-0.28087952675782785,0.0712477480873928,0.30452700618078216,1.2502941837000159,1,left
8.538,0.10496831152376213,0.9799100247455216,-0.15812357242825986,0.582962854907329,1.440711780832464,-0.32213715552065963,0.06831396949379831,0.32213170663254354,1.2406183236210964,1,left
8.539,0.10530551932555016,0.9792709969393643,-0.15602307681687402,0.5643896251819497,1.41364669985044,-0.362734160701614,0.06532674098056868,0.33936573531097486,1.230916378985284,1,left
8.542,0.10568813201859588,0.9786485592069392,-0.15387230893829543,0.5458721353157197,1.3867536526753765,-0.4026182322122833,0.06228773388052447,0.35621851100857854,1.22120051132618,1,left
8.543,0.10611664677571314,0.978041549405295,-0.1516743457368264,0.5274049416325625,1.3600576285184125,-0.441738972329772,0.05919871410727532,0.3726801528317671,1.211482419246852,1,left
8.547,0.10659149602040312,0.9774488238985387,-0.14943225844238547,0.5089832559239746,1.3335828926962126,-0.48004802566081056,0.056061538923534195,0.38874148866126573,1.201773338738634,1,left
8.549,0.107113052315532,0.9768692589513674,-0.1471491101980463,0.4906030036699429,1.3073529014565453,-0.5174991972146079,0.05287815354927748,0.40439406124200805,1.1920840441408296,1,left
8.552,0.10768163287509211,0.9763017520563847,-0.14482795352601846,0.47226087553059715,1.2813902241535293,-0.5540485586967226,0.049650587600880924,0.41963013194979526,1.1824248497134233,1,left
8.552999999999999,0.10829750365072195,0.9757452231754931,-0.1424718276595657,0.45395437205566763,1.255716472696545,-0.5896545431339046,0.04638095135222333,0.43444268228083943,1.172805611794937,1,left
8.558,0.10896088296471555,0.9751986158783899,-0.14008375577490886,0.4356818415589381,1.230352238197507,-0.6242780279374004,0.04307143180861744,0.4488254131091414,1.1632357315176125,1,left
8.558,0.10967194468030142,0.9746608983671828,-0.13766674215347896,0.4174425111049977,1.2053170347419606,-0.657882406509628,0.03972428858430047,0.4627727417554559,1.1537241580521977,1,left
8.562999999999999,0.11043082091518033,0.9741310643842954,-0.1352237692969796,0.3992365105556989,1.180629250210294,-0.6904336484964254,0.03634184957409646,0.47627979691038336,1.1442793923547208,1,left
8.564,0.1112376043147306,0.9736081340077491,-0.1327577950136847,0.38106488962382706,1.1563061040762415,-0.7219003487842559,0.03292650640974762,0.4893424114528943,1.1349094913877806,1,left
8.566,0.11209234990717225,0.9730911543415719,-0.13027174949682854,0.36292962788158445,1.1323636121107987,-0.7522537653388346,0.029480709691304494,0.5019571132043432,1.1256220727890496,1,left
8.566,0.11299507656433948,0.9725792001104521,-0.12776853241999936,0.34483363767159186,1.108816557920666,-0.7814678459786201,0.02600696398386314,0.5141211136567635,1.116424319959869,1,left
8.572000000000001,0.11394576808917331,0.9720713741689544,-0.12525101007418926,0.32678075986820854,1.085678471251378,-0.8095192441735025,0.02250782256984324,0.5258322947129637,1.1073229875470405,1,left
8.573,0.1149443739472516,0.9715668079375437,-0.1227220125655695,0.3087757524370789,1.0629616129863775,-0.8363873239558323,0.018985881946913644,0.5370891934746554,1.0983244072911482,1,left
8.577,0.11599080965732503,0.9710646617794607,-0.1201843310857933,0.29082427174092995,1.0406769667744082,-0.8620541540276605,0.015443776061591792,0.5478909851135545,1.0894344942150005,1,left
8.577,0.1170849568553323,0.970564125333681,-0.11764071526165398,0.2729328465397682,1.0188342372187928,-0.8865044911447326,0.011884170268470391,0.5582374638590921,1.0806587531260639,1,left
8.582,0.11822666304734465,0.970064417820435,-0.11509387058894098,0.2551088446337645,0.9974418545633549,-0.9097257528543811,0.008309755004959542,0.5681290221350768,1.072002285407048,1,left
8.583,0.11941574106968932,0.9695647883363198,-0.11254645595453831,0.23736043209727195,0.9765069858109893,-0.931707979661018,0.004723239182277334,0.5775666279111646,1.0634697960717139,1,left
8.584,0.12065196827779778,0.9690645161538072,-0.1100010812496137,0.21969652505259402,0.9560355522121509,-0.9524437866894399,0.0011273433478865061,0.5865518005078568,1.0550656010763024,1,left
8.586,0.1219350854867729,0.9685629110351166,-0.10746030507451865,0.20212673393231764,0.9360322530618237,-0.971928304912631,-0.002475207227341526,0.595086585405917,1.046793634900706,1,left
8.586,0.12326479568842895,0.9680593135655731,-0.10492663253375195,0.1846613001792441,0.9165005957448397,-0.9901591120072011,-0.0060816893294741055,0.6031735287839636,1.038657458426864,1,left
8.591000000000001,0.12464076257546244,0.9675530955082813,-0.10240251311909766,0.1673110253331944,0.8974429319707515,-1.0071361528960112,-0.00968938829615657,0.6108156523325319,1.0306602671292244,1,left
8.592,0.12606260891151796,0.9670436601793007,-0.09989033868117594,0.15008719245423807,0.8788605001408016,-1.0228616500339596,-0.013295604170469075,0.6180164285781201,1.0228048995691184,1,left
8.594,0.1275299147916352,0.9665304428392112,-0.0973924414927715,0.1330014800445256,0.8607534736788641,-1.0373400036980513,-0.016897657513452697,0.6247797567752903,1.0150938461722734,1,left
8.597000000000001,0.12904221583846853,0.9660129110937575,-0.09491109241001155,0.11606586969289193,0.8431210145995043,-1.0505776835830491,-0.020492894885662936,0.631109939388784,1.0075292582665012,1,left
8.597999999999999,0.1305990013762334,0.9654905652949339,-0.0924484991383838,0.09929255057774027,0.825961330579492,-1.06258311487919,-0.02407869400810461,0.6370116591863484,1.0001129573569978,1,left
8.602,0.13219971262226485,0.9649629389339948,-0.09000680460964643,0.08269382502576808,0.8092717332403787,-1.0733665630486462,-0.027652468612890075,0.6424899569617104,0.9928464446171097,1,left
8.602,0.13384374094005885,0.9644295990176387,-0.08758808547397146,0.06628201826287332,0.7930486959112004,-1.0829400204700772,-0.031211672993943364,0.6475502099058948,0.9857309105728371,1,left
8.605,0.1355304262021437,0.9638901464188592,-0.08519435070869417,0.050069393583067764,0.7772879101498942,-1.0913170962383043,-0.034753806268045674,0.6521981106438504,0.9787672449597753,1,left
8.606,0.137259055308176,0.9633442161973382,-0.08282754033967551,0.03406807310007134,0.761984340863457,-1.0985129093588635,-0.038276416356483225,0.6564396469521326,0.9719560467316188,1,left
8.611,0.13902886089396768,0.9627914778905027,-0.08048952426493985,0.01828996403446688,0.7471322799802326,-1.1045439853649717,-0.0417771036975168,0.6602810821721954,0.9652976341997922,1,left
8.611,0.14083902025582282,0.9622316357818251,-0.07818210116629157,0.002746690489866955,0.7327253986290405,-1.109428156381001,-0.04525352469984319,0.6637289363326516,0.9587920552842017,1,left
8.616,0.14268865450387394,0.9616644291549463,-0.07590699749439027,-0.012550469327849227,0.7187567977811705,-1.1131844646531677,-0.04870339494716303,0.6667899679927057,0.9524390978555429,1,left
8.617,0.14457682794806442,0.9610896325418578,-0.07366586651433285,-0.027590640493530074,0.7052190573125638,-1.1158330695648033,-0.05212449216390638,0.669471156817805,0.9462383001500365,1,left
8.621,0.14650254771145776,0.9605070559731629,-0.07146028740103737,-0.042363403392604464,0.6921042834447781,-1.1173951581502761,-0.05551465895209809,0.6717796868974292,0.9401889612379022,1,left
8.622,0.14846476355857657,0.9599165452387053,-0.06929176437871777,-0.056858840441714485,0.6794041545245928,-1.1178928591183985,-0.058871805309268624,0.6737229308138276,0.9342901515273203,1,left
8.627,0.15046236792177703,0.9593179821667639,-0.06716172590709547,-0.07106757754331196,0.6671099651033474,-1.1173491603929755,-0.062193910937233615,0.675308434469422,0.928540723286067,1,left
8.628,0.1524941961055493,0.9587112849292188,-0.06507152392460036,-0.08498082031663573,0.6552126682783206,-1.115787830175029,-0.06547902735147675,0.6765439026795212,0.9229393211634401,1,left
8.63,0.15455902664605523,0.9580964083788278,-0.06302243316107481,-0.09859038514669094,0.6437029162596445,-1.113233341528177,-0.06872527980077574,0.677437185535948,0.9174843926955304,1,left
8.631,0.15665558180090136,0.9574733444236575,-0.061015650529395386,-0.11188872509202938,0.6325710991274204,-1.1097108004856562,-0.0719308690066108,0.6779962655461476,0.9121741987773174,1,left
8.635,0.1587825281420343,0.956842122443301,-0.05905229460132629,-0.12486895069128236,0.6218073817448353,-1.1052458776745573,-0.07509407273178881,0.6782292455513466,0.9070068240854959,1,left
8.636000000000001,0.16093847722198965,0.956202809751579,-0.057133405172416996,-0.1375248457075264,0.6114017387941948,-1.0998647434499853,-0.07821324718760486,0.6781443374263433,0.9019801874363581,1,left
8.64,0.16312198628078645,0.9555555121105643,-0.05525994292471575,-0.14985087784866952,0.6013439879038731,-1.093594006529084,-0.08128682828874632,0.6777498515625532,0.8970920520634721,1,left
8.641,0.1653315589594457,0.9549003743009433,-0.05343278920095774,-0.16184220450113349,0.5916238208352368,-1.0864606561121544,-0.08431333276502295,0.6770541871349982,0.8923400358003084,1,left
8.645,0.16756564598798104,0.9542375807539624,-0.05165274590526658,-0.17349467351317718,0.5822308326996277,-1.0784920074754656,-0.08729135913888021,0.6760658231530118,0.8877216211533705,1,left
8.646,0.16982264582151235,0.9535673562501767,-0.04992053554336997,-0.18480481906326005,0.5731545491764898,-1.0697156510177972,-0.0902195885775222,0.6747933102935456,0.8832341652517796,1,left
8.65,0.17210090520752339,0.9528899666890058,-0.04823680141473182,-0.19576985264788416,0.5643844517046932,-1.0601594047402876,-0.09309678562833539,0.6732452635150983,0.8788749096596598,1,left
8.651,0.17439871967759787,0.9522057199301547,-0.04660210797164269,-0.20638764922238295,0.5559100006200516,-1.0498512701367515,-0.09592179884499404,0.6714303554383214,0.8746409900406151,1,left
8.652000000000001,0.1767143339653114,0.9515149667046932,-0.04501694136132305,-0.2166567285271402,0.5477206562129335,-1.038819391469315,-0.09869356130562748,0.6693573104229283,0.8705294456768079,1,left
8.654,0.1790459423580191,0.9508181015916211,-0.04348171016295551,-0.2265762316307353,0.5398058976807534,-1.0270920184019743,-0.10141109101373885,0.6670348991696354,0.8665372288686221,1,left
8.655,0.181391688996062,0.9501155640539104,-0.041996746325341935,-0.23614589272051328,0.5321552399509726,-1.0146974719625308,-0.10407349116655813,0.6644719336194832,0.8626612142540911,1,left
8.658999999999999,0.18374966814047558,0.9494078395240559,-0.0405623063064322,-0.24536600617007864,0.5247582483510644,-1.0016641138012676,-0.10667995028121657,0.6616772619777568,0.858898208074787,1,left
8.66,0.18611792443890404,0.9486954605240301,-0.039178572413815844,-0.25423738901825155,0.5176045511391555,-0.9880203186761658,-0.10922974217951811,0.6586597637891184,0.855244957392097,1,left
8.661,0.18849445322488095,0.9479790078018623,-0.037845654345134316,-0.26276133952324515,0.510683850092193,-0.9737944499096762,-0.11172222583778313,0.6554283450454818,0.8516981592453179,1,left
8.664,0.19087720088551563,0.9472591114675655,-0.03656359092884037,-0.2709395934092156,0.5039859296774872,-0.9590148372310633,-0.11415684510925034,0.6519919333186226,0.8482544697407469,1,left
8.665,0.1932640653310917,0.9465364521110109,-0.03533235206697653,-0.2787742799515585,0.4975006655165498,-0.9437097562337168,-0.11653312832636054,0.6483594729088741,0.8449105130612713,1,left
8.669,0.19565289660149063,0.9458117618816844,-0.03415184088032241,-0.2862678795161067,0.49121803266844644,-0.9279074088580229,-0.11885068779008097,0.6445399200006434,0.8416628903862561,1,left
8.67,0.1980414976459009,0.9450858255080457,-0.03302189605146478,-0.293423183211993,0.4851281139322491,-0.9116359046379579,-0.1211092191532637,0.6405422378148979,0.8385081887118329,1,left
8.674,0.2004276253095838,0.9443594812347118,-0.03194229435468536,-0.30024325478673464,0.47922110818641056,-0.8949232426309232,-0.12330850070486317,0.6363753917482045,0.8354429895619754,1,left
8.675,0.2028089915549273,0.9436336216581692,-0.030912753355494454,-0.30673139478507294,0.4734873387469916,-0.8777972939854873,-0.12544839256167042,0.6320483444873682,0.8324638775810249,1,left
8.679,0.20518326493601596,0.9429091944451695,-0.02993293425791811,-0.3128911069921297,0.46791726172722514,-0.8602857851003501,-0.12752883577405122,0.6275700510882071,0.8295674489985947,1,left
8.68,0.20754807233803735,0.9421872029209697,-0.02900244487415517,-0.31872606718047913,0.46250147438142647,-0.8424162813265795,-0.12954985135200614,0.6229494540065099,0.8267503199580427,1,left
8.684,0.20990100098592768,0.9414687065159115,-0.02812084268958676,-0.32424009417978267,0.45723072341675874,-0.8242161711639814,-0.13151153921769962,0.618195478068767,0.8240091346999432,1,left
8.685,0.21223960072044992,0.9407548210598898,-0.02728763799601653,-0.3294371232866891,0.4520959132568304,-0.8057126509013559,-0.13341407709043454,0.6133170253698279,0.8213405735922338,1,left
8.689,0.21456138653333898,0.940046718917306,-0.026502297065546757,-0.3343211820317706,0.44708811424154815,-0.7869327096493663,-0.13525771930987848,0.6083229700842334,0.818741360998936,1,left
8.69,0.2168638413455194,0.9393456289601337,-0.02576424533633838,-0.3388963683193435,0.4421985707480637,-0.7679031147137937,-0.1370427956031775,0.6032221531775804,0.816208272979565,1,left
8.696,0.21914441900349943,0.9386528363823342,-0.025072870581256138,-0.34316683095511225,0.4374187092180438,-0.7486503972560797,-0.1387697098014232,0.5980233770039277,0.81373814481156,1,left
8.698,0.2214005474600331,0.9379696823640005,-0.02442752603145291,-0.3471367525756755,0.4327401460768595,-0.7292008381872659,-0.14043893851077058,0.592735399774913,0.8113278783282583,1,left
8.699,0.22362963209830802,0.9372975635976255,-0.023827533428600372,-0.3508103349930473,0.4281546955306283,-0.7095804542407199,-0.142051029743335,0.5873669298859485,0.8089744490651295,1,left
8.699,0.2258290591552461,0.9366379316913571,-0.023272185981617982,-0.3541917869664699,0.42365437722736166,-0.6898149841683979,-0.1436066015128307,0.5819266200845779,0.8066749132071697,1,left
8.703,0.2279961991983504,0.9359922924649635,-0.0227607512058191,-0.3572853144129314,0.419231423768759,-0.6699298750048233,-0.14510634039974696,0.5764230614658221,0.8044264143305214,1,left
8.704,0.23012841061124126,0.935362205153564,-0.022292473623376136,-0.36009511306695124,0.41487828805945803,-0.6499502683424762,-0.14655100009069474,0.5708647772791131,0.8022261899315554,1,left
8.709,0.2322230430450879,0.9347492815320331,-0.021866577304641952,-0.36262536359935615,0.4105876504807974,-0.6299009865618653,-0.14794139989639374,0.565260216531202,0.8000715777367994,1,left
8.71,0.2342774407961515,0.934155184969458,-0.02148226823202432,-0.3648802292039425,0.4063524258763681,-0.6098065189592126,-0.14927842325260965,0.5596177473692524,0.7979600217872511,1,left
8.713,0.23628894607372536,0.9335816294193084,-0.021138736472825884,-0.3668638556601058,0.40216577033683415,-0.589691007714408,-0.15056301620819412,0.5539456502281683,0.7958890782907472,1,left
8.714,0.23825490212826003,0.9330303783489649,-0.020835158154357367,-0.36858037387871584,0.3980210877716794,-0.569578233641691,-0.15179618590422303,0.5482521107260747,0.7938564212361942,1,left
8.718,0.24017265621637982,0.9325032436118527,-0.020570697241748818,-0.3700339049377227,0.39391203625570104,-0.5494916016653854,-0.1529789990480762,0.5425452122917584,0.7918598477635896,1,left
8.719,0.24203956238696436,0.932002084264877,-0.020344507124117995,-0.37122856761320183,0.38983253413820695,-0.5294541259629499,-0.15411258038576933,0.5368329285225399,0.7898972832859315,1,left
8.72,0.24385298407938466,0.9315288053328649,-0.020155732017311433,-0.3721684884107778,0.38577676590299764,-0.5094884147176195,-0.15519811117379434,0.5311231153447057,0.7879667863694768,1,left
8.722999999999999,0.24561029653122807,0.931085356520578,-0.020003508191918755,-0.37285781410161195,0.3817391877673147,-0.48961665442298047,-0.15623682764814462,0.5254235031813047,0.7860665533973835,1,left
8.722999999999999,0.2473088889990472,0.9306737308712419,-0.019886965036259394,-0.37330072676639364,0.3777145330080246,-0.46986059368196803,-0.15723001948615414,0.519741689405818,0.784194923052115,1,left
8.728,0.24894616680235923,0.930295963368814,-0.0198052259677034,-0.3735014613500452,0.3736978170033748,-0.4502415264429766,-0.15817902825854838,0.5140851312864944,0.7823503806418312,1,left
8.729,0.25051955320779273,0.9299541294800395,-0.019757409210335516,-0.373464325729129,0.36968434197871064,-0.4307802746160434,-0.15908524587240427,0.5084611394934665,0.7805315622776094,1,left
8.73,0.2520264911744874,0.929650343631676,-0.01974262845990198,-0.3731937232383299,0.36566970145645056,-0.4114971700556868,-0.15995011300749418,0.5028768721670863,0.7787372588981674,1,left
8.734,0.25346444498138765,0.9293867576180562,-0.019759993457312924,-0.372694177327139,0.3616497844699766,-0.39241203611381453,-0.16077511754874266,0.49733932953124416,0.7769664201367852,1,left
8.734,0.25483090175349987,0.929165558934504,-0.01980861048976361,-0.37197035752299995,0.3576207797079212,-0.37354416935616497,-0.16156179301740287,0.491855349035533,0.7752181580252,1,left
8.738,0.2561233729015179,0.9289889690327658,-0.01988758283579114,-0.3710271056019563,0.3535791798146696,-0.35491232225270103,-0.16231171700344,0.4864316010102294,0.7734917505293163,1,left
8.738999999999999,0.2573393954888893,0.9288592414955349,-0.019996011169522182,-0.3698694611417321,0.3495217860135386,-0.3365346874364979,-0.16302650960149537,0.4810745848181983,0.7717866449116436,1,left
8.742,0.25847653354048583,0.9287786601285911,-0.02013299393837971,-0.36850268612571735,0.3454457131122607,-0.31842888373669415,-0.16370783185269436,0.4757906254879822,0.7701024609154342,1,left
8.743,0.259532379306258,0.9287495369710476,-0.02029762772604536,-0.3669322885402516,0.3413483948910208,-0.3006119439753095,-0.16435738419445578,0.4705858708125081,0.7684389937655656,1,left
8.748,0.2605045544922905,0.9287742102263219,-0.02048900761079472,-0.3651640449618907,0.33722758986138685,-0.28310030447517326,-0.16497690492036013,0.4654662888980355,0.7667962169812641,1,left
8.748,0.2613907114715595,0.9288550421184387,-0.02070622752978181,-0.36320402213074193,0.33308138738441717,-0.26590979622698685,-0.16556816865203725,0.46043766614817994,0.765174284995833,1,left
8.753,0.26218853448759655,0.9289944166795415,-0.02094838066078582,-0.36105859750536984,0.32890821413616994,-0.24905563766437247,-0.16613298482494324,0.45550560566807313,0.7635735355786047,1,left
8.754,0.262895740865076,0.9291947374741749,-0.02121455983285294,-0.3587344787942048,0.3247068409087726,-0.23255242899663595,-0.1666731961898103,0.4506755260739652,0.761994492054402,1,left
8.758,0.26351008224088757,0.9294584252638467,-0.021503857975446034,-0.35623872245783755,0.32047638973513753,-0.21641414804989256,-0.1671906773314718,0.4459526606938341,0.7604378653158449,1,left
8.758,0.2640293458279541,0.9297879156123169,-0.021815368611980326,-0.35357875117605214,0.31621634132533155,-0.20065414756817,-0.16768733320668924,0.4413420571448467,0.758904555623909,1,left
8.762,0.26445135572345896,0.9301856564284672,-0.022148186399454817,-0.35076237027293444,0.31192654280252935,-0.18528515392710876,-0.16816509770253682,0.43684857727380644,0.7573956541921992,1,left
8.763,0.2647739742739749,0.9306541054394344,-0.02250140771370691,-0.34779778309290366,0.3076072157263957,-0.17031926721392873,-0.16862593221683428,0.4324768974470315,0.7559124445504691,1,left
8.767000000000001,0.2649951035112899,0.9311957275824592,-0.02287413127999816,-0.34469360532004173,0.3032589643916589,-0.15576796262841425,-0.16907182426205947,0.428231509176428,0.7544564036829845,1,left
8.767000000000001,0.26511268667335147,0.9318129923011803,-0.023265458848179592,-0.34145887823264787,0.298882784389552,-0.14164209316079285,-0.16950478609411657,0.42411672006886125,0.7530292029373975,1,left
8.772,0.26512470982529746,0.9325083707319193,-0.02367449590787004,-0.33810308088451985,0.2944800714197154,-0.1279518935035396,-0.1699268533672888,0.4201366550862744,0.7516327086998754,1,left
8.773,0.2650292035979824,0.9332843327670185,-0.02410035243307715,-0.3346361412040648,0.2900526303400705,-0.11470698515532841,-0.17034008381666046,0.41629525810436846,0.7502689828323038,1,left
8.777999999999999,0.2648242450668389,0.9341433439839917,-0.024542143640084113,-0.3310684460019669,0.28560268444209747,-0.10191638267657224,-0.17074655596925653,0.4125962937580331,0.7489402828674678,1,left
8.779,0.2645079598007072,0.9350878624303639,-0.024998990737955955,-0.32741084987779323,0.28113288493887123,-0.089588501057245,-0.17114836788511692,0.40904334956210053,0.7476490619582062,1,left
8.785,0.26407852411536076,0.9361203352543302,-0.02547002164739135,-0.3236746830156005,0.27664632065314354,-0.07773116415895513,-0.17154763592949684,0.4056398382963981,0.7463979685766229,1,left
8.786,0.2635341675682707,0.9372431951706987,-0.02595437166120942,-0.319871757858317,0.2721465278926919,-0.06635161419454517,-0.1719464935773655,0.4023890006444793,0.7451898459595462,1,left
8.786,0.2628731757294427,0.9384588567510908,-0.026451184019943518,-0.31601437465041726,0.2676375005001021,-0.05545652220981958,-0.17234709025136194,0.3992939080758344,0.7440277312965305,1,left
8.787,0.26209389325751864,0.939769712528619,-0.02695961038030095,-0.3121153258381809,0.2631237000641036,-0.04505199953335317,-0.17275159019413525,0.3963574659548353,0.7429148546571553,1,left
8.788,0.2611947273010936,0.941178128910316,-0.027478811161889622,-0.3081878993166386,0.25861006627953864,-0.03514361016170438,-0.17316217137487286,0.3935824168252292,0.7418546376562027,1,left
8.791,0.26017415123474247,0.9426864418940859,-0.028007955764861692,-0.30424588051215057,0.2541020274430224,-0.025736384048747642,-0.17358102442780618,0.39097134375666753,0.7408506918585004,1,left
8.792,0.2590307087306384,0.9442969525896737,-0.028546222654564565,-0.30030355328944597,0.24960551107133772,-0.016834831269247653,-0.17401035161937134,0.3885266736053315,0.7399068169270623,1,left
8.796,0.2577630181607881,0.9460119225448187,-0.029092799310016317,-0.29637569967186966,0.24512695462960918,-0.008442957028221997,-0.1744523658418429,0.3862506800760583,0.7390269985166059,1,left
8.797,0.25636977732017663,0.9478335688786528,-0.029646882034994725,-0.2924775983635436,0.24067331635631953,-0.0005642774890775475,-0.17490928963330216,0.3841454865366202,0.7382154059116193,1,left
8.798,0.2548497684565088,0.949764059225015,-0.030207675634671506,-0.2886250220748156,0.23625208615762266,0.0067981636224136366,-0.17538335422495321,0.38221306857016246,0.7374763894066122,1,left
8.802,0.2532018635890384,0.9518055064889656,-0.03077439296401037,-0.28483423371574745,0.23187129647025065,0.013641777766625292,-0.17587679861706174,0.38045525625926785,0.736814477426036,1,left
8.802999999999999,0.2514250300971589,0.9539599634200281,-0.03134625435504895,-0.28112198163648144,0.22753953286060757,0.0199644139742675,-0.17639186868483395,0.37887373619560244,0.7362343733815487,1,left
8.807,0.24951833655562988,0.9562294170050325,-0.03192248693149219,-0.2775054941567928,0.22326594405452724,0.0257643412348228,-0.17693081631560215,0.3774700532095971,0.735740952264513,1,left
8.808,0.24748095878580323,0.9586157826822518,-0.03250232382320477,-0.27400247356397867,0.21906025116549868,0.031040231169448963,-0.17749589857873938,0.376245611815117,0.7353392569718336,1,left
8.812000000000001,0.24531218608400995,0.9611208983775528,-0.03308500329764881,-0.27063108964445753,0.21493275602108364,0.035791141110734385,-0.1780893769297878,0.37520167736458054,0.7350344943634826,1,left
8.812000000000001,0.24301142758315245,0.9637465183628726,-0.03366976782608861,-0.2674099727513959,0.21089434856062822,0.04001649762333581,-0.17871351645035366,0.3743393769104973,0.7348320310503,1,left
8.816,0.2405782187030809,0.9664943069376719,-0.034255863100486936,-0.26435820639833707,0.20695651329220843,0.04371608048065274,-0.17937058512539733,0.373659699769911,0.7347373889109327,1,left
8.817,0.23801222764860105,0.9693658319353582,-0.034842537017555214,-0.2614953193691881,0.2031313347969769,0.04689000711118518,-0.18006285315962808,0.3731634977887503,0.734756240337043,1,left
8.82,0.23531326191846874,0.9723625580596966,-0.035429038651596904,-0.25884127733535167,0.1994315022693334,0.049538717526712774,-0.18079259233480124,0.372851485303613,0.7348944032062207,1,left
8.821,0.23248127479345565,0.9754858400619246,-0.03601461724335302,-0.25641647397127915,0.19587031308163327,0.051662959742923335,-0.18156207540981073,0.37272423879903255,0.7351578355823363,1,left
8.826,0.2295163717769567,0.9787369157773235,-0.03659852123223546,-0.25424172156026237,0.19246167536247205,0.05326377570160959,-0.18237357556557,0.3727821962588031,0.7355526301434041,1,left
8.827,0.22641881696605307,0.9821168990482538,-0.0371799973532739,-0.2523382410828847,0.1892201095779468,0.05434248770204484,-0.18322936589678293,0.3730256562104677,0.7360850083373627,1,left
8.83,0.22318903933066683,0.9856267725676002,-0.03775828981069078,-0.2507276517812096,0.18616074910569344,0.0549006853476421,-0.1841317189528203,0.3734547764626057,0.7367613142665459,1,left
8.831,0.21982763887163814,0.9892673806822809,-0.03833263952926853,-0.24943196019250524,0.18329933979193913,0.05494021301249829,-0.18508290633003735,0.3740695725350859,0.7375880083019893,1,left
8.835,0.2163353926187623,0.9930394222010324,-0.03890228347444099,-0.24847354864708412,0.18065223848229062,0.05446315783092577,-0.18608519831799625,0.3748699157829852,0.7385716604291156,1,left
8.835,0.21271326042347963,0.9969434432529505,-0.03946645402631772,-0.24787516322567738,0.17823641051750308,0.0534718382115787,-0.18714086360219062,0.3758555312154063,0.7397189433267557,1,left
8.84,0.20896239050150686,1.0009798302415471,-0.040024378394688025,-0.24765990117267012,0.17606942618604554,0.05196879287629232,-0.18825216902600933,0.3770259950109596,0.7410366251818958,1,left
8.841000000000001,0.20508412468726286,1.0051488029322198,-0.04057527806979872,-0.24785119776249384,0.17416945612589405,0.04995677042226962,-0.1894213794148238,0.3783807317322074,0.7425315622429887,1,left
8.846,0.20108000337208612,1.0094504077002873,-0.041118368313002474,-0.24847281261750667,0.17255526566865106,0.047438719404773066,-0.1906507574652362,0.37991901124190186,0.7442106911151412,1,left
8.846,0.19695177011032733,1.0138845109557817,-0.041652857698326363,-0.24954881547679286,0.17124620811980487,0.044417778936009636,-0.19194256370268623,0.3816399453243781,0.7460810208009769,1,left
8.85,0.19270137588961697,1.0184507927532167,-0.0421779477177183,-0.2511035714164831,0.17026221696971114,0.04089726979443521,-0.19329905651077983,0.38354248401599156,0.7481496244914848,1,left
8.851,0.1883309830707176,1.0231487405903317,-0.042692832458819295,-0.2531617255234327,0.16962379703070146,0.036880686037251566,-0.19472249223587687,0.3856254116490174,0.7504236311116909,1,left
8.855,0.18384296900558736,1.0279776433985224,-0.043196698357850186,-0.2557481870254013,0.1693520144966011,0.032371687107424774,-0.19621512536591743,0.38788734261875174,0.7529102166240023,1,left
8.856,0.1792399293398931,1.03293658572813,-0.04368872402577993,-0.2588881128822539,0.16946848592187316,0.027374090425118996,-0.19777920875897614,0.3903267169080679,0.755616595079937,1,left
8.857000000000001,0.1745246810014548,1.038024442132614,-0.04416808014469236,-0.26260689084414895,0.1699953661186014,0.021891864452014985,-0.19941699385460507,0.3929417954473839,0.7585500093886796,1,left
8.861,0.1697002648728298,1.0432398717553963,-0.04463392943147014,-0.2669301219841983,0.17095533497057622,0.015929122215568366,-0.20113073077754762,0.3957306554125022,0.7617177217588089,1,left
8.862,0.16476994814549806,1.0485813131217525,-0.04508542666663453,-0.2718836027146735,0.1723715831648672,0.009490115278859467,-0.20292266826728905,0.3986911855393025,0.7651270037828807,1,left
8.865,0.15973722635242438,1.054046979137154,-0.04552171878874668,-0.27749330627605934,0.17426779683321542,0.0025792281466954186,-0.20479505340973983,0.40182108149158463,0.7687851261580642,1,left
8.866,0.1546058250732833,1.0596348522942147,-0.0459419450588266,-0.2837853635828024,0.17666814105068163,-0.004799026870750861,-0.20675013117124436,0.40511784129486794,0.7726993480494074,1,left
8.866,0.14937970130346032,1.0653426800928958,-0.046345237301920104,-0.29078604311847445,0.1795972420572397,-0.012640014259240733,-0.20879014374006782,0.4085787608446465,0.776876906105541,1,left
8.869,0.14406304447584045,1.0711679706819779,-0.046730720233389825,-0.2985217294677671,0.1830801680232417,-0.0209389792585362,-0.2109173296807447,0.4122009294980863,0.7813250031373445,1,left
8.869,0.1386602771235784,1.0771079887327522,-0.04709751187724013,-0.30701890018188155,0.1871424082272733,-0.029691051102406194,-0.21313392290691033,0.4159812257586291,0.7860507964708361,1,left
8.875,0.1331760551716242,1.0831597515581035,-0.047444724083328754,-0.31630410086885674,0.19180985059949612,-0.03889124552468277,-0.21544215147848067,0.41991631306344,0.7910613859863009,1,left
8.876,0.12761526784447885,1.089320025492594,-0.04777146314917147,-0.3264039185096763,0.19710875763130908,-0.04853446654879657,-0.21784423622929572,0.4240026356840955,0.7963638018564538,1,left
8.879,0.12198303717862378,1.0955853225521572,-0.04807683055052463,-0.3373449530246219,0.20306574066305336,-0.05861550758592328,-0.22034238923159963,0.42823641475136676,0.801964991997225,1,left
8.879,0.11628471713103014,1.1019518973938127,-0.048359923784398434,-0.34915378711660416,0.2097077325632269,-0.06912905186815972,-0.2229388121039927,0.43261364441539363,0.8078718092455803,1,left
8.885,0.11052589227813084,1.108415744594207,-0.048619837329513235,-0.36185695442054305,0.2170619588144879,-0.08006967224442078,-0.2256356941697604,0.43713008815298005,0.8140909982796217,1,left
8.886000000000001,0.10471237609957676,1.1149725962612618,-0.04885566373114288,-0.3754809059902849,0.22515590702361726,-0.09143183036800588,-0.22843521047276172,0.4417812752341658,0.8206291822970746,1,left
8.889,0.09885020883767337,1.121617919988695,-0.049066494817229536,-0.3900519751570372,0.23401729487458062,-0.103209875306026,-0.2313395196583391,0.4465624973606399,0.8274928494691443,1,left
8.889,0.09294565491883017,1.1283469171606806,-0.049251423049782396,-0.40559634079587153,0.24367403654587483,-0.1153980416021086,-0.23435076172700292,0.4514688054889584,0.8346883391876233,1,left
8.895,0.08700519991929843,1.1351545216126997,-0.04940954301147283,-0.42213998903948785,0.2541542076154709,-0.12799044682500899,-0.23747105566893714,0.4564950068519215,0.8422218281240447,1,left
8.896,0.08103554705442506,1.1420353986531062,-0.04953995302425453,-0.43970867348115694,0.2654860084788697,-0.14098108863695047,-0.24070249698767412,0.4616356621918319,0.8500993161206124,1,left
8.898,0.0750436131693478,1.1489839444480534,-0.0496417568965432,-0.4583278739115506,0.27769772630807227,-0.15436384141669454,-0.2440471551215934,0.4668850832197188,0.8583266119335944,1,left
8.899,0.06903652421059374,1.155994285771761,-0.04971406579865853,-0.4780227536370416,0.2908176955816324,-0.16813245247350236,-0.24750707077221315,0.4722373303149546,0.8669093188508308,1,left
8.905,0.063021610162977,1.1630602801257417,-0.0497560002711876,-0.498818115429997,0.30487425721840516,-0.1822805378892931,-0.2510842531485618,0.47768621048001947,0.8758528202060016,1,left
8.905,0.05700639944414529,1.1701755162344316,-0.04976669237408793,-0.5207383561646087,0.31989571635013353,-0.1968015780274309,-0.25478067713724195,0.48322527556548195,0.8851622648132993,1,left
8.908,0.05099861275880415,1.1773333149300258,-0.04974528798358106,-0.5438074201948914,0.33591029877062495,-0.21168891274767987,-0.25859828040813104,0.48884782078055683,0.8948425523471744,1,left
8.908999999999999,0.0450061564238092,1.1845267304461318,-0.04969094924050141,-0.5680487515346404,0.3529461061019588,-0.22693573636795716,-0.2625389604659988,0.49454688350488024,0.9048983186928575,1,left
8.913,0.039037115182417675,1.1917485521475648,-0.04960285715067229,-0.5934852449023735,0.37103106972093897,-0.24253509241458474,-0.2666045716586647,0.5003152424173996,0.9153339212944122,1,left
8.914,0.03309974453225114,1.1989913067297273,-0.049480214336859764,-0.6201391956975755,0.39019290349185626,-0.25847986820379226,-0.27079692215266676,0.506145416958515,0.9261534245281368,1,left
8.918,0.027202462598213704,1.2062472609238828,-0.04932224794211975,-0.6480322489779353,0.41045905535456145,-0.27476278929825676,-0.2751177708877657,0.5120296671418302,0.9373605851302126,1,left
8.919,0.021353841586816864,1.213508424744886,-0.04912821268354266,-0.6771853475106983,0.4318566578198622,-0.29137641388347574,-0.27956882452196774,0.5179599937320648,0.948958837708586,1,left
8.924,0.015562598860276049,1.2207665553160165,-0.048897394052199596,-0.7076186789747442,0.4544124774273486,-0.3083131271097636,-0.28415173437911423,0.5239281388058632,0.9609512803701732,1,left
8.925,0.00983758766837911,1.2280131613009002,-0.048629111650045714,-0.7393516223935717,0.4781528632239257,-0.32556513544663224,-0.2888680934114529,0.5299255867123835,0.9733406604955911,1,left
8.925,0.004187787573735467,1.2352395079657335,-0.048322722648826866,-0.7724026938829773,0.50310369432458,-0.3431244610972651,-0.2937194331857677,0.5359435654498578,0.9861293606900409,1,left
8.93,-0.0013777054005711974,1.2424366228887,-0.04797762535149947,-0.8067894918008994,0.5292903266202339,-0.3609829365217227,-0.29870722088094614,0.5419730484702648,0.9993193849166009,1,left
8.93,-0.0068496888823961505,1.2495953023293205,-0.04759326283488299,-0.8425286413906271,0.5567375387009433,-0.37913219911842394,-0.3038328562473142,0.5480047569168713,1.0129123447770338,1,left
8.933,-0.012218864511333041,1.256706118266804,-0.04716912665092056,-0.8796357390123587,0.5854694770661706,-0.3975636861143274,-0.30909766845738124,0.5540291622953015,1.0269094458828572,1,left
8.934,-0.017475848542487505,1.2637594261110552,-0.0467047605598441,-0.9181252960614635,0.6155096006858946,-0.41626862970519113,-0.3145029127991044,0.5600364895829809,1.0413114742840797,1,left
8.934,-0.022611182688236277,1.2707453730854863,-0.04619976426524991,-0.958010682673347,0.6468806249223518,-0.4352380524385927,-0.320049767201111,0.5660167207892779,1.0561187829664542,1,left
8.939,-0.027615345197234673,1.2776539072809616,-0.04565379712373677,-0.999304071314549,0.6796044647222305,-0.4544627627440424,-0.32573932860079047,0.5719595989827989,1.0713312784527633,1,left
8.94,-0.03247876217544352,1.284474787382327,-0.04506658180687709,-1.042016380361337,0.7137021769353058,-0.47393335046577456,-0.3315726091707871,0.577854632803073,1.0869484075495064,1,left
8.943999999999999,-0.03719181915769074,1.2911975930683255,-0.04443790789428821,-1.0861572177733962,0.749193901676917,-0.49364018230409645,-0.33755053241983013,0.5836911014737828,1.1029691442815313,1,left
8.945,-0.0417448729410299,1.2978117360836499,-0.043767635374056424,-1.1317348249784691,0.7860988027592315,-0.5135733971610618,-0.34367392918424733,0.5894580603345916,1.119391977058307,1,left
8.948,-0.04612826369437148,1.3043064719821265,-0.04305569802540007,-1.1787560210901937,0.8244350072777727,-0.5337229014364762,-0.34994353352692326,0.595144346908479,1.1362148961166987,1,left
8.95,-0.05033232736168935,1.3106709125417353,-0.042302106659304346,-1.2272261475859672,0.8642195444552148,-0.554078364330826,-0.35635997856087537,0.6007385875213279,1.153435381286268,1,left
8.952,-0.05434740837715805,1.316894038852594,-0.04150695219318069,-1.2771490135757786,0.9054682838484975,-0.5746292132123713,-0.362923792215041,0.6062292044903055,1.1710503901242695,1,left
8.953,-0.058163872709810646,1.3229647150783093,-0.04067040853340163,-1.3285268417971052,0.9481958730294316,-0.5953646291062646,-0.3696353929602869,0.611604423897349,1.1890563464686676,1,left
8.957,-0.0617721212536516,1.3288717028908752,-0.03979273523621502,-1.3813602154751186,0.9924156748531153,-0.6162735423641489,-0.37649508551407707,0.6168522839638024,1.2074491294586394,1,left
8.958,-0.0651626035772654,1.3346036765799463,-0.03887427991576624,-1.4356480261916236,1.0381397044326923,-0.6373446285732479,-0.38350305654265315,0.6219606440419502,1.226224063073151,1,left
8.963,-0.06832583204458663,1.3401492388378327,-0.03791548036894194,-1.4913874229103246,1.0853785659432256,-0.658566304764494,-0.39065937038001114,0.6269171942388669,1.2453759062393348,1,left
8.964,-0.07125239631522383,1.3454969372207024,-0.03691686638940572,-1.5485737623101934,1.1341413893817418,-0.6799267259797326,-0.3979639647833793,0.6317094656876303,1.2648988435634894,1,left
8.968,-0.07393297822897549,1.3506352812837212,-0.03587906124587032,-1.6072005605828867,1.1844357674148258,-0.7014137822585114,-0.40541664674533007,0.6363248414805448,1.2847864767386241,1,left
8.969,-0.07635836707581732,1.3555527603838589,-0.03480278280257447,-1.6672594468543251,1.236267692449486,-0.7230150961053927,-0.41301708838308404,0.6407505682785912,1.305031816683562,1,left
8.974,-0.07851947524990882,1.3602378621401408,-0.03368884426324761,-1.728740118394706,1.289641494067392,-0.7447180204991258,-0.42076482292598927,0.6449737686108392,1.3256272764696642,1,left
8.975,-0.0804073542835844,1.3646790915383995,-0.032538154521771064,-1.7916302977853473,1.3445597769669788,-0.7665096375053784,-0.4286592408225856,0.6489814538770552,1.346564665092294,1,left
8.977,-0.08201321125378344,1.3688649906655017,-0.03135171810265651,-1.855915692214874,1.4010233595623254,-0.7883767575550553,-0.43669958598908654,0.6527605380661914,1.367835182145166,1,left
8.978,-0.08332842554783827,1.3727841590541812,-0.03013063467358686,-1.9215799550813415,1.4590312133921441,-0.8103059194505237,-0.4448849522215341,0.6562978522028605,1.3894294134567264,1,left
8.982999999999999,-0.08434456596884786,1.3764252746124348,-0.02887609811136957,-1.9886046500809262,1.5185804034966461,-0.8322833911623172,-0.45321427979430456,0.6595801595332811,1.4113373277486936,1,left
8.984,-0.08505340815538222,1.3797771151021063,-0.0275893951018359,-2.0569692179678274,1.5796660299244858,-0.854295171479109,-0.4616863522680596,0.6625941714615203,1.4335482743778412,1,left
8.987,-0.08544695228660931,1.3828285801218518,-0.026271903254295636,-2.126650946173975,1.6422811705364195,-0.8763269925739207,-0.47029979353065676,0.6653265642461693,1.4560509822230423,1,left
8.988,-0.08551744104081081,1.3855687135408654,-0.024925088714678547,-2.1976249414810396,1.7064168252767387,-0.8983643235496716,-0.4790530650949427,0.6677639964668495,1.4788335597804791,1,left
8.991,-0.08525737777266489,1.3879867263225953,-0.023550503269894312,-2.2698641059410996,1.7720618620879398,-0.9203923750272723,-0.48794446366718175,0.6698931272726468,1.5018834965102028,1,left
8.992,-0.08465954487516497,1.3900720196767684,-0.02214978094534775,-2.3433391162460766,1.8392029646484946,-0.9423961048395233,-0.49697211894735327,0.6717006354410848,1.525187665375044,1,left
8.993,-0.08371702229638132,1.391814208484231,-0.020724634103014655,-2.4180184067497765,1.907824582117938,-0.9643602248940927,-0.506133991527698,0.6731732393065885,1.54873232632825,1,left
8.997,-0.08242320618431338,1.3932031449416755,-0.01927684905081088,-2.493868156349995,1.9779088810778263,-0.9862692092688228,-0.5154278707033674,0.6742977176338322,1.5725031304039823,1,left
8.998,-0.08077182762983565,1.3942289423633174,-0.01780828118062723,-2.570852279441694,2.049435699861408,-1.0081073036025425,-0.524851372062341,0.6750609314931133,1.596485124168545,1,left
9.002,-0.0787569714717633,1.3948819990634171,-0.016320849662145084,-2.648932421087255,2.122382505440199,-1.0298585358298082,-0.5344019348174234,0.675449847162745,1.6206627544763335,1,left
9.003,-0.07637309512682205,1.3951530222427813,-0.014816531725964274,-2.728067956210886,2.196724352895308,-1.0515067282346244,-0.5440768188964274,0.6754515600651354,1.6450198735781592,1,left
9.004,-0.0736150474114017,1.3950330518135472,-0.013297356569753185,-2.8082159920114145,2.2724338472453365,-1.0730355106662177,-0.5538731018176125,0.6750533197387175,1.6695397446508071,1,left
9.007,-0.07047808732470014,1.3945134841033737,-0.011765398921956615,-2.889331372448552,2.3494811072622195,-1.0944283346864732,-0.5637876753778048,0.6742425558468204,1.6942050478172488,1,left
9.008,-0.06695790276049882,1.3935860953735137,-0.01022277230620275,-2.971366684003026,2.4278337310549087,-1.1156684884915578,-0.5738172421809906,0.6730069052234574,1.7189978867274442,1,left
9.011000000000001,-0.0630506291116452,1.3922430650754578,-0.008671622062955962,-3.054272262529994,2.507456763464891,-1.136739112581693,-0.5839583120355143,0.6713342399548619,1.7438997957701385,1,left
9.012,-0.05875286773215137,1.3904769987699446,-0.007114118196685782,-3.137996201370197,2.588312665465894,-1.1576232162258515,-0.5942071982483583,0.6692126964944132,1.768891747986465,1,left
9.017999999999999,-0.05406170422662012,1.3882809506389864,-0.005552448124462894,-3.2224843609544167,2.6703612857927905,-1.1783036947823602,-0.6045600138453082,0.666630705807378,1.7939541637565473,1,left
9.019,-0.048974726544316505,1.3856484455298494,-0.003988809404054534,-3.3076803801392827,2.7535598350283625,-1.198763347935903,-0.6150126677461284,0.663577024540637,1.8190669203305887,1,left
9.021,-0.04349004286505158,1.382573500476007,-0.002425402513872909,-3.393525689514844,2.837862862380113,-1.2189848989108802,-0.6255608609241831,0.6600407672112751,1.8442093622762032,1,left
9.022,-0.03760629927330343,1.3790506456407612,-0.0008644237421710665,-3.479959526926477,2.923222235382732,-1.2389510147204987,-0.6362000825802333,0.6560114394065966,1.8693603129139449,1,left
9.027000000000001,-0.03132269722022717,1.375074944621893,0.0006919417810629028,-3.5669189554557694,3.0095871227651356,-1.2586443275103285,-0.6469256063604285,0.6514789719867676,1.8944980868131305,1,left
9.027999999999999,-0.02463901076573085,1.3706420140407638,0.0022415269078908187,-3.654338884106835,3.096903980724146,-1.2780474570543818,-0.6577324866487856,0.6464337562799043,1.9196005034201395,1,left
9.031,-0.017555603573066157,1.365748042320184,0.003782189186226566,-3.742152091446248,3.1851165428499226,-1.297143034461034,-0.6686155549647094,0.6408666802580099,1.9446449018913947,1,left
9.032,-0.010073445598068009,1.360389807536242,0.005311817528687109,-3.8302892524462595,3.2741658139511305,-1.315913727145321,-0.6795694164963544,0.6347691656807216,1.969608157203194,1,left
9.035,-0.0021941293785687015,1.3545646942139917,0.006828338915679746,-3.9186789687822823,3.36399006803056,-1.3343422651233177,-0.6905884468008626,0.6281332061923515,1.9944666976104501,1,left
9.036,0.006080114208454878,1.3482707089284747,0.00832972520513651,-4.0072478028367575,3.454524850664491,-1.3524114686834157,-0.7016667887027298,0.6209514063562108,2.019196523526242,1,left
9.04,0.014746400890768825,1.3415064945721344,0.0098140000996711,-4.095920315662457,3.545702986041473,-1.370104277488387,-0.7127983494217554,0.6132170216086852,2.0437732278938334,1,left
9.042,0.02380117884893685,1.3342713431564086,0.011279246298420649,-4.184619109158963,3.637454588918428,-1.387403781161135,-0.7239767979622184,0.6049239991139803,2.068172018122523,1,left
9.045,0.03324021570542188,1.3265652070270006,0.012723612846306284,-4.27326487271662,3.729707081754018,-1.4042932514060067,-0.7351955627950915,0.5960670194988918,2.0923677396583154,1,left
9.046,0.04305858692529999,1.318388708386594,0.014145322687028136,-4.361776434582499,3.822385217281046,-1.420756175716455,-0.7464478298652573,0.5866415394453693,2.116334901259956,1,left
9.052,0.05325066592961334,1.3097431470348184,0.01554268041737028,-4.450070818203039,3.915411106781326,-1.4367762927187118,-0.7577265409558253,0.5766438351170372,2.1400477020503796,1,left
9.052999999999999,0.06381011624236142,1.3006305062547177,0.01691408022229602,-4.538063303797824,4.008704254327861,-1.4523376291999557,-0.7690243924417638,0.5660710463942209,2.1634800604130104,1,left
9.055,0.07472988599318235,1.2910534567993945,0.018258013944493046,-4.625667495418599,4.102181597260413,-1.4674245388682325,-0.7803338344651564,0.5549212218903923,2.186605644801722,1,left
9.055,0.08600220507423643,1.2810153589618933,0.01957307921197416,-4.712795393746979,4.195757553161532,-1.4820217428901168,-0.7916470705644665,0.5431933647213077,2.2093979065325113,1,left
9.061,0.09761858520150583,1.270520262741888,0.02085798751719093,-4.799357474883463,4.289344073600857,-1.4961143722507835,-0.8029560577864819,0.5308874789215823,2.2318301145681883,1,left
9.062999999999999,0.10956982306433788,1.2595729061444403,0.02211157212265346,-4.8852627753792,4.382850704916052,-1.5096880119797964,-0.8142525072907859,0.5180046160273893,2.2538753920266688,1,left
9.062999999999999,0.12184600667498686,1.2481787116540877,0.02333279566776032,-4.97041898376063,4.476184656299005,-1.5227287472845188,-0.8255278854226814,0.5045469206684022,2.275506753638818,1,left
9.064,0.13443652496303635,1.2363437809347737,0.02452075735081895,-5.0547325387954665,4.569250875455943,-1.535223211631594,-0.83677341521163,0.4905176736360344,2.2966971431009475,1,left
9.065,0.14733008059938274,1.2240748878246384,0.025674699542556065,-5.13810873474661,4.661952132109873,-1.5471586368154644,-0.8479800782710804,0.4759213312677821,2.317419469545764,1,left
9.07,0.1605147059778076,1.2113794697132785,0.02679401367064963,-5.22045183385841,4.754189109613291,-1.5585229050513605,-0.8591386171094371,0.46076356065973717,2.337646642858072,1,left
9.072000000000001,0.17397778223263752,1.1982656173924782,0.02787824522080091,-5.30166518631729,4.845860504938282,-1.569304603128627,-0.8702395378806838,0.4450512705920983,2.3573516078400734,1,left
9.072000000000001,0.18770606114052046,1.184742063460091,0.028927097724315967,-5.3816513577885035,4.936863137181171,-1.5794930785455672,-0.8812731136068368,0.42879263812576157,2.3765073772857517,1,left
9.076,0.20168568975563045,1.1708181693364572,0.029940435634685958,-5.460312263940007,5.027092064072872,-1.5890784969799603,-0.8922293879042629,0.4119971308264607,2.395087064022368,1,left
9.077,0.2159022376547868,1.156503910930192,0.030918286033699584,-5.537549310123256,5.116440704824005,-1.5980518994300346,-0.9030981792457279,0.39467552457133764,2.4130639119756347,1,left
9.08,0.23034072668666525,1.1418098629792703,0.03186083914802528,-5.613263533689383,5.204800966987257,-1.6064052567935803,-0.9138690857898563,0.37683991689125657,2.430411326313532,1,left
9.08,0.24498566310027656,1.1267471821007489,0.03276844769795478,-5.687355747103194,5.292063375661913,-1.6141315202165538,-0.9245314908094509,0.3585037358006365,2.4471029027220847,1,left
9.084,0.2598210718885066,1.111327588595553,0.03364162514321798,-5.759726681251344,5.378117204523384,-1.621224666558464,-0.9350745687498723,0.339681744065068,2.463112455864682,1,left
9.085,0.27483053315036704,1.0955633470589452,0.03448104293311367,-5.83027712902442,5.462850608802391,-1.6276797388854451,-0.9454872919484013,0.3203900388555052,2.4784140470747276,1,left
9.09,0.28999722025424873,1.0794672458420653,0.03528752689865933,-5.898908089385551,5.546150760464256,-1.6334928820131975,-0.9557584380451876,0.3006460467363906,2.4929820113294987,1,left
9.091000000000001,0.30530393956747043,1.0630525754023048,0.03606205293431136,-5.965520912133257,5.627903985835264,-1.6386613731201642,-0.9658765981160495,0.28046851393367667,2.506790983551164,1,left
9.095,0.32073317150620295,1.0463331055758538,0.036805742105583475,-6.030017443560984,5.707995905919268,-1.6431836474494774,-0.9758301855570146,0.25987749182736203,2.519815924278853,1,left
9.096,0.3362671126614493,1.0293230618067148,0.03751985529325126,-6.092300173210275,5.78631157964359,-1.6470593191163676,-0.9856074457500803,0.23889431761186317,2.5320321447535767,1,left
9.1,0.35188771877565156,1.0120371003709083,0.03820578745297376,-6.152272381908716,5.862735650268839,-1.6502891970358844,-0.9951964665392401,0.21754159006629983,2.5434153314556163,1,left
9.1,0.367576748376213,0.9944902826390116,0.038865061536199515,-6.209838291277755,5.9371524951924535,-1.6528752959839144,-1.0045851895453413,0.19584314037558825,2.5539415701317374,1,left
9.104,0.38331580690520684,0.9766980484244038,0.03949932208649955,-6.264903214889069,6.009446379370752,-1.6548208428026323,-1.0137614223478362,0.17382399794211142,2.5635873693472795,1,left
9.105,0.39908639120903805,0.9586761884721917,0.04011032849502764,-6.317373711241589,6.079501612578712,-1.656130277759673,-1.0227128515609478,0.151510351126677,2.572329683595761,1,left
9.107999999999999,0.4148699342648595,0.9404408161568194,0.040699947870785826,-6.367157738724334,6.147202710721083,-1.6568092510684536,-1.0314270568311967,0.12892950285648302,2.5801459359962,1,left
9.109,0.43064785002352796,0.9220083384723505,0.04127014746353541,-6.414164812723047,6.21243456140223,-1.6568646145752504,-1.0398915257826207,0.10610982103689288,2.587014040605797,1,left
9.113999999999999,0.44640157824348614,0.903395426415178,0.04182298657852744,-6.458306165021164,6.275082593955697,-1.6563044086167984,-1.048093669935378,0.08308068370297654,2.592912424373058,1,left
9.113999999999999,0.4621126291767441,0.8846189848747404,0.04236060794252605,-6.499494905637945,6.335032954127758,-1.655137844050385,-1.0560208416227388,0.05987241884601116,2.597820048753759,1,left
9.118,0.4777626279486771,0.865696122165756,0.04288522851109221,-6.537646187238601,6.392172683602082,-1.6533752794566097,-1.0636603519307548,0.03651623884944898,2.601716431009429,1,left
9.119,0.4933333584516603,0.8466441193550887,0.04339912973759983,-6.5726773722430485,6.44638990454525,-1.6510281935132214,-1.0709994896841424,0.013044169468261268,2.6045816652052665,1,left
9.124,0.5088068065528287,0.8274803995540131,0.043904647347789615,-6.604508202751429,6.4975740093451035,-1.6481091525367073,-1.0780255415011255,-0.010511026714945453,2.606396442921528,1,left
9.124,0.5241652024011718,0.808222497358238,0.04440416067833799,-6.633060973395814,6.545615855705812,-1.6446317731865903,-1.0847258129391544,-0.03411593242406814,2.6071420736895496,1,left
9.128,0.5393910616146116,0.7888880286181138,0.044900081646883194,-6.658260707218555,6.590407967255188,-1.6406106803257219,-1.0910876507233478,-0.05773656334278914,2.606800505154312,1,left
9.129,0.554467225145655,0.7694946607000811,0.04539484342539721,-6.680035334668557,6.631844739811064,-1.6360614600282122,-1.0970984659025398,-0.08133846052377557,2.605354342931106,1,left
9.13,0.569376897660668,0.750060083359716,0.04589088889127957,-6.698315875797336,6.669822653444483,-1.6310006077250427,-1.1027457575139714,-0.10488678554447993,2.602786870064338,1,left
9.133,0.5841036842857148,0.7306019803161119,0.04639065894274373,-6.713036625727102,6.70424049046817,-1.6254454714758413,-1.108017136190634,-0.12834641570791866,2.5990820659620417,1,left
9.134,0.5986316255481421,0.7111380016172721,0.046896580792327176,-6.7241353434532645,6.734999559469095,-1.619414190353785,-1.112900347290322,-0.15168203727910173,2.594224624707853,1,left
9.138,0.6129452303090743,0.6916857368942106,0.04741105637813404,-6.731553444033738,6.76200392549402,-1.6129256279291324,-1.1173832933873216,-0.17485823599386421,2.5881999727054077,1,left
9.139,0.6270295064759769,0.6722626895901148,0.04793645103880351,-6.735236194207202,6.7851606464866565,-1.6059993008354645,-1.1214540561126345,-0.19783958476894703,2.580994285638218,1,left
9.14,0.6408699893081755,0.6528862522231527,0.04847508258523377,-6.735132911186595,6.804380015757714,-1.5986553025158865,-1.1251009173567477,-0.22059072868028748,2.572594504731042,1,left
9.147,0.654452767170284,0.6335736827100774,0.04902921087670102,-6.731197162936172,6.819575808723663,-1.5909142228178117,-1.128312379847793,-0.2430764672760223,2.562988352295408,1,left
9.148,0.6677645046380793,0.6143420817489297,0.049601027977659716,-6.723386965660413,6.830665529376749,-1.5827970651345253,-1.1310771871167706,-0.2652618342901463,2.552164346538569,1,left
9.148,0.6807924628981783,0.5952083712392042,0.05019264894443221,-6.711664972794852,6.8375706504029035,-1.5743251633632116,-1.133384342860286,-0.28711217482210943,2.540111815611727,1,left
9.151,0.6935245173961807,0.5761892737097407,0.05080610327372319,-6.695998651205235,6.840216842387168,-1.5655201003753028,-1.135223129710004,-0.30859322004687134,2.5268209108699073,1,left
9.152000000000001,0.7059491726946223,0.5573012927219114,0.051443327031689814,-6.676360442859644,6.8385341902968655,-1.5564036286630982,-1.1365831274167355,-0.32967115951907255,2.5122826193123657,1,left
9.152999999999999,0.7180555745206986,0.5385606942117366,0.05210615566813091,-6.652727911654349,6.832457396955232,-1.5469975932529005,-1.1374542304557655,-0.35031271113401796,2.496488775168885,1,left
9.157,0.72983351901264,0.5199834887299666,0.052796317506308456,-6.625083875348335,6.821925973512976,-1.537323856859419,-1.1378266650586797,-0.3704851888071098,2.479432070593759,1,left
9.158,0.7412734592032694,0.5015854145368235,0.053515427886185886,-6.5934165225500365,6.806884416912787,-1.527404227255298,-1.1376910056755747,-0.3901565679322088,2.46110606542568,1,left
9.163,0.7523665088045455,0.48338192150856857,0.05426498393043932,-6.557719514688339,6.787282374329208,-1.5172603868287988,-1.1370381908701348,-0.40929554867815193,2.4415051959681433,1,left
9.164,0.7631044433765166,0.4653881558163568,0.055046359903080155,-6.517992072888436,6.763074794553495,-1.5069138243018905,-1.1358595386486239,-0.4278716171813067,2.4206247827413603,1,left
9.168,0.7734796989795902,0.4476189453439229,0.055860803138097506,-6.474239049661541,6.734222066280155,-1.4963857685802988,-1.1341467612223834,-0.4458551046906065,2.398461037153015,1,left
9.168,0.783485368424252,0.430088785818042,0.05670943052282926,-6.426470985305893,6.700690143238735,-1.4856971247064221,-1.1318919792019428,-0.4632172447199819,2.375011067031551,1,left
9.172,0.7931151952498465,0.41281182763290447,0.05759322552424173,-6.374704148904957,6.6624506561012575,-1.4748684118854307,-1.1290877352193376,-0.47993022826148696,2.350272880961996,1,left
9.172,0.8023635655816204,0.39580186335680906,0.05851303574831834,-6.318960563797155,6.619481011082322,-1.463919703554358,-1.125727006973699,-0.4959672571107233,2.3242453913606425,1,left
9.177,0.8112254980292244,0.3790723159171635,0.0594695710258357,-6.259268017379917,6.571764475135496,-1.4528705694635182,-1.1218032196936214,-0.5113025953543753,2.2969284162212236,1,left
9.177,0.8196966317997813,0.36263622746633933,0.060463402020986066,-6.195660055099396,6.519290247636092,-1.4417400197391848,-1.1173102580082341,-0.5259116190678137,2.2683226794615075,1,left
9.182,0.8277732132062441,0.3465062489357479,0.06149495936011239,-6.12817595846579,6.462053518426859,-1.4305464508961208,-1.1122424772173158,-0.5397708642687804,2.238429809795543,1,left
9.182,0.8354520807585761,0.33069463028946755,0.06256453327565205,-6.056860706922828,6.400055512089474,-1.419307593768261,-1.106594713949156,-0.552858073171156,2.207252338053087,1,left
9.187000000000001,0.8427306490311992,0.3152132114914626,0.06367227375696398,-5.981764923388802,6.333303518291095,-1.4080404633256098,-1.1003622961932544,-0.5651522387807284,2.1747936928640295,1,left
9.187999999999999,0.8496068915038869,0.3000734142004199,0.06481819119614578,-5.902944803275366,6.261810908041544,-1.3967613103452368,-1.093541052693282,-0.576633647872728,2.1410581946219653,1,left
9.191,0.8560793225742134,0.28528623420408067,0.06600215751260351,-5.820462026779349,6.1855971356830315,-1.385485574904119,-1.0861273216840728,-0.5872839223886788,2.106051047637339,1,left
9.192,0.8621469789385682,0.27086223460187187,0.06722390773513834,-5.7343836542319755,6.104687726420694,-1.3742278416615015,-1.0781179589547312,-0.5970860592878431,2.0697783303869297,1,left
9.196,0.8678094005357957,0.25681153974017684,0.06848304201590776,-5.6447820042791665,6.019114249188603,-1.3630017968984005,-1.0695103452182515,-0.6060244688862031,2.032246983762786,1,left
9.198,0.8730666112396396,0.24314382989836994,0.06977902804805745,-5.551734514656164,5.9289142746323655,-1.3518201872818982,-1.060302392774234,-0.614085011672846,1.9934647972812687,1,left
9.198,0.8779190994668566,0.22986833671612386,0.07111120386002354,-5.455323585309311,5.834131317975941,-1.3406947803219085,-1.0504925514890004,-0.6212550333877439,1.9534403935153724,1,left
9.201,0.8823677988383848,0.2169938393440183,0.072478780964603,-5.35563640360778,5.734814766526944,-1.3296363264881974,-1.040079814186675,-0.6275233977762288,1.9121832115609019,1,left
9.202,0.8864140690099009,0.20452866129184705,0.0738808478449372,-5.252764751378109,5.63101979156139,-1.3186545229555597,-1.0290637215825085,-0.6328805162295026,1.8697034906496124,1,left
9.208,0.8900596767885635,0.19248066794350288,0.07531637375800947,-5.146804793484786,5.522807244315702,-1.3077579789452165,-1.0174443668485587,-0.6373183737214104,1.8260122547127304,1,left
9.209,0.8933067776590533,0.18085726470294178,0.07678421283191084,-5.037856848078514,5.410243536101014,-1.296954182684606,-1.0052223998291323,-0.6408305508153268,1.7811212981437088,1,left
9.21,0.8961578978322265,0.16966539573185616,0.07828310843223067,-4.926025140663803,5.293400504042928,-1.286249470277572,-0.9923990308822319,-0.6434122417158369,1.7350431726994335,1,left
9.211,0.8986159169055384,0.15891154323691273,0.07981169777656605,-4.811417547799076,5.172355266639113,-1.2756489972624947,-0.9789760343136261,-0.6450602683779495,1.6877911754143922,1,left
9.212,0.9006840512048406,0.14860172726189436,0.08136851677890727,-4.69414533827303,5.047190074815602,-1.2651567139057844,-0.964955751368436,-0.6457730906839184,1.6393793373988708,1,left
