time,gFx,gFy,gFz,ax,ay,az,wx,wy,wz,subject_number,foot
6.645,0.814498257331279,0.027250808823432608,0.13225569499213174,-2.1173447084218746,0.8543055296657653,0.49676442105759183,0.19219264645631395,-0.1995469615800372,-0.23540477709375324,1,left
6.645,0.8102065640075294,0.028921057449390004,0.1308017669445934,-1.9862110349352367,0.6585481535993724,0.5146023211578304,0.22301532882173178,-0.18595896824641114,-0.3176214419248478,1,left
6.65,0.8056537858308983,0.031049042860556684,0.12941192607560295,-1.8547075338865173,0.4621527249054866,0.5316362873921712,0.2539838214457159,-0.1717750564808255,-0.40041812719590153,1,left
6.651,0.8008438054359855,0.033630817322365274,0.12808769205036588,-1.7229200948931929,0.2652773731077052,0.547875126765338,0.28508022220736395,-0.15701363030410134,-0.4837548744570482,1,left
6.655,0.7957806513933567,0.036662166764164866,0.12683042453013813,-1.59093307984828,0.06808017688241454,0.5633291697824907,0.31628644473506223,-0.14169393015983645,-0.5675910258228766,1,left
6.655,0.7904684961112396,0.04013861921591436,0.12564132145332305,-1.458829253404434,-0.12928098757936526,0.5780102439204323,0.34758423693297746,-0.12583600983681067,-0.6518852568552517,1,left
6.6610000000000005,0.7849116533564839,0.04405545316594064,0.12452141777221182,-1.3266897229770527,-0.3266485955602221,0.5919316444300098,0.3789552006944544,-0.10946071221240747,-0.7365956128667833,1,left
6.662000000000001,0.7791145753914047,0.04840770581174312,0.12347158467849786,-1.1945938878873978,-0.5238656207208363,0.6051081025141276,0.41038081289192696,-0.09258964377308494,-0.8216795488856927,1,left
6.665,0.7730818497250663,0.0531901811735089,0.12249252934728219,-1.0626193972664137,-0.7207756804873341,0.6175557509235793,0.441842447681281,-0.075245147886078,-0.9070939733902821,1,left
6.665,0.7668181954763935,0.058397458040957514,0.12158479522249611,-0.9308421163398073,-0.9172231804881559,0.6292920870107183,0.47332139989914557,-0.05745027689348581,-0.9927952952531015,1,left
6.666,0.7603284593446216,0.06402389772971641,0.12074876285776606,-0.7993361007150839,-1.1130534586066556,0.6403359332788584,0.5047989088643468,-0.03922876327570231,-1.0787394721312387,1,left
6.672000000000001,0.7536176111832749,0.07006365162724436,0.11998465131917348,-0.6681735782915745,-1.3081129292147646,0.6507073954631996,0.5362561816351915,-0.020604990228247213,-1.1648820578708026,1,left
6.672999999999999,0.746690739178698,0.07651066850487197,0.11929252015150446,-0.5374249384150529,-1.5022492281517292,0.6604278181770321,0.567674415033967,-0.0016039618963037832,-1.2511782471637978,1,left
6.6739999999999995,0.7395530446418391,0.08335870156644686,0.1186722719044613,-0.4071587278993146,-1.6953113590101598,0.6695197381549928,0.5990348162174406,0.01774872666717933,-1.3375829169010236,1,left
6.675,0.7322098364302362,0.09060131520190061,0.1181236552064918,-0.2774416535380769,-1.8871498412894152,0.6780068351232096,0.6303186218317535,0.03742691985357779,-1.4240506643345072,1,left
6.678999999999999,0.724666525023989,0.0982318914161219,0.11764626836283297,-0.1483385907317405,-2.077616860973701,0.6859138803243113,0.6615071158419245,0.05740393221540263,-1.510535842297281,1,left
6.68,0.7169286162841313,0.10624363590846009,0.11723956344664412,-0.019912597854936098,-2.2665664240891785,0.6932666827234687,0.692581646126013,0.07765257960337146,-1.5969925917286196,1,left
6.68,0.7090017049246146,0.11462958378591043,0.11690285085141726,0.10777506403086572,-2.4538545135213568,0.7000920329439128,0.7235236399237721,0.09814521078021243,-1.6833748717530446,1,left
6.684,0.7008914677285512,0.12338260490276491,0.11663530427772906,0.23466490662974385,-2.6393392480226416,0.7064176450987595,0.7543146182293461,0.11885373956853122,-1.7696364875614385,1,left
6.685,0.692603656534808,0.13249540882913508,0.11643596613332945,0.3606991857458128,-2.8228810399100457,0.7122720969004668,0.784936209217242,0.1397496775908503,-1.8557311163425414,1,left
6.689,0.6841440910196226,0.14196054945774886,0.11630375332744561,0.4858218693308851,-3.00434274660082,0.7176847685477873,0.8153701607904251,0.16080416766062988,-1.9416123315128813,1,left
6.69,0.6755186513056399,0.15177042926299203,0.11623746343519407,0.6099786029580038,-3.1835898124760793,0.722685780768596,0.8455983523389503,0.1819880178836994,-2.027233625492849,1,left
6.694,0.6667332704412104,0.16191730323172696,0.11623578119880411,0.7331166732221045,-3.360490399982403,0.7273059321795334,0.87560280579706,0.2032717365300655,-2.1125484312761387,1,left
6.695,0.65779392679744,0.1723932824933371,0.11629728532463389,0.8551849694503549,-3.534915510222918,0.7315766360020888,0.9053656960861355,0.22462556773651823,-2.1975101430391724,1,left
6.7,0.6487066364302648,0.1831903376847073,0.11642045553194591,0.9761339440787268,-3.7067390935525006,0.7355298561495538,0.9348693610303043,0.2460195281008269,-2.282072136036374,1,left
6.7,0.6394774454539214,0.19430030209293092,0.11660367981040072,1.0959155720484333,-3.875838150685015,0.7391980426981891,0.9640963108308561,0.26742344422860365,-2.366187786026278,1,left
6.704,0.6301124224706588,0.2057148746235063,0.11684526184507094,1.214483309572794,-4.042092824813391,0.7426140667549418,0.9930292371849336,0.2888069912941154,-2.449810488472444,1,left
6.705,0.6206176510971103,0.217425622642914,0.11714342856706511,1.3317920526218807,-4.205386485235882,0.7458111547331361,1.021651022133213,0.31013973267643696,-2.532893677762006,1,left
6.709,0.6109992226209762,0.22942398474078654,0.11749633778300068,1.4477980954689398,-4.365605802974018,0.7488228220467505,1.0499447467205016,0.3313911607323679,-2.615390846683392,1,left
6.709,0.6012632288178653,0.24170127344955056,0.11790208582917847,1.5624590896391117,-4.522640818859604,0.7516828062331642,1.0778936995523307,0.35253073876747787,-2.6972555664033413,1,left
6.7139999999999995,0.5914157549628934,0.25424867795154815,0.11835871519155856,1.6757340035973514,-4.6763850045596325,0.7544249995136294,1.1054813853297292,0.3735279442664969,-2.778441507181798,1,left
6.7139999999999995,0.581462873084023,0.2670572667990819,0.11886422203547405,1.7875830835087034,-4.826735316999123,0.7570833808001939,1.1326915334434235,0.39435231344403476,-2.8589024600615653,1,left
6.718999999999999,0.5714106355145705,0.28011799067349075,0.11941656359865518,1.8979678154002477,-4.973592246632796,0.7596919471573625,1.1595081067077189,0.41497348717629284,-2.9385923597678083,1,left
6.72,0.561265068800822,0.29342168521377504,0.12001366541228049,2.0068508890500287,-5.116859860007012,0.7622846447264496,1.1859153103132758,0.43536125837402107,-3.017465309050519,1,left
6.724,0.5510321680079967,0.30695907395072564,0.12065342832283772,2.1141961639241997,-5.256445837043687,0.7648952991203309,1.2118976010769187,0.4554856208564782,-3.0954756047009946,1,left
6.725,0.5407178914527562,0.3207207713870471,0.12133373529005546,2.2199686374794094,-5.392261503467849,0.7675575452961619,1.2374396970654775,0.47531681978556933,-3.1725777654711558,1,left
6.729,0.5303281558784959,0.3346972862657032,0.12205245793222391,2.324134416143146,-5.524221858790215,0.770304756913585,1.2625265876694896,0.49482540371866485,-3.2487265621221892,1,left
6.73,0.5198688320808768,0.3488790250657495,0.12280746278151598,2.4266606892803337,-5.652245600245588,0.7731699751859964,1.2871435442013686,0.5139822783378483,-3.3238770498265153,1,left
6.733,0.5093457409850013,0.36325629575787133,0.1235966172037733,2.5275157064499694,-5.776255143077053,0.7761858372325932,1.3112761310658625,0.532758761830115,-3.3979846030538075,1,left
6.734,0.49876465017094956,0.3778193118449005,0.12441779493692774,2.626668758250965,-5.896176637544886,0.7793845039391619,1.3349102174217027,0.5511266414801939,-3.471004952615668,1,left
6.734,0.4881312708394064,0.39255819670925424,0.1252688812111045,2.7240901610516595,-6.011939983027778,0.7827975873359133,1.3580319890222927,0.5690582302951949,-3.542894223724622,1,left
6.739,0.4774512552057724,0.40746298828716165,0.12614777742351505,2.819751245892665,-6.1234788395724715,0.7864560775010933,1.380627959794285,0.5865264220672682,-3.613608973466729,1,left
6.74,0.4667301943125054,0.42252364408389137,0.12705240534632342,2.913624351847826,-6.230730637236152,0.7903902689996282,1.4026849828390726,0.6035047436912122,-3.6831062265373515,1,left
6.742999999999999,0.45597361625455085,0.43773004653501796,0.12798071084871704,3.0056828241230846,-6.333636583554028,0.794629686866677,1.4241902607704562,0.6199674042941768,-3.751343508902458,1,left
6.744,0.4451869848191057,0.4530720087090589,0.12893066711900955,3.0959010171680155,-6.432141669452355,0.799203012146663,1.4451313554278475,0.635889341145204,-3.818278879497839,1,left
6.747999999999999,0.43437569854781455,0.46853928033783687,0.12990027737688237,3.184254303069636,-6.526194673914917,0.8041380069991526,1.4654961970283447,0.6512462623933206,-3.8838709601657873,1,left
6.749,0.4235450902351891,0.48412155415485053,0.1308875770674616,3.270719085327915,-6.6157481676395244,0.8094614394615961,1.485273092819434,0.6660146866814259,-3.948078964025188,1,left
6.749,0.4127004268778441,0.4998084725237645,0.13189063552889949,3.3552728172821875,-6.7007585156139715,0.8151990083487756,1.504450735292444,0.680171979681658,-4.010862722467206,1,left
6.752999999999999,0.4018469100848206,0.5155896343489854,0.1329075571259042,3.4378940229674764,-6.7811858779978955,0.8213752694698183,1.5230182100152412,0.6936963875963065,-4.072182710964917,1,left
6.754,0.3909896769565839,0.5314546022679735,0.13393648184394832,3.5185623173493643,-6.85699420838952,0.8280135647336174,1.540965003140941,0.7065670676666489,-4.132000073881246,1,left
6.757000000000001,0.3801338014432549,0.5473929101222601,0.13497558534262943,3.597258423705498,-6.928151248837782,0.835135955325817,1.558281008647718,0.7187641157303325,-4.190276648455498,1,left
6.7589999999999995,0.36928429619569736,0.5633940706963921,0.1360230784733453,3.673964187401133,-6.99462852147736,0.8427631594418037,1.5749565353630222,0.7302685908661106,-4.246974988144538,1,left
6.7620000000000005,0.3584461149207461,0.5794475837098743,0.13707720627677172,3.7486625861254157,-7.056401316945393,0.8509144946725975,1.590982313823742,0.7410625371628623,-4.302058385490391,1,left
6.763,0.347624155244828,0.595542944048036,0.1381362464862231,3.821337736814444,-7.113448679784251,0.8596078250641461,1.6063495030220303,0.7511290026478957,-4.3554908946815845,1,left
6.768,0.3368232620802048,0.6116696502209775,0.13919850756968333,3.8919748994814283,-7.1657533910212665,0.8688595128719762,1.6210496970846857,0.7604520554075442,-4.4072373539710386,1,left
6.769,0.326048231475942,0.6278172130428825,0.14026232634590338,3.9605604781685018,-7.2133019481028535,0.8786843750346566,1.6350749319321034,0.7690167969310273,-4.457263408108669,1,left
6.772,0.3153038149224259,0.6439751645257258,0.14132606521029534,4.027082019228924,-7.256084542346842,0.8890956443910821,1.648417691960923,0.7768093727064609,-4.50553553094212,1,left
6.773,0.3045947240642373,0.6601330669824683,0.14238810900552665,4.0915282071425825,-7.294095034063267,0.9001049356681864,1.6610709167925872,0.7838169800957658,-4.552021048334202,1,left
6.777,0.2939256357625135,0.6762805223364607,0.14344686157112618,4.1538888580617686,-7.327330925480192,0.9117222162673382,1.6730280081280886,0.7900278735130518,-4.596688161540692,1,left
6.777,0.28330119743778476,0.6924071816348245,0.14450074200742788,4.214154911278333,-7.35579333159743,0.9239557818793552,1.6842828367472127,0.7954313669288318,-4.639505971187072,1,left
6.782,0.2727260326203564,0.708502754761646,0.14554818069159642,4.272318418797307,-7.379486949077383,0.9368122369597812,1.6948297496886198,0.800017833720176,-4.680444501977703,1,left
6.7829999999999995,0.26220474663676796,0.7245570203420932,0.14658761508581367,4.328372533196139,-7.398420023268461,0.9502964800978198,1.7046635776450971,0.803778703884622,-4.719474728265667,1,left
6.787000000000001,0.2517419323648988,0.7405598358229705,0.14761748537872718,4.382311493942634,-7.412604313442858,0.9644116943140822,1.713779642606302,0.8067064586333432,-4.756568600606234,1,left
6.787999999999999,0.2413421759947903,0.7565011477088367,0.1486362300014948,4.4341306123386985,-7.422055056316771,0.9791593423240933,1.7221737657792846,0.8087946223767352,-4.79169907341147,1,left
6.794,0.23101006273584723,0.7723710019246256,0.14964228106049973,4.483826255250879,-7.4267909279074695,0.9945391668062975,1.7298422758150314,0.8100377521132053,-4.824840133818084,1,left
6.795,0.2207501824131293,0.7881595542657798,0.15063405972988683,4.531395827782649,-7.426834003768012,1.01054919571512,1.736782017367203,0.8104314242295635,-4.85596683187498,1,left
6.797000000000001,0.21056713489570675,0.8038570808862493,0.15160997164837747,4.576837755037308,-7.42220971762679,1.0271857526814463,1.7429903600071799,0.809972218719001,-4.885055312151411,1,left
6.797000000000001,0.20046553529759487,0.8194539887648615,0.15256840236799624,4.6201514631142215,-7.4129468184455405,1.0444434725446985,1.7484652075174325,0.8086577008202183,-4.912082846860861,1,left
6.805,0.19045001888569185,0.8349408260832116,0.1535077129073075,4.661337359475093,-7.399077325896028,1.062315322062494,1.75320500758315,0.8064864000788257,-4.937027870590043,1,left
6.806,0.18052524562082428,0.8503082924462965,0.15442623546481146,4.700396812810771,-7.380636484242155,1.0807926258456662,1.7572087618748145,0.8034577868920456,-4.959870016659368,1,left
6.807,0.17069590425275658,0.8655472488858139,0.1553222693455177,4.737332132533043,-7.357662714600979,1.09986509756821,1.7604760363866037,0.7995722469070453,-4.980590154849617,1,left
6.807,0.16096671589111353,0.8806487276035608,0.15619407714626649,4.772146548009732,-7.330197565542841,1.1195208765034732,1.7630069716671164,0.794831054201939,-4.9991704297092605,1,left
6.808,0.15134243697385905,0.8956039414230632,0.15703988124019116,4.804844187655305,-7.298285661977735,1.1397465694396522,1.7648022924511084,0.7892363444877973,-5.015594298365094,1,left
6.811,0.14182786154448485,0.9104042929123278,0.1578578606031513,4.835430057983101,-7.26197465226201,1.1605272980293597,1.7658633163245112,0.7827910892557784,-5.029846567038521,1,left
6.811,0.13242782273488418,0.9250413831323595,0.1586461480304699,4.86391002271921,-7.221315153446586,1.1818467516296955,1.7661919612791577,0.7754990712298793,-5.041913425977935,1,left
6.817,0.12314719334584079,0.9395070199685023,0.15940282779383275,4.890290782071948,-7.176360694575122,1.2036872456908987,1.7657907521372351,0.7673648611715885,-5.051782482797207,1,left
6.818,0.11399088542417883,0.9537932260121558,0.16012593378504758,4.914579852244778,-7.127167657927938,1.2260297857532347,1.76466282584852,0.7583937960179391,-5.059442794261204,1,left
6.819,0.10496384875030813,0.9678922459727787,0.16081344818774598,4.936785545285782,-7.073795218151325,1.2488541369824757,1.7628119356613412,0.7485919583320175,-5.064884896552961,1,left
6.821000000000001,0.09607106816740618,0.9817965536140694,0.1614633007110806,4.956916949416868,-7.016305279481215,1.272138898521525,1.7602424541661266,0.7379661570425781,-5.068100834050844,1,left
6.821000000000001,0.0873175597005296,0.9954988582226414,0.16207336841262635,4.97498391008104,-6.954762411765024,1.2958615807594642,1.7569593752083015,0.7265239094470001,-5.069084186637688,1,left
6.8260000000000005,0.07870836542863296,1.008992110626471,0.16264147613461302,4.990997011996243,-6.889233786255115,1.3199986829663977,1.7529683146652308,0.7142734244494466,-5.0678300955575235,1,left
6.827000000000001,0.07024854708468628,1.0222695087808187,0.16316539758024484,5.004967562442169,-6.81978911185385,1.3445257693980701,1.7482755100798348,0.7012235870037151,-5.064335287829124,1,left
6.832000000000001,0.06194317836974822,1.035324502936051,0.16364285706283152,5.0169075758993396,-6.746500571971585,1.3694175431532152,1.7428878191414594,0.6873839437279283,-5.058598099219174,1,left
6.832999999999999,0.0537973359755529,1.048150800400588,0.16407153196708021,5.02682976009775,-6.669442761865841,1.394647917722061,1.7368127170025467,0.6727646896558901,-5.050618495771465,1,left
6.836,0.04581608931605962,1.060742369912355,0.16444905596842385,5.0347475035152245,-6.588692626262305,1.4201900862964003,1.7300582924176435,0.6573766560876404,-5.040398093882061,1,left
6.837000000000001,0.03800448897378299,1.0730934456291747,0.16477302306115404,5.040674864359797,-6.504329397047288,1.4460165889126733,1.7226332426892816,0.6412312994994711,-5.027940178903965,1,left
6.84,0.030367553876061878,1.0851985307409628,0.1650409924465031,5.044626561064677,-6.416434530810442,1.4720993775004905,1.7145468674032993,0.6243406914714313,-5.013249722258358,1,left
6.8420000000000005,0.02291025723182345,1.0970524006978157,0.16525049432523653,5.046617964318554,-6.32509164600593,1.4984098789099072,1.7058090609342187,0.6067175095881399,-4.996333397023071,1,left
6.845,0.015637511278450564,1.1086501060434828,0.16539903662693975,5.0466650906483075,-6.230386459489865,1.524919055991585,1.6964303036993658,0.5883750292665494,-4.977199591962484,1,left
6.847,0.008554150907172002,1.1199869748462405,0.16548411269541446,5.044784597565511,-6.132406722181712,1.5515974668047068,1.6864216521385276,0.5693271164621684,-4.955858423956692,1,left
6.85,0.0016649162534791812,1.1310586147271513,0.165503209938941,5.040993780282476,-6.031242153587429,1.5784153220281654,1.6757947273940648,0.5495882212031414,-4.932321748781348,1,left
6.851,-0.005025565639349546,1.141860914494087,0.16545381944067072,5.035310569998027,-5.926984374912459,1.6053425406511177,1.6645617026645632,0.529173371899526,-4.906603170183243,1,left
6.856,-0.011512799944837403,1.1523900453929288,0.16533344650263518,5.027753533747619,-5.819726840483332,1.632348804019478,1.6527352892032983,0.5080981703730761,-4.87871804719034,1,left
6.856,-0.017792443785036787,1.1626424619811335,0.16513962206705743,5.018341875806953,-5.709564767187411,1.6594036083153292,1.6403287209310053,0.4863787875508616,-4.848683499588665,1,left
6.86,-0.023860326338431544,1.1726149026151176,0.16486991492231642,5.007095440632814,-5.59659506163151,1.6864763155465363,1.6273557376307186,0.46403195976410927,-4.816518411492233,1,left
6.861000000000001,-0.029712469043019062,1.1823043895283258,0.1645219445560446,4.994034717319457,-5.480916244711468,1.7135362031240862,1.613830566690732,0.44107498559175856,-4.782243432925905,1,left
6.865,-0.03534510557047832,1.191708228466078,0.16409339446419982,4.97918084554354,-5.362628373276384,1.7405525121047998,1.5997679033600682,0.417525723186372,-4.745880979334968,1,left
6.8660000000000005,-0.04075470121606916,1.2008240078361914,0.16358202567044036,4.962555622965348,-5.2418329585632435,1.767494494177129,1.5851828894792215,0.3934025880182436,-4.707455228929052,1,left
6.87,-0.04593797133350317,1.2096495973307142,0.16298569016703546,4.944181514048834,-5.118632881069806,1.7943314574677083,1.570091090647351,0.368724550971792,-4.666992117761994,1,left
6.871,-0.050891898451049564,1.2181831459755816,0.1623023439695909,4.9240816602578485,-4.9931323015261695,1.8210328112462013,1.5545084718238649,0.34351113671362044,-4.624519332461289,1,left
6.872000000000001,-0.05561374774671048,1.2264230795731634,0.16153005949673918,4.90227989158084,-4.8654365676182225,1.847568109605777,1.538451371552363,0.31778242218493696,-4.580066300605209,1,left
6.875,-0.06010108063204805,1.2343680975160647,0.16066703703638177,4.878800739331312,-4.73565211610929,1.8739070941962443,1.5219364753382185,0.29155903495236096,-4.533664178902412,1,left
6.876,-0.06435176625786895,1.2420171689644321,0.15971161509986373,4.853669450166328,-4.603886369999665,1.900019736086484,1.5049807889011813,0.2648621510845664,-4.485345839413418,1,left
6.88,-0.06836399078954682,1.2493695283926156,0.15866227946778771,4.8269120012605,-4.470247630357416,1.925876276832343,1.4876016118315074,0.2377134922857729,-4.435145853957331,1,left
6.881,-0.07213626434052865,1.2564246705307143,0.15751767072695402,4.798555116568045,-4.334844962447877,1.9514472688255924,1.4698165118320463,0.21013532213274927,-4.383100476678977,1,left
6.885,-0.07566742552839271,1.2631823447538464,0.1562765901233507,4.768626284062702,-4.197788076007933,1.976703614966339,1.4516432995359159,0.1821504413256747,-4.32924762465577,1,left
6.886,-0.0789566437011633,1.269642548995465,0.15493800360672716,4.737153773650105,-4.059187200627911,2.001616607537775,1.4331000038498816,0.15378218187491513,-4.273626856400212,1,left
6.8870000000000005,-0.08200341894026238,1.2758055232718122,0.15350104399995054,4.704166655099806,-3.9191529592185557,2.026157965868315,1.4142048477723828,0.1250544001445385,-4.2162793481085625,1,left
6.888999999999999,-0.08480757999560946,1.2816717429112465,0.1519650112867409,4.669694815149103,-3.7777962436578876,2.050299872202492,1.3949762246340418,0.09599146867222677,-4.157247867501079,1,left
6.888999999999999,-0.0873692803708961,1.2872419115914948,0.15032937108137015,4.6337689731169105,-3.6352280955862284,2.074015005363777,1.3754326747074213,0.0666182666841414,-4.096576745094125,1,left
6.894,-0.08968899283176901,1.2925169542853296,0.1485937514292229,4.5964206947044115,-3.491559593293851,2.09727657208443,1.3555928621317908,0.03696016922226748,-4.034311842739492,1,left
6.895,-0.09176750262136178,1.2974980101853029,0.14675793818077026,4.557682403845414,-3.3469017445198066,2.1200583360391105,1.3354755520977053,0.007043034800799989,-3.970500519261457,1,left
6.9,-0.09360589963295327,1.302186425625774,0.1448218692656361,4.517587392503292,-3.201365384752625,2.1423346446503313,1.3150995882352885,-0.023106808492754392,-3.905191593017368,1,left
6.9,-0.09520556972804275,1.3065837469619732,0.14278562825238011,4.476169828307271,-3.0550610806204,2.1640804537325105,1.2944838701492702,-0.053462578536904067,-3.8384353012030044,1,left
6.904,-0.09656818532150083,1.3106917133173932,0.1406494376066709,4.4334647599168635,-2.9080990379549374,2.1852713500400185,1.2736473310430252,-0.08399705644181518,-3.7702832557194963,1,left
6.906000000000001,-0.09769569530201565,1.314512249084099,0.13841365205456002,4.3895081199993315,-2.76058901411211,2.205883571783164,1.2526089153731188,-0.11468260562782491,-3.700788395414297,1,left
6.91,-0.09859031432503902,1.3180474560593518,0.1360787524199766,4.344336725701286,-2.6126402341283725,2.225894027174525,1.2313875564751804,-0.14549119280397077,-3.630004934504549,1,left
6.9110000000000005,-0.09925451150458971,1.321299605123583,0.13364534023947977,4.2979882764917985,-2.46436131029148,2.2452803110664625,1.2100021541012822,-0.17639441093419378,-3.5579883069871743,1,left
6.915,-0.09969099853335359,1.3242711274046601,0.1311141333661477,4.2505013492508485,-2.3158601647018977,2.2640207197389666,1.1884715518084303,-0.20736350427930672,-3.484795106836162,1,left
6.916,-0.09990271727467319,1.3269646049266641,0.12848596266510612,4.201915390473412,-2.167243954400117,2.282094263895286,1.1668145141372444,-0.23836939560317097,-3.4104830237838355,1,left
6.919,-0.09989282689415296,1.3293827608019035,0.12576176979147202,4.152270705456129,-2.018618998634139,2.299480679920972,1.1450497035194316,-0.2693827156317966,-3.335110774479332,1,left
6.92,-0.09966469062799557,1.3315284490842605,0.12294260594792839,4.101608444330217,-1.8700907078407556,2.3161604394601403,1.1231956568522437,-0.30037383485426944,-3.2587380288141574,1,left
6.9239999999999995,-0.09922186231183028,1.3334046444494507,0.12002963145688496,4.0499705848011525,-1.7217635139139233,2.33211475736082,1.101270761677743,-0.3313128977545127,-3.1814253312014635,1,left
6.925,-0.09856807281140019,1.3350144318942543,0.11702411595013278,3.9973999114525767,-1.5737408013334948,2.347325598039296,1.0792932319043922,-0.36216985956291375,-3.10323401659265,1,left
6.928,-0.09770721650268906,1.3363609966513201,0.11392743896626652,3.9439399914689908,-1.4261248387278525,2.3617756803113163,1.0572810830082262,-0.3929145256167793,-3.024226121012024,1,left
6.928999999999999,-0.0966433379448881,1.3374476145058505,0.11074109074353154,3.889635146628982,-1.2790167104445618,2.3754484807359715,1.0352521066506628,-0.4235165934184351,-2.9444642863875554,1,left
6.933,-0.09538061887896566,1.3382776426822824,0.10746667300087781,3.8345304214180542,-1.132516247704035,2.3883282355158912,1.0132238446498534,-0.4539456974795486,-2.8640116594532268,1,left
6.934,-0.09392336567333384,1.3388545114457584,0.10410589951385815,3.778671547107591,-0.9867219589123601,2.400399940995238,0.991213562242378,-0.48417145703993075,-2.782931784496159,1,left
6.938,-0.09227599732916536,1.339181716536357,0.10066059631560348,3.7221049016440357,-0.8417309587109114,2.411649352794745,0.9692382206227291,-0.5141635266601694,-2.701288489939212,1,left
6.94,-0.09044303414699237,1.3392628125260169,0.0971327013871304,3.664877465190086,-0.6976388953420923,2.422062983620767,0.9473144490014815,-0.543891649244481,-2.619145769846344,1,left
6.94,-0.08842908714284488,1.3391014071631724,0.09352426373913289,3.60703677115754,-0.5545398759125957,2.4316280997829844,0.9254585168793096,-0.5733257102531413,-2.536567663413608,1,left
6.944,-0.08623884830395726,1.3387011567573437,0.08983744181477274,3.5486308525693904,-0.4125263891378641,2.4403327164530584,0.9036863074875642,-0.6024357914207168,-2.4536181366055714,1,left
6.944,-0.08387708180845936,1.338065762660646,0.0860745011583395,3.489708183586872,-0.2716892251540167,2.4481655916941163,0.8820132930928174,-0.6311922227380272,-2.370360968996996,1,left
6.949,-0.08134861639193028,1.337198968919079,0.08223781131844353,3.4303176160354045,-0.13211739198635497,2.4551162192885245,0.860454512406764,-0.6595656322513683,-2.2868596469009383,1,left
6.95,-0.07865833910268782,1.3361045611836513,0.07832984200443917,3.3705083107617497,0.006101971733322589,2.4611748203889316,0.8390245500896585,-0.6875269936740642,-2.20317726276483,1,left
6.952999999999999,-0.07581119072475065,1.3347863669826299,0.07435315858264585,3.3103296638171176,0.14288368796295678,2.466332334044057,0.8177375182850591,-0.7150476718928943,-2.1193764205955037,1,left
6.954,-0.07281216314000531,1.3332482574526934,0.07031041705239342,3.2498312282790702,0.2781446333085593,2.4705804067931822,0.7966070401239768,-0.7420994664508432,-2.035519147173418,1,left
6.954,-0.06966629884804773,1.3314941506060398,0.06620435866013501,3.189062633998923,0.41180383271097165,2.4739113817817473,0.7756462351368977,-0.7686546530864359,-1.9516668088158242,1,left
6.957999999999999,-0.06637869279863938,1.329528016187282,0.06203780431655904,3.1280735083797615,0.5437825483130739,2.4763182879928696,0.7548677065125563,-0.794686023408657,-1.8678800334482617,1,left
6.957999999999999,-0.06295449663777264,1.3273538821629765,0.05781364900470298,3.066913400469782,0.6740043602652864,2.4777948300419914,0.7342835301427847,-0.8201669227851088,-1.7842186377436264,1,left
6.962999999999999,-0.059398925392468965,1.3249758428775558,0.05353485638610944,3.005631709179865,0.8023952384009407,2.4783353787182207,0.713905245393252,-0.8450712865196339,-1.7007415590880477,1,left
6.9639999999999995,-0.055717266488365995,1.3223980688764574,0.049204453794785864,2.9442776156141677,0.9288836049184584,2.477934962308262,0.693743847540427,-0.8693736743941259,-1.6175067921330117,1,left
6.9670000000000005,-0.05191489081108319,1.3196248183246808,0.044825527754547234,2.882900019338146,1.0534003884442713,2.476589258707169,0.6738097818156574,-0.8930493036476737,-1.5345713296935193,1,left
6.9670000000000005,-0.047997265306141984,1.316660449837507,0.04040122007467836,2.821547478408073,1.1758790698451607,2.4742945883174614,0.6541129389978464,-0.9160740804645253,-1.4519911077525929,1,left
6.972,-0.043969966384674715,1.313509436400796,0.035934724480820385,2.760268152985901,1.2962557201532354,2.471047907735443,0.6346626524968316,-0.9384246300406353,-1.3698209543331505,1,left
6.974,-0.039838693196194375,1.310176379909176,0.031429283647225546,2.6991097523632477,1.4144690309611077,2.466846804220853,0.6154676968702236,-0.960078325296756,-1.2881145419991085,1,left
6.977,-0.03560927969015528,1.306666025714348,0.026888186448150112,2.638119485218368,1.5304603376389772,2.4616894909432476,0.5965362877171374,-0.9810133143041667,-1.2069243437486052,1,left
6.978,-0.03128770436032147,1.3029832764778762,0.02231476525975595,2.577344012930165,1.6441736357193057,2.455574802995784,0.5778760828929635,-1.001208546487198,-1.1263015920634085,1,left
6.983,-0.026880096674910217,1.2991332045866337,0.017712393212361528,2.5168294057736604,1.755555590788545,2.4485021941643264,0.5594941849900527,-1.0206437976647111,-1.0462962408798935,1,left
6.984,-0.02239273942585025,1.2951210624293366,0.013084481392801276,2.456621101821807,1.8645555422190123,2.440471734437065,0.5413971450299454,-1.039299693990627,-0.9669569302484698,1,left
6.989,-0.017832066531790154,1.2909522899474837,0.008434476104412732,2.3967638683791574,1.9711255010674689,2.431484108237079,0.5235909673135574,-1.057157734851477,-0.8883309534499559,1,left
6.989,-0.013204656149627644,1.2866325190418455,0.003765856386901334,2.3373017657736392,2.075220142460259,2.421540613357516,0.5060811153765271,-1.0742003147767658,-0.8104642263391697,1,left
6.992000000000001,-0.008517219260909705,1.2821675746046044,-0.0009178679497663444,2.278278113333579,2.176796792778038,2.4106431605763357,0.48887251899775125,-1.0904107444157005,-0.7334012586879181,1,left
6.994,-0.0037765841881998914,1.2775634721345612,-0.005613157547888626,2.219735457378105,2.275815411946133,2.398794273924791,0.4719695822099675,-1.105773270631548,-0.6571851273016123,1,left
6.997000000000001,0.0010103222629337723,1.2728264120699653,-0.010316443857214079,2.1617155410502105,2.372238571129486,2.3859970915810895,0.45537619226209375,-1.1202730957625455,-0.5818574506859157,1,left
6.997999999999999,0.005836496185019144,1.267962771132362,-0.015024128643577099,2.1042592758230096,2.466031426123896,2.372255367357933,0.4390957294838979,-1.1338963960958968,-0.507458365042134,1,left
7.001,0.010694879578683947,1.2629790910968783,-0.019732582790424724,2.0474067145110952,2.5571616867279237,2.3575734727499036,0.4231310780044489,-1.1466303395989559,-0.43402650137248977,1,left
7.001,0.015578384167520925,1.2578820654685554,-0.024438144581566512,1.9911970256204141,2.645599582372401,2.3419563995039447,0.4074846372766872,-1.158463102949222,-0.3615989634789707,1,left
7.006,0.02047991534828932,1.2526785245382415,-0.029137117633669996,1.935668468871686,2.731317824276897,2.3254097626734684,0.3921583343569586,-1.1693838878820602,-0.2902113067064472,1,left
7.007000000000001,0.02539239580278367,1.2473754192163065,-0.03382576859466184,1.8808583717341334,2.814291564394882,2.3079398041139183,0.37715363686728665,-1.1793829367715363,-0.21989751760522988,1,left
7.007999999999999,0.03030878848574857,1.2419798039286096,-0.03850032468169692,1.8268031068081227,2.894498351401581,2.2895533963749424,0.3624715665295243,-1.1884515471754198,-0.15068999527018315,1,left
7.0120000000000005,0.03522211883655566,1.236498818767387,-0.04315697112641792,1.7735380698972874,2.9719180839707198,2.2702580469416542,0.34811271313947295,-1.1965820849718167,-0.08261953543819402,1,left
7.013,0.04012549612930306,1.230939671053034,-0.04779184862787593,1.7210976586127447,3.046532961578466,2.2500619027748074,0.3340772488719494,-1.2037679958132228,-0.015715318107178675,1,left
7.016,0.045012133906814224,1.2253096164552846,-0.05240105096520902,1.6695152513542086,3.1183274330649438,2.2289737550970847,0.3203649428482586,-1.2100038148028658,0.049995101136081126,1,left
7.017,0.04987536946177528,1.21961593981724,-0.05698062296950693,1.6188231865150458,3.187288143175676,2.207003044370082,0.30697517592042917,-1.2152851743964859,0.11448579621041668,1,left
7.022,0.05470868233002594,1.2138659358258999,-0.06152655908272079,1.5690527417798357,3.253403877348118,2.1841598653972887,0.2939069556318907,-1.219608810550183,0.1777324722492048,1,left
7.023,0.05950571175075495,1.208066889672976,-0.06603480273082438,1.5202341134811068,3.316665505254501,2.160454972452229,0.28115893131520026,-1.2229725671322378,0.23971246411246638,1,left
7.024,0.06426027303907374,1.2022260578399278,-0.07050124671188257,1.472396396156646,3.377065924061563,2.1358997842680183,0.26872940928835043,-1.2253753986140716,0.30040473188734373,1,left
7.027,0.06896637280441166,1.1963506491408342,-0.07492173477572044,1.4255675625470845,3.4346000026137773,2.110506388688526,0.2566163681121141,-1.2268173710527595,0.3597898535585985,1,left
7.028,0.07361822292545878,1.1904478061837904,-0.0792920645643487,1.3797744441805377,3.4892645274842917,2.08428754681241,0.2448174738718009,-1.227299661374759,0.41785001502713687,1,left
7.032,0.07821025317262277,1.1845245874419872,-0.08360799206162345,1.3350427125217192,3.5410581513720922,2.0572566965192465,0.23333009544771485,-1.226824554967756,0.4745689976508731,1,left
7.0329999999999995,0.08273712237153862,1.1785879501279923,-0.08786523764517679,1.291396860570188,3.5899813440614934,2.0294279552981256,0.22215131973950966,-1.2253954415847739,0.5299321634784905,1,left
7.035,0.08719372802804098,1.1726447340388608,-0.0920594937625453,1.248860184776238,3.6360363461009952,2.000816122303418,0.2112779668105418,-1.2230168095619356,0.5839264383428554,1,left
7.037000000000001,0.09157521437764109,1.1667016465015163,-0.09618643418902534,1.2074547671459737,3.6792271253502937,1.9714366795600962,0.20070660491921444,-1.2196942383485216,0.6365402929769931,1,left
7.037999999999999,0.0958769788726317,1.16076524850877,-0.10024172476917645,1.1672014574102434,3.719559336535988,1.9413057922386918,0.19043356540519174,-1.2154343893452264,0.6877637223116392,1,left
7.044,0.10009467716922109,1.1548419421021812,-0.10422103549327834,1.1281198551352816,3.7570402839483084,1.9104403079177312,0.1804549573992403,-1.210244995043795,0.7375882231094542,1,left
7.044,0.10422422671904313,1.1489379590312094,-0.10812005371643534,1.0902282916561539,3.7916788874029406,1.8788577547492868,0.17076668232632033,-1.204134846458508,0.7860067700870245,1,left
7.0489999999999995,0.1082618091021093,1.1430593506985904,-0.11193449829663804,1.053543811717416,3.823485651583834,1.8465763384411158,0.1613644481724074,-1.1971137788372923,0.8330137906717826,1,left
7.05,0.11220387126203639,1.1372119793868611,-0.11566013441097378,1.0180821547087513,3.8524726388746835,1.8136149379667637,0.1522437834863694,-1.1891926556375725,0.8786051385369645,1,left
7.053999999999999,0.11604712581894475,1.131401510746434,-0.11929278880628073,0.9838577353867719,3.8786534457786113,1.7799930999129372,0.1434000510890582,-1.1803833507493267,0.922778066053685,1,left
7.053999999999999,0.11978855064115412,1.1256334075085515,-0.12282836525289739,0.9508836239776325,3.90204318301745,1.7457310313714574,0.13482846146259556,-1.1706987289452049,0.9655311957951616,1,left
7.058,0.12342538785492374,1.1199129243657253,-0.12626285999283654,0.9191715255586158,3.9226584593939324,1.7108495912811394,0.1265240857936427,-1.1601526245349782,1.0068644912240527,1,left
7.058,0.12695514246129805,1.1142451039376164,-0.12959237699498238,0.8887317586204029,3.9405173694920226,1.6753702801230599,0.11848186864523724,-1.1487598181990395,1.0467792266898035,1,left
7.063,0.13037558070716107,1.1086347737132103,-0.13281314284580367,0.8595732327153223,3.9556394852826253,1.639315227870831,0.11069664023256308,-1.136536011973163,1.085277956858818,1,left
7.064,0.13368472832083184,1.103086543835841,-0.13592152112158704,0.831703425100506,3.968045851693927,1.6027071800957193,0.1031631282787859,-1.1234978023542617,1.1223644856962005,1,left
7.068,0.13688086867204774,1.0976048055835632,-0.13891402611288656,0.805128356288521,3.977758986197722,1.5655694821247386,0.09587596942784031,-1.1096626514944463,1.1580438351137348,1,left
7.068,0.13996254085743645,1.0921937303992386,-0.14178733580140954,0.7798525644217306,3.984802882455201,1.527926061148187,0.08882972019179217,-1.095048856448304,1.192322213394706,1,left
7.0729999999999995,0.14292853765250457,1.086857269343406,-0.1445383040172267,0.7558790783903351,3.9892030180579017,1.4898014061715126,0.08201886741112288,-1.0796755164359833,1.2252069835021182,1,left
7.074,0.14577790321731537,1.0815991528744078,-0.14716397172719964,0.7332093896177587,3.9909863663917644,1.4512205457048737,0.07543783820698975,-1.0635624980823732,1.2567066313728152,1,left
7.077000000000001,0.1485099304057588,1.0764228908980462,-0.14966157742724628,0.7118434224407794,3.990181412644599,1.4122090230823072,0.06908100940520867,-1.046730398590445,1.2868307342959941,1,left
7.077000000000001,0.15112415751904765,1.0713317730655665,-0.1520285666322062,0.6917795030155327,3.986818173969649,1.3727928693010372,0.06294271642117903,-1.0292005068562287,1.3155899294515818,1,left
7.077999999999999,0.1536203643673139,1.0663288693248383,-0.15426260047198304,0.6730143266842687,3.980928223810439,1.3329985732701441,0.05701726163961965,-1.0109947627887952,1.3429958825848725,1,left
7.082000000000001,0.15599856754977595,1.0614170307422353,-0.1563615634080812,0.6555429237414776,3.972544720384661,1.2928530493565833,0.05129892240280838,-0.9921357155609561,1.3690612566187135,1,left
7.082999999999999,0.15825901491687147,1.0565988906208643,-0.15832357008432116,0.6393586235417392,3.9617024393175004,1.2523836021153762,0.04578195876563426,-0.9726464817723969,1.3937996799055148,1,left
7.087999999999999,0.16040217922673006,1.0518768659514386,-0.16014697132364936,0.6244530170402139,3.948437810240599,1.2116178881792552,0.04046062113239385,-0.952550704247018,1.4172257139125604,1,left
7.0889999999999995,0.16242875104898752,1.0472531592380065,-0.16183035927956382,0.6108159185845796,3.9327889563308083,1.1705838757297284,0.03532915781167856,-0.9318725117199634,1.4393548203014241,1,left
7.09,0.1643396309984655,1.042729760735879,-0.16337257174413486,0.5984353290844314,3.9147957342531647,1.12930980277646,0.030381822482289763,-0.9106364794099994,1.4602033274535644,1,left
7.093,0.16613592141083364,1.0383084511320486,-0.1647726956039275,0.587297403412006,3.8944997711306653,1.087824135918708,0.025612881554882228,-0.8888675904195704,1.4797883965094314,1,left
7.093999999999999,0.16781891761396994,1.0339908046964608,-0.16603006942144014,0.5773864241675546,3.8719444959914604,1.0461555308140915,0.0210166214145824,-0.8665911979031793,1.4981279869846944,1,left
7.098,0.1693900989856453,1.0297781929291894,-0.1671442851092095,0.5686847826427801,3.8471751646400407,1.0043327947734189,0.016587355530356708,-0.8438329879431403,1.515240822023513,1,left
7.099,0.17085111999436506,1.0256717887170306,-0.16811518866473363,0.5611729670951441,3.820238877727249,0.9623848514519978,0.012319431417417698,-0.8206189430702232,1.5311463533451584,1,left
7.101,0.17220380139365687,1.0216725709951335,-0.1689428799482296,0.5548295583045335,3.7911845919544103,0.920340707517789,0.00820723743945192,-0.7969753063652495,1.545864725936708,1,left
7.102,0.17345012169456858,1.0177813298884946,-0.16962771150503056,0.5496312323872471,3.760063124340531,0.878229421176319,0.004245209437933301,-0.7729285460763198,1.5594167425410155,1,left
7.106,0.1745922089874398,1.0139986722864505,-0.17017028645192026,0.5455527708456771,3.726927149475286,0.8360800724319108,0.0004278371762493101,-0.74850532068504,1.571823827985694,1,left
7.107,0.17563233312925763,1.0103250277835274,-0.17057145545743405,0.5425670778354119,3.6918311896744496,0.7939217349645105,-0.003250329413185321,-0.7237324443538822,1.5831079933954368,1,left
7.111000000000001,0.17657289826388625,1.0067606549038648,-0.17083231284954223,0.5406452046347725,3.6548315979484682,0.7517834495012002,-0.006794674190221033,-0.6986368526856561,1.5932918003266532,1,left
7.112,0.17741643560373352,1.0033056475135407,-0.17095419188208102,0.5397563813050077,3.615986533689105,0.7096941985613776,-0.010210508987650063,-0.6732455687249901,1.602398324860111,1,left
7.117000000000001,0.1781655963755626,0.9999599413157999,-0.17093865918677872,0.5398680555325097,3.575355930973456,0.6676828824545495,-0.013503068021845248,-0.6475856691307103,1.61045112168405,1,left
7.117999999999999,0.17882314482405934,0.9967233203210123,-0.1707875084343599,0.5409459386474613,3.533001459379181,0.6257782964097558,-0.016677502543554407,-0.6216842504470865,1.6174741881970711,1,left
7.122000000000001,0.17939195117693296,0.9935954231889069,-0.17050275322959396,0.5429540588162918,3.4889864771994734,0.5840091087157708,-0.01973887573867436,-0.5955683954010595,1.6234919286570124,1,left
7.122999999999999,0.17987498450055683,0.99057574935667,-0.17008661927379928,0.5458548214081891,3.4433759769411934,0.5424038397514599,-0.022692157888474337,-0.569265139151793,1.6285291183989958,1,left
7.126,0.18027530540707654,0.9876636648936975,-0.16954153584464654,0.5496090765386865,3.3962365229846174,0.5009908417859684,-0.025542221798398945,-0.5428014354182022,1.6326108681428761,1,left
7.127000000000001,0.18059605860712485,0.9848584080603844,-0.16887012666303158,0.5541761937960119,3.347636181278507,0.45979827942881685,-0.028293838504255972,-0.5162041224094936,1.635762588407431,1,left
7.131,0.18084046533646111,0.9821590945870212,-0.16807520023472097,0.5595141441584481,3.297644440939614,0.4188541106104399,-0.030951673264283466,-0.48949988848320963,1.6380099540458142,1,left
7.132000000000001,0.18101181571934294,0.9795647227209949,-0.167159739770392,0.5655795891134023,3.246332127621348,0.3781860679742622,-0.033520281845293855,-0.4627152374548148,1.639378868914058,1,left
7.136,0.18111346115970023,0.97707417811275,-0.16612689280148468,0.5723279769912141,3.193771308512132,0.3378216405620354,-0.03600410711080985,-0.4358764534824735,1.6398954306817275,1,left
7.136,0.18114880686458434,0.9746862386242756,-0.16497996061261738,0.579713646528943,3.1400351888200033,0.29778805567487543,-0.038407475918837135,-0.4090095654503617,1.6395858957912446,1,left
7.141,0.18112130460045248,0.9723995791476492,-0.16372238759816649,0.5876899376814647,3.08519799959619,0.2581122607932299,-0.0407345963366624,-0.38214031077362426,1.6384766445698684,1,left
7.142,0.18103444576538047,0.9702127765128851,-0.16235775062747534,0.5962093096991627,3.0293348767468418,0.21882090543987878,-0.04298955517982138,-0.3552940985479336,1.6365941464958704,1,left
7.145,0.1808917548336178,0.9681243145439069,-0.16088974847961954,0.6052234664933331,2.9725217310786967,0.17994032287102,-0.04517631588215021,-0.3284959719665236,1.6339649256180753,1,left
7.146,0.18069678319769367,0.9661325892932563,-0.15932219138719664,0.6146834893121133,2.9148351092213183,0.14149651148151943,-0.04729871670046306,-0.3017705699896338,1.6306155261444788,1,left
7.146,0.18045310340582593,0.9642359144582034,-0.15765899070845268,0.6245399767513048,2.8563520452655786,0.10351511581150875,-0.0493604692414363,-0.2751420885617106,1.6265724783076516,1,left
7.15,0.18016430377451184,0.9624325269593187,-0.1559041487288729,0.6347431921258804,2.7971499029553555,0.06602140704269333,-0.05136515726972402,-0.24863424223046873,1.6218622647820868,1,left
7.151,0.1798339833421419,0.9607205926444197,-0.1540617485768889,0.6452432182292437,2.737306208266879,0.029040262873986547,-0.05331623574038941,-0.22227022733247118,1.616511288020789,1,left
7.156000000000001,0.17946574711238833,0.9590982120619739,-0.1521359442236525,0.6559901192571286,2.676898472530631,-0.007403853301995017,-0.05521703001431709,-0.1960726875998161,1.610545838782201,1,left
7.157,0.17906320152342756,0.9575634262359823,-0.15013095052916675,0.6669341084173966,2.6160040078622853,-0.04328691384569102,-0.05707073524346668,-0.17006368248424536,1.603992065947049,1,left
7.159,0.17862995007863527,0.9561142223767691,-0.1480510333016068,0.678025717485932,2.5546997395719546,-0.07858534858794357,-0.05888041592842854,-0.14426465818505557,1.596875947628639,1,left
7.162000000000001,0.17816958907541489,0.9547485394707615,-0.14590049935011423,0.6892159633129259,2.4930620218330444,-0.11327606631077032,-0.06064900565374915,-0.11869642130560057,1.5892232635595211,1,left
7.162999999999999,0.17768570335849695,0.9534642736976546,-0.14368368652724914,0.7004565075410242,2.4311664612769484,-0.1473364756357443,-0.0623793070063579,-0.09337911506371428,1.5810595687357545,1,left
7.166,0.17718186200849942,0.9522592836307371,-0.14140495377380177,0.7116998080591546,2.3690877502740477,-0.18074450523779292,-0.06407399168230037,-0.0683321979819854,1.5724101682983775,1,left
7.166,0.17666161386738946,0.951131395192704,-0.1390686711950901,0.7228992619727508,2.3068995100468332,-0.2134786234534345,-0.06573560078686473,-0.04357442498447648,1.5633000936301622,1,left
7.172000000000001,0.17612848280097032,0.9500784063604927,-0.1366792102110993,0.7340093401225646,2.2446741434375093,-0.24551785738125168,-0.06736654533307783,-0.0191238308271995,1.5537540796442504,1,left
7.172999999999999,0.1755859626015291,0.949098091630321,-0.13424093383012436,0.7449857131842618,2.1824826971518965,-0.2768418115705272,-0.06896910694344478,0.005002284209565018,1.5437965432398812,1,left
7.1739999999999995,0.1750375114409388,0.948188206265188,-0.13175818709652454,0.7557853693808796,2.120394733301145,-0.307430686392033,-0.07054543875971053,0.028787366438188747,1.5334515628990915,1,left
7.175,0.17448654579770764,0.9473464903527475,-0.12923528776020937,0.7663667238399638,2.0584782100626495,-0.33726529618297013,-0.07209756656533375,0.05221561876005903,1.5227428593970147,1,left
7.182,0.17393643380257004,0.9465706727025505,-0.1266765172123454,0.776689719626828,1.9967993712816623,-0.3663270872560009,-0.0736273901252813,0.0752720086106573,1.5116937775972332,1,left
7.183,0.1733904879749087,0.9458584746081592,-0.12408611172963031,0.7867159204848673,1.9354226448353755,-0.394598155860206,-0.07513668474767596,0.0979422739216467,1.5003272693025074,1,left
7.186,0.17285195735302486,0.9452076134933817,-0.12146825406688315,0.7964085953132394,1.8744105495817633,-0.4220612661796345,-0.07662710307176054,0.1202129271672394,1.4886658771301757,1,left
7.187,0.1723240190534539,0.9446158064564062,-0.11882706543453506,0.8057327944114852,1.8138236107161216,-0.4486998684528932,-0.07810017708657693,0.14207125756104827,1.4767317193805305,1,left
7.19,0.17180976932813372,0.944080773722977,-0.11616659789502244,0.8146554175198115,1.7537202833591294,-0.4744981172949548,-0.07955732038469923,0.16350533146851873,1.464546475865565,1,left
7.19,0.17131221422101228,0.9436002420187305,-0.11349082721028673,0.8231452736828067,1.6941568842012844,-0.4994408903000427,-0.08099983065530623,0.18450399109889176,1.452131374664641,1,left
7.194,0.17083425995331653,0.9431719478689558,-0.1108036461716783,0.8311731329633024,1.635187531029796,-0.5235138070020843,-0.08242889242082772,0.20505685153946507,1.4395071797728385,1,left
7.195,0.17037870318615142,0.9427936408303839,-0.10810885844373963,0.8387117700319466,1.5768640899653896,-0.5467032482668117,-0.08384558002135342,0.22515429619370292,1.4266941796070305,1,left
7.199,0.16994822131982243,0.9424630866546736,-0.10541017295315103,0.8457359996568147,1.5192361302380302,-0.5689963761871332,-0.08525086085095127,0.24478747068349574,1.4137121763340603,1,left
7.2,0.16954536299189976,0.9421780703772651,-0.10271119885152138,0.852222704116063,1.4623508863322765,-0.5903811545508992,-0.08664559885000253,0.2639482752745921,1.400580475984798,1,left
7.204,0.16917253893130588,0.941936399318066,-0.10001544107522169,0.8581508525552242,1.4062532273348236,-0.6108463699476561,-0.08803055825762551,0.28262935588291765,1.3873178793173133,1,left
7.205,0.16883201331463826,0.9417359059728244,-0.0973262965184231,0.8635015123092764,1.3509856333187855,-0.6303816535783991,-0.08940640762822694,0.3008240937181653,1.373942673391911,1,left
7.21,0.1685258957552585,0.9415744507673561,-0.0946470508293284,0.8682578522080732,1.2965881786013975,-0.6489775038297381,-0.09077372411618918,0.3185265936196844,1.360472623820346,1,left
7.211,0.1682561340373975,0.9414499246420588,-0.09198087583511926,0.8724051378821233,1.2430985217140769,-0.6666253096712406,-0.09213299803267355,0.3357316711383201,1.3469249676511574,1,left
7.215,0.16802450768757715,0.9413602514328141,-0.0893308275961604,0.8759307190840587,1.1905519019261597,-0.6833173749320546,-0.0934846376712126,0.35243483842668916,1.3333164068640468,1,left
7.216,0.1678326224537306,0.9413033900183707,-0.08669984508339565,0.8788240090394187,1.1389811421661247,-0.6990469435102115,-0.094828974362337,0.3686322890501128,1.3196631025025132,1,left
7.216,0.16768190574144193,0.9412773362121326,-0.08409074946688881,0.8810764558386371,1.0884166581867203,-0.7138082255652901,-0.09616626765193403,0.3843208819210668,1.3059806695755285,1,left
7.218999999999999,0.1675736030444154,0.9412801243830906,-0.08150624399863828,0.8826815058803411,1.0388864738231096,-0.7275964247423811,-0.09749671046160943,0.39949812460971723,1.2922841729154266,1,left
7.22,0.16750877540504228,0.9413098287952625,-0.07894891446632672,0.8836345593742521,0.9904162421959534,-0.7404077664725235,-0.09882043412570649,0.41416215623051067,1.2785881241224861,1,left
7.224,0.16748829794237566,0.9413645646613858,-0.07642123018540262,0.8839329179101455,0.9430292727142321,-0.7522395273920097,-0.10013751326514093,0.428311730011259,1.2649064796248006,1,left
7.225,0.1675128594806495,0.9414424889166703,-0.07392554548612028,0.8835757240974711,0.8967465637355736,-0.7630900659201613,-0.10144797049459332,0.4419461955985465,1.2512526398254342,1,left
7.226,0.16758296330152048,0.9415418007293217,-0.0714641016418926,0.8825638934232812,0.8515868406917374,-0.7729588539416243,-0.10275178096686169,0.45506548114158074,1.237639449297547,1,left
7.229,0.16769892903115688,0.9416607417718118,-0.06903902918002662,0.8809000391988183,0.8075665992242161,-0.7818465090826908,-0.1040488767581584,0.4676700751951355,1.2240791979882149,1,left
7.23,0.16786089566081422,0.9417975962790277,-0.0666523505176921,0.8785883927674775,0.7647001523996512,-0.7897548262516086,-0.10533915109811547,0.4797610084807515,1.2105836233917484,1,left
7.234,0.16806882568418646,0.9419506909216075,-0.06430598286688312,0.8756347218695592,0.722999680812185,-0.7966868066562969,-0.10662246244824378,0.49133983554388644,1.1971639136534324,1,left
7.235,0.16832251031406303,0.9421183945299941,-0.06200174134514112,0.8720462493327831,0.6824752846489363,-0.8026466829637917,-0.10789863843257227,0.5024086163432251,1.18383071156475,1,left
7.239,0.16862157571702407,0.9422991177135808,-0.05974134221997605,0.8678315729514294,0.6431350372765279,-0.8076399400796729,-0.10916747962417342,0.5129698978068866,1.1705941194113525,1,left
7.24,0.1689654901824923,0.94249131242356,-0.05752640621190035,0.863000586690554,0.604985040175736,-0.8116733314766409,-0.11042876319126098,0.5230266953887969,1.1574637046352445,1,left
7.242999999999999,0.1693535721234421,0.942693471507179,-0.055358461783149356,0.8575644032049872,0.5680294791078593,-0.8147548910893803,-0.11168224640652612,0.5325824746570289,1.144448506272902,1,left
7.244,0.16978499879130743,0.9429041282972453,-0.05323894834501923,0.8515352776610294,0.5322706813998107,-0.816893940790069,-0.11292767002335612,0.5416411329444574,1.1315570421313206,1,left
7.247999999999999,0.1702588155784138,0.9431218562746597,-0.051169219326449404,0.8449265328469904,0.4977091742383433,-0.8181010934561372,-0.11416476152255868,0.5502069810906254,1.118797316664293,1,left
7.249,0.17077394577754296,0.9433452688343295,-0.049150545057482724,0.8377524855569805,0.46434374386725397,-0.8183882516391449,-0.11539323823319207,0.558284725302283,1.1061768295115446,1,left
7.255,0.1713292006676371,0.9435730191773445,-0.04718411543074771,0.8300283742306642,0.4321714955848395,-0.8177686018409526,-0.11661281033107833,0.5658794491586303,1.0937025846637103,1,left
7.256,0.17192328979464452,0.94380380034484,-0.045271042312886374,0.8217702878300203,0.4011879144423167,-0.8162566044006732,-0.11782318371855297,0.5729965957858815,1.0813811002165123,1,left
7.257999999999999,0.1725548313168203,0.9440363454007844,-0.04341236168770659,0.8129950959325314,0.37138692654735,-0.8138679789932596,-0.11902406278897916,0.5796419502243674,1.0692184186779023,1,left
7.2589999999999995,0.17322236228573767,0.9442694277627267,-0.041609035522692094,0.803720380018651,0.34276096088025515,-0.8106196857379802,-0.12021515307952974,0.5858216220100052,1.0572201177923441,1,left
7.263999999999999,0.17392434873880233,0.9445018616738797,-0.03986195335730429,0.7939643659298581,0.3153010115338578,-0.8065299019124728,-0.12139616381571332,0.5915420279905933,1.0453913218468531,1,left
7.265,0.17465919548656306,0.944732502807782,-0.03817193361425137,0.7837458574721311,0.2889967002913812,-0.8016179942655496,-0.12256681035109362,0.5968098753960352,1.0337367134238662,1,left
7.267,0.1754252554891533,0.9449602489953884,-0.036539724636805396,0.7730841711382348,0.2638363394601078,-0.7959044869194623,-0.12372681650562306,0.6016321451802582,1.0222605455664848,1,left
7.268,0.17622083873135277,0.9451840410614604,-0.034966005461711316,0.7619990719208344,0.23980699488190804,-0.7894110248499199,-0.12487591680598283,0.6060160756512749,1.010966654322119,1,left
7.273,0.17704422052437618,0.9454028637546449,-0.03345138635033203,0.7505107101871232,0.2168945490450458,-0.7821603329297938,-0.12601385863129175,0.6099691464045358,0.9998584716310622,1,left
7.275,0.1778936491820315,0.9456157467560861,-0.03199640911560706,0.7386395595843799,0.19508376422495377,-0.7741761705201418,-0.12714040426751583,0.6134990625734421,0.9889390385270377,1,left
7.277,0.17876735303667327,0.9458217657535496,-0.030601547291592767,0.7264063559446522,0.1743583455849179,-0.7654832815899458,-0.12825533287387894,0.6166137394096274,0.9782110186172769,1,left
7.278,0.1796635467761713,0.9460200435699773,-0.029267206192763517,0.7138320371556088,0.15470100417081725,-0.7561073403437882,-0.12935844236454297,0.6193212872043817,0.9676767118102292,1,left
7.2829999999999995,0.18058043709817637,0.9462097513375545,-0.027993722904859106,0.700937683963502,0.13609351973722775,-0.7460748923345789,-0.13044955120879362,0.6216299965613764,0.9573380682595369,1,left
7.284,0.1815162276919281,0.9463901097113824,-0.02678136624224246,0.6877444616731423,0.11851680334531343,-0.7354132910364197,-0.1315285001519329,0.6235483240302182,0.9471967024928766,1,left
7.285,0.18246912356780684,0.9465603901195879,-0.0256303366998226,0.6742735627088092,0.10195095967599617,-0.7241506298507285,-0.1325951538540414,0.6250848781120245,0.9372539076918778,1,left
7.287000000000001,0.18343733475946972,0.9467199160477437,-0.02454076642056357,0.6605461499991003,0.08637534900490816,-0.7123156695168599,-0.13364940243472972,0.6262484056521516,0.9275106700846041,1,left
7.287999999999999,0.18441907942735633,0.9468680643544297,-0.023512719195242067,0.6465833011478648,0.07176864878859135,-0.6999377608966545,-0.13469116290695926,0.6270477786369177,0.9179676834097051,1,left
7.292999999999999,0.18541258640046124,0.9470042666127013,-0.02254619051163363,0.6324059533525676,0.058108914814309846,-0.6870467631006272,-0.1357203804879812,0.6274919814072388,0.9086253634148587,1,left
7.294,0.18641609720219646,0.9471280104708321,-0.021641107672310537,0.6180348490699527,0.04537364185195138,-0.6736729570687063,-0.13673702978441699,0.6275900982959282,0.8994838623579863,1,left
7.295,0.18742786760847824,0.9472388410255477,-0.020797329999329407,0.6034904826244853,0.033539823665607184,-0.6598469554511338,-0.1377411158534714,0.6273513016915458,0.8905430834832413,1,left
7.297000000000001,0.1884461687818019,0.947336362201373,-0.020014649141305022,0.5887930483077556,0.022584012094536157,-0.6455996109553175,-0.13873267514323526,0.6267848405300892,0.8818026954449302,1,left
7.297999999999999,0.18946928802350493,0.9474202381296952,-0.0192927894983862,0.5739623907127563,0.012482374832205058,-0.6309619260572943,-0.13971177631499782,0.62590002921483,0.8732621466531081,1,left
7.303,0.19049552919388796,0.9474901945197044,-0.01863140878488773,0.5590179578501643,0.0032107516183538898,-0.6159649662409091,-0.1406785209504539,0.6247062369636298,0.8649206795151617,1,left
7.303,0.1915232128606329,0.9475460200106419,-0.018030098753592367,0.5439787572399881,-0.005255291287840085,-0.6006397776049508,-0.14163304414665415,0.6232128775821263,0.8567773445482701,1,left
7.307,0.1925506762425564,0.9475875674928768,-0.017488386105126076,0.5288633149752823,-0.012940408399304671,-0.5850173089431125,-0.14257551500151125,0.6214293996602699,0.848831014338207,1,left
7.309,0.19357627301775082,0.9476147553862272,-0.017005733598980857,0.5136896377150338,-0.019869424084008956,-0.5691283382537615,-0.14350613699263987,0.6193652771888014,0.84108039732052,1,left
7.312,0.19459837306405844,0.9476275688673478,-0.016581541371521902,0.49847517756305887,-0.026067283463667178,-0.5530034036355592,-0.14442514825227246,0.6170300005914002,0.8335240513606907,1,left
7.313,0.19561536219527,0.9476260610419343,-0.016215148453779527,0.4832367997895252,-0.03155900515034099,-0.5366727385241195,-0.14533282174095916,0.6144330681674002,0.8261603971104445,1,left
7.317,0.1966256419490558,0.9476103540601805,-0.0159058344711063,0.4679907533515488,-0.0363696358408991,-0.5201662112241251,-0.14622946532272538,0.6115839779391649,0.8189877311179421,1,left
7.318,0.1976276294746006,0.9475806401754441,-0.015652821499873622,0.45275264416919325,-0.04052420678719287,-0.5035132686906456,-0.147115421744328,0.6084922198974336,0.812004238670142,1,left
7.321000000000001,0.19861975756035932,0.9475371827476291,-0.015455276053019756,0.43753741111313105,-0.044047692157778214,-0.48674288451280656,-0.14799106852121835,0.605167268637197,0.8052080063461772,1,left
7.322,0.19960047483402993,0.9474803171941685,-0.015312311164934983,0.42235930466020283,-0.046964969305057225,-0.4698835110524559,-0.1488568177327883,0.6016185763759409,0.7985970342611344,1,left
7.327000000000001,0.20056824615631494,0.9474104518920305,-0.015222988546789006,0.4072318681731313,-0.04930078094982837,-0.45296303569004887,-0.14971311572944587,0.5978555663453935,0.7921692479801737,1,left
7.329,0.2015215532183513,0.9473280690342616,-0.015186320787654048,0.39216792176071186,-0.05107969929342083,-0.43600874112963683,-0.15056044275403588,0.5938876265472476,0.7859225100834569,1,left
7.332000000000001,0.20245889534207687,0.9472337254434204,-0.015201273585695686,0.3771795486749062,-0.052326092065846826,-0.4190472697145875,-0.15139931248009464,0.5897241038626816,0.7798546313628916,1,left
7.332000000000001,0.20337879047318136,0.9471280533408747,-0.015266768005227225,0.3622780842014093,-0.05306409051673515,-0.4021045917054874,-0.15223027146939905,0.5853742985048914,0.7739633816322189,1,left
7.337000000000001,0.2042797763457077,0.9470117610675849,-0.01538168276491083,0.347474107000441,-0.05331755935420854,-0.3852059774715783,-0.15305389855124532,0.5808474588032518,0.7682465001324974,1,left
7.34,0.20516041178571343,0.9468856337509941,-0.015544856566109912,0.3327774328547294,-0.05311006863533755,-0.36837597354705814,-0.15387080412586895,0.5761527763071697,0.7627017055155427,1,left
7.341,0.20601927811130935,0.9467505339122176,-0.01575509046800178,0.31819711078190027,-0.0524648676103424,-0.35163838250362894,-0.15468162939439348,0.5712993811971508,0.7573267053883985,1,left
7.3420000000000005,0.20685498058069227,0.9466074020058891,-0.016011150310020525,0.30374142146876665,-0.05140486052132165,-0.3350162465907995,-0.155487045517676,0.5662963379900974,0.7521192054024085,1,left
7.346,0.20766614983900666,0.9464572568825438,-0.016311769175848135,0.28941787798531765,-0.04995258435496178,-0.3185318350956459,-0.15628775270639753,0.5611526415253668,0.7470769178709568,1,left
7.347,0.20845144331765064,0.946301196160953,-0.016655649888697072,0.27523322873653955,-0.0481301885474235,-0.30220663537399706,-0.15708447924472854,0.5558772132176726,0.7421975699004293,1,left
7.351,0.20920954654510765,0.9461403964951736,-0.01704146752497619,0.2611934626105575,-0.04595941663840812,-0.2860613475053417,-0.15787798044988535,0.5504788975624706,0.7374789110194331,1,left
7.352,0.2099391743362931,0.9459761137196551,-0.017467871931849656,0.24730381628196474,-0.043461589870279996,-0.27011588252414853,-0.15866903757070494,0.5449664588790804,0.7329187202982151,1,left
7.353,0.21063907183642314,0.9458096828573901,-0.017933490234372094,0.23356878362960412,-0.040657592727056185,-0.25438936418074604,-0.15945845663248395,0.5393485782764315,0.728514812982852,1,left
7.356,0.21130801540348232,0.9456425179798782,-0.01843692931993813,0.21999212722847988,-0.03756786040707354,-0.23890013418542297,-0.1602470672427518,0.5336338508260133,0.7242650467271341,1,left
7.357,0.21194481331882978,0.9454761119107308,-0.0189767782893825,0.2065768918759088,-0.03421236822220253,-0.22366576088998485,-0.16103572137677039,0.5278307829263011,0.7201673275376826,1,left
7.36,0.21254830631799512,0.9453120357660995,-0.019551610864408268,0.19332542011246123,-0.030610622915596603,-0.208703051361627,-0.16182529215741856,0.5219477898426059,0.71621961551613,1,left
7.361000000000001,0.21311736793531527,0.9451519383260336,-0.020159987742834975,0.18023936966969573,-0.026781655857378187,-0.19402806674896161,-0.1626166726366845,0.5159931934059758,0.71241993042474,1,left
7.362,0.21365090465914913,0.9449975452323097,-0.02080045889761276,0.1673197326321466,-0.022744017918066784,-0.17965614056224657,-0.16341077458185865,0.5099752198545011,0.7087663570701275,1,left
7.365,0.2141478558984047,0.944850658010408,-0.02147156581997134,0.15456685584048338,-0.018515775532951226,-0.16560189898930505,-0.16420852726869814,0.5039019978001407,0.7052570504937299,1,left
7.365,0.2146071937642379,0.9447131529161318,-0.022171843709040993,0.14198046191822847,-0.014114507311123393,-0.15187928209092913,-0.16501087628383737,0.49778155630398213,0.7018902409581136,1,left
7.371,0.21502792267350238,0.9445869796100359,-0.02289982360987653,0.12955967044990202,-0.009557300701121076,-0.13850156499895167,-0.16581878233872874,0.4916218230426641,0.6986642387186127,1,left
7.372000000000001,0.21540907878419213,0.9444741596644665,-0.023654034499964203,0.11730301909995078,-0.004860748510474301,-0.12548137874241694,-0.16663322009740655,0.4854306225485318,0.695577438570218,1,left
7.376,0.21574972927773636,0.9443767849089486,-0.02443300532148456,0.1052084846073008,-4.0945234782130154e-05,-0.11283073060675373,-0.16745517702038168,0.47921567450596053,0.6926283241600373,1,left
7.377000000000001,0.21604897150816937,0.944297015620094,-0.025235266953223104,0.09327350361984908,0.004886516816735975,-0.10056102398754711,-0.1682856522269898,0.4729845920861686,0.6898154720560591,1,left
7.38,0.2163059320437544,0.9442370785609359,-0.026059354113506045,0.08149499333367954,0.009906551612671484,-0.08868307770153137,-0.16912565537853472,0.46674488030275063,0.6871375555633469,1,left
7.381,0.21651976563195885,0.9441992648713228,-0.026903807186008977,0.0698693719022539,0.015004583721653227,-0.07720714471848682,-0.16997620558459048,0.4605039343700942,0.6845933482791899,1,left
7.385,0.21668965412272584,0.9441859278078132,-0.02776717396370184,0.05839257858128428,0.020166552879491723,-0.06614293027881617,-0.17083833033485038,0.454269038046795,0.6821817273791271,1,left
7.386,0.21681480538738782,0.9441994803307724,-0.02864801130970801,0.047060093575443725,0.025378918815631247,-0.05549960936270029,-0.1717130644589377,0.448047361946162,0.6799016766261478,1,left
7.39,0.2168944522710365,0.944242392538179,-0.029544886734443446,0.035866957553508355,0.03062866635352456,-0.04528584347788707,-0.17260144911662403,0.441845961795899,0.6777522890957592,1,left
7.39,0.21692785161343395,0.9443171889480381,-0.030456379885013495,0.02480779079895172,0.035903310799730206,-0.035509796734348564,-0.17350453082093406,0.43567177662906764,0.6757327696099885,1,left
7.395,0.21691428336730328,0.9444264456323358,-0.031381083937620916,0.013876811963425446,0.04119090363667798,-0.0261791511752498,-0.17442336049665183,0.4295316268884736,0.6738424368737694,1,left
7.396,0.21685304983483353,0.9445727872047064,-0.03231760688142386,0.003067856390959732,0.04648003853415684,-0.01730112133490519,-0.17535899257678314,0.4234322124266762,0.6720807253075374,1,left
7.399,0.21674347503505204,0.9447588836624592,-0.033264572686265516,-0.007625606018898793,0.05175985769465216,-0.008882467995655353,-0.17631248413957032,0.41738011038389805,0.6704471865702275,1,left
7.4,0.21658490420703833,0.9449874470825292,-0.034220622355061535,-0.018210453440426946,0.057020058547697636,-0.0009295111168752855,-0.17728489408870116,0.41138177292621225,0.6689414907672467,1,left
7.404,0.21637670344761642,0.9452612281704961,-0.03518441486816497,-0.028693895274607886,0.062250900808412606,0.0065518580893756916,-0.17827728237940244,0.40544352482649776,0.6675634273383565,1,left
7.405,0.21611825947795357,0.945583012661235,-0.03615462802689241,-0.03908345585629132,0.06744321391537031,0.013556165960233138,-0.17929070929315918,0.3995715608707907,0.6663129056207735,1,left
7.409,0.2158089795320729,0.9459556175676798,-0.03712995919771601,-0.04938695874605398,0.0725884048628871,0.020078346084269887,-0.18032623476385576,0.3937719430728149,0.6651899550831617,1,left
7.41,0.2154482913619945,0.946381887270087,-0.03810912595338761,-0.059612511636892705,0.07767846644273965,0.026113729925581818,-0.18138491775819132,0.3880505976796445,0.6641947252265569,1,left
7.415,0.21503564335759856,0.9468646894338184,-0.03909086660717681,-0.06976849190561345,0.08270598591020788,0.03165803838982761,-0.18246781571328388,0.3824133119516445,0.6633274851486322,1,left
7.416,0.21457050478167644,0.9474069107415776,-0.04007394063992453,-0.07986353283853283,0.08766415408920714,0.03670737435094882,-0.18357598403443953,0.37686573070004,0.6625886227680783,1,left
7.419,0.2140523661205957,0.9480114524272875,-0.04105712902158692,-0.08990651056088564,0.09254677493111597,0.041258216155899245,-0.18471047565469895,0.37141335257596136,0.6619786437102837,1,left
7.42,0.21348073954936558,0.9486812256024203,-0.04203923442759587,-0.09990653169913229,0.09734827554172756,0.04530741212330234,-0.18587234065068284,0.3660615261564032,0.661498169876091,1,left
7.42,0.21285515950865708,0.9494191463699233,-0.04301908134837357,-0.10987292180518561,0.102063716690555,0.04885217605053461,-0.18706262589644387,0.36081544596522275,0.6611479377521707,1,left
7.4239999999999995,0.21217518339139865,0.9502281307251912,-0.04399551608905487,-0.11981521457142749,0.1066888038165048,0.05189008374230153,-0.1882823747299489,0.355680148618926,0.6609287965421491,1,left
7.425,0.2114403923370227,0.9511110892484503,-0.04496740665453394,-0.12974314186526287,0.11121989854370164,0.05441907057233218,-0.1895326266140537,0.35066050923592873,0.6608417061777726,1,left
7.428,0.2106503921321877,0.9520709215986525,-0.04593364251404709,-0.13966662461186236,0.11565403072100101,0.056437430088370606,-0.19081441678679975,0.34576123815585313,0.660887735233373,1,left
7.428999999999999,0.20980481421911928,0.9531105108241532,-0.04689313424403693,-0.14959576455367593,0.11998891099846898,0.05794381366918649,-0.19212877590310817,0.3409868779643878,0.6610680587470475,1,left
7.43,0.20890331681613342,0.9542327175084587,-0.04784481305711895,-0.15954083689437396,0.12422294392764746,0.05893723121429829,-0.19347672967146443,0.33634180080930215,0.6613839559483085,1,left
7.435,0.2079455861566442,0.9554403737695929,-0.04878763023191318,-0.16951228373043023,0.12835524144119123,0.05941705271279443,-0.1948592984892783,0.33183020599354945,0.6618368078923349,1,left
7.436,0.20693133785121126,0.9567362771293799,-0.04972055645971415,-0.1795207079856087,0.13238563633145706,0.05938301029705332,-0.1962774970806968,0.3274561178317532,0.6624280950013487,1,left
7.439,0.20586031837384222,0.9581231842657436,-0.050642581122297844,-0.18957686745923183,0.13631469521638162,0.05883520025284871,-0.19773233414074504,0.32322338375674176,0.6631593945140243,1,left
7.441,0.20473230667217776,0.9596038046588429,-0.05155271151337532,-0.19969166870361382,0.14014373061164975,0.05777408458869389,-0.1992248119897687,0.3191356726631788,0.6640323778442373,1,left
7.444,0.20354711590128843,0.9611807941400629,-0.052449972013548084,-0.20987616063411973,0.14387481196358512,0.05620049200491713,-0.20075592624225452,0.31519647347573304,0.6650488078508535,1,left
7.445,0.20230459528001737,0.9628567483503429,-0.05333340322490844,-0.22014152787987648,0.1475107756278622,0.05411561823432755,-0.20232666549421008,0.31140909392963495,0.6662105360206632,1,left
7.4479999999999995,0.20100463206670402,0.9646341961116351,-0.054202061068588624,-0.23049908390421703,0.15105523380504338,0.05152102575142484,-0.20393801103339315,0.30777665955188577,0.6675194995669705,1,left
7.449,0.1996471536494699,0.9665155927140503,-0.05505501584836384,-0.240960263924139,0.15451258244366636,0.048418642845634845,-0.20559093657679028,0.3043021128318088,0.6689777184467651,1,left
7.454,0.19823212974578225,0.9685033131221564,-0.05589135128633726,-0.2515366176582919,0.1578880081213343,0.04481076205258515,-0.2072864080398597,0.30098821257007013,0.6705872922998143,1,left
7.455,0.1967595747057113,0.9705996451059721,-0.05671016354127987,-0.26223980193327195,0.16118749391400042,0.04070003793597129,-0.20902538334216966,0.2978375333957404,0.672350397313442,1,left
7.459,0.19522954991189803,0.9728067823044407,-0.057510560223416364,-0.2730815731783016,0.1644178242633908,0.03608948421110605,-0.21080881225418224,0.294852465441421,0.6742692830171889,1,left
7.459,0.19364216626652536,0.9751268172319408,-0.058291659419598046,-0.2840737798387019,0.16758658885227445,0.030982470199793256,-0.2126376362900556,0.2920352141669221,0.676346269011979,1,left
7.462999999999999,0.19199758675213882,0.977561734241287,-0.059052588740657073,-0.2952283547389305,0.17070218549707405,0.02538271660472346,-0.2145127886514625,0.2893878003224443,0.6785837416388675,1,left
7.4639999999999995,0.19029602904991907,0.9801134024584696,-0.05979248440045283,-0.30655730742635634,0.17377382206711345,0.019294290590153806,-0.21643519422755,0.2869120600426957,0.6809841505928825,1,left
7.468,0.18853776819711163,0.9827835687052261,-0.06051049033531153,-0.3180727165273744,0.17681151743962314,0.012721600154209192,-0.21840576965629652,0.2846096450638536,0.6835500054879359,1,left
7.468999999999999,0.18672313926562056,0.9855738504264403,-0.06120575737298701,-0.32978672214793014,0.17982610149947406,0.005669387776726713,-0.2204254234526546,0.2824820230557708,0.6862838723792335,1,left
7.473,0.1848525400458286,0.9884857286404124,-0.06187744246087032,-0.34171151835102553,0.18282921419248468,-0.001857276674837457,-0.22249505620900425,0.2805304780623171,0.6891883702500886,1,left
7.474,0.1829264337219698,0.9915205409308712,-0.06252470796355246,-0.3538593457443128,0.1858333036410518,-0.009853003800310157,-0.22461556087357995,0.2787561110432454,0.6922661674705123,1,left
7.477,0.18094535152748273,0.9946794745000781,-0.06314672103949671,-0.3662424842114537,0.18885162333079,-0.018312093302760502,-0.22678782311267462,0.2771598405114723,0.6955199782354418,1,left
7.478,0.17890989537189683,0.9979635593024304,-0.06374265310438147,-0.3788732458215271,0.19189822837683382,-0.027228543427126797,-0.2290127217625684,0.275742403260171,0.6989525589909567,1,left
7.482,0.1768207404352947,1.0013736612774373,-0.06431167938465002,-0.3917639679514092,0.19498797087846073,-0.03659606122446845,-0.23129112937727558,0.2745043551745792,0.70256670485733,1,left
7.484,0.17467863773122827,1.0049104756998,-0.06485297856080355,-0.40492700665672665,0.19813649437073663,-0.046408073666130645,-0.23362391287835205,0.2734460721239394,0.7063652460582663,1,left
7.489,0.1724844166427192,1.008574520662423,-0.06536573249736714,-0.418374730327693,0.20136022738196746,-0.05665773963342279,-0.23601193430817424,0.272567750927628,0.7103510443602935,1,left
7.49,0.17023898743695542,1.0123661307056486,-0.06584912605499431,-0.4321195136668875,0.20467637610586698,-0.06733796280970705,-0.23845605166334247,0.2718694103806882,0.7145269894972788,1,left
7.49,0.16794334376204786,1.0162854506039956,-0.06630234697940451,-0.44617373202681637,0.20810291619752072,-0.0784414055030694,-0.24095711974017547,0.2713508923076483,0.7188959955024504,1,left
7.494,0.16559856512592458,1.0203324293211062,-0.06672458586125922,-0.4605497561459157,0.21165858370244434,-0.08996050342900261,-0.24351599089951123,0.27101186260467003,0.7234609968413306,1,left
7.495,0.16320581935580186,1.0245068141437967,-0.0671150361604408,-0.4752599473225062,0.21536286512830125,-0.10188748148376675,-0.24613351568309993,0.2708518122399408,0.7282249442690419,1,left
7.497999999999999,0.16076636503698585,1.0288081450062052,-0.06747289428864632,-0.49031665306710237,0.21923598666916366,-0.11421437054030809,-0.24881054325888233,0.27087005819959126,0.7331908003891309,1,left
7.497999999999999,0.1582815539300347,1.0332357490148392,-0.06779735974618385,-0.5057322032458024,0.2232989025747445,-0.1269330252580351,-0.25154792169752394,0.27106574437629,0.7383615349211246,1,left
7.499,0.1557528333637553,1.0377887351850519,-0.06808763531045549,-0.5215189065854618,0.22757328256831158,-0.14003514269004275,-0.2543464980877258,0.27143784240005503,0.7437401196905142,1,left
7.501,0.1531817485981785,1.0424659893995447,-0.06834292727283514,-0.5376890471549738,0.2320814980570225,-0.1535122810965414,-0.2572071184980046,0.271985152411332,0.7493295233554365,1,left
7.502000000000001,0.15056994514786454,1.0472661695997088,-0.06856244571750143,-0.5542548802950233,0.2368466067898202,-0.1673558781654938,-0.260130627792807,0.2727063037768995,0.7551327058849131,1,left
7.507999999999999,0.14791917105336208,1.0521877012204779,-0.068745404832011,-0.5712286276127369,0.24189233570778304,-0.18155726805144282,-0.26311786931100034,0.2735997557496674,0.7611526128041072,1,left
7.5089999999999995,0.14523127908822295,1.057228772879154,-0.06889102323661325,-0.5886224709161213,0.24724306189295678,-0.19610769702057318,-0.2661696844149591,0.27466379807393815,0.7673921692226592,1,left
7.5120000000000005,0.14250822888943177,1.0623873323289226,-0.06899852431802886,-0.6064485451073126,0.2529237916115796,-0.21099833769998136,-0.2692869119186468,0.27589655153819853,0.7738542736627791,1,left
7.513,0.13975208899922748,1.0676610826882096,-0.06906713655476761,-0.6247189300834196,0.25896013746624674,-0.22622030197193185,-0.27247038740327784,0.27729596847800586,0.7805417917043957,1,left
7.516,0.13696503880622712,1.0730474789572988,-0.06909609382643957,-0.6434456416949591,0.2653782936724416,-0.24176465255487997,-0.2757209424293271,0.2788598332320205,0.787457549465293,1,left
7.517,0.13414937037287653,1.0785437248339869,-0.06908463570758228,-0.6626406218131151,0.2722050094758056,-0.25762241331401925,-0.27903940365384455,0.28058576255472173,0.7946043269348047,1,left
7.522,0.13130749013345971,1.084146769840559,-0.06903200775374461,-0.6823157275583367,0.2794675607275461,-0.27378457834506276,-0.2824265918622219,0.28247120598982256,0.8019848511802836,1,left
7.522,0.1284419204433092,1.0898533067743132,-0.06893746179110373,-0.7024827197440956,0.2871937196364762,-0.2902421198758935,-0.28588332092375085,0.2845134462088716,0.8096017894462196,1,left
7.526,0.12555530095744352,1.0956597694927548,-0.0688002562202006,-0.7231532505909711,0.29541172271735733,-0.30698599503161966,-0.2894103966805082,0.2867095993199932,0.8174577421665413,1,left
7.527,0.12265038981612283,1.1015623310425278,-0.06861965634200823,-0.7443388507676099,0.3041502369564667,-0.32400715150944565,-0.29300861577929965,0.28905661515217695,0.8255552359113121,1,left
7.5329999999999995,0.11973006461587322,1.1075569021385967,-0.06839493471454289,-0.766050915816519,0.3134383242166472,-0.34129653221061623,-0.2966787644565941,0.2915512775209781,0.8338967162897052,1,left
7.5329999999999995,0.11679732314739145,1.1136391299979036,-0.06812537155186754,-0.7883006920240998,0.32330540390550855,-0.3588450788775158,-0.3004216172865833,0.2941902044819296,0.8424845408318329,1,left
7.537000000000001,0.11385528388501148,1.1198043975317422,-0.06781025518126549,-0.8110992617958055,0.3337812139319461,-0.3766437347848009,-0.3042379359027044,0.2969698485784028,0.8513209718726966,1,left
7.537000000000001,0.11090718621462783,1.126047822904716,-0.06744888257417254,-0.8344575285988202,0.34489576997772275,-0.39468344653421317,-0.3081284677031716,0.2998864970910744,0.8604081694622245,1,left
7.541,0.10795639038838092,1.1323642594739596,-0.06704055996166798,-0.8583862015362024,0.3566793231125232,-0.4129551650034663,-0.31209394455126876,0.3029362722965749,0.8697481843260741,1,left
7.542000000000001,0.10500637719614243,1.1387482961273598,-0.06658460354004966,-0.8828957796180096,0.3691623157826402,-0.4314498455003182,-0.31613508148137004,0.30611513174329374,0.8793429509025874,1,left
7.546,0.10206074734733177,1.1451942580419554,-0.06608034027087173,-0.9079965357965278,0.3823753362052861,-0.4501584471736314,-0.32025257542186525,0.3094188685527132,0.8891942804820099,1,left
7.546,0.0991232205634999,1.1516962078834432,-0.06552710878357515,-0.933698500834373,0.39634907120244733,-0.46907193173389344,-0.3244471039463838,0.3128431117550223,0.8993038544748072,1,left
7.551,0.09619763439180988,1.1582479474657188,-0.06492426039433812,-0.9600114470758927,0.41111425751020725,-0.4881812615363065,-0.32871932406492743,0.31638332666813374,0.9096732178366481,1,left
7.5520000000000005,0.09328794275787886,1.1648430198864592,-0.06427116025804137,-0.9869448721939981,0.4267016316015609,-0.5074773970801733,-0.3330698710667418,0.320034815329587,0.9203037726783553,1,left
7.557,0.09039821427959775,1.1714747121517515,-0.06356718866905699,-1.0145079829862826,0.44314187806293137,-0.5269512939788913,-0.3374993574216685,0.3237927169908388,0.9311967720789835,1,left
7.558,0.08753263036105723,1.1781360583013394,-0.06281174252189313,-1.0427096792960378,0.4604655765668699,-0.5465938994554332,-0.3420083717203908,0.32765200868216376,0.9423533140664769,1,left
7.558,0.0846954830797397,1.184819843046379,-0.06200423693756925,-1.0715585381355583,0.4787031474857838,-0.5663961484187262,-0.3465974775864214,0.33160750585379645,0.9537743356331052,1,left
7.561,0.08189117287435455,1.1915186059312979,-0.06114410705721258,-1.1010627980909384,0.4978847961939877,-0.5863489591768539,-0.35126721246635767,0.3356538630976351,0.9654606065991868,1,left
7.562,0.07912420603713234,1.198224646028967,-0.060230809999461156,-1.1312303440893914,0.5180404561079087,-0.6064432288434898,-0.3560180862317062,0.3397855749557359,0.9774127231938071,1,left
7.565,0.0763991920113159,1.2049300271757182,-0.05926382697282141,-1.1620686925752246,0.5391997305208983,-0.6266698284884137,-0.3608505795736023,0.3439969768250093,0.9896311013200065,1,left
7.566,0.07372084049063149,1.211626583752379,-0.05824266553097894,-1.1935849769586746,0.5613918333117868,-0.6470195980533228,-0.36576514219852907,0.34828224596940766,1.0021159695271218,1,left
7.567,0.07109395831414352,1.2183059270197292,-0.057166861959702685,-1.2257859328728478,0.5846455286450717,-0.6674833410004208,-0.3707621908386864,0.35263540265146204,1.0148673617246171,1,left
7.571000000000001,0.06852344614775426,1.2249594520191585,-0.05603598378619415,-1.258677882592135,0.6089890698034841,-0.6880518186315759,-0.3758421070908921,0.35705031139525306,1.027885109672506,1,left
7.572,0.06601429494159933,1.23157834505003,-0.05484963240303222,-1.2922667181512195,0.6344501372766709,-0.7087157440462643,-0.38100523509813483,0.3615206823931132,1.0411688352842279,1,left
7.5760000000000005,0.06357158215098214,1.2381535917353086,-0.053607445799110885,-1.326557883036629,0.6610557761968248,-0.7294657757609783,-0.3862518790881347,0.366040073068554,1.0547179427786137,1,left
7.577000000000001,0.06120046770852726,1.244675985687277,-0.05230910138959386,-1.361556352508568,0.6888323331952487,-0.7502925110431524,-0.39158230078350625,0.37060188980808645,1.0685316107183316,1,left
7.581,0.05890618973634252,1.251136137784747,-0.050954318935529805,-1.3972666126495368,0.7178053927530564,-0.7711864790189488,-0.3969967166983554,0.3751993898747623,1.0826087839729766,1,left
7.582000000000001,0.05669405998836068,1.2575244860715686,-0.04954286354123696,-1.4336926382382538,0.7479997131224964,-0.79213813361449,-0.4024952953363844,0.3798256835164071,1.0969481656457225,1,left
7.584,0.05456945901535078,1.2638313062837776,-0.04807454871426284,-1.4708378695494373,0.7794391618987492,-0.8131378463903514,-0.408078154305817,0.38447373628163317,1.1115482090032176,1,left
7.585,0.052537831048129556,1.2700467230093562,-0.04654923946917812,-1.5087051881820353,0.8121466513254834,-0.8341758993293106,-0.4137453573666999,0.38913637155682645,1.1264071094491614,1,left
7.59,0.05060467859644069,1.276160721480477,-0.04496685545434855,-1.5472968920205585,0.8461440734209611,-0.8552424776375274,-0.41949691142637474,0.39380627333738133,1.1415227965827528,1,left
7.59,0.04877555676011658,1.2821631599943109,-0.04332737408252382,-1.5866146694362273,0.8814522350150604,-0.8763276626194548,-0.42533276349916105,0.3984759892465218,1.1568929263839467,1,left
7.595,0.04705606724470996,1.2880437829564129,-0.041630833650999885,-1.626659572836723,0.9180907927912213,-0.8974214246869002,-0.4312527976465279,0.40313793381508584,1.1725148735682014,1,left
7.596,0.04545185206725143,1.2937922345403403,-0.039877336439887404,-1.6674319916754068,0.9560781884310248,-0.9185136165627313,-0.4372568319142793,0.4077843920356744,1.1883857241541347,1,left
7.6,0.04396858693303405,1.2993980729578472,-0.038067051773021734,-1.708931625032963,0.9954315839628803,-0.9395939667397806,-0.4433446152835166,0.4124075232045618,1.2045022682882371,1,left
7.601,0.04261197426370744,1.3048507853354778,-0.03620021901889757,-1.7511574538865045,1.0361667974201123,-0.9606520732555197,-0.44951582465238465,0.4169993650647443,1.220860993371513,1,left
7.604,0.041387735858955825,1.3101398031941336,-0.03427715050657616,-1.7941077131832635,1.0782982389176106,-0.9816773978430764,-0.45577006186584834,0.4215518382634579,1.2374580775336366,1,left
7.605,0.040301605176101055,1.3152545185256344,-0.032298234334214186,-1.8377798638380876,1.121838847260132,-1.0026592605191282,-0.4621068508109891,0.42605675113742947,1.2542893835009137,1,left
7.61,0.039359319213659885,1.320184300453934,-0.03026393704911477,-1.8821705647760423,1.1668000271993033,-1.0235868346691461,-0.46852563459554747,0.4305058048390342,1.271350452905034,1,left
7.61,0.03856660998716807,1.3249185124603087,-0.02817480617505943,-1.9272756451434918,1.2131915874603885,-1.0444491426903633,-0.4750257728276765,0.4348905988164204,1.2886365010802843,1,left
7.6160000000000005,0.03792919558859305,1.3294465301428324,-0.0260314725579275,-1.973090076813119,1.2610216796639218,-1.0652350522527232,-0.48160653901511147,0.43920263666052495,1.3061424123975685,1,left
7.617000000000001,0.03745277082351654,1.3337577594708243,-0.023834652497079653,-2.019607947310389,1.310296738271394,-1.0859332732379003,-0.4882671181021916,0.4434333323317424,1.32386273618423,1,left
7.62,0.037142997422776367,1.3378416554849832,-0.021585149628972077,-2.0668224332910263,1.3610214216882752,-1.1065323554163036,-0.49500660416340614,0.4475740167788258,1.3417916832793262,1,left
7.62,0.037005493828117506,1.3416877413850252,-0.01928385653209521,-2.1147257747011037,1.413198554661794,-1.127020686921749,-0.5018239982723682,0.45161594496238733,1.359923123274637,1,left
7.624,0.03704582455458073,1.3452856279417693,-0.01693175602821918,-2.16330924975336,1.4668290721150363,-1.1473864935832385,-0.5087182065578298,0.45555030329289997,1.3782505824739208,1,left
7.626,0.03726948913461313,1.3486250331736642,-0.01452992216171197,-2.21256315085537,1.5219119645630885,-1.167617839172995,-0.5156880384209855,0.4593682174816625,1.3967672425116862,1,left
7.626,0.03768191065012935,1.3516958022370882,-0.012079520845078653,-2.262476761627154,1.5784442252611182,-1.1877026266295843,-0.5227322048208692,0.46306076078279157,1.4154659394079643,1,left
7.631,0.03828842386170475,1.3544879274840596,-0.009581810165578509,-2.313038335147779,1.6364207992384552,-1.2076286003146082,-0.5298493164972787,0.4666189625928163,1.434339162744283,1,left
7.632000000000001,0.03909426295107647,1.3569915686335972,-0.007038140355004454,-2.3642350735724147,1.6958345343769066,-1.2273833493610569,-0.537037882038469,0.4700338173852946,1.4533790547384335,1,left
7.635,0.04010454890193854,1.359197072994845,-0.00444995343071043,-2.416053109228071,1.756676134673316,-1.2469543121544309,-0.5442963057687368,0.47329629397762574,1.472577409161504,1,left
7.636,0.04132427654958371,1.3610949956848826,-0.0018187825181976548,-2.4684774871223185,1.81893411571862,-1.266328781904472,-0.5516228854688201,0.4763973451380289,1.491925670133004,1,left
7.636,0.042758301330988534,1.362676119798746,0.0008537491359481588,-2.5214921484847923,1.882594762228356,-1.2854939131157763,-0.5590158099497612,0.479327917542476,1.5114149308487626,1,left
7.641,0.044411325768786494,1.3639314764996981,0.003565929453361,-2.575079914787282,1.9476420873517712,-1.3044367286822227,-0.5664731565010791,0.4820789620909325,1.5310359322967313,1,left
7.642,0.046287885729612045,1.3648523649988968,0.006315959107226737,-2.6292224718657256,2.014057793602645,-1.323144127412402,-0.5739928882342962,0.4846414445917949,1.5507790620162558,1,left
7.644,0.048392336505952975,1.3654303723928203,0.009101953391660655,-2.6839003540854605,2.081821235460394,-1.341602891941695,-0.581572851343053,0.4870063568229248,1.570634352956781,1,left
7.644,0.05072883877537524,1.3656573933299283,0.011921944373197975,-2.739092928668484,2.150909383805897,-1.3597996970688253,-0.5892107723012285,0.48916472797716193,1.5905914824923393,1,left
7.649,0.05330134449070624,1.3655256494824095,0.014773883326678137,-2.79477838033822,2.221296792382794,-1.3777211185706018,-0.5969042550206644,0.49110763649965905,1.6106397716485157,1,left
7.65,0.056113582750712425,1.3650277088010674,0.017655643462718525,-2.8509336964388168,2.2929555664788768,-1.3953536425478466,-0.6046507779902629,0.4928262223238124,1.6307681845989042,1,left
7.654,0.05916904569510413,1.3641565045313457,0.02056502295476659,-2.907534652687495,2.3658553340259796,-1.4126836753547571,-0.6124476914183965,0.49431169951196985,1.6509653284883665,1,left
7.654,0.06247097446278049,1.3629053539663243,0.02349974826960957,-2.96455579971985,2.4399632193205294,-1.429697554163153,-0.6202922144007227,0.4955553693064786,1.6712194536406622,1,left
7.659,0.06602234524863339,1.361267976907284,0.026457477797922634,-3.0219704505893903,2.5152438195705322,-1.4463815582122346,-0.628181432135654,0.4965486335959903,1.691518454208248,1,left
7.66,0.06982585549139055,1.3592385137945595,0.029435805772502332,-3.079750669383844,2.591659184478355,-1.4627219207936102,-0.6361122932098747,0.4972830088012724,1.7118498693222441,1,left
7.662999999999999,0.07388391022263299,1.3568115434628716,0.03243226645169767,-3.1378672611219938,2.6691687990721142,-1.4787048420204325,-0.6440816069764332,0.49775014018408076,1.7322008848007253,1,left
7.664,0.07819860860440873,1.3539821004661141,0.03544433853707519,-3.1962897630959066,2.7477295700018516,-1.4943165024285514,-0.6520860410480684,0.4979418165819268,1.7525583354736232,1,left
7.667999999999999,0.08277173067893366,1.3507456919043768,0.03846944979310283,-3.254986437824492,2.8272958155199346,-1.5095430774565861,-0.6601221189285442,0.49784998557083315,1.772908708182618,1,left
7.669,0.08760472434946605,1.3470983136700803,0.04150498184608847,-3.3139242677852674,2.907819259368248,-1.524370752850809,-0.6681862178048801,0.4974667690573999,1.793238145514456,1,left
7.672000000000001,0.09269869260882463,1.343036466011547,0.044548275159605945,-3.373068952092105,2.9892490287977664,-1.538785741039657,-0.676274566523465,0.4967844793007164,1.8135324503261432,1,left
7.672999999999999,0.09805438103521723,1.338557168292875,0.04759663421107717,-3.4323849052874986,3.0715316569489697,-1.5527742985215789,-0.6843832437731315,0.49579563536383664,1.8337770911204503,1,left
7.6770000000000005,0.1036721655888862,1.3336579728118902,0.050647332920678655,-3.491835258418596,3.1546110898243263,-1.5663227443087926,-0.692508176498349,0.49449297999370184,1.853957208330096,1,left
7.678,0.10955204076898889,1.3283369775272849,0.05369762039646117,-3.5513818625668243,3.238428698086638,-1.5794174794683244,-0.7006451385657616,0.4928694969275331,1.8740576215688776,1,left
7.682,0.11569360822400464,1.3225928375447908,0.056744727049252916,-3.6109852950014294,3.3229232939195215,-1.5920450078004944,-0.708789749707359,0.4909184286228391,1.8940628379078768,1,left
7.683,0.12209606594412123,1.3164247752218388,0.059785871099421836,-3.6706048681276275,3.408031153188547,-1.6041919576937322,-0.7169374747636075,0.48863329440727926,1.913957061234676,1,left
7.688,0.12875819819469644,1.3098325887698632,0.06281826545624032,-3.7301986414003534,3.4936860431437013,-1.615845105193319,-0.7250836232499118,0.4860079090437069,1.9337242027532993,1,left
7.688,0.13567836637161604,1.3028166592607433,0.06583912491133286,-3.789723436374736,3.579819255905762,-1.6269913983202964,-0.7332233492697925,0.4830364017047713,1.9533478926823133,1,left
7.693,0.14285450096879498,1.2953779559762995,0.06884567355670745,-3.8491348550644884,3.666359647980929,-1.637617982675414,-0.7413516517981741,0.47971323535050187,1.9728114932081988,1,left
7.694,0.15028409484162286,1.2875180400739923,0.07183515231783189,-3.908387301779307,3.7532336860496414,-1.6477122283615586,-0.7494633753509251,0.47603322648546503,1.992098112718796,1,left
7.695,0.1579641979244164,1.2792390665704299,0.07480482648768016,-3.967434008612192,3.8403654992768517,-1.6572617582566596,-0.7575532110204979,0.4719915651918234,2.0111906211814286,1,left
7.697,0.16589141352033207,1.2705437846622174,0.07775199315685809,-4.026227064747258,3.9276769383922083,-1.6662544776675736,-0.7656156977922031,0.4675838351909303,2.0300716662422644,1,left
7.697,0.17406189624552915,1.2614355364196717,0.08067398843969288,-4.0847174497581555,4.0150876417895605,-1.6746786053939176,-0.7736452240193377,0.46280603360579897,2.04872368946319,1,left
7.702000000000001,0.18247135168471276,1.2519182539105103,0.08356819438808938,-4.142855071007308,4.102515108781652,-1.6825227061809307,-0.7816360289715902,0.45765459017501914,2.067128942271686,1,left
7.702000000000001,0.19111503779506844,1.2419964548247189,0.08643204548641693,-4.200588804958885,4.189874779575142,-1.6897757242972273,-0.7895822044363491,0.45212638581032555,2.08526950148618,1,left
7.702000000000001,0.1999877680726961,1.2316752366667116,0.08926303464708825,-4.257866541683721,4.277080120503073,-1.6964270175367462,-0.7974776963887161,0.44621877046823244,2.1031272844384676,1,left
7.707999999999999,0.2090839164686291,1.2209602695718182,0.09205871865928694,-4.314635231536843,4.364042712480668,-1.7024663907009083,-0.8053163067531685,0.43992958032092855,2.1206840637460327,1,left
7.707999999999999,0.218397424011573,1.2098577878067422,0.09481672306481248,-4.3708409332836435,4.450672341221429,-1.7078841278569266,-0.8130916952796811,0.4332571542105444,2.137921481786341,1,left
7.712000000000001,0.22792180706961293,1.1983745800177081,0.09753474645222523,-4.42642886348325,4.5368770887783505,-1.7126710231014035,-0.8207973815569792,0.42620034936981843,2.1548210649243758,1,left
7.712000000000001,0.2376501671709888,1.1865179782828554,0.10021056418335968,-4.481343447232747,4.622563426545597,-1.71681840979822,-0.8284267471854261,0.4187585563910897,2.171364237543801,1,left
7.7170000000000005,0.24757520230092406,1.1742958460129325,0.10284203159129279,-4.535528370433595,4.707636309969333,-1.7203181883062595,-0.8359730381318674,0.4109317134244469,2.1875323359312384,1,left
7.7170000000000005,0.2576892195896603,1.1617165647366268,0.10542708670792032,-4.588926633739818,4.791999275215134,-1.7231628522107025,-0.843429367288555,0.4027203195847605,2.203306622062162,1,left
7.721,0.26798414930408593,1.1487890198056625,0.10796375258968466,-4.641480608345582,4.875554538037925,-1.7253455130697855,-0.8507887172580527,0.3941254475462189,2.2186682973359027,1,left
7.722,0.2784515600520757,1.135522585058259,0.11045013931296806,-4.693132093767721,4.958203095098643,-1.7268599236870643,-0.8580439433857877,0.3851487553018858,2.2335985163061527,1,left
7.728,0.2890826751039816,1.1219271064867666,0.11288444570768606,-4.743822377776465,5.039844827969761,-1.7277004999173373,-0.8651877770616517,0.37579249706469187,2.248078400452263,1,left
7.729,0.29986838972826424,1.108012884965719,0.11526496089154781,-4.793492298625231,5.120378610069484,-1.7278623410124847,-0.8722128293117797,0.36605953328517316,2.262089052035412,1,left
7.732,0.3107992894277199,1.0937906581088117,0.11759006566281217,-4.842082309727733,5.19970241676184,-1.7273412485115642,-0.8791115947013319,0.3559533397601743,2.275611568082498,1,left
7.733,0.3218656689524142,1.0792715813341442,0.1198582338080749,-4.889532546927885,5.277713438856972,-1.7261337436775697,-0.8858764555687848,0.3454780158056436,2.2886270545393104,1,left
7.737,0.33305755196202125,1.064467208222281,0.12206803338156166,-4.935782898505085,5.354308199742775,-1.7242370834813008,-0.8924996866118967,0.3346382914655678,2.301116640633191,1,left
7.7379999999999995,0.3443647112175657,1.0493894702502424,0.12421812801192016,-4.980773078054309,5.429382676375525,-1.7216492751308463,-0.8989734598451499,0.3234395337280229,2.3130614934839877,1,left
7.7410000000000005,0.3557766891980832,1.0340506559787324,0.12630727829219682,-5.024442700377219,5.5028324243533815,-1.7183690891432033,-0.9052898499480868,0.31188775171825894,2.3244428330006546,1,left
7.742000000000001,0.3672828190573864,1.0184633897621498,0.12833434330514595,-5.066731360517013,5.574552707292582,-1.71439607095258,-0.9114408400235489,0.29998960083768933,2.3352419470993313,1,left
7.747000000000001,0.37887224585721296,1.0026406100429082,0.13029828231926607,-5.10757871606612,5.6444386307217655,-1.7097305510479461,-0.9174183277843994,0.2877523858166281,2.345440207277179,1,left
7.747999999999999,0.39053394803266744,0.9865955472852354,0.13219815665591583,-5.146924572872087,5.71238528070521,-1.7043736536304068,-0.9232141321868577,0.27518406264760337,2.35501908457463,1,left
7.751,0.40225675906098485,0.9703417016007054,0.13403313168420242,-5.184708974262981,5.778287867400768,-1.698327303778986,-0.9288200005280991,0.2622932393650829,2.36396016595703,1,left
7.752000000000001,0.4140293893129413,0.953892820119158,0.13580247886386326,-5.220872293909548,5.842041873753083,-1.6915942331114202,-0.9342276160252718,0.24908917563647423,2.3722451711449293,1,left
7.757000000000001,0.4258404480662466,0.937262874164137,0.1375055777351264,-5.255355332437009,5.9035432095170055,-1.6841779839245745,-0.9394286058925657,0.23558178112831285,2.3798559699205053,1,left
7.757000000000001,0.4376784656525962,0.9204660362992534,0.13914191774776846,-5.288099417894924,5.962688370800326,-1.6760829117971239,-0.9444145499324177,0.22178161261062648,2.3867745999357606,1,left
7.761,0.44953191569884277,0.9035166573169574,0.14071109982679592,-5.319046510188872,6.0193746053087605,-1.6673141866351588,-0.9491769896563694,0.20769986976156501,2.392983285046256,1,left
7.7620000000000005,0.4613892374151756,0.8864292432396725,0.1422128375885977,-5.348139309572896,6.073500083469609,-1.6578777921394239,-0.9537074379399999,0.19334838963643744,2.3984644541747597,1,left
7.7620000000000005,0.4732388578859477,0.8692184323912766,0.14364695814728715,-5.3753213692966355,6.124964075603818,-1.6477805236709417,-0.9579973891632143,0.1787396397790688,2.4032007606199617,1,left
7.765,0.48506921432832384,0.8518989725783623,0.14501340247964295,-5.400537212495939,6.1736671353090316,-1.6370299844898477,-0.9620383296920014,0.1638867099788811,2.4071751015663447,1,left
7.766,0.4968687762849483,0.8344856984116418,0.14631222533868424,-5.423732453410409,6.219511289208929,-1.62563458034034,-0.9658217485045888,0.14880330269093928,2.4103706374619702,1,left
7.771,0.5086260677026709,0.8169935088076931,0.1475435947143214,-5.444853923005834,6.262400233216459,-1.6136035123527581,-0.9693391478167482,0.13350372212085432,2.412770811016038,1,left
7.772,0.5203296888326765,0.7994373447280456,0.14870779083809568,-5.463849799073842,6.30223953545069,-1.6009467682319207,-0.9725820536548214,0.11800286194943836,2.41435936572292,1,left
7.773,0.5319683378814306,0.7818321672202257,0.14980520472766404,-5.480669740697851,6.33893684567346,-1.5876751117131789,-0.975542026376813,0.10231619165673328,2.415120363904361,1,left
7.776,0.5435308323490267,0.7641929358181194,0.15083633627126358,-5.495265026081128,6.372402109777109,-1.5738000703366666,-0.9782106711516376,0.08645974140149339,2.4150382042767053,1,left
7.777,0.55500613000454,0.7465345873423823,0.15180179186143503,-5.507588691129627,6.402547785458238,-1.5593339217159747,-0.9805796484058182,0.07045008541162585,2.414097639047688,1,left
7.78,0.5663833494497738,0.7288720151332283,0.1527022815992298,-5.517595665288726,6.429289053876944,-1.54428967854656,-0.982640684246121,0.05430432384055963,2.412283790544927,1,left
7.782,0.5776517902038548,0.7112200487584777,0.15353861610443412,-5.525242902013898,6.4525440234181595,-1.5286810725266147,-0.9843855808657762,0.038040063044027315,2.4095821673758624,1,left
7.785,0.5888009522148449,0.6935934342563522,0.15431170298004157,-5.530489502845859,6.472233924049805,-1.5125225372338884,-0.9858062269410698,0.021675394231305194,2.4059786801164034,1,left
7.7860000000000005,0.5998205546871921,0.6760068149797712,0.1550225429867575,-5.533296834941448,6.4882832920890925,-1.495829189929455,-0.9868946080242132,0.005228870444567004,2.4014596565230377,1,left
7.79,0.610700554107246,0.658474713107387,0.15567222598701336,-5.533628642082058,6.500620145443626,-1.4786168122436019,-0.9876428169374819,-0.01128051818033256,2.396011856260618,1,left
7.791,0.6214311613494812,0.6410115118815929,0.15626192671990982,-5.531451149174654,6.509176149383694,-1.4609018296974663,-0.9880430641726896,-0.027833370918615898,2.389622485135436,1,left
7.795,0.6320028577521064,0.6236314386260482,0.1567929004685539,-5.526733160253348,6.513886772891709,-1.4427012900124914,-0.9880876882991071,-0.04440990477408778,2.3822792088205835,1,left
7.796,0.6424064100616501,0.6063485485841374,0.15726647867828336,-5.519446149982406,6.5146914356240835,-1.424032840158294,-0.987769166381958,-0.06098998465677308,2.373970166057916,1,left
7.8,0.652632884160915,0.5891767096054514,0.15768406457662132,-5.509564348654375,6.511533645509989,-1.4049147020880892,-0.9870801244126249,-0.07755315546819626,2.3646839813182385,1,left
7.801,0.6626736575116051,0.5721295876917716,0.15804712883177444,-5.497064820669702,6.504361127000391,-1.3853656471094207,-0.9860133477506781,-0.09407867614187938,2.3544097768985948,1,left
7.803999999999999,0.672520430259821,0.5552206333999743,0.15835720526692362,-5.481927536476875,6.493125939969561,-1.3654049688366146,-0.9845617915767946,-0.11054555568664456,2.343137184432765,1,left
7.805,0.6821652349693048,0.5384630690883068,0.1586158866270122,-5.464135437944632,6.477784589259864,-1.3450524546700688,-0.982718591354575,-0.12693259128025772,2.3308563557882716,1,left
7.81,0.6916004449657179,0.5218698769835791,0.15882482037823267,-5.443674497130289,6.458298124849139,-1.3243283557462642,-0.9804770732981751,-0.14321840846084213,2.3175579733203504,1,left
7.811,0.7008187812955402,0.5054537880383655,0.1589857045100314,-5.420533768400674,6.434632232608281,-1.3032533553011951,-0.9778307648415723,-0.1593815034633208,2.3032332594504945,1,left
7.817,0.7098133183219015,0.4892272715401682,0.15910028330516465,-5.39470543385452,6.406757315604874,-1.2818485353887992,-0.9747734051041521,-0.17540028774791744,2.287873985534262,1,left
7.818,0.7185774879934681,0.47320252543049474,0.15917034304446614,-5.366184841987517,6.374648565896829,-1.2601353418948937,-0.9712989553461657,-0.19125313476745429,2.2714724799801282,1,left
7.819,0.7271050828310286,0.4573914672905008,0.15919770761787222,-5.33497053953351,6.338286026747976,-1.238135547786123,-0.9674016094064397,-0.2069184290198326,2.254021635578214,1,left
7.82,0.7353902576810358,0.441805725949425,0.15918423402028098,-5.301064296407671,6.2976546451854745,-1.215871214532469,-0.9630758041135448,-0.22237461743166742,2.23551491599475,1,left
7.825,0.7434275302876917,0.42645663367152187,0.1591318077198151,-5.2644711236696855,6.252744314806749,-1.1933646516410026,-0.9583162296604282,-0.23760026311857024,2.2159463613851473,1,left
7.825,0.7512117807366183,0.4113552188766338,0.15904233789661382,-5.225199284417282,6.20354990873149,-1.170638374237714,-0.9531178399313024,-0.2525741015670362,2.195310593075521,1,left
7.829,0.75873824982421,0.39651219934927306,0.1589177525598579,-5.183260297512727,6.150071302581941,-1.1477150586335216,-0.9474758627670131,-0.267275099189811,2.1736028172887165,1,left
7.83,0.7660025364062161,0.3819379758912721,0.15875999355641882,-5.138668934037182,6.092313387362468,-1.124617495809842,-0.941385810147179,-0.28168251374355385,2.150818828033903,1,left
7.831,0.7730005937766077,0.3676426263744454,0.15857101148673755,-5.091443206360112,6.030286072097076,-1.1013685427584905,-0.9348434882540931,-0.2957759552645731,2.1269550095386944,1,left
7.835,0.7797287251276802,0.35363590015338375,0.15835276054690317,-5.041604349703313,5.964004276071256,-1.0779910716101069,-0.927845007375417,-0.30953544571523073,2.1020083387457618,1,left
7.836,0.7861835781482372,0.3399272128042859,0.15810719332440143,-4.989176796071497,5.893487910512261,-1.0545079164848012,-0.9203867916080987,-0.3229414759951663,2.0759763882467217,1,left
7.8389999999999995,0.792362138824303,0.326525641162334,0.15783625558739708,-4.934188140413805,5.818761849529667,-1.0309418179982823,-0.9124655883366878,-0.33597505980290704,2.0488573297600423,1,left
7.84,0.7982617245102323,0.3134399186358659,0.1575418811208356,-4.8766690988731325,5.739855890125834,-1.0073153653563591,-0.9040784774645945,-0.3486177842948691,2.0206499381105143,1,left
7.841,0.8038799763372024,0.300678430778504,0.15722598667525226,-4.8166534590819445,5.656804701249524,-0.9836509360701166,-0.8952228803768627,-0.36085185758022253,1.9913535956354993,1,left
7.845,0.809214851022304,0.288249211099726,0.15689046710019908,-4.754178023001999,5.569647762732822,-0.959970633822377,-0.8858965686116955,-0.3726601530890206,1.9609682969400433,1,left
7.845,0.8142646121377125,0.27615993709271347,0.15653719072946892,-4.689282543781158,5.478429296521465,-0.9362962259132883,-0.876097672216631,-0.38402625084987535,1.9294946539198252,1,left
7.848,0.8190278209049006,0.2644179264607986,0.15616799507934515,-4.622009658639397,5.3831981934758195,-0.912649082211316,-0.8658246877639253,-0.39493447571228757,1.8969339009677826,1,left
7.849,0.8235033265983706,0.25303013353298504,0.15578468292455477,-4.552404819242958,5.284007938128945,-0.8890501170373257,-0.8550764859983477,-0.405369932547518,1.8632879002771203,1,left
7.853,0.8276902566663252,0.2420031458722919,0.15538901882150227,-4.480516220035644,5.180916532194553,-0.865519734512052,-0.8438523190892353,-0.4153185384606175,1.8285591471502958,1,left
7.854,0.831588006688568,0.23134318109450036,0.1549827261395184,-4.406394724443313,5.073986416727145,-0.84207777739878,-0.8321518274572902,-0.42476705204492043,1.792750775220441,1,left
7.859,0.8351962302921785,0.22105608392734113,0.15456748463549208,-4.330093788751729,4.963284392649539,-0.8187434793734906,-0.8199750461452441,-0.43370309970895005,1.7558665614885742,1,left
7.86,0.8385148291364558,0.21114732355010615,0.15414492857307777,-4.251669383451351,4.848881539351746,-0.7955354206549126,-0.8073224107001433,-0.4421151991042858,1.7179109310768403,1,left
7.8629999999999995,0.8415439430630957,0.2016219912611453,0.15371664535226928,-4.171179911836266,4.7308531310541655,-0.7724714869271841,-0.7941947625336435,-0.44999277968151025,1.6788889615949214,1,left
7.864,0.8442839404884206,0.192484798526343,0.1532841745827646,-4.088686125638155,4.609278550617242,-0.7495688314881285,-0.7805933537253337,-0.4573262003998808,1.638806387013666,1,left
7.867999999999999,0.846735409094143,0.18374007546461557,0.15284900750952787,-4.0042510374701665,4.484241200469087,-0.7268438405565114,-0.7665198512327437,-0.4641067646148697,1.597669600936916,1,left
7.867999999999999,0.8488991468513944,0.17539176982520385,0.15241258668680063,-3.917939829849574,4.355828410312167,-0.7043121016720622,-0.7519763404703262,-0.4703267321661816,1.5554856591594377,1,left
7.872999999999999,0.8507761533883796,0.16744344650611556,0.15197630580025026,-3.8298197605623905,4.224131341260007,-0.6819883751224993,-0.7369653282183414,-0.47597932868729714,1.512262281395829,1,left
7.874,0.8523676216873295,0.15989828765479813,0.15154150955341242,-3.7399600641275117,4.0892448860448765,-0.6598865683323115,-0.7214897448212221,-0.4810587521560038,1.4680078520622417,1,left
7.879,0.8536749300782642,0.15275909338190094,0.1511094935577698,-3.648431849112581,3.9512675649277753,-0.6380197131485994,-0.7055529456336447,-0.4855601767037688,1.4227314199897496,1,left
7.879,0.8546996344919843,0.14602828310735447,0.15068150418898907,-3.5553079910485876,3.8103014169325786,-0.6163999459598757,-0.6891587116711883,-0.48947975370017943,1.376442696945218,1,left
7.882999999999999,0.8554434609428434,0.13970789754658738,0.1502587383916457,-3.4606630206852027,3.6664518860170756,-0.5950384905843615,-0.6723112494211321,-0.4928146101270323,1.329152054832553,1,left
7.8839999999999995,0.8559082982268298,0.13379960133623117,0.14984234343123387,-3.364573007324072,3.5198277017847333,-0.5739456438649857,-0.6550151897676187,-0.4955628442549942,1.2808705214442964,1,left
7.888,0.856096190835672,0.1283046862945242,0.14943341660522527,-3.2671154369627136,3.3705407543324677,-0.5531307639090034,-0.6372755859840944,-0.49772351863408937,1.2316097746306014,1,left
7.888999999999999,0.8560093321008004,0.1232240753104262,0.14903300493346028,-3.168369084977287,3.2187059628214096,-0.532602260910892,-0.6190979107446385,-0.49929665040758825,1.181382134749768,1,left
7.893,0.8556500575921611,0.11855832685469338,0.1486421048519896,-3.0684138830683665,3.064441137349695,-0.5123675904979488,-0.6004880521045063,-0.5002831989571911,1.1302005552616587,1,left
7.894,0.8550208388053654,0.11430764010486505,0.14826166193296114,-2.967330780189912,2.9078668336986624,-0.4924332495388136,-0.5814523083989367,-0.500685050885713,1.0780786113225111,1,left
7.898,0.8541242771743082,0.11047186067511544,0.14789257064569333,-2.8652015971779403,2.749106200516535,-0.47280477435595986,-0.5619973820377616,-0.500505002385844,1.025030486312806,1,left
7.899,0.852963098443365,0.10705048694153578,0.14753567416354596,-2.762108874791926,2.5882848184966862,-0.453486741284038,-0.542130372320849,-0.49974673926213076,0.9710709566067464,1,left
7.9,0.8515401474247196,0.10404267695207159,0.14719176421179406,-2.658135714878728,2.425530531100947,-0.4344827695168184,-0.5218587676659031,-0.4984148152681152,0.9162153755725261,1,left
7.904,0.849858383156592,0.10144725590685844,0.14686158094329615,-2.553365614365821,2.2609732663721642,-0.41579552618635574,-0.5011904377876727,-0.49651462963915094,0.8604796581695326,1,left
7.905,0.8479208744694842,0.09926272419015308,0.146545812819042,-2.447882291787862,2.094744849374279,-0.39742673361888675,-0.4801336262177055,-0.4940524044795037,0.8038802671263924,1,left
7.907,0.8457307959576629,0.0974872659309967,0.14624509646122213,-2.3417695060480757,1.9269788047926528,-0.37937717871287513,-0.45869694328490834,-0.4910351622642299,0.7464342009978557,1,left
7.9079999999999995,0.8432914243402462,0.09611875806600692,0.145960016440832,-2.2351108671136686,1.7578101492222042,-0.3616467243855218,-0.436889359527301,-0.4874707034944397,0.6881589840163717,1,left
7.909,0.8406061351836488,0.09515477987361455,0.14569110496122709,-2.127989638711262,1.5873751730406915,-0.34423432302882584,-0.41472019947449446,-0.4833675844988866,0.6290726575757916,1,left
7.912000000000001,0.8376783999502225,0.0945926229461773,0.14543884140331714,-2.020488534930708,1.4158112136330119,-0.32713803188644613,-0.3921991357393278,-0.4787350953732324,0.5691937731822153,1,left
7.912999999999999,0.8345117833376999,0.09442930156614868,0.14520365170618066,-1.9126895159636135,1.2432564250996279,-0.31035503020818683,-0.3693361833560392,-0.4735832380467662,0.5085413867046067,1,left
7.917000000000001,0.8311099408735864,0.09466156345133421,0.14498590756526636,-1.804673590045755,1.0698495514515318,-0.29388163800909034,-0.3461416943013044,-0.46792270446481066,0.4471350537554806,1,left
7.917999999999999,0.8274766167216706,0.0952859008282531,0.14478592543654634,-1.6965206268272834,0.8957297084179889,-0.2777133362917781,-0.322626352133467,-0.4617648548735286,0.3849948260296864,1,left
7.922999999999999,0.8236156416481278,0.09629856178426523,0.14460396534193304,-1.588309184074235,0.7210361756191694,-0.2618447886469215,-0.2988011666843043,-0.45512169619235365,0.32214124842709035,1,left
7.922999999999999,0.8195309310902684,0.09769556184262497,0.14444022948295698,-1.4801163477600534,0.5459081989804069,-0.2462698641783598,-0.2746774687367203,-0.44800586045780727,0.25859535678279855,1,left
7.928,0.8152264832750756,0.09947269569989535,0.1442948606850547,-1.3720175852366039,0.3704848028881821,-0.23098166170640586,-0.2502669046208355,-0.4404305833210391,0.1943786760264503,1,left
7.928999999999999,0.8107063773460501,0.10162554906037317,0.14416794070929043,-1.2640866111739784,0.1949046115862838,-0.2159725352037416,-0.2255814306600553,-0.43240968258003387,0.12951321859006695,1,left
7.932,0.805974771471907,0.1041495104966902,0.14405948847839195,-1.1563952659584449,0.01930567930935,-0.2012341204191446,-0.20063330739784013,-0.42395753672607,0.06402148288195143,1,left
7.932,0.8010359009242094,0.10703978326028435,0.14396945826892651,-1.0490134062381633,-0.15617467134985633,-0.18675736264511117,-0.17543509353507933,-0.41508906348269997,-0.002073548357791388,1,left
7.937,0.795894076119254,0.11029139696168883,0.1438977379227122,-0.9420088073067628,-0.33140000334353464,-0.1725325455862401,-0.14999963950717923,-0.4058196983142398,-0.06874841000640596,1,left
7.938,0.7905536806216497,0.11389921903988857,0.1438441471293068,-0.8354470770155645,-0.5062349118464508,-0.1585493212860185,-0.12434008062922403,-0.3961653728795204,-0.13597915700039992,1,left
7.942,0.7850191691046436,0.11785796594201935,0.14380843582763492,-0.7293915809061151,-0.6805451642118715,-0.144796741070401,-0.09846982973684867,-0.38614249340545564,-0.2037413674600434,1,left
7.943,0.7792950652581848,0.12216221393856813,0.14379028276946376,-0.6239033782557777,-0.8541978337089146,-0.13126328746729515,-0.07240256924978336,-0.37576791895383477,-0.2720101466879414,1,left
7.947,0.7733859596327693,0.1268064095052576,0.14378929428253287,-0.5190411687303915,-1.0270614275432777,-0.11793690706176038,-0.04615224258438509,-0.3650589395536393,-0.3407601322347623,1,left
7.9479999999999995,0.7672965074066521,0.13178487921117893,0.14380500326738452,-0.4148612493394649,-1.199006009661808,-0.10480504424738754,-0.019733044840867554,-0.3540332541701274,-0.4099655002267322,1,left
7.9510000000000005,0.7610314260660116,0.13709183906219147,0.14383686845907798,-0.31141748139098696,-1.3699033188394871,-0.09185467583495537,0.006840587309624923,-0.3427089484809203,-0.47959997315095787,1,left
7.952000000000001,0.7545954929914103,0.14272140325822424,0.14388427398292,-0.20876126714473878,-1.539626882545143,-0.0790723464800536,0.033553986613479005,-0.3311044724283645,-0.5496368292960234,1,left
7.956,0.7479935429478006,0.14866759233366242,0.1439465292308011,-0.10694153586493835,-1.7080521270795614,-0.06644420489192046,0.0603922671744737,-0.3192386175165344,-0.620048914046613,1,left
7.956,0.7412304654768779,0.15492434066219363,0.14402286907970124,-0.0060047389751641134,-1.8750564844766684,-0.05395604078626235,0.08734033742134889,-0.3071304938203844,-0.6908086532321419,1,left
7.961,0.7343112021887357,0.1614855033210826,0.144112454466909,0.09400514597924146,-2.0405194966550866,-0.041593322545305934,0.11438291417978948,-0.2947995066737532,-0.7618880687305366,1,left
7.962000000000001,0.7272407439462453,0.16834486232404264,0.14421437333027273,0.19304660285368952,-2.2043229173036427,-0.02934123554877468,0.14150453792589163,-0.28226533300217516,-0.8332587965293778,1,left
7.966,0.720024127932755,0.1754961322449158,0.14432764191787212,0.2910805562016531,-2.366350811980322,-0.017184721139883268,0.1686895892984932,-0.2695478972657562,-0.9048921074476227,1,left
7.9670000000000005,0.7126664345927645,0.18293296526405867,0.1444512064692907,0.3880703426339782,-2.526489656899748,-0.005108516190803392,0.19592230694802099,-0.2566673469767335,-0.9767589307220336,1,left
7.9670000000000005,0.7051727844358183,0.19064895567472492,0.14458394526943982,0.4839816745246339,-2.684628436879508,0.006902806767628683,0.22318680675409355,-0.24364402776541394,-1.0488298805536884,1,left
7.97,0.6975483346946008,0.19863764388817684,0.14472467107503287,0.5787825963444468,-2.84065874291053,0.01886479888691791,0.25046710221609836,-0.2304984580159584,-1.1210752851627248,1,left
7.973,0.6897982758284372,0.20689251997541155,0.144872133912536,0.6724434339013728,-2.9944748698113166,0.03079309384735464,0.2777471254103322,-0.21725130317994645,-1.1934652169137854,1,left
7.975,0.6819278278645163,0.21540702678340964,0.14502502424401556,0.7649367368331733,-3.145973914225422,0.042703366259975666,0.3050107476791838,-0.20392334992354522,-1.265969521527247,1,left
7.976,0.6739422365712316,0.22417456266540878,0.1451819764941732,0.8562372150472233,-3.295055872242136,0.05461128975167757,0.3322417994460844,-0.1905354802154561,-1.3385578449397888,1,left
7.977,0.6658467694586068,0.23318848386532212,0.1453415729298016,0.9463216704325887,-3.4416237341619422,0.06653249500087834,0.35942408896071626,-0.1771086453755858,-1.411199657364621,1,left
7.989,0.6576467116003848,0.242442106596098,0.14550234788222197,1.0351689255182042,-3.585583572948298,0.07848252806876986,0.3865414200071252,-0.16366384005585916,-1.4838642746500033,1,left
7.99,0.6493473612751011,0.2519287088524053,0.14566279230197443,1.1227597503955176,-3.726844623873707,0.09047680929349874,0.4135776086529293,-0.15022207611475885,-1.55652087714451,1,left
7.9910000000000005,0.6409540254298082,0.26164153199783086,0.1458213586323826,1.2090767885867981,-3.865319354612908,0.10253059287479341,0.4405164991176775,-0.13680435634706523,-1.62913852627766,1,left
7.9910000000000005,0.6324720149765105,0.27157378216331396,0.14597646598585184,1.2941044821847085,-4.000923526001856,0.11465892719893983,0.46734197883822237,-0.12343164803021867,-1.7016861790645865,1,left
7.992000000000001,0.6239066399357877,0.28171863148753634,0.14612650560442128,1.377828996514731,-4.133576243868123,0.12687661593859478,0.494037992808742,-0.11012485624873479,-1.774132700743409,1,left
7.992000000000001,0.6152632044451166,0.29206921922334306,0.1462698465833102,1.460238144568376,-4.263200002330337,0.1391981799620967,0.5205885572727628,-0.09690479695817199,-1.8464468757538477,1,left
7.995,0.6065470016514198,0.30261865272787714,0.14640484183242322,1.5413213114514106,-4.389720718956031,0.1516378200871472,0.546977772844212,-0.08379216975028049,-1.9185974172654234,1,left
7.996,0.5977633085082315,0.3133600083480108,0.14652983424695376,1.6210693790875934,-4.513067762158825,0.1642093807139928,0.5731898371341564,-0.07080753028115062,-1.990552975463297,1,left
8.0,0.5889173804982608,0.3242863322073755,0.14664316305518388,1.6994746514146366,-4.633173971207137,0.1769263143735341,0.599209056959464,-0.05797126232442724,-2.0622821447994197,1,left
8.0,0.5800144463024504,0.3353906408979496,0.14674317030886763,1.7765307803053028,-4.74997566920775,0.18980164722612783,0.6250198602091658,-0.045303549411965516,-2.1337534704161967,1,left
8.006,0.5710597024360891,0.34666592207763314,0.14682820747885303,1.8522326924427173,-4.863412669418428,0.20284794554722568,0.6506068074437827,-0.032824346024670596,-2.204935453949301,1,left
8.007,0.5620583078716065,0.35810513497426333,0.146896642115642,1.9265765173751193,-4.973428275234468,0.21607728323640996,0.6759546033023319,-0.02055334829668936,-2.275796558915639,1,left
8.01,0.553015378669216,0.3697012107964334,0.146946864532086,1.9995595169713987,-5.0799692741846085,0.22950121038684082,0.7010481077911241,-0.008509964196606334,-2.3463052158917024,1,left
8.011000000000001,0.543935982642231,0.3814470530542818,0.14697729446675403,2.07118001649489,-5.182985926262038,0.2431307229526197,0.725872347527827,0.003286716850163225,-2.4164298276867417,1,left
8.016,0.5348251340910457,0.3933355377999637,0.14698638769370656,2.141437337508978,-5.282431946906453,0.2569762335520978,0.7504125270135772,0.014817954932992624,-2.4861387747142474,1,left
8.017000000000001,0.5256877886440736,0.405359513806479,0.1469726425537832,2.2103317328241774,-5.378264484943087,0.27104754344571713,0.774654040005195,0.026065391256231717,-2.555400420764227,1,left
8.019,0.5165288382439868,0.417511802713242,0.1469346063885553,2.277864323692434,-5.470444095774598,0.28535381572756013,0.7985824810587865,0.03701108040181193,-2.6241831193776615,1,left
8.02,0.5073531063151677,0.4297851991759321,0.1468708818582842,2.3440370394504706,-5.558934710111355,0.2999035497704036,0.8221836573151955,0.047637523287355,-2.6924552210233212,1,left
8.024,0.4981653431445476,0.4421724710652872,0.14678013312073998,2.4088525598101054,-5.64370359851538,0.31470455696471983,0.8454436005969151,0.05792770085205759,-2.7601850812758517,1,left
8.025,0.4889702215030583,0.454666359763811,0.14666109184230086,2.4723142599895382,-5.7247213320226376,0.3297639377927411,0.8683485798851696,0.06786510850175828,-2.8273410701926505,1,left
8.03,0.47977233252994594,0.4672595806110015,0.1465125630088161,2.5344261588757164,-5.80196173909786,0.3450880602794022,0.8908851142449336,0.07743379134367705,-2.8938915830855976,1,left
8.03,0.4705761818989097,0.4799448235463608,0.1463334305002794,2.5951928704039826,-5.875401859165308,0.36068253986269516,0.9130399862646821,0.08661838024035275,-2.9598050528821327,1,left
8.035,0.46138618628390077,0.492714753994568,0.14612266238919466,2.654619558337322,-5.9450218929481995,0.37655222072671224,0.9348002560766396,0.0954041287112918,-3.0250499642685442,1,left
8.035,0.45220667014170834,0.5055620140297886,0.1458793159184853,2.7127118946236477,-6.010805149838615,0.3927011586414104,0.9561532759906328,0.10377695064470675,-3.089594869738178,1,left
8.036,0.44304186282487207,0.5184792238490968,0.1456025421138088,2.769476021505703,-6.072737992508833,0.40913260535390733,0.9770867056155097,0.1117234584552396,-3.1534084073234263,1,left
8.039,0.4338958960316663,0.5314589835799624,0.145291589988836,2.824918517554312,-6.13080977896405,0.4258489945769067,0.9975885270564752,0.11923100073673254,-3.2164593191728392,1,left
8.04,0.4247728015962398,0.5444938754412243,0.1449458103055424,2.8790463677918723,-6.185012802225425,0.4428519296206513,1.0176470596174743,0.12628769813254287,-3.2787164697906435,1,left
8.044,0.41567650962638647,0.5575764662690219,0.1445646588495969,2.931866938069175,-6.23534222782137,0.46014217271561264,1.0372509735945998,0.13288247647005638,-3.3401488630958975,1,left
8.044,0.40661084700361877,0.5706993104108904,0.1441476991779703,2.9833879538548365,-6.28179602925385,0.4777196360739419,1.056389303029742,0.13900509679048298,-3.400725658071924,1,left
8.045,0.39757953626231873,0.5838549529850384,0.14369460479923013,3.033617483487819,-6.324374921638854,0.49558337473216413,1.075051457450466,0.1446461822291063,-3.4604161831163966,1,left
8.05,0.38858619486013096,0.5970359334999665,0.1432051607568419,3.0825639254146306,-6.363082293926068,0.5137315811865958,1.0932272326524137,0.1497972417649099,-3.5191899492684966,1,left
8.051,0.3796343348435335,0.6102347898328692,0.14267926459842883,3.1302359979837657,-6.397924140482432,0.5321615817765069,1.1109068205791854,0.15445069085714905,-3.5770166624870954,1,left
8.055,0.3707273629061519,0.62344406256704,0.14211692672682444,3.1766427298411086,-6.428908993030177,0.5508698347390414,1.1280808183532907,0.1585998689850547,-3.6338662351513698,1,left
8.056000000000001,0.361868580836698,0.6366562996817685,0.14151827014099588,3.2217934494914866,-6.456047853701775,0.5698519298925538,1.1447402365103603,0.16223905410545145,-3.6897087969526248,1,left
8.06,0.3530611863555192,0.6498640615770285,0.14088352958673866,3.265697773533156,-6.479354129572385,0.5891025899631082,1.1608765064873905,0.16536347404164237,-3.744514705343382,1,left
8.061,0.34430827433792394,0.6630599264071624,0.14021305014938493,3.3083655935935288,-6.498843568802258,0.6086156736015084,1.1764814874143337,0.16796931481546906,-3.798254555706985,1,left
8.065,0.33561283841677775,0.6762364956937776,0.13950728533413,3.3498070620958624,-6.514534198467079,0.6283841801453809,1.1915474722568773,0.17005372593299017,-3.8508991914080744,1,left
