time,gFx,gFy,gFz,ax,ay,az,wx,wy,wz,subject_number,foot
8.925,0.00983758766837911,1.2280131613009002,-0.048629111650045714,-0.7393516223935717,0.4781528632239257,-0.32556513544663224,-0.2888680934114529,0.5299255867123835,0.9733406604955911,1,left
8.925,0.004187787573735467,1.2352395079657335,-0.048322722648826866,-0.7724026938829773,0.50310369432458,-0.3431244610972651,-0.2937194331857677,0.5359435654498578,0.9861293606900409,1,left
8.93,-0.0013777054005711974,1.2424366228887,-0.04797762535149947,-0.8067894918008994,0.5292903266202339,-0.3609829365217227,-0.29870722088094614,0.5419730484702648,0.9993193849166009,1,left
8.93,-0.0068496888823961505,1.2495953023293205,-0.04759326283488299,-0.8425286413906271,0.5567375387009433,-0.37913219911842394,-0.3038328562473142,0.5480047569168713,1.0129123447770338,1,left
8.933,-0.012218864511333041,1.256706118266804,-0.04716912665092056,-0.8796357390123587,0.5854694770661706,-0.3975636861143274,-0.30909766845738124,0.5540291622953015,1.0269094458828572,1,left
8.934,-0.017475848542487505,1.2637594261110552,-0.0467047605598441,-0.9181252960614635,0.6155096006858946,-0.41626862970519113,-0.3145029127991044,0.5600364895829809,1.0413114742840797,1,left
8.934,-0.022611182688236277,1.2707453730854863,-0.04619976426524991,-0.958010682673347,0.6468806249223518,-0.4352380524385927,-0.320049767201111,0.5660167207892779,1.0561187829664542,1,left
8.939,-0.027615345197234673,1.2776539072809616,-0.04565379712373677,-0.999304071314549,0.6796044647222305,-0.4544627627440424,-0.32573932860079047,0.5719595989827989,1.0713312784527633,1,left
8.94,-0.03247876217544352,1.284474787382327,-0.04506658180687709,-1.042016380361337,0.7137021769353058,-0.47393335046577456,-0.3315726091707871,0.577854632803073,1.0869484075495064,1,left
8.943999999999999,-0.03719181915769074,1.2911975930683255,-0.04443790789428821,-1.0861572177733962,0.749193901676917,-0.49364018230409645,-0.33755053241983013,0.5836911014737828,1.1029691442815313,1,left
8.945,-0.0417448729410299,1.2978117360836499,-0.043767635374056424,-1.1317348249784691,0.7860988027592315,-0.5135733971610618,-0.34367392918424733,0.5894580603345916,1.119391977058307,1,left
8.948,-0.04612826369437148,1.3043064719821265,-0.04305569802540007,-1.1787560210901937,0.8244350072777727,-0.5337229014364762,-0.34994353352692326,0.595144346908479,1.1362148961166987,1,left
8.95,-0.05033232736168935,1.3106709125417353,-0.042302106659304346,-1.2272261475859672,0.8642195444552148,-0.554078364330826,-0.35635997856087537,0.6007385875213279,1.153435381286268,1,left
8.952,-0.05434740837715805,1.316894038852594,-0.04150695219318069,-1.2771490135757786,0.9054682838484975,-0.5746292132123713,-0.362923792215041,0.6062292044903055,1.1710503901242695,1,left
8.953,-0.058163872709810646,1.3229647150783093,-0.04067040853340163,-1.3285268417971052,0.9481958730294316,-0.5953646291062646,-0.3696353929602869,0.611604423897349,1.1890563464686676,1,left
8.957,-0.0617721212536516,1.3288717028908752,-0.03979273523621502,-1.3813602154751186,0.9924156748531153,-0.6162735423641489,-0.37649508551407707,0.6168522839638024,1.2074491294586394,1,left
8.958,-0.0651626035772654,1.3346036765799463,-0.03887427991576624,-1.4356480261916236,1.0381397044326923,-0.6373446285732479,-0.38350305654265315,0.6219606440419502,1.226224063073151,1,left
8.963,-0.06832583204458663,1.3401492388378327,-0.03791548036894194,-1.4913874229103246,1.0853785659432256,-0.658566304764494,-0.39065937038001114,0.6269171942388669,1.2453759062393348,1,left
8.964,-0.07125239631522383,1.3454969372207024,-0.03691686638940572,-1.5485737623101934,1.1341413893817418,-0.6799267259797326,-0.3979639647833793,0.6317094656876303,1.2648988435634894,1,left
8.968,-0.07393297822897549,1.3506352812837212,-0.03587906124587032,-1.6072005605828867,1.1844357674148258,-0.7014137822585114,-0.40541664674533007,0.6363248414805448,1.2847864767386241,1,left
8.969,-0.07635836707581732,1.3555527603838589,-0.03480278280257447,-1.6672594468543251,1.236267692449486,-0.7230150961053927,-0.41301708838308404,0.6407505682785912,1.305031816683562,1,left
8.974,-0.07851947524990882,1.3602378621401408,-0.03368884426324761,-1.728740118394706,1.289641494067392,-0.7447180204991258,-0.42076482292598927,0.6449737686108392,1.3256272764696642,1,left
8.975,-0.0804073542835844,1.3646790915383995,-0.032538154521771064,-1.7916302977853473,1.3445597769669788,-0.7665096375053784,-0.4286592408225856,0.6489814538770552,1.346564665092294,1,left
8.977,-0.08201321125378344,1.3688649906655017,-0.03135171810265651,-1.855915692214874,1.4010233595623254,-0.7883767575550553,-0.43669958598908654,0.6527605380661914,1.367835182145166,1,left
8.978,-0.08332842554783827,1.3727841590541812,-0.03013063467358686,-1.9215799550813415,1.4590312133921441,-0.8103059194505237,-0.4448849522215341,0.6562978522028605,1.3894294134567264,1,left
8.982999999999999,-0.08434456596884786,1.3764252746124348,-0.02887609811136957,-1.9886046500809262,1.5185804034966461,-0.8322833911623172,-0.45321427979430456,0.6595801595332811,1.4113373277486936,1,left
8.984,-0.08505340815538222,1.3797771151021063,-0.0275893951018359,-2.0569692179678274,1.5796660299244858,-0.854295171479109,-0.4616863522680596,0.6625941714615203,1.4335482743778412,1,left
8.987,-0.08544695228660931,1.3828285801218518,-0.026271903254295636,-2.126650946173975,1.6422811705364195,-0.8763269925739207,-0.47029979353065676,0.6653265642461693,1.4560509822230423,1,left
8.988,-0.08551744104081081,1.3855687135408654,-0.024925088714678547,-2.1976249414810396,1.7064168252767387,-0.8983643235496716,-0.4790530650949427,0.6677639964668495,1.4788335597804791,1,left
8.991,-0.08525737777266489,1.3879867263225953,-0.023550503269894312,-2.2698641059410996,1.7720618620879398,-0.9203923750272723,-0.48794446366718175,0.6698931272726468,1.5018834965102028,1,left
8.992,-0.08465954487516497,1.3900720196767684,-0.02214978094534775,-2.3433391162460766,1.8392029646484946,-0.9423961048395233,-0.49697211894735327,0.6717006354410848,1.525187665375044,1,left
8.993,-0.08371702229638132,1.391814208484231,-0.020724634103014655,-2.4180184067497765,1.907824582117938,-0.9643602248940927,-0.506133991527698,0.6731732393065885,1.54873232632825,1,left
8.997,-0.08242320618431338,1.3932031449416755,-0.01927684905081088,-2.493868156349995,1.9779088810778263,-0.9862692092688228,-0.5154278707033674,0.6742977176338322,1.5725031304039823,1,left
8.998,-0.08077182762983565,1.3942289423633174,-0.01780828118062723,-2.570852279441694,2.049435699861408,-1.0081073036025425,-0.524851372062341,0.6750609314931133,1.596485124168545,1,left
9.002,-0.0787569714717633,1.3948819990634171,-0.016320849662145084,-2.648932421087255,2.122382505440199,-1.0298585358298082,-0.5344019348174234,0.675449847162745,1.6206627544763335,1,left
9.003,-0.07637309512682205,1.3951530222427813,-0.014816531725964274,-2.728067956210886,2.196724352895308,-1.0515067282346244,-0.5440768188964274,0.6754515600651354,1.6450198735781592,1,left
9.004,-0.0736150474114017,1.3950330518135472,-0.013297356569753185,-2.8082159920114145,2.2724338472453365,-1.0730355106662177,-0.5538731018176125,0.6750533197387175,1.6695397446508071,1,left
9.007,-0.07047808732470014,1.3945134841033737,-0.011765398921956615,-2.889331372448552,2.3494811072622195,-1.0944283346864732,-0.5637876753778048,0.6742425558468204,1.6942050478172488,1,left
9.008,-0.06695790276049882,1.3935860953735137,-0.01022277230620275,-2.971366684003026,2.4278337310549087,-1.1156684884915578,-0.5738172421809906,0.6730069052234574,1.7189978867274442,1,left
9.011000000000001,-0.0630506291116452,1.3922430650754578,-0.008671622062955962,-3.054272262529994,2.507456763464891,-1.136739112581693,-0.5839583120355143,0.6713342399548619,1.7438997957701385,1,left
9.012,-0.05875286773215137,1.3904769987699446,-0.007114118196685782,-3.137996201370197,2.588312665465894,-1.1576232162258515,-0.5942071982483583,0.6692126964944132,1.768891747986465,1,left
9.017999999999999,-0.05406170422662012,1.3882809506389864,-0.005552448124462894,-3.2224843609544167,2.6703612857927905,-1.1783036947823602,-0.6045600138453082,0.666630705807378,1.7939541637565473,1,left
9.019,-0.048974726544316505,1.3856484455298494,-0.003988809404054534,-3.3076803801392827,2.7535598350283625,-1.198763347935903,-0.6150126677461284,0.663577024540637,1.8190669203305887,1,left
9.021,-0.04349004286505158,1.382573500476007,-0.002425402513872909,-3.393525689514844,2.837862862380113,-1.2189848989108802,-0.6255608609241831,0.6600407672112751,1.8442093622762032,1,left
9.022,-0.03760629927330343,1.3790506456407612,-0.0008644237421710665,-3.479959526926477,2.923222235382732,-1.2389510147204987,-0.6362000825802333,0.6560114394065966,1.8693603129139449,1,left
9.027000000000001,-0.03132269722022717,1.375074944621893,0.0006919417810629028,-3.5669189554557694,3.0095871227651356,-1.2586443275103285,-0.6469256063604285,0.6514789719867676,1.8944980868131305,1,left
9.027999999999999,-0.02463901076573085,1.3706420140407638,0.0022415269078908187,-3.654338884106835,3.096903980724146,-1.2780474570543818,-0.6577324866487856,0.6464337562799043,1.9196005034201395,1,left
9.031,-0.017555603573066157,1.365748042320184,0.003782189186226566,-3.742152091446248,3.1851165428499226,-1.297143034461034,-0.6686155549647094,0.6408666802580099,1.9446449018913947,1,left
9.032,-0.010073445598068009,1.360389807536242,0.005311817528687109,-3.8302892524462595,3.2741658139511305,-1.315913727145321,-0.6795694164963544,0.6347691656807216,1.969608157203194,1,left
9.035,-0.0021941293785687015,1.3545646942139917,0.006828338915679746,-3.9186789687822823,3.36399006803056,-1.3343422651233177,-0.6905884468008626,0.6281332061923515,1.9944666976104501,1,left
9.036,0.006080114208454878,1.3482707089284747,0.00832972520513651,-4.0072478028367575,3.454524850664491,-1.3524114686834157,-0.7016667887027298,0.6209514063562108,2.019196523526242,1,left
9.04,0.014746400890768825,1.3415064945721344,0.0098140000996711,-4.095920315662457,3.545702986041473,-1.370104277488387,-0.7127983494217554,0.6132170216086852,2.0437732278938334,1,left
9.042,0.02380117884893685,1.3342713431564086,0.011279246298420649,-4.184619109158963,3.637454588918428,-1.387403781161135,-0.7239767979622184,0.6049239991139803,2.068172018122523,1,left
9.045,0.03324021570542188,1.3265652070270006,0.012723612846306284,-4.27326487271662,3.729707081754018,-1.4042932514060067,-0.7351955627950915,0.5960670194988918,2.0923677396583154,1,left
9.046,0.04305858692529999,1.318388708386594,0.014145322687028136,-4.361776434582499,3.822385217281046,-1.420756175716455,-0.7464478298652573,0.5866415394453693,2.116334901259956,1,left
9.052,0.05325066592961334,1.3097431470348184,0.01554268041737028,-4.450070818203039,3.915411106781326,-1.4367762927187118,-0.7577265409558253,0.5766438351170372,2.1400477020503796,1,left
9.052999999999999,0.06381011624236142,1.3006305062547177,0.01691408022229602,-4.538063303797824,4.008704254327861,-1.4523376291999557,-0.7690243924417638,0.5660710463942209,2.1634800604130104,1,left
9.055,0.07472988599318235,1.2910534567993945,0.018258013944493046,-4.625667495418599,4.102181597260413,-1.4674245388682325,-0.7803338344651564,0.5549212218903923,2.186605644801722,1,left
9.055,0.08600220507423643,1.2810153589618933,0.01957307921197416,-4.712795393746979,4.195757553161532,-1.4820217428901168,-0.7916470705644665,0.5431933647213077,2.2093979065325113,1,left
9.061,0.09761858520150583,1.270520262741888,0.02085798751719093,-4.799357474883463,4.289344073600857,-1.4961143722507835,-0.8029560577864819,0.5308874789215823,2.2318301145681883,1,left
9.062999999999999,0.10956982306433788,1.2595729061444403,0.02211157212265346,-4.8852627753792,4.382850704916052,-1.5096880119797964,-0.8142525072907859,0.5180046160273893,2.2538753920266688,1,left
9.062999999999999,0.12184600667498686,1.2481787116540877,0.02333279566776032,-4.97041898376063,4.476184656299005,-1.5227287472845188,-0.8255278854226814,0.5045469206684022,2.275506753638818,1,left
9.064,0.13443652496303635,1.2363437809347737,0.02452075735081895,-5.0547325387954665,4.569250875455943,-1.535223211631594,-0.83677341521163,0.4905176736360344,2.2966971431009475,1,left
9.065,0.14733008059938274,1.2240748878246384,0.025674699542556065,-5.13810873474661,4.661952132109873,-1.5471586368154644,-0.8479800782710804,0.4759213312677821,2.317419469545764,1,left
9.07,0.1605147059778076,1.2113794697132785,0.02679401367064963,-5.22045183385841,4.754189109613291,-1.5585229050513605,-0.8591386171094371,0.46076356065973717,2.337646642858072,1,left
9.072000000000001,0.17397778223263752,1.1982656173924782,0.02787824522080091,-5.30166518631729,4.845860504938282,-1.569304603128627,-0.8702395378806838,0.4450512705920983,2.3573516078400734,1,left
9.072000000000001,0.18770606114052046,1.184742063460091,0.028927097724315967,-5.3816513577885035,4.936863137181171,-1.5794930785455672,-0.8812731136068368,0.42879263812576157,2.3765073772857517,1,left
9.076,0.20168568975563045,1.1708181693364572,0.029940435634685958,-5.460312263940007,5.027092064072872,-1.5890784969799603,-0.8922293879042629,0.4119971308264607,2.395087064022368,1,left
9.077,0.2159022376547868,1.156503910930192,0.030918286033699584,-5.537549310123256,5.116440704824005,-1.5980518994300346,-0.9030981792457279,0.39467552457133764,2.4130639119756347,1,left
9.08,0.23034072668666525,1.1418098629792703,0.03186083914802528,-5.613263533689383,5.204800966987257,-1.6064052567935803,-0.9138690857898563,0.37683991689125657,2.430411326313532,1,left
9.08,0.24498566310027656,1.1267471821007489,0.03276844769795478,-5.687355747103194,5.292063375661913,-1.6141315202165538,-0.9245314908094509,0.3585037358006365,2.4471029027220847,1,left
9.084,0.2598210718885066,1.111327588595553,0.03364162514321798,-5.759726681251344,5.378117204523384,-1.621224666558464,-0.9350745687498723,0.339681744065068,2.463112455864682,1,left
9.085,0.27483053315036704,1.0955633470589452,0.03448104293311367,-5.83027712902442,5.462850608802391,-1.6276797388854451,-0.9454872919484013,0.3203900388555052,2.4784140470747276,1,left
9.09,0.28999722025424873,1.0794672458420653,0.03528752689865933,-5.898908089385551,5.546150760464256,-1.6334928820131975,-0.9557584380451876,0.3006460467363906,2.4929820113294987,1,left
9.091000000000001,0.30530393956747043,1.0630525754023048,0.03606205293431136,-5.965520912133257,5.627903985835264,-1.6386613731201642,-0.9658765981160495,0.28046851393367667,2.506790983551164,1,left
9.095,0.32073317150620295,1.0463331055758538,0.036805742105583475,-6.030017443560984,5.707995905919268,-1.6431836474494774,-0.9758301855570146,0.25987749182736203,2.519815924278853,1,left
9.096,0.3362671126614493,1.0293230618067148,0.03751985529325126,-6.092300173210275,5.78631157964359,-1.6470593191163676,-0.9856074457500803,0.23889431761186317,2.5320321447535767,1,left
9.1,0.35188771877565156,1.0120371003709083,0.03820578745297376,-6.152272381908716,5.862735650268839,-1.6502891970358844,-0.9951964665392401,0.21754159006629983,2.5434153314556163,1,left
9.1,0.367576748376213,0.9944902826390116,0.038865061536199515,-6.209838291277755,5.9371524951924535,-1.6528752959839144,-1.0045851895453413,0.19584314037558825,2.5539415701317374,1,left
9.104,0.38331580690520684,0.9766980484244038,0.03949932208649955,-6.264903214889069,6.009446379370752,-1.6548208428026323,-1.0137614223478362,0.17382399794211142,2.5635873693472795,1,left
9.105,0.39908639120903805,0.9586761884721917,0.04011032849502764,-6.317373711241589,6.079501612578712,-1.656130277759673,-1.0227128515609478,0.151510351126677,2.572329683595761,1,left
9.107999999999999,0.4148699342648595,0.9404408161568194,0.040699947870785826,-6.367157738724334,6.147202710721083,-1.6568092510684536,-1.0314270568311967,0.12892950285648302,2.5801459359962,1,left
9.109,0.43064785002352796,0.9220083384723505,0.04127014746353541,-6.414164812723047,6.21243456140223,-1.6568646145752504,-1.0398915257826207,0.10610982103689288,2.587014040605797,1,left
9.113999999999999,0.44640157824348614,0.903395426415178,0.04182298657852744,-6.458306165021164,6.275082593955697,-1.6563044086167984,-1.048093669935378,0.08308068370297654,2.592912424373058,1,left
9.113999999999999,0.4621126291767441,0.8846189848747404,0.04236060794252605,-6.499494905637945,6.335032954127758,-1.655137844050385,-1.0560208416227388,0.05987241884601116,2.597820048753759,1,left
9.118,0.4777626279486771,0.865696122165756,0.04288522851109221,-6.537646187238601,6.392172683602082,-1.6533752794566097,-1.0636603519307548,0.03651623884944898,2.601716431009429,1,left
9.119,0.4933333584516603,0.8466441193550887,0.04339912973759983,-6.5726773722430485,6.44638990454525,-1.6510281935132214,-1.0709994896841424,0.013044169468261268,2.6045816652052665,1,left
9.124,0.5088068065528287,0.8274803995540131,0.043904647347789615,-6.604508202751429,6.4975740093451035,-1.6481091525367073,-1.0780255415011255,-0.010511026714945453,2.606396442921528,1,left
9.124,0.5241652024011718,0.808222497358238,0.04440416067833799,-6.633060973395814,6.545615855705812,-1.6446317731865903,-1.0847258129391544,-0.03411593242406814,2.6071420736895496,1,left
9.128,0.5393910616146116,0.7888880286181138,0.044900081646883194,-6.658260707218555,6.590407967255188,-1.6406106803257219,-1.0910876507233478,-0.05773656334278914,2.606800505154312,1,left
9.129,0.554467225145655,0.7694946607000811,0.04539484342539721,-6.680035334668557,6.631844739811064,-1.6360614600282122,-1.0970984659025398,-0.08133846052377557,2.605354342931106,1,left
9.13,0.569376897660668,0.750060083359716,0.04589088889127957,-6.698315875797336,6.669822653444483,-1.6310006077250427,-1.1027457575139714,-0.10488678554447993,2.602786870064338,1,left
9.133,0.5841036842857148,0.7306019803161119,0.04639065894274373,-6.713036625727102,6.70424049046817,-1.6254454714758413,-1.108017136190634,-0.12834641570791866,2.5990820659620417,1,left
9.134,0.5986316255481421,0.7111380016172721,0.046896580792327176,-6.7241353434532645,6.734999559469095,-1.619414190353785,-1.112900347290322,-0.15168203727910173,2.594224624707853,1,left
9.138,0.6129452303090743,0.6916857368942106,0.04741105637813404,-6.731553444033738,6.76200392549402,-1.6129256279291324,-1.1173832933873216,-0.17485823599386421,2.5881999727054077,1,left
9.139,0.6270295064759769,0.6722626895901148,0.04793645103880351,-6.735236194207202,6.7851606464866565,-1.6059993008354645,-1.1214540561126345,-0.19783958476894703,2.580994285638218,1,left
9.14,0.6408699893081755,0.6528862522231527,0.04847508258523377,-6.735132911186595,6.804380015757714,-1.5986553025158865,-1.1251009173567477,-0.22059072868028748,2.572594504731042,1,left
9.147,0.654452767170284,0.6335736827100774,0.04902921087670102,-6.731197162936172,6.819575808723663,-1.5909142228178117,-1.128312379847793,-0.2430764672760223,2.562988352295408,1,left
9.148,0.6677645046380793,0.6143420817489297,0.049601027977659716,-6.723386965660413,6.830665529376749,-1.5827970651345253,-1.1310771871167706,-0.2652618342901463,2.552164346538569,1,left
9.148,0.6807924628981783,0.5952083712392042,0.05019264894443221,-6.711664972794852,6.8375706504029035,-1.5743251633632116,-1.133384342860286,-0.28711217482210943,2.540111815611727,1,left
9.151,0.6935245173961807,0.5761892737097407,0.05080610327372319,-6.695998651205235,6.840216842387168,-1.5655201003753028,-1.135223129710004,-0.30859322004687134,2.5268209108699073,1,left
9.152000000000001,0.7059491726946223,0.5573012927219114,0.051443327031689814,-6.676360442859644,6.8385341902968655,-1.5564036286630982,-1.1365831274167355,-0.32967115951907255,2.5122826193123657,1,left
9.152999999999999,0.7180555745206986,0.5385606942117366,0.05210615566813091,-6.652727911654349,6.832457396955232,-1.5469975932529005,-1.1374542304557655,-0.35031271113401796,2.496488775168885,1,left
9.157,0.72983351901264,0.5199834887299666,0.052796317506308456,-6.625083875348335,6.821925973512976,-1.537323856859419,-1.1378266650586797,-0.3704851888071098,2.479432070593759,1,left
9.158,0.7412734592032694,0.5015854145368235,0.053515427886185886,-6.5934165225500365,6.806884416912787,-1.527404227255298,-1.1376910056755747,-0.3901565679322088,2.46110606542568,1,left
9.163,0.7523665088045455,0.48338192150856857,0.05426498393043932,-6.557719514688339,6.787282374329208,-1.5172603868287988,-1.1370381908701348,-0.40929554867815193,2.4415051959681433,1,left
9.164,0.7631044433765166,0.4653881558163568,0.055046359903080155,-6.517992072888436,6.763074794553495,-1.5069138243018905,-1.1358595386486239,-0.4278716171813067,2.4206247827413603,1,left
9.168,0.7734796989795902,0.4476189453439229,0.055860803138097506,-6.474239049661541,6.734222066280155,-1.4963857685802988,-1.1341467612223834,-0.4458551046906065,2.398461037153015,1,left
9.168,0.783485368424252,0.430088785818042,0.05670943052282926,-6.426470985305893,6.700690143238735,-1.4856971247064221,-1.1318919792019428,-0.4632172447199819,2.375011067031551,1,left
9.172,0.7931151952498465,0.41281182763290447,0.05759322552424173,-6.374704148904957,6.6624506561012575,-1.4748684118854307,-1.1290877352193376,-0.47993022826148696,2.350272880961996,1,left
9.172,0.8023635655816204,0.39580186335680906,0.05851303574831834,-6.318960563797155,6.619481011082322,-1.463919703554358,-1.125727006973699,-0.4959672571107233,2.3242453913606425,1,left
9.177,0.8112254980292244,0.3790723159171635,0.0594695710258357,-6.259268017379917,6.571764475135496,-1.4528705694635182,-1.1218032196936214,-0.5113025953543753,2.2969284162212236,1,left
9.177,0.8196966317997813,0.36263622746633933,0.060463402020986066,-6.195660055099396,6.519290247636092,-1.4417400197391848,-1.1173102580082341,-0.5259116190678137,2.2683226794615075,1,left
9.182,0.8277732132062441,0.3465062489357479,0.06149495936011239,-6.12817595846579,6.462053518426859,-1.4305464508961208,-1.1122424772173158,-0.5397708642687804,2.238429809795543,1,left
9.182,0.8354520807585761,0.33069463028946755,0.06256453327565205,-6.056860706922828,6.400055512089474,-1.419307593768261,-1.106594713949156,-0.552858073171156,2.207252338053087,1,left
9.187000000000001,0.8427306490311992,0.3152132114914626,0.06367227375696398,-5.981764923388802,6.333303518291095,-1.4080404633256098,-1.1003622961932544,-0.5651522387807284,2.1747936928640295,1,left
9.187999999999999,0.8496068915038869,0.3000734142004199,0.06481819119614578,-5.902944803275366,6.261810908041544,-1.3967613103452368,-1.093541052693282,-0.576633647872728,2.1410581946219653,1,left
9.191,0.8560793225742134,0.28528623420408067,0.06600215751260351,-5.820462026779349,6.1855971356830315,-1.385485574904119,-1.0861273216840728,-0.5872839223886788,2.106051047637339,1,left
9.192,0.8621469789385682,0.27086223460187187,0.06722390773513834,-5.7343836542319755,6.104687726420694,-1.3742278416615015,-1.0781179589547312,-0.5970860592878431,2.0697783303869297,1,left
9.196,0.8678094005357957,0.25681153974017684,0.06848304201590776,-5.6447820042791665,6.019114249188603,-1.3630017968984005,-1.0695103452182515,-0.6060244688862031,2.032246983762786,1,left
9.198,0.8730666112396396,0.24314382989836994,0.06977902804805745,-5.551734514656164,5.9289142746323655,-1.3518201872818982,-1.060302392774234,-0.614085011672846,1.9934647972812687,1,left
9.198,0.8779190994668566,0.22986833671612386,0.07111120386002354,-5.455323585309311,5.834131317975941,-1.3406947803219085,-1.0504925514890004,-0.6212550333877439,1.9534403935153724,1,left
9.201,0.8823677988383848,0.2169938393440183,0.072478780964603,-5.35563640360778,5.734814766526944,-1.3296363264881974,-1.040079814186675,-0.6275233977762288,1.9121832115609019,1,left
9.202,0.8864140690099009,0.20452866129184705,0.0738808478449372,-5.252764751378109,5.63101979156139,-1.3186545229555597,-1.0290637215825085,-0.6328805162295026,1.8697034906496124,1,left
9.208,0.8900596767885635,0.19248066794350288,0.07531637375800947,-5.146804793484786,5.522807244315702,-1.3077579789452165,-1.0174443668485587,-0.6373183737214104,1.8260122547127304,1,left
9.209,0.8933067776590533,0.18085726470294178,0.07678421283191084,-5.037856848078514,5.410243536101014,-1.296954182684606,-1.0052223998291323,-0.6408305508153268,1.7811212981437088,1,left
9.21,0.8961578978322265,0.16966539573185616,0.07828310843223067,-4.926025140663803,5.293400504042928,-1.286249470277572,-0.9923990308822319,-0.6434122417158369,1.7350431726994335,1,left
9.211,0.8986159169055384,0.15891154323691273,0.07981169777656605,-4.811417547799076,5.172355266639113,-1.2756489972624947,-0.9789760343136261,-0.6450602683779495,1.6877911754143922,1,left
9.212,0.9006840512048406,0.14860172726189436,0.08136851677890727,-4.69414533827303,5.047190074815602,-1.2651567139057844,-0.964955751368436,-0.6457730906839184,1.6393793373988708,1,left
9.217,0.9023658378708682,0.13874150593676862,0.08295200510381114,-4.574322917553617,4.917992162649399,-1.2547753450088288,-0.9503410927434064,-0.6455508126950842,1.5898224133888388,1,left
9.217,0.9036651197496588,0.12933597613369446,0.08456051140726158,-4.452067577627566,4.784853599211057,-1.2445063745214795,-0.9351355405813029,-0.6443951849834658,1.53913587191181,1,left
9.224,0.9045860311331126,0.12038977448250147,0.08619229874135094,-4.3274992523016556,4.64787114146807,-1.2343500349858698,-0.9193431499071667,-0.6423096030451516,1.4873358859296357,1,left
9.225,0.905132984376071,0.11190707870564312,0.08784555010276068,-4.200740277621747,4.507146087878104,-1.224305301780739,-0.9029685494644486,-0.6392991017948526,1.4344393238159001,1,left
9.226,0.9053106573956442,0.10389160924312733,0.08951837410752075,-4.071915157058643,4.362784132289825,-1.2143698921367667,-0.8860169419073506,-0.6353703461383083,1.3804637405223457,1,left
9.227,0.9051239820391884,0.09634663114952158,0.09120881077540118,-3.9411503311031866,4.2148952177580155,-1.2045402688937363,-0.8684941033040181,-0.630531617616562,1.3254273687855562,1,left
9.231,0.9045781332892983,0.08927495625659464,0.09291483740715831,-3.80857395090671,4.063593389868946,-1.19481164897067,-0.8504063819035544,-0.624792797113473,1.2693491102219763,1,left
9.232000000000001,0.9036785192568713,0.08267894560547663,0.09463437453691738,-3.674315655597034,3.908996649161523,-1.1851780165203818,-0.8317606961181703,-0.6181653436151984,1.2122485261562495,1,left
9.236,0.9024307718963631,0.07656051216038723,0.09636529193920046,-3.5385063528946463,3.7512268022196165,-1.1756321407402037,-0.8125645316701459,-0.6106622690077621,1.154145828024813,1,left
9.237,0.9008407383609766,0.07092112382183394,0.09810541466545358,-3.4012780026484712,3.590409311001166,-1.1661655983109236,-0.7928259378516577,-0.6022981088962525,1.09506186719369,1,left
9.241,0.8989144728995375,0.06576180676079209,0.09985252908016305,-3.262763402905828,3.426673139960219,-1.156768800436242,-0.7725535228439235,-0.5930888894266368,1.0350181240264917,1,left
9.241,0.8966582291814955,0.06108314909621079,0.10160438886345578,-3.1230959781267207,3.26015060050894,-1.147431024455311,-0.751756448040537,-0.5830520900886702,0.9740366960357569,1,left
9.246,0.8940784529243172,0.05688530493708174,0.10335872094614039,-2.9824095691485235,3.0909771923578706,-1.1381404500011356,-0.7304444213183058,-0.572206602475903,0.9121402849479467,1,left
9.247,0.891181774691405,0.053167998809553994,0.10511323134507282,-2.8408382245034307,2.9192914412643765,-1.128884199677825,-0.7086276891973763,-0.560572684976372,0.849352182509649,1,left
9.251,0.8879750027292493,0.04993053048922983,0.10686561087176709,-2.69851599268774,2.7452347327111766,-1.1196483842298366,-0.6863170278309225,-0.548171913365181,0.7856962548598604,1,left
9.251,0.8844651157193918,0.047171780256920294,0.10861354069457138,-2.555576714979089,2.56895114102928,-1.1104181521765024,-0.6635237327631948,-0.5350271272678587,0.7211969252905825,1,left
9.256,0.8806592553339005,0.04489021459262635,0.11035469774368069,-2.4121538183952542,2.390587253472416,-1.1011777438852126,-0.6402596073932808,-0.5211623724611197,0.655879155215412,1,left
9.257,0.8765647185017332,0.043083892318623807,0.11208675995787916,-2.268380108385933,2.210291988743255,-1.0919105500566952,-0.6165369500805087,-0.5066028389754526,0.5897684231633085,1,left
9.261000000000001,0.8721889493157072,0.04175047119872908,0.1138074113804075,-2.12438756084718,2.0282164094653177,-1.0825991745958383,-0.5923685398260389,-0.4913747949618259,0.5228907016123069,1,left
9.262,0.8675395305337962,0.040887214997134096,0.11551434711633136,-1.9803071130467576,1.8445135280885014,-1.0732255018414785,-0.5677676204638409,-0.47550551628273785,0.45527243147558655,1,left
9.265,0.8626241746508648,0.0404910009973124,0.11720527816355493,-1.836268453047671,1.6593381057106136,-1.0637707681284927,-0.5427478833348467,-0.45902321189404593,0.3869404941521523,1,left
9.266,0.8574507145328897,0.04055832798028848,0.11887793612546485,-1.692399807216509,1.4728464432921793,-1.0542156376554064,-0.5173234486263709,-0.44195694562313786,0.317922181562763,1,left
9.267000000000001,0.8520270936143023,0.04108532466176775,0.12053007780914293,-1.548827725402974,1.285196164737131,-1.0445402826305492,-0.4915088459348804,-0.42433655592103214,0.2482451655086658,1,left
9.27,0.8463613556664495,0.042067758587915005,0.12215948971115453,-1.4056768633770838,1.0965459913077578,-1.0347244676695553,-0.4653189948185667,-0.4061925757052777,0.1779374681992306,1,left
9.271,0.8404616341568527,0.043501045489019396,0.12376399239112539,-1.2630697621110276,0.9070555068385124,-1.0247476384167182,-0.43876918589544117,-0.38755615386780784,0.10702743528202222,1,left
9.276,0.8343361412335891,0.04538025908892384,0.12534144472974185,-1.1211266234934993,0.7168849132099487,-1.0145890143623597,-0.41187506266431567,-0.368458979046441,0.03554371178790878,1,left
9.277000000000001,0.827993156381132,0.04770014136673372,0.12688974806332734,-0.9799650824295467,0.52619477595867,-1.0042276856975976,-0.3846526040153803,-0.34893320571618125,-0.03648477910859208,1,left
9.277000000000001,0.8214410147967759,0.050455113267168845,0.12840685018416773,-0.8396999771005922,0.33514576198415985,-0.9936427133955728,-0.35711810735414146,-0.32901138254684903,-0.10902885471737289,1,left
9.279,0.8146880955297738,0.05363928585630506,0.12989074919511526,-0.7004431224372833,0.14389837506873004,-0.9828132305343145,-0.3292881722614946,-0.3087263829722498,-0.18205908905449325,1,left
9.281,0.8077428094208746,0.05724647191709059,0.13133949720605523,-0.5623030936801238,-0.04738730298726839,-0.9717185422239799,-0.30117968461176464,-0.28811133791485916,-0.2555458268644898,1,left
9.285,0.8006135868888008,0.061270197972869325,0.13275120385671332,-0.4253850250853513,-0.2385518599012597,-0.9603382221524227,-0.2728098010696501,-0.2671995706088647,-0.3294591956515758,1,left
9.286,0.7933088656253875,0.06570371672016169,0.13412403964792435,-0.2897904255603174,-0.4294367871594605,-0.9486522049357017,-0.2441959338861588,-0.24602453346336245,-0.40376911592946246,1,left
9.29,0.7858370782707158,0.0705400198456585,0.13545623906458532,-0.1556170111957648,-0.6198847011147889,-0.9366408741112401,-0.21535573591282556,-0.22461974690655845,-0.4784453099008459,1,left
9.29,0.7782066401421084,0.07577185119524413,0.13674610347631772,-0.02295855430189288,-0.80973955148049,-0.924285145740898,-0.1863070857527483,-0.20301874015097332,-0.5534573087788281,1,left
9.294,0.7704259370896515,0.0813917202543194,0.13799200380375015,0.10809525144110474,-0.9988468177674996,-0.9115665475903473,-0.15706807296628136,-0.18125499381889185,-0.6287744589636799,1,left
9.295,0.7625033135465321,0.08739191589029463,0.13919238293956246,0.23745891010327408,-1.1870536942123158,-0.8984672938502006,-0.12765698324857488,-0.15936188436663953,-0.704365927289403,1,left
9.299,0.7544470608348385,0.09376452030189812,0.1403457579165829,0.36505122727680483,-1.3742092637404484,-0.8849703553633629,-0.09809228349554942,-0.13737263024570437,-0.7802007055555176,1,left
9.299,0.7462654057792156,0.10050142311654378,0.14145072182207946,0.49079539887590323,-1.5601646615083724,-0.8710595253220251,-0.06839260667434986,-0.1153202397382542,-0.8562476145603739,1,left
9.306000000000001,0.7379664996753178,0.10759433557467761,0.1425059454663094,0.6146190853360862,-1.7447732285643274,-0.8567194803966387,-0.038576736413827556,-0.0932374604042281,-0.932475307853073,1,left
9.307,0.7295584076578345,0.11503480473694515,0.14351017882130443,0.7364544715792698,-1.9278906561652922,-0.8419358372580575,-0.00866359123015993,-0.0711567300769037,-1.0088522754217863,1,left
9.31,0.7210490985113737,0.12281422764679008,0.14446225225225579,0.8562383131057265,-2.109375121284019,-0.826695204452856,0.021327791697671645,-0.04911012934366011,-1.085346847536867,1,left
9.311,0.7124464349641977,0.1309238653793339,0.14536107756966493,0.9739119685684758,-2.2890874138361417,-0.810985229590595,0.05137827328815779,-0.027129335448568784,-1.1619271989676665,1,left
9.314,0.7037581644993797,0.13935485690753152,0.146205648934574,1.0894214191799754,-2.4668910561531123,-0.7947946418005384,0.08146862993918248,-0.005245577553448868,-1.2385613537923994,1,left
9.315,0.6949919107102138,0.14809823271836578,0.14699504365017652,1.20271727529509,-2.642652415222008,-0.7781132894140108,0.11157957161770578,0.016510406705878323,-1.3152171910207375,1,left
9.318,0.6861551652158294,0.1571449281153778,0.14772842287134005,1.313754770508271,-2.8162408082081924,-0.7609321728272425,0.14169176074349363,0.03810841343121368,-1.391862451249058,1,left
9.318999999999999,0.6772552801392095,0.16648579614886413,0.14840503225957882,1.4224937435966631,-2.98752860177132,-0.7432434724981669,0.17178583195329475,0.05951881350428339,-1.4684647445684265,1,left
9.324,0.6682994611352758,0.1761116201204445,0.14902420260438368,1.5288986086345162,-3.156391305679313,-0.7250405720292329,0.20184241283192356,0.08071259252215493,-1.5449915599454578,1,left
9.324,0.6592947609445339,0.18601312561383965,0.14958535042323107,1.6329383135977917,-3.322707661218726,-0.7063180762868546,0.23184214569671183,0.10166138968774738,-1.6214102762961626,1,left
9.328,0.6502480734411143,0.19618099200920588,0.15008797854448847,1.7345862877712679,-3.48635972489327,-0.6870718245066721,0.2617657105217395,0.12233753571688002,-1.6976881754727744,1,left
9.329,0.6411661281439042,0.2066058634454377,0.15053167667197773,1.8338203782637488,-3.6472329478953527,-0.6672988983323193,0.29159384908814784,0.1427140898226821,-1.7737924573833213,1,left
9.333,0.6320554851635589,0.21727835920444089,0.15091612192786522,1.9306227759302004,-3.805216251828154,-0.6469976247339039,0.32130739044667367,0.16276487583748464,-1.849690257463405,1,left
9.334,0.6229225305621736,0.22818908350330067,0.15124107937148382,2.024979930992768,-3.9602021011481217,-0.6261675737509055,0.3508872777219364,0.18246451750012155,-1.9253486666215158,1,left
9.335,0.6137734721034499,0.23932863469331364,0.15150640249426578,2.116882458645716,-4.11208657278979,-0.6048095510026839,0.38031459600577766,0.2017884727786512,-2.000734753290044,1,left
9.34,0.6046143353700562,0.25068761387690747,0.15171203369329528,2.2063250349223464,-4.260769423426542,-0.5829255849082783,0.40957060057911004,0.2207130668148705,-2.075815586333986,1,left
9.341000000000001,0.5954509602237616,0.26225663296107316,0.15185800472707517,2.2933062830949345,-4.406154154812305,-0.5605189085556598,0.4386367444193921,0.2392155229189304,-2.150558257079996,1,left
9.344,0.5862889975845028,0.2740263221677729,0.15194443715642975,2.377828650871687,-4.548148077640321,-0.5375939361590835,0.467494704232362,0.2572739911983404,-2.2249298992163054,1,left
9.344,0.5771339065067463,0.2859873370218734,0.15197154277056366,2.4598982787651966,-4.686662374197598,-0.5141562341440422,0.4961264047536909,0.2748675746872095,-2.2988977061927356,1,left
9.345,0.5679909515330872,0.29813036483976463,0.15193962399461214,2.5395248605874876,-4.8216121593428465,-0.490212487409616,0.5245140413476239,0.29197635299741753,-2.372428946237726,1,left
9.347999999999999,0.5588652003049063,0.31044613074602356,0.15184907427287625,2.616721498077496,-4.952916537991443,-0.4657704622377585,0.5526401009854712,0.30858140354354874,-2.4454909752059457,1,left
9.347999999999999,0.5497615214108356,0.32292540324825214,0.15170037842060824,2.6915045522474808,-5.080498656539599,-0.4408389678293866,0.5804873816861624,0.32466482039208705,-2.5180512474689163,1,left
9.353,0.5406845824583683,0.33555899940114725,0.15149411293432719,2.763893493440163,-5.204285746391064,-0.4154278179338916,0.6080390105003769,0.34020973078398037,-2.590077325059813,1,left
9.354,0.5316388483622234,0.3483377895915273,0.1512309462463881,2.8339107510236095,-5.324209159073729,-0.3895477931160306,0.6352784601190102,0.3552003093782378,-2.6615368852822465,1,left
9.357999999999999,0.5226285798542254,0.36125270197745163,0.15091163890581874,2.901581563056269,-5.440204393164211,-0.36321060369095653,0.6621895641859404,0.3696217902627269,-2.732397726991424,1,left
9.359,0.5136578322316746,0.37429472661624774,0.15053704366502016,2.966933826130156,-5.552211113375874,-0.33642885325441063,0.6887565313942052,0.3834604767767929,-2.8026277757545146,1,left
9.363,0.504730454371612,0.3874549193171261,0.15010810544969921,3.029997945593388,-5.66017316215466,-0.30921600273375616,0.7149639584438076,0.3967037491887321,-2.8721950880954377,1,left
9.363999999999999,0.4958500880462907,0.40072440525388503,0.1496258611862233,3.0908066863465278,-5.7640385641158165,-0.28158633488422047,0.7407968419384241,0.4093400702695188,-2.941067855027576,1,left
9.368,0.4870201675811882,0.4140943823730513,0.1490914394577584,3.149395024400541,-5.863759523643172,-0.25355491915343814,0.7662405892973028,0.4213589888025143,-3.0092144050760923,1,left
9.369,0.47824391989985093,0.4275561246339193,0.14850605996066513,3.205799999377609,-5.959292415960986,-0.22513757683615054,0.7912810287576051,0.43275114106717655,-3.0766032069896267,1,left
9.372,0.46952436499871564,0.44110098511906964,0.1478710327363527,3.260060568129549,-6.050597771976654,-0.19635084643972067,0.8159044185413714,0.44350825033304914,-3.143202872339163,1,left
9.374,0.4608643168915947,0.4547203990550276,0.14718775716011784,3.312217459642238,-6.1376402571806485,-0.16721194917997217,0.840097455260173,0.4536231243985365,-3.208982158199764,1,left
9.377,0.4522663850599926,0.4684058867804968,0.1464577206761198,3.3623130313881586,-6.220388644878045,-0.1377387545257513,0.8638472816293545,0.4630896512071743,-3.2739099701086936,1,left
9.378,0.44373297644178705,0.4821490566931543,0.1456824972745016,3.4103911272830327,-6.298815784013845,-0.10794974570955304,0.8871414935625769,0.4719027925722815,-3.3379553654911827,1,left
9.382,0.4352662979860352,0.49594160819629884,0.1448637457108754,3.4564969373964605,-6.372898561842102,-0.0778639851205413,0.9099681467161296,0.4800585760390384,-3.4010875577427497,1,left
9.383,0.4268683597957191,0.509775334656128,0.14400320747023013,3.5006768595605826,-6.442617861676487,-0.04750107949533428,0.9323157625512155,0.48755408491117525,-3.463275921154505,1,left
9.387,0.4185409788729299,0.5236421263712369,0.14310270447853188,3.542978363014964,-6.507958515947547,-0.0168811448210206,0.9541733339810996,0.4943874464675794,-3.5244899968653867,1,left
9.389,0.4102857834717276,0.5375339735487044,0.14216413656666213,3.5834498542202584,-6.568909254779442,0.013975229135980514,0.9755303306686717,0.5005578183922446,-3.584699500022602,1,left
9.392000000000001,0.40210421805412916,0.5514429692749634,0.14118947869205817,3.6221405449676682,-6.6254626502864005,0.04504701476239575,0.9963767040385977,0.5060653734390916,-3.643874328328871,1,left
9.392999999999999,0.39399754883663524,0.565361312463977,0.14018077792284353,3.65910032290583,-6.677615056776592,0.07631278307982979,1.01670289206683,0.5109112823512885,-3.7019845721522504,1,left
9.397,0.38596686990777235,0.5792813107611294,0.13914015018870018,3.6943796246014937,-6.725366547038476,0.1077507408643497,1.036499823908804,0.5150976950527958,-3.7590005263714485,1,left
9.398,0.3780131098895321,0.5931953833797824,0.1380697768040674,3.7280293112452427,-6.7687208448721154,0.13933876849313645,1.0557589244261905,0.5186277201279627,-3.814892704126552,1,left
9.401,0.37013703910754764,0.6070960638479875,0.13697190077206728,3.760100547108551,-6.8076852540152295,0.1710544586079748,1.074472118670575,0.521505402603098,-3.8696318526420366,1,left
9.402000000000001,0.3623392772275592,0.6209760026453577,0.13584882287978212,3.7906446808536294,-6.842270583601204,0.20287515568584705,1.0926318363613081,0.5237357000557047,-3.9231889712259034,1,left
9.402999999999999,0.3546203013109963,0.6348279697168716,0.13470289759519408,3.8197131297928384,-6.872491070273605,0.23477799660732596,1.1102310162951987,0.525324457143453,-3.9755353312460477,1,left
9.406,0.3469804542416369,0.6486448568606487,0.13353652877260735,3.847357267189907,-6.898364297069167,0.26673995231382913,1.127263110447699,0.5262783787659884,-4.026642497342611,1,left
9.407,0.3394199534750369,0.6624196799937009,0.13235216516860585,3.8736283126908226,-6.919911109168637,0.29873787064509777,1.1437220874255998,0.526605002139082,-4.076482348832178,1,left
9.413,0.331938900059297,0.676145581300379,0.13115229576752194,3.898577225964545,-6.937155526667998,0.33074852039038416,1.1596024350276901,0.5263126679905186,-4.1250271005556804,1,left
9.414,0.32453728787398595,0.6898158312693905,0.12993944491500098,3.922254603612363,-6.950124654838668,0.36274863629642956,1.1748991618446516,0.5254104909624069,-4.1722493229574,1,left
9.414,0.3172150130381812,0.7034238306312234,0.1287161672601877,3.9447105793697017,-6.958848592924014,0.39471496425238545,1.189607797925857,0.5239083292345218,-4.218121961478275,1,left
9.417,0.30997188344394966,0.7169631122132241,0.1274850425115676,3.9659947276031216,-6.963360342835711,0.42662430558129744,1.2037243945586804,0.5218167533678587,-4.262618355402909,1,left
9.419,0.30280762837287234,0.7304273427301569,0.12624867001803472,3.986155970118856,-6.963695718772728,0.45845355965831036,1.2172455232042523,0.5191470143658292,-4.3057122562959025,1,left
9.421,0.29572190815309546,0.7438103245271706,0.12500966319268933,4.005242486326798,-6.959893258182214,0.49017976459868995,1.2301682736319064,0.5159110109488059,-4.347377846159199,1,left
9.422,0.28871432381600365,0.7571059972931561,0.12377064379941677,4.023301626817736,-6.951994134141037,0.521780136049163,1.242490251292861,0.5121212560360319,-4.387589755438236,1,left
9.425,0.28178442671283915,0.770308439764272,0.12253423612054386,4.040379830411852,-6.940042069159009,0.5532321041739633,1.2542095739719752,0.5077908424272516,-4.426323081000627,1,left
9.426,0.2749317280501641,0.7834118714384248,0.12130306101861794,4.056522544733417,-6.924083250392999,0.5845133489266762,1.265324867754695,0.5029334076747921,-4.463553404207032,1,left
9.431000000000001,0.26815570830013646,0.7964106543222165,0.12007972989852214,4.071774150363672,-6.904166246249277,0.6156018336986112,1.275835262344587,0.49756309813523836,-4.499256809189672,1,left
9.432,0.2614558264398321,0.8092992947324281,0.11886683857025857,4.0861778886210445,-6.880341924339899,0.6464758374340095,1.2857403857651175,0.49169453218828996,-4.533409901449692,1,left
9.436,0.2548315289748963,0.8220724451736693,0.11766696100982023,4.0997757930151675,-6.85266337074738,0.677113985301899,1.2950403584776127,0.48534276260887654,-4.565989826880306,1,left
9.437000000000001,0.24828225870579512,0.8347249063111998,0.11648264301560335,4.112608624418618,-6.8211858105405385,0.707495278013863,1.303735786945587,0.47852323807713576,-4.596974291318208,1,left
9.441,0.24180746319772192,0.847251629051592,0.11531639575925562,4.124715809997833,-6.785966529473201,0.7375991198763648,1.3118277566739003,0.4712517638094271,-4.626341580721332,1,left
9.442,0.2354066029174829,0.8596477167337835,0.11417068923196302,4.136135385942364,-6.747064796786365,0.7674053456656013,1.319317824749455,0.46354446129216814,-4.654070582066497,1,left
9.446,0.22907915900479764,0.8719084274213165,0.11304794559011255,4.1469039440294075,-6.704541789023513,0.7968942464121167,1.3262080119084214,0.4554177270989363,-4.680140805055902,1,left
9.446,0.2228246406530529,0.8840291762751366,0.11195053240753446,4.15705658205849,-6.65846051475804,0.8260465941816163,1.3325007941532359,0.44688819076998265,-4.704532404716793,1,left
9.45,0.21664259208388967,0.8960055379760965,0.11088075584391115,4.166626858189178,-6.608885740121155,0.8548436659375587,1.3381990939408972,0.4379726717320505,-4.727226204973916,1,left
9.451,0.21053259910814673,0.9078332491580494,0.10984085373963892,4.175646749212833,-6.555883915008259,0.8832672665702025,1.3433062709623578,0.4286881352351901,-4.748203723269599,1,left
9.457,0.20449429527154847,0.9195082108071528,0.10883298864711956,4.184146612787638,-6.499523099831534,0.911299751175812,1.3478261125310929,0.41905164728210237,-4.767447196301499,1,left
9.457,0.19852736758833897,0.9310264905813362,0.10785924080917582,4.192155153664477,-6.439872892676496,0.938924046668711,1.351762823597226,0.4090803285244348,-4.784939606943171,1,left
9.462,0.19263156187167513,0.942384325005467,0.10692160109782554,4.199699393929626,-6.377004356710374,0.9661236728077971,1.3551210164018914,0.39879130709939675,-4.800664712407672,1,left
9.462,0.18680668767548553,0.9535781215018869,0.10602196392958224,4.206804647288737,-6.310989947680578,0.9928827627180132,1.3579056997848236,0.3882016703790457,-4.814607073709453,1,left
9.466000000000001,0.18105262286596924,0.964604460222147,0.10516212017638925,4.213494497415198,-6.24190344133203,1.0191860829860953,1.3601222681564955,0.3773284156036374,-4.8267520864747535,1,left
9.467,0.1753693178411504,0.9754600956531971,0.10434375009587778,4.219790780384566,-6.1698198605629315,1.0450190534086994,1.361776490144463,0.366188399369519,-4.8370860131456395,1,left
9.471,0.16975679941524863,0.986141957978966,0.10356841631055198,4.225713571215565,-6.094815402129457,1.0703677664697502,1.3628744969288258,0.35479828601903185,-4.84559601657569,1,left
9.472999999999999,0.16421517438091124,0.9966471541863651,0.10283755686886309,4.231281174536896,-6.016967362701096,1.095219006622537,1.3634227703145794,0.3431744953683304,-4.8522701948000755,1,left
9.472999999999999,0.15874463275629028,1.006972968912933,0.10215247842019044,4.236510119397991,-5.936354064059708,1.1195602694507434,1.3634281306491074,0.33133315090891696,-4.857097616379423,1,left
9.476,0.15334545071893488,1.0171168650373417,0.10151434953614853,4.2414151582407795,-5.853054777226997,1.1433797807811996,1.3628977247259668,0.319290030007229,-4.860068355501511,1,left
9.476,0.14801799322761441,1.0270764840110345,0.10092419421908827,4.2460092700484795,-5.767149645296949,1.1666665158197218,1.3618390137800374,0.3070605172366871,-4.861173526229692,1,left
9.48,0.14276271633350854,1.0368496459233039,0.10038288565386111,4.250303667686469,-5.678719604741812,1.1894102183799378,1.360259761615464,0.29465956127532766,-4.860405315659759,1,left
9.48,0.13758016917862614,1.0464343492880155,0.09989114027252324,4.254307809429457,-5.587846305070452,1.2116014202252179,1.3581680228717818,0.28210163541230765,-4.8577570159517665,1,left
9.481,0.13247099567154094,1.055828770540148,0.09944951220384686,4.258029414568654,-5.4946120273002945,1.2332314603008476,1.3555721314252,0.26940070162818114,-4.85322305523996,1,left
9.485,0.1274359358217343,1.0650312632345846,0.09905838816874606,4.2614744828125835,-5.399099602758462,1.2542925031974275,1.3524806889205248,0.25657017821335465,-4.846799027418586,1,left
9.487,0.12247582670493334,1.0740403569433299,0.09871798287133611,4.264647317094711,-5.301392334310568,1.2747775559434535,1.3489025534277281,0.24362291088867585,-4.838481720795972,1,left
9.49,0.11759160302096547,1.0828547558453698,0.0984283349325037,4.267550549499857,-5.2015739215189924,1.2946804824648663,1.3448468282157282,0.23057114739169723,-4.828269145603838,1,left
9.491,0.11278429719343855,1.0914733369988654,0.09818930341079271,4.270185170199817,-5.099728390164231,1.3139960154823225,1.3403228506345144,0.21742651549178485,-4.816160560343384,1,left
9.495,0.10805503895204632,1.0998951482843335,0.09800056494473777,4.2725505593873665,-4.995940025966794,1.3327197658567365,1.3353401810953611,0.2042000043969038,-4.8021564969442405,1,left
9.496,0.10340505433817043,1.1081194060109771,0.09786161153427532,4.27464452221703,-4.890293312223053,1.3508482294402535,1.3299085921374996,0.19090194951461126,-4.78625878470696,1,left
9.499,0.09883566408294475,1.1161454921836447,0.09777174896347107,4.276463326760138,-4.782872871062674,1.368378791488136,1.3240380575682702,0.17754202052951995,-4.7684705729942545,1,left
9.5,0.09434828132134697,1.123972951431576,0.09773009585393935,4.278001744981005,-4.673763408029642,1.3853097286853429,1.317738741662463,0.1641292127592579,-4.74879635263076,1,left
9.506,0.08994440862230989,1.131601487599786,0.09773558332450784,4.279253096740202,-4.563049659683582,1.4016402088398745,1.3110209884052646,0.1506718417507439,-4.727241975965657,1,left
9.507,0.08562563432767645,1.1390309600006174,0.09778695521555406,4.280209296830158,-4.450816343912942,1.4173702882932417,1.3038953107619682,0.137177541078418,-4.703814675547065,1,left
9.509,0.08139362819678807,1.146261379320046,0.09788276881888405,4.280860905047478,-4.33714811264681,1.4325009070966919,1.2963723799563758,0.12365326330591374,-4.678523081351702,1,left
9.51,0.07725013634781557,1.1532929031728354,0.09802139604363738,4.281197179305584,-4.222129506647467,1.4470338820001072,1.2884630147386118,0.11010528407252926,-4.651377236507895,1,left
9.515,0.07319697547672356,1.1601258313012057,0.09820102495348794,4.281206131790371,-4.105844912061465,1.4609718972987664,1.2801781706219062,0.09653920926574662,-4.622388611444677,1,left
9.517000000000001,0.06923602632869759,1.1667606004099398,0.09841966163253739,4.280874588160749,-3.9883785184028593,1.4743184935814388,1.2715289290667544,0.08295998524096121,-4.591570116394322,1,left
9.519,0.06536922640195192,1.1731977786248322,0.09867513237154223,4.280188249795005,-3.86981427763837,1.4870780544215658,1.262526486589761,0.06937191204951364,-4.558936112170364,1,left
9.52,0.06159856188051963,1.1794380595530845,0.09896508620393378,4.27913175908298,-3.7502358640405835,1.4992557910515774,1.253182143773384,0.055778659636063,-4.524502419137856,1,left
9.524,0.05792605881423498,1.185482255919379,0.09928699785306208,4.277688767763082,-3.629726634471942,1.5108577250586954,1.243507294151765,0.04218328696630129,-4.488286324287362,1,left
9.525,0.05435377358187204,1.1913312927556863,0.09963817116947257,4.275842008302129,-3.5083695887590873,1.5218906691388905,1.233513412946802,0.02858826404598205,-4.450306586318964,1,left
9.529,0.05088378268382418,1.1969862001388312,0.10001574313565975,4.273573368314946,-3.3862473298142306,1.5323622059439865,1.2232120456276472,0.01499549679222,-4.410583438637413,1,left
9.53,0.04751817191769687,1.2024481054969172,0.10041668849813914,4.270863968019549,-3.263442023157522,1.5422806650552572,1.212614796265864,0.0014063547180110808,-4.36913859015441,1,left
9.533999999999999,0.04425902500069965,1.2077182255410894,0.10083782505949444,4.26769424072255,-3.140035355491989,1.5516550981152253,1.201733315657553,-0.012178298609077775,-4.325995223788968,1,left
9.535,0.04110841172168959,1.212797857917697,0.10127581963280637,4.264044016328244,-3.0161084919803822,1.5604952521477675,1.1905792891828832,-0.025758072373094645,-4.281177992551785,1,left
9.538,0.038068375729758824,1.2176883727089542,0.10172719463299496,4.259892607863545,-2.891742031871321,1.5688115410950345,1.1791644243897792,-0.03933301266184113,-4.234713013125949,1,left
9.539,0.03514092208064115,1.222391203923758,0.10218833526033692,4.255218901009617,-2.7670159621204022,1.5766150155981395,1.167500438373541,-0.05290356425623156,-4.186627857008066,1,left
9.54,0.032328004659970114,1.2269078411095822,0.1026554972204432,4.250001446629679,-2.6420096086504383,1.5839173310470285,1.155599045177919,-0.06647053072649395,-4.136951539551087,1,left
9.544,0.029631513604897842,1.2312398212000586,0.10312481490803962,4.244218556281011,-2.5168015848937144,1.5907307139234543,1.1434719435282572,-0.08003503371502413,-4.085714507402027,1,left
9.545,0.02705326287269982,1.2353887207071341,0.1035923099503843,4.237848400697677,-2.3914697372581473,1.59706792645949,1.1311308051207587,-0.09359847207548909,-4.032948624666461,1,left
9.548,0.02459497813893962,1.2393561483584,0.10405389997688384,4.230869111228946,-2.266091087158393,1.6029422296325864,1.1185872635367238,-0.10716248115940027,-3.97868715784514,1,left
9.549,0.022258285220858737,1.2431437382531638,0.10450540747648038,4.223258884216735,-2.1407417692523834,1.6083673445167783,1.1058529037641158,-0.12072889233116778,-3.922964759426948,1,left
9.549,0.020044699209634347,1.2467531435723958,0.10494256862610594,4.214996088178048,-2.0154969657124115,1.613357412032376,1.0929392522910286,-0.1342996927506029,-3.8658174499866687,1,left
9.552999999999999,0.017955614463744052,1.2501860308451527,0.10536104201083774,4.2060593730781,-1.8904308373047132,1.6179269512556664,1.0798577677350463,-0.14787698546183883,-3.807282598631771,1,left
9.554,0.015992295573325307,1.2534440747554338,0.10575641719923859,4.196427779936731,-1.7656164537525296,1.6220908166658035,1.0666198319719353,-0.16146294982764642,-3.747398901638215,1,left
9.558,0.014155869370440319,1.256528953462125,0.10612422318228877,4.186080848430353,-1.6411257268029054,1.6258641548253359,1.0532367417265995,-0.17505980234813498,-3.686206359111187,1,left
9.558,0.012447318042793611,1.2594423443908986,0.10645993673335787,4.1749987207282055,-1.5170293484730122,1.6292623608690906,1.0397197005887397,-0.18866975790284657,-3.6237462495026898,1,left
9.562999999999999,0.010867473397768232,1.2621859204423644,0.10675899080059748,4.163162240841018,-1.3933967352515628,1.6323010349580276,1.0260798114152163,-0.2022949914552772,-3.5600611018140498,1,left
9.564,0.009417012307672204,1.2647613465530485,0.10701678309690225,4.150553049336614,-1.2702959780868368,1.6349959387330466,1.0123280690806897,-0.2159376002588903,-3.495194665307638,1,left
9.568,0.00809645334484898,1.2671702765453217,0.10722868509735353,4.137153673390579,-1.1477937978049633,1.637362951778541,0.9984753535377343,-0.2295995666037245,-3.4291918765484635,1,left
9.568999999999999,0.006906154587621044,1.2694143502049997,0.10739005167936952,4.122947612137948,-1.0259555056034528,1.6394180281044604,0.9845324231472646,-0.24328272114274216,-3.3620988235927816,1,left
9.573,0.005846312543822159,1.2714951905303185,0.10749623163641217,4.107919417289652,-0.9048449682664802,1.6411771526546584,0.9705099082397921,-0.2569887068371144,-3.293962707137478,1,left
9.574,0.004916962097535505,1.2734144011054584,0.10754257925798584,4.0920547689751965,-0.7845245777501452,1.6426562978483614,0.9564183048677418,-0.2707189435596934,-3.224831798440712,1,left
9.579,0.0041179773390965955,1.2751735635659482,0.10752446710394863,4.0753405467707315,-0.6650552247878404,1.6438713801606955,0.9422679687087951,-0.2844745933959842,-3.154755393821181,1,left
9.579,0.00344907309625082,1.2767742351391853,0.10743730002490721,4.057764895869302,-0.5464962761679417,1.6448382167473574,0.9280691090800001,-0.29825652668199193,-3.0837837655403746,1,left
9.584,0.0029098069560026573,1.2782179462581453,0.10727653040639773,4.0393172883476804,-0.42890555533830355,1.645572482117716,0.9138317830221891,-0.3120652888183913,-3.0119681088693286,1,left
9.585,0.0024995815578974915,1.2795061982597589,0.10703767454850781,4.019988579481748,-0.31233932599448383,1.6460896648598666,0.8995658894140779,-0.3259010679005352,-2.9393604851386805,1,left
9.588,0.002217646948656989,1.2806404611929443,0.10671633003387418,3.9997710590598943,-0.1968522783112345,1.6464050244204524,0.8852811630752746,-0.3397636632038966,-2.8660137605682467,1,left
9.589,0.0020631028110794153,1.281622171776144,0.10630819388525771,3.9786584976414407,-0.08249751747957261,1.6465335479413914,0.8709871688173234,-0.35365245456461225,-2.7919815406699358,1,left
9.592,0.0020349004145150283,1.282452731560114,0.10580908127419658,3.956646187704525,0.030673445785314588,1.6464899071550299,0.8566932954018189,-0.36756637269487463,-2.717318100015521,1,left
9.592,0.0021318441784804218,1.2831335053675161,0.10521494452202655,3.933730979625369,0.1426107030969791,1.6462884153386632,0.8424087493645784,-0.38150387047299406,-2.642078307158682,1,left
9.597000000000001,0.0023525927913583063,1.2836658200950102,0.10452189213622486,3.9099113124282647,0.2532659549398363,1.645942984328818,0.8281425486648274,-0.39546289524802786,-2.5663175444987703,1,left
9.597999999999999,0.0026956598761407684,1.2840509639737625,0.10372620764340611,3.8851872392430304,0.36259251622550603,1.6454670815952077,0.8139035161183555,-0.40944086219894354,-2.4900916228719083,1,left
9.602,0.003159414238341461,1.284290186388628,0.10282436800728498,3.8595604474041125,0.470545321184833,1.6448736873738103,0.7997002725736282,-0.42343462878835136,-2.4134566906534176,1,left
9.603,0.003742079763040887,1.2843846983547416,0.10181306144866922,3.8330342731229017,0.5770809279133676,1.6441752518581023,0.7855412297898887,-0.4374404703508997,-2.336469137154039,1,left
9.606,0.004441735044817438,1.284335673743855,0.10068920451122497,3.805613710662238,0.6821575228842784,1.6433836524471142,0.7714345829981855,-0.4514540568818039,-2.2591854902953736,1,left
9.607999999999999,0.005256312833536596,1.2841442513403902,0.09944995824314054,3.777305415939506,0.7857349257387205,1.6425101510486277,0.7573883032354531,-0.4654704312176215,-2.1816623095701546,1,left
9.607999999999999,0.0061835993653881925,1.2838115377898491,0.09809274339054913,3.7481177044821066,0.8877745946596179,1.6415653514355324,0.7434101297382825,-0.4794839890293078,-2.1039560771304107,1,left
9.612,0.007221233635602054,1.2833386114880703,0.09661525451021902,3.7180605436565695,0.9882396326306327,1.640559156653093,0.7295075627922569,-0.4934884611742066,-2.0261230908671077,1,left
9.613,0.008366706663425753,1.282726527454005,0.09501547289731448,3.687145539089988,1.0870947948777858,1.6395007264746433,0.7156878573238097,-0.5074768988270368,-1.9482193623227906,1,left
9.617,0.009617360791025108,1.2819763232239618,0.09329167820534794,3.65538591528424,1.1843064976650284,1.6383984349624257,0.7019580173253803,-0.5214416615820415,-1.8703005204397625,1,left
9.617,0.01097038903702646,1.2810890257943437,0.09144245863417345,3.62279649084237,1.2798428280017726,1.6372598284872055,0.6883247910957652,-0.535374408591835,-1.7924217211246025,1,left
9.618,0.012422834494977579,1.280065659625886,0.08946671958004629,3.5893936494826013,1.3736735527199722,1.6360915850948798,0.6747946672559775,-0.5492660927831172,-1.7146375624053407,1,left
9.622,0.013971589724928487,1.2789072557114929,0.08736369066022465,3.5551953084344374,1.46577012476486,1.6348994764052558,0.6613738715011892,-0.5631069581893544,-1.6370020049575769,1,left
9.623,0.015613396026721902,1.2776148617036809,0.0851329310346217,3.5202208853875185,1.5561056851474082,1.6336883329309824,0.6480683640496037,-0.576886540440432,-1.5595682977759269,1,left
9.626,0.017344842419352847,1.2761895530943181,0.0827743329649217,3.484491264403015,1.6446550600974728,1.632462013169794,0.6348838377494045,-0.5905936704491647,-1.4823889087674658,1,left
9.626,0.019162364111479466,1.2746324454359963,0.08028812358984742,3.4480287607736373,1.7313947535603806,1.6312233765260615,0.6218257168052391,-0.6042164813344039,-1.4055154600442548,1,left
9.632,0.0210622402557101,1.2729447075884055,0.07767486494218782,3.4108570847318433,1.8163029352964142,1.6299742600581855,0.6088991560860259,-0.6177424186203018,-1.328998667692617,1,left
9.633,0.02304059084008276,1.271127575960247,0.07493545227184376,3.373001303903632,1.8993594248375198,1.6287154590483108,0.5961090409762212,-0.631158253751085,-1.2528882857975603,1,left
9.636000000000001,0.02509337268316834,1.2691823696906634,0.07207111076522144,3.334487804403249,1.9805456715503773,1.6274467113908118,0.5834599877330445,-0.6444501009604446,-1.1772330545016143,1,left
9.636000000000001,0.027216374658219605,1.267110506667753,0.06908339076692818,3.295344250462061,2.0598447310497003,1.6261666857959578,0.5709563443125377,-0.6576034375343703,-1.1020806518783834,1,left
9.641,0.02940521246252462,1.264913520213246,0.06597416161286387,3.2555995424829045,2.1372412382003305,1.624872973805146,0.5586021916277258,-0.67060312750594,-1.0274776494022706,1,left
9.642000000000001,0.03165532344892091,1.2625930761741173,0.06274560417045362,3.215283773409337,2.212721376941316,1.623562085614051,0.5464013452025518,-0.6834334488202157,-0.9534694707971383,1,left
9.647,0.03396196222097234,1.2601509900608057,0.05940020215752918,3.1744281832974,2.2862728471597418,1.622229449700009,0.5343573571856741,-0.6960781240070019,-0.8801003540481168,1,left
9.647,0.03632019783293445,1.2575892437706322,0.05594073229616528,3.133065111975782,2.357884828836625,1.6208694162499133,0.522473518688645,-0.7085203543987728,-0.8074133163623397,1,left
9.652000000000001,0.03872491349931977,1.25491000135196,0.05237025337477897,3.0912279496786317,2.4275479436816823,1.6194752643848471,0.5107528624134269,-0.7207428579305972,-0.7354501218660972,1,left
9.652999999999999,0.041170809675873686,1.2521156232189932,0.04869209435041022,3.048951085533729,2.4952542144682437,1.6180392131776091,0.4991981655346564,-0.7327279105583444,-0.6642512518277318,1,left
9.656,0.0436524112106132,1.24920867823249,0.044909841707794,3.006269853787259,2.5609970222740066,1.6165524364592152,0.4878119528025218,-0.7444573913308802,-0.5938558771975542,1,left
9.657,0.046164079006923424,1.2461919531206282,0.041027326366853564,2.963220477645065,2.6247710618277416,1.6150050814103503,0.47659649983258995,-0.7559128311513262,-0.5243018332581338,1,left
9.662,0.04870002634958734,1.2430684588191312,0.03704861046976334,2.9198400106090268,2.686572295156438,1.613386290933629,0.46555383654939536,-0.7670754652617727,-0.45562559618051723,1,left
9.663,0.051254339765806976,1.239841433445435,0.032977974388414225,2.876166275186014,2.746397903721737,1.611684229802369,0.45468575075108575,-0.7779262894851007,-0.38786226128422474,1,left
9.666,0.05382100403640277,1.2365143417691749,0.028819904280711676,2.8322377988458287,2.804246239228852,1.6098861145814152,0.4439937917629102,-0.7884461202567824,-0.3210455228012966,1,left
9.667,0.05639393073792049,1.233090871185798,0.024579080468964922,2.7880937471036007,2.8601167732855046,1.6079782473153303,0.4334792741478308,-0.7986156584786865,-0.25520765494717296,1,left
9.67,0.058966989504676805,1.229574924336746,0.020260366796913072,2.7437738536012577,2.9140100460827427,1.6059460529790408,0.42314328144304,-0.808415557226017,-0.1903794941038169,1,left
9.67,0.06153404107899826,1.2259706086481537,0.01586880096656007,2.699318347061954,2.965927614263814,1.6037741206857425,0.412986669891671,-0.8178264933375656,-0.12659042192320166,1,left
9.675,0.0640889711920491,1.222282223165616,0.011409585716214449,2.654767874990732,3.0158719981416042,1.6014462486465522,0.40301007214780316,-0.8268292427945342,-0.06386834921764563,1,left
9.676,0.06662572441151493,1.2185142431052218,0.006888080627467803,2.6101634239941816,3.06384662841946,1.5989454928760345,0.3932139009748945,-0.8354047591725248,-0.0022397007841338714,1,left
9.677,0.0691383372792991,1.2146713025096365,0.002309794349269872,2.5655462365914823,3.1098557925645482,1.59625421963733,0.38359835303302603,-0.843534253334926,0.05827059818729118,1,left
9.68,0.07162097022467263,1.2107581753637051,-0.002319622946758159,2.5209577243889285,3.1539045809772377,1.5933541616201599,0.3741634128923785,-0.8511992719151525,0.1176391331901665,1,left
9.68,0.07406793780191055,1.206779755549913,-0.006994387062361805,2.476439377489892,3.195998833094328,1.5902264778444872,0.3649088573693602,-0.8583817727535612,0.17584400830698962,1,left
9.686,0.0764737368383477,1.2027410360688344,-0.01170858741795354,2.432032670012139,3.2361450835583128,1.586851817282062,0.35583426020758663,-0.8650641965688536,0.2328648507838148,1,left
9.687000000000001,0.07883307216562745,1.1986470879516415,-0.0164561950555204,2.3877789615844973,3.274350508579223,1.5832103861874804,0.3469389970849115,-0.8712295347620226,0.2886828123890153,1,left
9.687999999999999,0.08114087971766712,1.1945030392521205,-0.021231071204566396,2.343719394840832,3.3106228726657694,1.5792820190548127,0.3382222509199222,-0.8768613933734424,0.34328056772337523,1,left
9.69,0.0833923468674098,1.1903140544409967,-0.026026976594900622,2.299894789658382,3.344970476175753,1.5750462527405742,0.32968301745183026,-0.8819440532122607,0.39664230964527597,1,left
9.691,0.08558292993232866,1.186085314446418,-0.030837581663088125,2.2563455361997415,3.377402104632088,1.5704824026187996,0.32132011106820024,-0.8864625261757685,0.44875374197129037,1,left
9.695,0.08770836881119343,1.1818219975260376,-0.035656477770506796,2.2131114895471176,3.40792698102408,1.5655696392585803,0.3131321708554747,-0.8904026077748944,0.4996020696089943,1,left
9.697000000000001,0.08976469873224428,1.1775292611385328,-0.04047718954439315,2.1702318679893744,3.4365547220292307,1.5602870644881222,0.30511766684776115,-0.89375092588039,0.5491759862752601,1,left
9.7,0.09174825911566398,1.1732122249691663,-0.045293188452906835,2.1277451557113873,3.4632952985833745,1.5546137863826737,0.29727490644985477,-0.8964949857026565,0.5974656599497059,1,left
9.701,0.09365569959852608,1.1688759552157795,-0.05009790771122692,2.0856890099073357,3.4881590009426335,1.548528993087253,0.2896020410109703,-0.8986232110165059,0.6444627162093501,1,left
9.706,0.0954839833413811,1.164525450166166,-0.05488475858367616,2.0441001721948444,3.5111564083194535,1.5420120254589484,0.2820970725261573,-0.9001249816404433,0.6901602195868636,1,left
9.708,0.09723038782161089,1.1601656270235157,-0.05964714809789797,2.003014384207998,3.532298363169559,1.535042448512455,0.27475786044286354,-0.9009906671783334,0.7345526530911228,1,left
9.709,0.09889250339942117,1.1558013098835547,-0.06437849812244671,1.9624663072484914,3.551595950201278,1.5276001216513202,0.26758212855060154,-0.9012116570295384,0.7776358960250614,1,left
9.709,0.10046822999633785,1.1514372187451904,-0.06907226568132539,1.922489445875519,3.569060480173328,1.5196652676661335,0.2605674719321519,-0.9007803866718236,0.8194072002320831,1,left
9.714,0.10195577224263104,1.1470779594451892,-0.07372196429064325,1.8831160753164522,3.5847034785418197,1.5112185404795955,0.2537113639552169,-0.8996903602194962,0.8598651648985556,1,left
9.714,0.10335363343475722,1.1427280144359322,-0.0783211860101765,1.8443771725818874,3.598536679011936,1.5022410916170423,0.24701116328390355,-0.897936169257398,0.899009710036146,1,left
9.719,0.10466060861100421,1.1383917343594239,-0.08286362382014996,1.8063023511702982,3.610572022044489,1.4927146353795935,0.24046412088988087,-0.895513507949499,0.9368420487639936,1,left
9.721,0.10587577701509439,1.1340733303976842,-0.0873430938796118,1.7689197992492445,3.6208216583623125,1.482621512695611,0.23406738704350888,-0.892419184418948,0.9733646585069418,1,left
9.725,0.10699849418046006,1.1297768673920656,-0.09175355721266007,1.7322562212019164,3.6292979574962616,1.4719447536246437,0.22781801826568593,-0.8886511283945313,1.0085812512222876,1,left
9.726,0.10802838383569915,1.1255062577228712,-0.09608914040386575,1.696336782429696,3.6360135214054115,1.460668138486455,0.2217129842216003,-0.884208395116575,1.042496742763733,1,left
9.73,0.10896532980371598,1.1212652559320582,-0.10034415495148484,1.6611850573034062,3.640981203200931,1.4487762575860965,0.21574917453800363,-0.8790911654933954,1.0751172214874671,1,left
9.731,0.10980946803968468,1.117057454061155,-0.10451311501231388,1.6268229801579694,3.6442141309980136,1.4362545695043252,0.20992340552604677,-0.8733007424974704,1.1064499162015593,1,left
9.734,0.11056117892392552,1.1128862776668986,-0.10859075336594623,1.5932707992273478,3.6457257369151708,1.4230894579209352,0.20423242679213327,-0.8668395437885715,1.1365031635561031,1,left
9.735,0.111221079894407,1.108754982470894,-0.11257203551748783,1.5605470334188254,3.6455297912352065,1.409268286936811,0.19867292771965123,-0.8597110905491578,1.1652863749678388,1,left
9.74,0.11179001846895088,1.1046666515992882,-0.11645217193428713,1.5286684318279637,3.643640441737172,1.394779454858701,0.19324154380484043,-0.8519199925154017,1.192810003169283,1,left
9.741,0.11226906566977769,1.1006241933756917,-0.12022662846948,1.4976499358978885,3.640072258203683,1.3796124464088635,0.18793486283043978,-0.8434719291852943,1.2190855084687189,1,left
9.744,0.11265950982785362,1.0966303396443382,-0.12389113506369737,1.4675046441289312,3.6348402821030605,1.3637578833198576,0.1827494308653236,-0.8343736272437349,1.2441253247954545,1,left
9.745,0.11296285072082253,1.09268764461539,-0.12744169283257775,1.4382437792470806,3.627960081440907,1.347207573272832,0.1776817580996445,-0.8246328345444658,1.267942825559616,1,left
9.746,0.11318079398888249,1.0887984842351268,-0.1308745796434163,1.409876657742166,3.6194478107708936,1.3299545571357205,0.17272832456304946,-0.8142582915301857,1.2905522892774255,1,left
9.749,0.11331524576487093,1.0849650560920785,-0.13418635427727396,1.3824106616891965,3.609320276349757,1.3119931544557852,0.16788558579482304,-0.8032597012721654,1.3119688648678458,1,left
9.75,0.11336830743573806,1.081189379880036,-0.13737385927455412,1.355851212768816,3.597595006416795,1.2933190071589395,0.16314997851421112,-0.7916476990069874,1.3322085365644831,1,left
9.753,0.11334227042904295,1.0774732984472786,-0.140434222558867,1.3302017484054018,3.5842903265734187,1.2739291214062836,0.15851792630181455,-0.7794338215028586,1.3512880884579088,1,left
9.755,0.11323961090249797,1.073818479461483,-0.143364857913985,1.3054636999439115,3.5694254402337235,1.253821907556239,0.15398584528232148,-0.7666304762842981,1.3692250687216538,1,left
9.755,0.11306298421092496,1.0702264177106677,-0.14616346436086528,1.281636472875131,3.553020513897113,1.2329972181392632,0.14955014979496617,-0.7532509106818647,1.3860377535800545,1,left
9.758,0.11281521903545981,1.0666984380467621,-0.14882802445923626,1.2587174295512793,3.5350967659129013,1.2114563835532195,0.14520725803840012,-0.7393091806718636,1.4017451110727996,1,left
9.759,0.11249931108373612,1.063235698962876,-0.1513568015464666,1.236701875609996,3.515676555464494,1.189202244831087,0.1409535976769484,-0.7248201194692816,1.4163667646677454,1,left
9.763,0.11211841629527297,1.0598391967763383,-0.15374833592576895,1.2155830517570494,3.494783467419752,1.1662391826337948,0.13678561139550074,-0.7097993058355445,1.429922956770335,1,left
9.764,0.11167584350403278,1.0565097703652493,-0.15600144002326652,1.1953521321310119,3.4724423897663605,1.142573141815757,0.13269976239055387,-0.6942630320610782,1.442434512174797,1,left
9.767999999999999,0.11117504652678888,1.0532481063799892,-0.1581151925453731,1.175998229702276,3.4486795822845657,1.1182116512629652,0.12869253978517745,-0.6782282715810816,1.453922801499155,1,left
9.769,0.11061961566840972,1.0500547448296995,-0.1600889316834693,1.1575084087316678,3.423522736181996,1.093163838898318,0.12476046395592306,-0.6617126461813987,1.4644097046430526,1,left
9.774,0.11001326865665707,1.0469300849333463,-0.16192224743265485,1.1398677042305125,3.3970010246264435,1.0674404417862149,0.1209000917599307,-0.6447343927498925,1.473917574304372,1,left
9.775,0.10935984103017174,1.0438743911283348,-0.16361497311402912,1.1230591483665264,3.3691451441084124,1.041053811266451,0.11710802165071349,-0.6273123295272974,1.4824691995877004,1,left
9.777999999999999,0.10866327600279667,1.0408877991448895,-0.16516717621211427,1.1070638037623897,3.3399873465612138,1.0140179130454814,0.11338089867131793,-0.6094658218101418,1.4900877697348167,1,left
9.779,0.10792761381948855,1.037970322076936,-0.16657914865825288,1.0918608036362822,3.3095614621624905,0.986348322171184,0.10971541931376187,-0.5912147470570088,1.4967968380045604,1,left
9.785,0.10715698060795059,1.0351218564053881,-0.16785139670621266,1.0774273987360588,3.2779029127372175,0.9580622128153484,0.10610833623385,-0.5725794593481289,1.502620285726702,1,left
9.786,0.1063555767194294,1.0323421879535546,-0.16898463055676696,1.063739011021065,3.2450487156784877,0.9291783427862588,0.10255646281065232,-0.553580753147076,1.5075822865517507,1,left
9.788,0.10552766454624286,1.0296309977736426,-0.1699797538917599,1.0507692940478741,3.2110374782987563,0.8997170326919205,0.09905667754010875,-0.5342398263121831,1.511707270916023,1,left
9.788,0.10467755580681865,1.026987867975692,-0.1708378534723689,1.0384902000184264,3.1759093825206746,0.8697001396727118,0.09560592825239078,-0.5145782423041868,1.515019890738754,1,left
9.792,0.10380959830380987,1.024412287513882,-0.17156018893907327,1.0268720534511908,3.139706159813212,0.8391510256205272,0.09220123614281014,-0.49461789153556857,1.5175449843655575,1,left
9.793,0.10292816218687088,1.021903657940005,-0.17214818292485048,1.0158836314380326,3.102471056275459,0.8080945197998292,0.0888396996062134,-0.47438095180607825,1.5193075417701434,1,left
9.797,0.10203762578609003,1.0194612991232792,-0.1726034115633336,1.0054922504514456,3.0642487877672746,0.7765568757844233,0.08551849786494352,-0.453889847768003,1.5203326700238522,1,left
9.798,0.1011423611195629,1.0170844549233347,-0.17292759544173067,0.9956638596687071,3.0250854849828723,0.7445657226222556,0.08223489438058107,-0.4331672093638899,1.520645559040325,1,left
9.802,0.10024671921083418,1.0147722987899268,-0.17312259101761956,0.9863631407813188,2.9850286283604803,0.7121500101390664,0.07898624003980234,-0.41223582917863494,1.5202714476004184,1,left
9.802,0.09935501537149337,1.0125239392490786,-0.17319038249781873,0.9775536142598085,2.9441269727183683,0.6793399482903647,0.07576997610480748,-0.39111861864712166,1.5192355896603693,1,left
9.808,0.0984715146096315,1.0103384252249872,-0.17313307416743182,0.9691977520455817,2.9024304615048355,0.6461669404698815,0.07258363691888008,-0.3698385630579276,1.5175632209441565,1,left
9.809,0.09760041731942097,1.0082147511448762,-0.172952883149032,0.9612570966430262,2.859990130547196,0.6126635106814474,0.0694248523577401,-0.3484186752930179,1.5152795258190455,1,left
9.812999999999999,0.09674584539487768,1.0061518617803142,-0.17265213256250697,0.9536923865864821,2.81685800118237,0.5788632244801052,0.0662913500174454,-0.3268819482428114,1.5124096044513922,1,left
9.814,0.09591182889464782,1.0041486567896165,-0.17223324505100704,0.94646368825799,2.773086962649403,0.5448006035872321,0.06318095713236305,-0.3052513059074272,1.5089784402570479,1,left
9.815,0.09510229336392007,1.002203994937992,-0.17169873664202506,0.9395305340329209,2.7287306436221095,0.5105110340834956,0.060091602230209325,-0.2835495535539677,1.50501086775443,1,left
9.817,0.09432104789605407,1.0003166979843354,-0.17105121092193495,0.9328520667316708,2.6838432727580455,0.4760306680826202,0.05702131655534813,-0.2617993279463717,1.5005315410984887,1,left
9.818999999999999,0.09357177400147078,0.99848555423754,-0.17029335350983213,0.926387190356567,2.638479528138187,0.4413963187881865,0.05396823530500209,-0.24002304902354982,1.4955649036676588,1,left
9.822000000000001,0.09285801535129036,0.9967093217997409,-0.16942792681812166,0.9200947268776869,2.592694375804216,0.406645349033117,0.050930598709693374,-0.2182428740418611,1.4901351589788725,1,left
9.822000000000001,0.0921831684649989,0.9949867315235129,-0.16845776508602014,0.9139335777505474,2.546542899269883,0.3718155543913493,0.047906752965168165,-0.19648065455083588,1.4842662430323885,1,left
9.823,0.09155047440270979,0.9933164897127184,-0.16738576967180593,0.9078628869025908,2.500080124889476,0.3369450437334766,0.044895151009710275,-0.1747578962115267,1.4779817980913124,1,left
9.826,0.09096301151171741,0.9916972805993337,-0.16621490458874288,0.901842200844413,2.453360849636299,0.30207212108819415,0.041894353138113814,-0.1530957213949652,1.4713051478802655,1,left
9.826,0.09042368927364654,0.9901277686367652,-0.16494819226441798,0.8958316226435301,2.406439476171936,0.2672351716807695,0.03890302744362497,-0.13151483449825385,1.4642592741863911,1,left
9.832,0.08993524329515601,0.9886066006588252,-0.16358870949356377,0.8897919584453914,2.3593698570782298,0.23247255323692284,0.03591995007919822,-0.11003548991593524,1.4568667948446956,1,left
9.833,0.0895002314720483,0.9871324079558379,-0.16213958354383848,0.8836848563079629,2.312205148452106,0.1978224926500981,0.032944005329443714,-0.08867746260445285,1.4491499430885915,1,left
9.837,0.08912103133569547,0.9857038083148812,-0.16060398836710432,0.8774729373325296,2.264997672728552,0.16332298791213015,0.02997418548466973,-0.0674600211777514,1.4411305482454548,1,left
9.838,0.08879983856909046,0.9843194080616043,-0.1589851408687743,0.8711199190732837,2.217798790596665,0.12901171520752705,0.027009590508448443,-0.04640190347235489,1.4328300177560052,1,left
9.841000000000001,0.08853866666248,0.9829778041279371,-0.15728629719564224,0.8645907312080747,2.170658781873372,0.0949259410719087,0.024049427490153548,-0.025521294520607654,1.4242693204953862,1,left
9.842,0.08833934766719999,0.9816775861564797,-0.1555107490163769,0.8578516234523978,2.123626735199327,0.061102439515575126,0.021093009873936374,-0.004835806871167014,1.4154689713729562,1,left
9.846,0.08820353399877069,0.9804173386408283,-0.15366181978303822,0.8508702656982929,2.0767504464215087,0.027577414013717157,0.018139756455622293,0.01563753680370788,1.4064490171869892,1,left
9.847000000000001,0.08813270123211958,0.9791956430914928,-0.15174286096859937,0.8436158403593289,2.0300763255271908,-0.005613575734570138,0.015189190139022164,0.0358823188740174,1.397229023709738,1,left
9.851,0.08812815182149952,0.978011080209221,-0.14975724827061826,0.8360591269022395,1.9836493119942877,-0.03843568237555957,0.012240936443164582,0.055882739750420234,1.3878280639776215,1,left
9.852,0.08819101966681933,0.9768622320422655,-0.14770837776110787,0.8281725785450924,1.9375127984235088,-0.07085483489468125,0.009294721751963962,0.07562362877394863,1.3782647077606625,1,left
9.857000000000001,0.08832227543670058,0.9757476841019758,-0.14559966195900206,0.8199303911010865,1.8917085623183352,-0.10283779813010316,0.006350371297847477,0.09509045305516417,1.3685570121847381,1,left
9.857000000000001,0.08852273254471035,0.9746660274125454,-0.14343452580927651,0.8113085639462096,1.8462767058795406,-0.13435222790031864,0.003407806870870718,0.114269324320177,1.358722513479671,1,left
9.861,0.08879305365957706,0.9736158604761267,-0.14121640256575094,0.8022849530880467,1.80125560368181,-0.1653667218388009,0.00046704424485799527,0.1331470038202076,1.3487782198257272,1,left
9.861,0.08913375761698067,0.9725957911423061,-0.1389487295843322,0.7928393163120071,1.7566818581009567,-0.1958508660275333,-0.002471809687891213,0.15171090536058432,1.3387406052706732,1,left
9.865,0.08954522659343508,0.9716044383783332,-0.136634944037597,0.7829533503801578,1.7125902623613083,-0.2257752775198803,-0.005408560081782844,0.16994909650424375,1.328625604689176,1,left
9.866,0.09002771340295461,0.9706404339422954,-0.13427847856497926,0.7726107202566924,1.669013771074005,-0.25511164284183035,-0.008342927611443663,0.18785029800393754,1.3184486097560142,1,left
9.87,0.09058134878388807,0.9697024239653652,-0.13188275688120868,0.7617970803328665,1.6259834781382396,-0.28383275255911966,-0.011274552262013623,0.20540388151644878,1.3082244659042976,1,left
9.871,0.0912061485550393,0.9687890704506219,-0.12945118937798442,0.7505000876229615,1.583528601878846,-0.311912531996141,-0.014202997444651092,0.22259986565118745,1.2979674702396746,1,left
9.876,0.09190202053605219,0.9678990526951553,-0.12698716876298258,0.7387094069015344,1.5416764772951141,-0.33932606819085476,-0.01712775444567981,0.23942891040456743,1.287691370381319,1,left
9.877,0.09266877114609118,0.9670310686410158,-0.12449406578087914,0.7264167077508636,1.5004525552972896,-0.3660496331681537,-0.02004824721779843,0.2558823100305701,1.2774093642003594,1,left
9.881,0.09350611161475197,0.9661838361601129,-0.12197522505299516,0.7136156534861142,1.4598804088088468,-0.39206070361229367,-0.022963837511848745,0.2719519844127725,1.2671341004260663,1,left
9.882,0.09441366375787588,0.9653560942780788,-0.11943396105856235,0.700301881924334,1.4199817456143657,-0.41733797701709147,-0.02587383029805096,0.2876304690815601,1.2568776800888248,1,left
9.882,0.09539096528736578,0.9645466043424966,-0.11687355426638478,0.6864729779619521,1.380776427834634,-0.4418613843906097,-0.028777479336363043,0.30291090416225386,1.2466516587666785,1,left
9.886000000000001,0.09643747463604235,0.9637541511425335,-0.11429724741545774,0.6721284379239975,1.3422824979124708,-0.46561209958900707,-0.031673992706030066,0.3177870226182759,1.2364670496010148,1,left
9.887,0.09755257528552307,0.9629775439897543,-0.11170824193855705,0.6572696256467847,1.3045162109946953,-0.488572545352125,-0.03456253815395024,0.33225313807286017,1.2263343270482527,1,left
9.89,0.09873557959041405,0.9622156177720402,-0.10910969452236599,0.6418997203990264,1.2674920735131994,-0.5107263961371638,-0.037442248210704805,0.34630413234858437,1.2162634313366925,1,left
9.891,0.09998573209807188,0.9614672339927718,-0.10650471379855454,0.6260236574682891,1.2312228873478541,-0.532058577974306,-0.04031222507265556,0.3599354427833449,1.2062637735990516,1,left
9.891,0.1013022123692559,0.9607312818061055,-0.10389635716085355,0.6096480635404204,1.1957197981959793,-0.5525552657993772,-0.04317154525840611,0.37314304936432036,1.196344241651598,1,left
9.897,0.10268413731149326,0.9600066790581953,-0.10128762770487149,0.5927811897215425,1.160992346352966,-0.5722038788460401,-0.046019264047897544,0.38592346172027986,1.1865132063909667,1,left
9.898,0.10413056304499464,0.959292373344663,-0.09868147129276453,0.5754328443273261,1.127048518533076,-0.5909930745479413,-0.048854419712381275,0.398273706011385,1.1767785287799575,1,left
9.9,0.1056404863307919,0.9585873430948911,-0.09608077375379818,0.5576143262606419,1.0938948001217255,-0.6089127411653298,-0.051676037543481046,0.41019131175442064,1.1671475673938314,1,left
9.901,0.10721284560267963,0.9578905986921888,-0.0934883582403566,0.5393383590738419,1.0615362276750517,-0.6259539892185138,-0.05448313368952284,0.42167429862016337,1.1576271864988836,1,left
9.906,0.10884652165756666,0.9572011836359982,-0.09090698276346963,0.5206190256658594,1.0299764415692692,-0.6421091417821084,-0.057274718807275055,0.4327211632383608,1.1482237646353421,1,left
9.907,0.1105403380699367,0.9565181757488912,-0.08833933793249103,0.5014717035629659,0.9992177387045788,-0.6573717236915354,-0.06004980153720283,0.4433308660445528,1.1389432036769416,1,left
9.908999999999999,0.11229306140291782,0.9558406884277053,-0.08578804492184304,0.48191300073071475,0.969261125170684,-0.6717364497107127,-0.06280739181029824,0.4535028182017203,1.1297909383398337,1,left
9.91,0.11410340129100208,0.9551678719353465,-0.08325565368466382,0.4619606918633276,0.9401063687832559,-0.6851992117073293,-0.06554650399450375,0.4632368686284934,1.1207719461138352,1,left
9.915,0.11597001046850662,0.9544989147278378,-0.08074464142850647,0.44163365509555486,0.9117520514029872,-0.6977570648795395,-0.06826615988869902,0.47253329116439624,1.1118907575893657,1,left
9.916,0.11789148481376413,0.9538330448101056,-0.07825741136097367,0.42095180908086144,0.8841956209511749,-0.7094082130753332,-0.07096539157217052,0.4813927719013498,1.1031514671537894,1,left
9.919,0.1198663634727405,0.953169531113506,-0.07579629170343608,0.39993605037866076,0.8574334430380807,-0.7201519932432504,-0.07364324411743074,0.48981639670939675,1.0945577440312686,1,left
9.92,0.12189312911876238,0.9525076848873998,-0.07336353496075625,0.37860819109224564,0.8314608521226026,-0.7299888590505144,-0.07629877817419774,0.4978056389833556,1.0861128436406182,1,left
9.925,0.1239702083973303,0.9518468610953332,-0.07096131742651034,0.3569908966980477,0.806272202124092,-0.7389203637020483,-0.07893107243228707,0.5053623476358579,1.0778196192460654,1,left
9.926,0.12609597259581934,0.9511864598038193,-0.0685917388973191,0.3351076240058997,0.7818609164094248,-0.7469491419912427,-0.08153922597110701,0.5124887353609691,1.0696805338762352,1,left
9.929,0.12826873856811105,0.9505259275499075,-0.0662568225652762,0.31298255918908013,0.7582195370807007,-0.7540788916107366,-0.08412236050338347,0.519187367191351,1.061697672487107,1,left
9.929,0.13048676993544475,0.9498647586741413,-0.06395851505285027,0.29064055582208953,0.7353397734911977,-0.7603143537488748,-0.08667962252067478,0.5254611493706751,1.0538727543451245,1,left
9.934,0.1327482785764631,0.9492024966078112,-0.0616986865508658,0.2681070728633469,0.7132125499194386,-0.7656612929949135,-0.08921018534816688,0.5313133185617681,1.04620714560708,1,left
9.935,0.135051426409804,0.9485387351059611,-0.059479131019230365,0.24540811251929884,0.6918280523334343,-0.770126476573466,-0.0917132511161677,0.5367474314097362,1.0387018720738457,1,left
9.94,0.1373943274617231,0.947873119419571,-0.05730156641416252,0.22257015792581503,0.6711757741793589,-0.773717652926115,-0.09418805265564541,0.5417673544781004,1.031357632095474,1,left
9.941,0.1397750502006109,0.947205347402163,-0.05516763491604578,0.1996201105821921,0.6512445611310707,-0.7764435296555661,-0.09663385532507827,0.5463772545747613,1.0241748096056529,1,left
9.943999999999999,0.14219162011052117,0.946535170548163,-0.05307890314562456,0.17658522747261568,0.6320226547390204,-0.7783137508451857,-0.09904995877580523,0.5505815894834121,1.0171534872639496,1,left
9.945,0.1446420224672427,0.9458623949622832,-0.05103686236616841,0.15349305780953096,0.6134977349191999,-0.7793388737642591,-0.10143569866298505,0.5543850991148302,1.010293459684753,1,left
9.949,0.14712420527486847,0.9451868822604271,-0.04904292867190984,0.13037137933305099,0.5956569612248438,-0.7795303449668206,-0.10379044830719557,0.5577927970830946,1.0035942467320815,1,left
9.951,0.14963608232100792,0.9445085504027775,-0.047098443161646686,0.10724813410028898,0.5784870128456413,-0.7789004757894494,-0.10611362030165498,0.5608099626695848,0.9970551068589314,1,left
9.952,0.1521755363132263,0.9438273744589185,-0.0452046720952054,0.08415136369833698,0.5619741272812123,-0.7774624172510031,-0.10840466804202283,0.563442133062623,0.9906750504685607,1,left
9.954,0.15474042205957966,0.9431433873041102,-0.04336280703027188,0.061109143814528234,0.546104137637567,-0.7752301343548634,-0.11066308714568476,0.5656950957184513,0.9844528532746021,1,left
9.955,0.15732856964763842,0.9424566802462923,-0.041573964936574094,0.03814951809761723,0.5308625084971951,-0.7722183797919152,-0.11288841673729949,0.5675748807291472,0.9783870696383214,1,left
9.959,0.15993778756641336,0.9417674035842742,-0.0398391882833254,0.015300431243586602,0.5162343703153169,-0.7684426670401548,-0.11508024059523055,0.5690877531558195,0.9724760458635358,1,left
9.959,0.16256586571234882,0.9410757670973329,-0.038159445096318516,-0.0074103387600526595,0.5022045522966757,-0.7639192428545488,-0.11723818816335688,0.5702402053253641,0.9667179334311171,1,left
9.96,0.1652105782246598,0.940382040466204,-0.036535628984798625,-0.029955249222897943,0.4887576137327203,-0.7586650591536731,-0.1193619354346541,0.5710389490961935,0.9611107021556539,1,left
9.963,0.1678696861050799,0.93968655362684,-0.03496855914325617,-0.052307061792008204,0.47587787389913744,-0.7526977443832169,-0.12145120571284203,0.5714909080972994,0.9556521532472851,1,left
9.964,0.17054093959003913,0.9389896970601785,-0.03345898033652136,-0.07443891089215682,0.46354944082842375,-0.7460355745706284,-0.12350577025829705,0.5716032099439763,0.9503399322621628,1,left
9.969,0.17322208025347607,0.9382919220224987,-0.03200756287866893,-0.09632437014135804,0.45175623939220805,-0.7386974443588339,-0.12552544882433,0.5713831784325107,0.945171541925428,1,left
9.97,0.17591084282278302,0.9375937407224956,-0.030614902620143762,-0.11793751568882047,0.4404820390113182,-0.7307028382291607,-0.12751011008983043,0.5708383257151552,0.9401443548110149,1,left
9.975,0.1786049566934638,0.9368957264529795,-0.0292815209640925,-0.1392529860920496,0.4297104811001548,-0.7220718019852655,-0.1294596719941794,0.5699763444557211,0.9352556258630184,1,left
9.976,0.18130214713517814,0.9361985136859543,-0.02800786494014557,-0.16024603872144838,0.4194251062351246,-0.7128249144921748,-0.13137410198023278,0.5688050999651767,0.9305025047437699,1,left
9.977,0.18400013619225536,0.9355027981390543,-0.026794307368120156,-0.18089260275444932,0.4096093810147132,-0.7029832596475148,-0.1332534171510755,0.5673326223157014,0.9258820479941761,1,left
9.978,0.18669664329228736,0.9348093368185814,-0.025641147142785665,-0.20116932882035946,0.4002467245802156,-0.6925683985601836,-0.13509768434614824,0.5655670984307358,0.9213912309922665,1,left
9.982000000000001,0.18938938558574264,0.9341189480398852,-0.024548609665196435,-0.22105363535617303,0.3913205347675423,-0.6816023419099436,-0.13690702014224546,0.5635168641476821,0.9170269596962948,1,left
9.982999999999999,0.19207607804793983,0.9334325114207805,-0.023516847439221604,-0.2405237517326139,0.38281421386186854,-0.6701075224597108,-0.13868159078478381,0.5611903962490405,0.9127860821591091,1,left
9.988,0.19475443338189155,0.9327509678392374,-0.022545940845441217,-0.2595587582086088,0.37471119392819296,-0.6581067676906669,-0.14042161205463996,0.5585963044569295,0.9086653998008861,1,left
9.99,0.19742216176490437,0.9320753193431442,-0.02163589909835542,-0.2781386227712669,0.36699496169212814,-0.6456232725287414,-0.14212734907575483,0.5557433233851167,0.9046616784276844,1,left
9.993,0.2000769704821307,0.9314066289978711,-0.02078666138666299,-0.2962442349172529,0.35964908294645076,-0.6326805721294915,-0.1437991160686035,0.552640304441896,0.9007716589836268,1,left
9.994,0.20271656348802286,0.9307460206567619,-0.01999809819152644,-0.31385743643019276,0.3526572264600981,-0.6193025146869536,-0.1454372760545295,0.54929620767638,0.8969920680248678,1,left
9.997,0.20533864093454,0.9300946786402604,-0.019270012775796822,-0.3309610492074469,0.34600318736740876,-0.6055132342306572,-0.14704224051584452,0.5457200935600273,0.8933196279038366,1,left
9.998,0.20794089870246502,0.929453847311038,-0.018602142837875747,-0.3475389001882232,0.33967091001646954,-0.5913371233736688,-0.14861446901649644,0.541921114694512,0.8897510666525744,1,left
10.002,0.21052102796755456,0.9288248305359765,-0.01799416232556532,-0.36357584343359145,0.3336445102564483,-0.5767988059732898,-0.15015446878801317,0.5379085074363478,0.8862831275543013,1,left
10.002,0.21307671482829202,0.9282089910318309,-0.01744568340599596,-0.3790577794074988,0.32790829714476216,-0.5619231096648445,-0.15166279428533352,0.533691583428013,0.8829125783926545,1,left
10.007,0.21560564001919205,0.9276077495988447,-0.016956258586732328,-0.3939716715063763,0.3224467940558565,-0.5467350382278895,-0.15314004671704293,0.529279721024683,0.8796362203683407,1,left
10.008,0.21810547873221295,0.927022584252981,-0.016525382981215336,-0.4083055598833771,0.31724475917424866,-0.531259743743132,-0.15458687355443917,0.524682356605063,0.8764508966732326,1,left
10.013,0.22057390056759144,0.9264550292717646,-0.01615249670953493,-0.4220485726116935,0.31228720535532384,-0.5155224984973777,-0.1560039680237625,0.5199089757542281,0.8733535007122205,1,left
10.014,0.22300856963377957,0.9259066741721172,-0.015836987423170794,-0.43519093422977,0.307559419338162,-0.49954866659293073,-0.1573920685858351,0.5149691043058148,0.8703409839633989,1,left
10.017000000000001,0.2254071448129654,0.9253791626407698,-0.015578192939898204,-0.44772397170956746,0.303046980295418,-0.4833636752170432,-0.15875195840624454,0.5098722992390065,0.8674103634713112,1,left
10.017999999999999,0.22776728020376508,0.9248741914368497,-0.015375403972942596,-0.4596401178873365,0.29873577770598286,-0.4669929855262617,-0.16008446481400326,0.5046281394683831,0.864558728987614,1,left
10.017999999999999,0.23008662574800431,0.9243935092818863,-0.015227866936427142,-0.47093291239463586,0.2946120285368129,-0.45046206309983483,-0.16139045873732225,0.49924621664187246,0.8617832498086765,1,left
10.022,0.23236282804488792,0.9239389157476932,-0.015134786804432383,-0.48159700012558454,0.2906622937209332,-0.4337963479157438,-0.1626708540999389,0.49373612610472517,0.8590811813792506,1,left
10.024,0.23459353135230734,0.9235122601487304,-0.015095329991797827,-0.4916281272745644,0.28687349391920086,-0.41702122380237944,-0.16392660716647772,0.48810745814387707,0.8564498717121893,1,left
10.027000000000001,0.2367763787720787,0.9231154404406474,-0.015108627216865617,-0.5010231350035745,0.2832329245621801,-0.40016198735353553,-0.16515871583445746,0.4823697895490221,0.8538867676395016,1,left
10.027000000000001,0.23890901361551334,0.922750402120871,-0.015173776307626827,-0.5097799509304839,0.2797282702101215,-0.38324381646950256,-0.16636821887560116,0.4765326754832137,0.8513894208908537,1,left
10.027999999999999,0.24098908094731325,0.9224191371228451,-0.01528984492175457,-0.5178975788685465,0.276347618343548,-0.36629173900264445,-0.1675561951300589,0.4706056416468465,0.8489554939919548,1,left
10.032,0.24301422930565375,0.9221236826923512,-0.015455873158799194,-0.5253760873795706,0.2730794727385174,-0.34933060216110495,-0.16872376265708505,0.46459817671855513,0.8465827659754549,1,left
10.033,0.24498211259220395,0.9218661202301488,-0.015670876044635077,-0.5322165975674495,0.26991276653988255,-0.3323850431486145,-0.16987207784564684,0.45851972505628386,0.8442691378971786,1,left
10.035,0.24689039211942826,0.921648574080843,-0.01593384586703013,-0.5384212702959955,0.266836875072179,-0.315479461202359,-0.17100233448837945,0.45237967964151854,0.8420126381506975,1,left
10.039,0.2487367387965311,0.9214732102457982,-0.016243754341128222,-0.5439932928793331,0.26384162838695613,-0.2986379910153397,-0.17211576282224422,0.4461873752494454,0.8398114275734199,1,left
10.04,0.2505188354313031,0.9213422349985235,-0.016599554585867055,-0.5489368652645089,0.2609173235374304,-0.28188447749459844,-0.17321362853919114,0.4399520818275935,0.8376638043375463,1,left
10.043,0.25223437912433033,0.9212578933832033,-0.017000182895193932,-0.5532571857241468,0.25805473657160377,-0.2652424518067926,-0.17429723177007578,0.43368299806534294,0.8355682086194066,1,left
10.044,0.2538810837353438,0.9212224675794428,-0.0174445602889026,-0.5569604360751662,0.2552451342352214,-0.2487351086627924,-0.175367906045031,0.427389245136531,0.8335232270408498,1,left
10.048,0.2554566824068085,0.9212382751180352,-0.01793159382809099,-0.5600537664377758,0.25248028537614803,-0.23238528479322051,-0.17642701723345117,0.42107986059726144,0.831527596876514,1,left
10.049,0.2569589301338984,0.9213076669344425,-0.0184601776842018,-0.5625452795471666,0.24975247204192064,-0.21621543856717804,-0.17747596246670397,0.41476379242092926,0.8295802100209544,1,left
10.054,0.2583856063716313,0.9214330252498719,-0.019029193960128157,-0.5644440146285592,0.24705450026238893,-0.20024763070678311,-0.17851616904664902,0.4084498931523987,0.8276801167097503,1,left
10.055,0.2597345176702514,0.9216167612743031,-0.01963751327366863,-0.5657599308445075,0.24437971050948382,-0.18450350605060326,-0.1795490933430081,0.4021469141632297,0.8258265289888577,1,left
10.059,0.2610035003301619,0.9218613127310854,-0.020283995123677578,-0.5665038903216378,0.24172198782626228,-0.16900427631957593,-0.18057621968260407,0.3958634999898263,0.8240188239266093,1,left
10.06,0.2621904230681843,0.9221691412076589,-0.020967488065499806,-0.566687640762298,0.23907577161746393,-0.15377070383959374,-0.18159905923345973,0.38960818273638936,0.8222565465629034,1,left
10.064,0.2632931896884626,0.9225427293397385,-0.021686829723455432,-0.5663237976449199,0.2364360650938817,-0.13882308617557093,-0.18261914888672692,0.38338937652458316,0.820539412590253,1,left
10.065,0.26430974175554384,0.9229845778361883,-0.022440846664798425,-0.5654258260152586,0.23379844436290007,-0.12418124163251074,-0.18363805013939996,0.37721537197188587,0.8188673107615049,1,left
10.068,0.265238061273659,0.9234972023496664,-0.02322835415583206,-0.5640080218690636,0.2311590671575884,-0.10986449557985506,-0.184657347980755,0.3710943306806711,0.8172403050191611,1,left
10.068999999999999,0.266076173381541,0.9240831301951227,-0.024048155820388262,-0.5620854931251653,0.22851468119675622,-0.09589166755621929,-0.18567864978544923,0.36503427972017316,0.815658636341374,1,left
10.073,0.26682214907362606,0.9247448969153728,-0.02489904322227029,-0.5596741401864269,0.225862632168385,-0.08228105911249116,-0.18670358421621014,0.3590431060836183,0.814122724299808,1,left
10.074,0.2674741079573083,0.9254850426907667,-0.025779795393174702,-0.5567906360845231,0.2232008713288477,-0.06905044235220621,-0.18773380013904667,0.35312855110295416,0.8126331683246973,1,left
10.079,0.2680302210542081,0.9263061085884883,-0.026689178325802723,-0.5534524062030565,0.2205279627103133,-0.056217049129099174,-0.18877096555391962,0.3472982048037859,0.811190748672554,1,left
10.08,0.26848871365163673,0.9272106326463609,-0.027625944449976333,-0.5496776075721194,0.2178430899287136,-0.04379756086276975,-0.18981676654381918,0.3415595001833246,0.8097964270921182,1,left
10.083,0.26884786820843004,0.9282011457860895,-0.028588832107465274,-0.5454851077260561,0.21514606258462224,-0.03180809893449193,-0.19087290624521291,0.33591970739437355,0.8084513471842715,1,left
10.084,0.2691060273172868,0.9292801675515571,-0.029576565037861567,-0.5408944631148742,0.2124373222493661,-0.020264215626335885,-0.19194110384167115,0.33038592782656845,0.8071568344534964,1,left
10.084,0.26926159672403716,0.9304502016694272,-0.03058785188390399,-0.5359258970585021,0.2097179480286553,-0.009180885567959277,-0.1930230935766213,0.32496508811609814,0.8059143960572197,1,left
10.088,0.26931304840322234,0.9317137314315503,-0.031621385721866145,-0.530600277231891,0.20698966169598512,0.0014275023433410988,-0.1941206237706293,0.31966393418696004,0.8047257202750332,1,left
10.089,0.26925892368850546,0.9330732149004293,-0.03267584362209613,-0.5249390926678159,0.2042548323880312,0.011547152582447484,-0.19523545582275886,0.3144890254668562,0.8035926757285499,1,left
10.093,0.2690978364545109,0.934531079940353,-0.03374988624675315,-0.5189644302631495,0.20151648085422846,0.021164870227917673,-0.19636936318148143,0.3094467293814127,0.8025173103741844,1,left
10.094,0.2688284763434052,0.9360897190790045,-0.03484215749460646,-0.5126989507733538,0.19877828325270253,0.03026806781560519,-0.19752413028123647,0.30454321615920416,0.801501850275788,1,left
10.097999999999999,0.2684496120260916,0.9377514842069873,-0.03595128420350852,-0.5061658642951937,0.19604457448461313,0.03884477183279421,-0.19870155144667287,0.2997844539406803,0.8005486981556127,1,left
10.099,0.26796009448628616,0.9395186811239852,-0.037075875918876865,-0.4993889053178606,0.19332035105851242,0.046883628816541956,-0.19990342976783268,0.29517620417652274,0.7996604317205184,1,left
10.1,0.2673588603174254,0.9413935639398129,-0.03821452473333013,-0.49239230756782,0.19061127347551504,0.054373910922580364,-0.20113157594959835,0.2907240173013579,0.7988398017605124,1,left
10.102,0.26664493502588765,0.9433783293377614,-0.03936580520124981,-0.48520077895301617,0.18792366812564174,0.06130552077636009,-0.20238780713878984,0.28643322866916876,0.7980897300168891,1,left
10.103,0.2658174363358929,0.9454751107066809,-0.040528274334040194,-0.4778394768302798,0.18526452868617627,0.06766899546953382,-0.20367394573236824,0.282308954737178,0.7974133068174208,1,left
10.109,0.26487557749087687,0.947685972146782,-0.041700471687030116,-0.4703339836731969,0.18264151701372816,0.07345550965946547,-0.2049918181702777,0.278356089485425,0.7968137884762524,1,left
10.11,0.2638186705453731,0.9500129023540064,-0.04288091955449942,-0.46271028313605206,0.18006296352220605,0.07865687778100587,-0.2063432537165386,0.27457930105972095,0.7962945944563499,1,left
10.113,0.26264612964120804,0.9524578083919556,-0.044068123290880175,-0.4549947364927533,0.17753786703907848,0.08326555538879649,-0.20773008323229075,0.27098302862614476,0.7958593042925678,1,left
10.113999999999999,0.2613574742602753,0.9550225093689455,-0.04526057177164122,-0.4472140594292339,0.17507589413240587,0.08727463964670683,-0.20915413794457588,0.26757147942573456,0.795511654273619,1,left
10.118,0.2599523324418159,0.9577087300475075,-0.04645673799901252,-0.4393952991674869,0.17268737790125455,0.09067786897933124,-0.21061724821474645,0.264348626018534,0.7952555338814635,1,left
10.119,0.2584304439464533,0.9605180944206125,-0.04765507984960507,-0.43156581189912396,0.1703833162222603,0.09346962189876988,-0.21212124231048846,0.26131820370667197,0.7950949819868742,1,left
10.122,0.25679166334603903,0.9634521192907044,-0.048854040954762604,-0.42375324050616736,0.1681753694452911,0.09564491501819726,-0.2136679451855527,0.258483708126684,0.79503418280019,1,left
10.122,0.2550359630192888,0.9665122078840599,-0.05005205169897972,-0.415985492546671,0.1660758575313709,0.09719940026198284,-0.21525917727140226,0.25584839300182327,0.7950774615765279,1,left
10.127,0.25316343603536573,0.9696996435257453,-0.05124753031678987,-0.4082907184827387,0.1640977566262709,0.09812936128037303,-0.21689675328509972,0.2534152680456657,0.7952292800750024,1,left
10.129,0.25117429890792775,0.9730155833921841,-0.052438884066800334,-0.40069729012855604,0.1622546950634517,0.09843170907497407,-0.2185824810578827,0.25118709700887143,0.7954942317717869,1,left
10.132,0.24906889420096048,0.9764610523512035,-0.053624510463711896,-0.39323377929618203,0.16056094879035337,0.09810397683949364,-0.22031816038900134,0.2491663958615395,0.7958770368271516,1,left
10.133,0.24684769296672793,0.9800369368941366,-0.05480279855187852,-0.38592893661705646,0.1590314362123799,0.09714431401840573,-0.22210558192952717,0.24735543110417177,0.7963825368069221,1,left
10.137,0.24451129699677043,0.983743979161455,-0.055972130205566004,-0.37881167051747117,0.15768171244931417,0.09555147958440255,-0.22394652610097904,0.24575621820085067,0.7970156891591319,1,left
10.138,0.2420604408701795,0.9875827710626154,-0.05713088144263693,-0.37191102632662554,0.15652796299933006,0.09332483453368738,-0.22584276205375628,0.24437052012883037,0.7977815614469789,1,left
10.141,0.23949599378972256,0.9915537484912412,-0.05827742373985826,-0.3652561654963444,0.1555869968062412,0.09046433359634927,-0.22779604667051814,0.24319984603934344,0.7986853253395472,1,left
10.142000000000001,0.23681896120497817,0.9956571856369222,-0.05941012533981102,-0.3588763449120748,0.15487623872614406,0.08697051615724216,-0.2298081236198015,0.24224545002503306,0.7997322503621254,1,left
10.146,0.23403048623117148,0.9998931893948854,-0.06052735254349875,-0.35280089627540007,0.15441372139017687,0.08284449638097198,-0.23188072246532818,0.24150832999003288,0.8009276974083321,1,left
10.146,0.2311318508807135,1.0042616938754996,-0.06162747098854246,-0.34705920553901726,0.15421807646072871,0.07808795253277528,-0.23401555783661662,0.24098922661933433,0.802277112016656,1,left
10.152000000000001,0.22812447712891948,1.0087624550174057,-0.06270884691669733,-0.3416806923759137,0.15430852527909653,0.07270311548525507,-0.23621432866668188,0.24068862244470185,0.8037860174144302,1,left
10.152999999999999,0.22500992783481435,1.0133950453109914,-0.06376984843473657,-0.3366947896653522,0.15470486890330037,0.06669275639912438,-0.23847871749891278,0.24060674100558527,0.8054600073325704,1,left
10.152999999999999,0.22178990753326736,1.0181588486423145,-0.06480884677149558,-0.33213092297923447,0.15542747753553735,0.06006017356429823,-0.2408103898460472,0.2407435461069333,0.8073047385942634,1,left
10.157,0.21846626310917078,1.0230530552700476,-0.06582421753340288,-0.32801849005345485,0.1564972793395759,0.052809178385870646,-0.24321099354952708,0.24109874118152805,0.8093259234802035,1,left
10.157,0.21504098436237265,1.028076656948869,-0.0668143419609095,-0.3243868402299848,0.1579357486492735,0.04494408049771772,-0.2456821580683582,0.2416717687679167,0.8115293218728635,1,left
10.161,0.21151620447422673,1.0332284422126154,-0.06777760818692162,-0.32126525385664056,0.1597648935703384,0.036469671984681255,-0.24822549364613755,0.24246181011281645,0.8139207331833616,1,left
10.161,0.20789420038857373,1.0385069918302594,-0.06871241249581404,-0.31868292163278306,0.1620072429784549,0.027391210692512113,-0.25084259033993356,0.24346778490240495,0.8165059880660424,1,left
10.166,0.20417739311837468,1.0439106744476214,-0.06961716058014682,-0.31666892389058054,0.16468583291795208,0.017714402602989218,-0.25353501691425173,0.24468835112470677,0.8192909399269982,1,left
10.166,0.20036834798480688,1.0494376424278358,-0.07049026879194155,-0.3152522097948995,0.16782419238581966,0.007445383287320675,-0.2563043196073961,0.24612190506534254,0.8222814562334119,1,left
10.167,0.19646977479050176,1.0550858279039999,-0.0713301653845923,-0.31446157640628664,0.17144632838456392,-0.003409301363602002,-0.25915202077774735,0.2477665814395282,0.8254834096311611,1,left
10.17,0.1924845279242689,1.060852939057549,-0.07213529174030868,-0.31432564748086594,0.1755767099441548,-0.014842714598285218,-0.2620796174376964,0.2496202536638272,0.8289026688786979,1,left
10.171,0.18841560639199012,1.0667364566352173,-0.07290410357751184,-0.3148728518425387,0.18024025071213892,-0.02684754773374029,-0.2650885796831918,0.2516805342717695,0.8325450896058061,1,left
10.176,0.18426615376750397,1.0727336307164035,-0.0736350721330924,-0.3161314012048251,0.18546228981488114,-0.03941613802418679,-0.2681803490270845,0.25394477547805805,0.8364165049064483,1,left
10.177,0.18003945805791347,1.0788414777416786,-0.0743266853162962,-0.31812926739383607,0.1912685708788569,-0.052540485277542896,-0.2713563366446837,0.25641006989668214,0.8405227157755367,1,left
10.181000000000001,0.17573895147988136,1.085056777811412,-0.07497744883476927,-0.32089415896597884,0.19768521920494675,-0.06621226721673312,-0.2746179215401717,0.25907325141885124,0.8448694814001062,1,left
10.182,0.17136821014661147,1.091376072260617,-0.07558588729792849,-0.32445349722407074,0.20473871711079025,-0.08042285362190238,-0.27796644864276066,0.261930896257247,0.8494625093160202,1,left
10.185,0.16693095366707622,1.097795661513346,-0.0761505453051629,-0.32883439163766115,0.21245587745793548,-0.0951633192912213,-0.2814032268417195,0.26497932416366904,0.8543074454420211,1,left
10.186,0.16243104465773478,1.1043116032190314,-0.07666998852372107,-0.33406361467556334,0.22086381538227418,-0.11042445585953946,-0.2849295269696435,0.2682145998277174,0.8594098640036236,1,left
10.19,0.15787248816324248,1.1109197106742466,-0.07714280475493247,-0.3401675760608796,0.22998991824808346,-0.1261967825156908,-0.28854657974358805,0.27163253446471364,0.8647752573600556,1,left
10.191,0.15325943097814437,1.1176155515351198,-0.07756760498257573,-0.3471722964611621,0.239861813847902,-0.14247055566077638,-0.2922555736739425,0.27522868760160857,0.87040902574818,1,left
10.196,0.14859616085642308,1.1243944468270495,-0.07794302439778224,-0.3551033806287892,0.25050733687245297,-0.15923577755124566,-0.2960576529511774,0.27899836907016284,0.8763164669580664,1,left
10.197000000000001,0.14388710558981782,1.1312514702588827,-0.0782677234008786,-0.36398599000914783,0.26195449367689005,-0.1764822039720647,-0.29995391532085797,0.2829366412172086,0.8825027659556361,1,left
10.202,0.1391368319304498,1.138181447848474,-0.07854038858872434,-0.3738448148367997,0.27423142537178646,-0.1941993509867002,-0.3039454099575811,0.287038321342313,0.888972984468577,1,left
10.202,0.13435004433045283,1.1451789578669962,-0.07875973374321756,-0.38470404574246964,0.28736636926950865,-0.21237650081205908,-0.30803313534876176,0.29129798437366294,0.8957320505525099,1,left
10.205,0.12953158347201552,1.152238331111309,-0.07892450084205242,-0.3965873448964272,0.3013876187189197,-0.231002706867906,-0.3122180371994619,0.29570996579347275,0.9027847481551899,1,left
10.207,0.12468642456584965,1.1593536515157052,-0.0790334611172101,-0.4095178167166341,0.31632348136374205,-0.25006679805163134,-0.3165010063697328,0.30026836482468616,0.910135706697339,1,left
10.209,0.11981967540429987,1.1665187571157054,-0.07908541618959977,-0.42351797817290515,0.33220223586237324,-0.26955738229056503,-0.320882876856214,0.3049670478911983,0.9177893906895386,1,left
10.21,0.11493657416555969,1.1737272413782003,-0.0790791993076651,-0.4386097287212697,0.3490520871094954,-0.28946284942532013,-0.32536442383001435,0.30979965236425766,0.925750089405451,1,left
10.214,0.11004248697570669,1.1809724549141927,-0.07901367671272803,-0.4548143199057279,0.3669011200024456,-0.30977137347890715,-0.3299463617431792,0.31475959060813175,0.9340219066324981,1,left
10.215,0.10514290524451361,1.1882475075912675,-0.07888774914711065,-0.47215232466766754,0.38577725179802375,-0.33047091436758613,-0.3346293425163351,0.31984005433851925,0.9426087505219928,1,left
10.22,0.1002434427988445,1.1955452710623216,-0.07870035351660921,-0.490643606406342,0.40570818310820356,-0.3515492191106137,-0.33941395382038625,0.32503401930757847,0.9515143235616009,1,left
10.221,0.09534983284156631,1.2028583817257903,-0.07845046471734582,-0.5103072878370055,0.4267213475860821,-0.3729938225972002,-0.34430071746040525,0.3303342503222641,0.9607421126863965,1,left
10.222000000000001,0.09046792476113905,1.2101792441317725,-0.07813709763598359,-0.5311617196965547,0.4488438603563535,-0.39479204797011413,-0.34929008784503435,0.3357333065653071,0.9702953795081267,1,left
10.226,0.08560368080917528,1.2175000348488174,-0.07775930933000037,-0.5532244493498393,0.4721024652476225,-0.41693100668646077,-0.3543824504798027,0.34122354712062875,0.9801771505756376,1,left
10.226,0.08076317265684442,1.2248127068070673,-0.07731620139078423,-0.5765121893531701,0.496523480886981,-0.4393975983172112,-0.3595781203979421,0.346797136567581,0.9903902075427842,1,left
10.229,0.07595257783878229,1.2321089941335495,-0.07680692248673641,-0.6010407860349705,0.5221327457204583,-0.46217851014807526,-0.36487734046769377,0.35244605054639183,1.0009370771586332,1,left
10.23,0.0711781760918846,1.239380417494232,-0.07623067107835961,-0.6268251881569878,0.5489555620262161,-0.485260216645288,-0.3702802795605979,0.3581620812653264,1.0118200210632962,1,left
10.234,0.06644634559374689,1.2466182899552118,-0.0755866982956537,-0.6538794157101573,0.5770166389893623,-0.5086289788427889,-0.3757870305906716,0.3639368429580158,1.0230410254112272,1,left
10.235,0.06176355910212087,1.253813723373136,-0.07487431096985953,-0.6822165288385607,0.6063400349039808,-0.5322708436679984,-0.38139760843969706,0.36976177730716514,1.0346017903522902,1,left
10.236,0.057136379993567105,1.2609576353246195,-0.07409287481361138,-0.7118485967729535,0.636949098559421,-0.5561716431519507,-0.38711194778414193,0.3756281588510422,1.0465037194018616,1,left
10.241,0.05257145819825914,1.2680407565859417,-0.07324181774367873,-0.7427866665947677,0.6688664098647574,-0.5803169934301914,-0.39292990083953155,0.3815271003893188,1.058747908732208,1,left
10.242,0.048075526029283784,1.2750536391751708,-0.07232063333788,-0.7750407317193887,0.7021137197756471,-0.6046922934818046,-0.3988512350383901,0.38744955840497813,1.0713351364183534,1,left
10.245,0.043655393906391705,1.2819866649679768,-0.07132888441315839,-0.8086197001068067,0.7367118896035345,-0.6292827236269939,-0.4048756306581666,0.3933863385191226,1.0842658516726293,1,left
10.245999999999999,0.039317945973725475,1.2888300548966676,-0.07026620670790275,-0.8435313622756951,0.7726808297976075,-0.6540732438445105,-0.4110026784158587,0.3993281009956083,1.0975401641030809,1,left
10.249,0.03507013560857558,1.2955738787405113,-0.06913231265092755,-0.8797823592135949,0.8100394382950571,-0.6790485919789238,-0.4172318770463434,0.4052653663125002,1.1111578330318945,1,left
10.251,0.03091898081430309,1.302208065514791,-0.06792699520164941,-0.9173781502796847,0.8488055385390765,-0.7041932819083419,-0.4235626308817211,0.411188520817382,1.1251182569109908,1,left
10.254000000000001,0.026871559485302347,1.3087224144658334,-0.06665013174734664,-0.956322981200442,0.8889958172679692,-0.729491601743766,-0.4299942474492725,0.41708782248357085,1.1394204628729154,1,left
10.255,0.02293500452520864,1.315106606678396,-0.0653016880409845,-0.9966198522623476,0.9306257621827256,-0.754927612131794,-0.43652593510592275,0.4229534067842707,1.154063096456149,1,left
10.259,0.01911649879221198,1.3213502173004554,-0.06388172215734489,-1.038270486809645,0.9737095996044689,-0.7804851447328707,-0.44315680072739716,0.42877529270166,1.169044411544936,1,left
10.259,0.015423269838647303,1.3274427283890946,-0.06239038843856608,-1.0812753001590385,1.0182602322372591,-0.8061478009477281,-0.4498858474705434,0.4345433888878389,1.1843622605647188,1,left
10.264000000000001,0.011862584406402676,1.3333735423783264,-0.06082794139473668,-1.1256333690470963,1.0642891771558778,-0.8318989509650521,-0.45671197262758195,0.440247499994466,1.2000140849752317,1,left
10.265,0.00844174263441536,1.3391319961635377,-0.05919473952109517,-1.1713424017300125,1.1118065041423895,-0.8577217332037574,-0.46363396559133135,0.44587733318778605,1.2159969061042966,1,left
10.269,0.0051680719294140325,1.3447073757884587,-0.05749124898962259,-1.218398708859263,1.160820774499488,-0.8835990542235601,-0.4706505059507372,0.4514225048655977,1.2323073163663123,1,left
10.27,0.0020489204475724835,1.3500889317111489,-0.05571804716957694,-1.2667971752605842,1.2113389804728771,-0.9095135891777845,-0.477760161736311,0.4568725475925257,1.248941470910395,1,left
10.274000000000001,-0.000908349864871483,1.3552658946169742,-0.0538758259307499,-1.316531232747574,1.2633664854192068,-0.9354477828825535,-0.4849613878353615,0.462216917269747,1.2658950797440793,1,left
10.275,-0.0036963707195381062,1.3602274917399608,-0.051965394686386224,-1.367592834105082,1.316906964860389,-0.9613838515766598,-0.4922525245971729,0.46744500055508004,1.2831634003794274,1,left
10.277999999999999,-0.006307775463770703,1.3649629636497507,-0.04998768313885802,-1.4199724283814161,1.3719623485694272,-0.9873037854465281,-0.49963179664854873,0.47254612254906897,1.3007412310493183,1,left
10.279000000000002,-0.008735207623190825,1.3694615814591657,-0.047943743698043995,-1.4736589376322162,1.4285327638372292,-1.0131893519907302,-0.507097311940407,0.4775095547623942,1.3186229045426157,1,left
10.285,-0.010971330035497457,1.373712664406443,-0.045834753548470226,-1.528639735262662,1.4866164800742137,-1.0390221002985238,-0.5146470610463673,0.48232452337960435,1.3368022827078063,1,left
10.287,-0.013008834592238413,1.377705597766406,-0.04366201634547932,-1.5849006261184662,1.5462098549048737,-1.064783366316835,-0.522278916734525,0.4869802178338016,1.3552727516755954,1,left
10.289000000000001,-0.01484045259529155,1.3814298510468053,-0.041426963521936686,-1.6424258284798496,1.6073072819178011,-1.0904542791800076,-0.5299906338338537,0.49146579970651516,1.3740272178518127,1,left
10.289000000000001,-0.016458965727071024,1.3848749964311473,-0.039131155186060106,-1.7011979581164114,1.6699011402380248,-1.1160157686764915,-0.5377798494062468,0.4957704119698664,1.3930581047148987,1,left
10.29,-0.01785721762998575,1.388030727438192,-0.036776280590183084,-1.7611980145644897,1.7339817460928484,-1.1414485739264302,-0.5456440831820734,0.49988318860414477,1.4123573503633358,1,left
10.292,-0.019028126089928724,1.3908868777788101,-0.03436415815151144,-1.8224053697922233,1.7995373065466833,-1.1667332533438564,-0.5535807381212869,0.5037932646530779,1.4319164055977063,1,left
10.293,-0.019964695816846154,1.393433440398602,-0.03189673500953761,-1.884797759421113,1.8665538755846764,-1.1918501959568844,-0.5615871009089776,0.5074897867950302,1.451726232233118,1,left
10.298,-0.02066003181177296,1.3956605866978498,-0.0293760861094869,-1.9483512766764,1.9350153127291887,-1.2167796341589174,-0.5696603422478442,0.5109619244913426,1.471777301428232,1,left
10.299000000000001,-0.021107353305827393,1.3975586859220077,-0.026804412805718932,-2.0130403692420518,2.0049032443774237,-1.2415016579634663,-0.577797516906337,0.5141988817427913,1.4920595919793915,1,left
10.304,-0.021300008252874026,1.3991183247181527,-0.024184040983431635,-2.0788378391995317,2.076197028052687,-1.265996230834689,-0.5859955635347894,0.5171899094680541,1.5125625886187921,1,left
10.304,-0.021231488353778846,1.4003303268542218,-0.021517418701584853,-2.1457148461526145,2.148873719722402,-1.2902432071386651,-0.5942513042727273,0.5199243185141373,1.533275280374278,1,left
10.305,-0.020895444588646617,1.4011857730978015,-0.018807113363149056,-2.213640913242454,2.222908044122559,-1.3142223511270268,-0.602561444170722,0.5223914933080375,1.5541861590489958,1,left
10.309000000000001,-0.020285703235199567,1.40167602125088,-0.016055808419291693,-2.282583935037936,2.2982723676407226,-1.33791335712488,-0.6109225704503345,0.5245809061582087,1.5752832178797957,1,left
10.31,-0.019396282352650042,1.4017927263356877,-0.013266299615349903,-2.352510185888142,2.3749366730961636,-1.3612958704614382,-0.6193311516258565,0.5264821322136678,1.5965539504338486,1,left
10.312000000000001,-0.018221408708215325,1.401527860922037,-0.010441490792893585,-2.4233843277280585,2.4528685359771014,-1.3843495088138222,-0.6277835365117171,0.5280848650878005,1.6179853498035244,1,left
10.312999999999999,-0.01675553512178858,1.400873735578137,-0.0075843892719491815,-2.4951694170539627,2.532033102090451,-1.4070538838726867,-0.6362759531395643,0.5293789331531386,1.639563908160117,1,left
10.318,-0.014993358207646888,1.3998230194171182,-0.004698100844661551,-2.5678269111890075,2.6123930668007254,-1.429388623370237,-0.644804507609171,0.5303543165125442,1.6612756167274874,1,left
10.319,-0.012929836498978128,1.3983687607017607,-0.001785824412714733,-2.64131667404254,2.693908656081899,-1.4513333935368256,-0.6533651828974378,0.531001164651387,1.683105966237163,1,left
10.323,-0.01056020894779497,1.3965044074592876,0.001149153705548766,-2.715596981569284,2.7765376096095715,-1.4728679220513008,-0.6619538376498814,0.5313098147744078,1.7050399479268568,1,left
10.324000000000002,-0.007880013797505836,1.394223828044983,0.004103465786090669,-2.7906245271370325,2.8602351661241983,-1.493972021549233,-0.6705662049790971,0.5312708108300499,1.727062055144741,1,left
10.329,-0.004885107826392581,1.3915213315771249,0.0070736690346506126,-2.8663544270138654,2.944954051299468,-1.5146256137520082,-0.6791978912947856,0.5308749232240969,1.749156285622162,1,left
10.329,-0.0015716859554697556,1.388391688146461,0.010056252272844731,-2.9427402261882016,3.0306444683531018,-1.5348087542786157,-0.6878443751900001,0.5301131692234808,1.7713061444777676,1,left
10.332,0.0020636987971318094,1.3848301486824597,0.01304764301852824,-3.0197339047371115,3.117254091640415,-1.5545016582007094,-0.696501006408351,0.5289768340501313,1.7934946480162803,1,left
10.333,0.006024115050042133,1.3808324643380747,0.01604421501657161,-3.0972858849603475,3.2047280634739086,-1.573684726400233,-0.7051630049169527,0.5274574926637065,1.8157043283853491,1,left
10.337,0.010312232536800341,1.3763949052375757,0.0190422962793639,-3.175345039499418,3.293008994414941,-1.5923385727875468,-0.7138254601099412,0.5255470322310015,1.8379172391540743,1,left
10.338,0.014930301409415848,1.3715142784202217,0.022038177686457668,-3.2538587006627893,3.382036967286168,-1.6104440524365862,-0.7224833301674213,0.5232376752787496,1.8601149618769104,1,left
10.341,0.01988013147735891,1.3661879448076988,0.025028122171854038,-3.3327726711798884,3.4717495451559195,-1.6279822906921182,-0.7311314415947163,0.520522003525435,1.8822786137067111,1,left
10.342,0.0251630715236713,1.3604138350262123,0.028008374503461497,-3.4120312366080325,3.562081783547993,-1.644934713302644,-0.739764488966794,0.5173929823866118,1.9043888561206885,1,left
10.347000000000001,0.030779988874055215,1.3541904639243199,0.03097517163896676,-3.4915771796177215,3.6529662471324813,-1.6612830776309147,-0.7483770349027291,0.5138439861470804,1.9264259048230117,1,left
10.347999999999999,0.03673124943247669,1.3475169436427188,0.03392475362491419,-3.57135179638287,3.7443330311552057,-1.6770095049924079,-0.7569635102950355,0.5098688237921021,1.9483695408876744,1,left
10.350999999999999,0.04301669843726233,1.3403929951103393,0.03685337498460734,-3.651294915303546,3.83610978786513,-1.6920965141704243,-0.7655182148186563,0.5054617654886511,1.9701991232051097,1,left
10.352,0.049635642229761155,1.3328189578626835,0.03975731651061634,-3.731344918289605,3.9282217582006704,-1.7065270561547277,-0.7740353177443419,0.5006175697064946,1.9918936022958078,1,left
