time,gFx,gFy,gFz,ax,ay,az,wx,wy,wz,subject_number,foot
8.923,0.03476140894949451,1.4310329559691422,-0.09118597817875225,-1.7256461568594532,1.7374976962710778,-0.8554774097274066,-0.5149512371403182,0.7599548225010054,1.7909938642998668,3,left
8.924,0.03533623388519654,1.4353999787101095,-0.09007513081611561,-1.781768057806307,1.8130604826322305,-0.880069342496695,-0.5225392728753522,0.7623267822910539,1.812677900445829,3,left
8.927,0.03616100745809178,1.4394637828468697,-0.08890781757618217,-1.8391880621352066,1.8902164410607134,-0.9048712011983542,-0.530219402231637,0.7644170297123333,1.8345339266153182,3,left
8.927999999999999,0.03724022661506864,1.443212584351388,-0.08768458048173533,-1.8978786768169893,1.9689511584386439,-0.9298606536258498,-0.5379879839085057,0.766216176179069,1.8565484151631646,3,left
8.927999999999999,0.03857813007301831,1.4466347164628708,-0.08640604970517056,-1.957809987676095,2.0492481089535324,-0.9550151874664778,-0.545841175211073,0.767715028343902,1.8787073237265322,3,left
8.932,0.04017868991733614,1.4497186544045682,-0.08507294367135315,-2.0189496818287633,2.131088604873644,-0.9803121275215791,-0.553774931530816,0.7689046024070528,1.90099609882407,3,left
8.933,0.042045603092771305,1.4524530409355196,-0.08368606896630877,-2.0812630718012666,2.2144517477132837,-1.0057286526410725,-0.5617850057929789,0.7697761386460833,1.9233996797649082,3,left
8.937000000000001,0.04418228277785463,1.454826712696548,-0.08224632003718602,-2.144713121061211,2.2993143797167255,-1.0312418123244331,-0.5698669478933527,0.7703211161705473,1.9459025029311237,3,left
8.937999999999999,0.04659184963762655,1.456828727292337,-0.08075467866106682,-2.209260471064291,2.385651035845535,-1.0568285430407225,-0.5780161041472137,0.7705312679049247,1.9684885064976694,3,left
8.942,0.049277122952616034,1.4584483910365091,-0.07921221315540444,-2.2748634699954233,2.4734338965087095,-1.0824656843406362,-0.5862276167734202,0.7703985958023266,1.9911411356540976,3,left
8.943,0.05224061162432152,1.4596752872727872,-0.07762007730542883,-2.3414782033864565,2.562632741279368,-1.108129994833811,-0.5944964234368755,0.7699153862905183,2.013843348392684,3,left
8.947000000000001,0.055484505060136254,1.4604993051726454,-0.07597950899349064,-2.409058526795785,2.653214903845961,-1.133798168104847,-0.6028172568727577,0.7690742259508461,2.0365776219278025,3,left
8.947000000000001,0.05901066394459353,1.460910668899498,-0.07429182852507589,-2.477556100738243,2.745145228450107,-1.1594468486416416,-0.6111846446160928,0.7678680174296719,2.0593259598115856,3,left
8.953,0.0628206109087266,1.4608999670201475,-0.07255843664951019,-2.5469204280565365,2.8383860280672217,-1.1850526478497128,-0.6195929088604171,0.7662899955809107,2.0820698998110565,3,left
8.954,0.06691552111508481,1.4604581820337021,-0.0707808122723346,-2.617098893928257,2.9328970445901015,-1.2105921602261986,-0.628036166469417,0.764333743837238,2.104790522611996,3,left
8.957,0.07129621278298344,1.4595767198773084,-0.06896050985927038,-2.688036808705138,3.028635411279449,-1.2360419797671662,-0.6365083291655746,0.7619932108064901,2.1274684614148605,3,left
8.958,0.07596313768621095,1.458247439258966,-0.0670991565437678,-2.759677453783706,3.125555617749132,-1.2613787166817365,-0.6450031039199591,0.7592627270887073,2.1500839124880446,3,left
8.962,0.08091637166128916,1.456462680660599,-0.0651984489690257,-2.8319621307088196,3.22360947775757,-1.2865790144863427,-0.6535139935674049,0.7561370223081902,2.1726166467437156,3,left
8.964,0.08615560516700707,1.454215294849163,-0.06326014991373918,-2.904830213713749,3.322746100080194,-1.3116195675521845,-0.6620342976714052,0.7526112423538294,2.19504602240133,3,left
8.967,0.0916801339351853,1.4514986707313744,-0.061286084761829104,-2.9782192059024832,3.42291186274129,-1.3364771391786088,-0.670557113663107,0.7486809668198567,2.21735099880375,3,left
8.968,0.09748884974688367,1.448306762389844,-0.059278137876572226,-3.052064799281784,3.524050390886813,-1.3611285802647681,-0.6790753382788434,0.744342226638028,2.239510151450653,3,left
8.971,0.10358023135520088,1.4446341151428506,-0.05723824892779512,-3.126300938852184,3.6261025385828356,-1.3855508486514332,-0.6875816693206643,0.7395915218910956,2.261501688313615,3,left
8.972000000000001,0.1099523355567771,1.440475890473166,-0.05516840919857212,-3.2008598909686206,3.729006374827267,-1.4097210292043247,-0.6960686077643368,0.7344258397962757,2.283303467496903,3,left
8.976,0.11660278839514826,1.4358278896712802,-0.05307065787069964,-3.2756723161826984,3.8326971740652587,-1.4336163547097305,-0.7045284602392646,0.7288426728462378,2.3048930163075907,3,left
8.977,0.12352877646834934,1.4306865760350178,-0.05094707826322408,-3.3506673467796935,3.9371074115013265,-1.4572142276525144,-0.7129533419047539,0.7228400370939602,2.3262475517981107,3,left
8.982000000000001,0.1307270383190999,1.4250490954623654,-0.04879979397912943,-3.42577266922434,4.042166763503675,-1.4804922429459073,-0.7213351797469834,0.7164164905666095,2.347344002843844,3,left
8.982000000000001,0.13819385591509487,1.4189132952699037,-0.04663096490237703,-3.500914611730168,4.147802113398447,-1.5034282116816726,-0.7296657163209682,0.7095711517923984,2.368159033817705,3,left
8.986,0.14592504627602462,1.4122777410697158,-0.04444278298309365,-3.576018237167665,4.253937562953682,-1.5260001859683894,-0.7379365139555472,0.7023037183996965,2.388669069881272,3,left
8.987,0.15391595335392622,1.4051417315501815,-0.04223746775622614,-3.6510074415268736,4.360494449854665,-1.5481864849246767,-0.7461389594085318,0.6946144856290568,2.4088503237024965,3,left
8.987,0.16216144031317187,1.3975053110305065,-0.04001726155617795,-3.7258050581501174,4.46739137147391,-1.5699657218932026,-0.7542642689036204,0.6865043643862918,2.428678823033431,3,left
8.991,0.17065588241093768,1.3893692796783423,-0.037784424409269275,-3.800332967950449,4.57454421524057,-1.5913168329402716,-0.7623034934497406,0.6779748983461207,2.44813043837178,3,left
8.992,0.17939316077160603,1.380735201284059,-0.035541228603655835,-3.8745122158310736,4.681866195915157,-1.612219106704682,-0.7702475243740545,0.6690282797320977,2.467180910137901,3,left
8.996,0.18836665744224435,1.3716054084907512,-0.03328995295341814,-3.9482631333423694,4.789267900001994,-1.632652215606893,-0.7780870990550285,0.6596673636086466,2.4858058751736323,3,left
8.997,0.1975692521427466,1.3619830054024695,-0.03103287678638386,-4.021505466721876,4.896657337159876,-1.652596248170911,-0.7858128068724832,0.6498956806372238,2.503980892577038,3,left
8.998,0.20699332107103824,1.3518718675291979,-0.02877227369114556,-4.094158507858804,5.003939997801275,-1.6720317417466928,-0.7934150953974313,0.6397174482709134,2.52168146892773,3,left
9.0,0.21663073805506497,1.341276639067949,-0.02651040506765881,-4.16614122483294,5.11101891569801,-1.6909397146621161,-0.8008842768441986,0.6291375803605715,2.538883082956231,3,left
9.001,0.22647287830617416,1.3302027275656294,-0.024249513548582315,-4.237372389566793,5.2177947347838645,-1.709301697089569,-0.8082105348070058,0.6181616951444581,2.5555612097095284,3,left
9.005,0.23651062498998865,1.3186562960570525,-0.021991816388747046,-4.307770701730973,5.324165780015015,-1.7270997603740612,-0.8153839313028253,0.6067961215921245,2.5716913442636202,3,left
9.006,0.24673437875397802,1.3066442528102227,-0.019739498942387933,-4.377254908931337,5.430028132521155,-1.744316544825663,-0.8223944141419524,0.5950479040721809,2.587249025032413,3,left
9.01,0.2571340702572721,1.2941742388340898,-0.017494708352945386,-4.445743923382332,5.535275709353825,-1.760935286028976,-0.8292318246473137,0.582924805312421,2.6022098567208336,3,left
9.011000000000001,0.26769917567368673,1.2812546133105092,-0.015259547565346133,-4.513156935268617,5.639800348137308,-1.776939839720731,-0.8358859057431003,0.5704353076196721,2.616549532968439,3,left
9.015,0.2784187350928454,1.2678944371052034,-0.013036069735035013,-4.579413522994389,5.74349189692596,-1.7923147052849353,-0.8423463104328403,0.557588612325638,2.630243858728163,3,left
9.016,0.2892813737184379,1.2541034544982592,-0.010826273055479776,-4.644433760516986,5.846238309570118,-1.8070450479132731,-0.8486026106865333,0.5443946374239237,2.6432687724231263,3,left
9.021,0.30027532574635496,1.2398920732590455,-0.00863209596745642,-4.708138321958259,5.947925746890586,-1.821116719476708,-0.8546443067559388,0.5308640133623864,2.6556003679226574,3,left
9.022,0.3113884607906857,1.2252713431760573,-0.00645541266541395,-4.7704485836838835,6.048438683959376,-1.834516278152418,-0.8604608369365547,0.5170080769539263,2.6672149163768006,3,left
9.027000000000001,0.32260831270747303,1.2102529331403529,-0.004298028794253406,-4.831286724037212,6.147660023781587,-1.8472310068483524,-0.8660415877942368,0.5028388633678385,2.678088887946689,3,left
9.027000000000001,0.33392211064380717,1.19484910687402,-0.0021616772441834632,-4.890575820910516,6.245471217670301,-1.8592489304658042,-0.8713759048737929,0.4883690961628805,2.688198973466149,3,left
9.03,0.345316812115948,1.1790726973934582,-4.801400216315387e-05,-4.948239947332444,6.341752392603008,-1.8705588320384638,-0.8764531039062369,0.47361217532227656,2.6975221060678574,3,left
9.03,0.3567791378977828,1.1629370802993733,0.0020413859096931747,-5.004204265246307,6.436382485844324,-1.8811502677844558,-0.8812624825307122,0.4585821632499817,2.706035482805234,3,left
9.036,0.3682956084806921,1.146456145989517,0.004105032312042881,-5.058395117649347,6.529239387115734,-1.8910135811058586,-0.8857933325463867,0.4432937686866671,2.7137165862990624,3,left
9.037,0.37985258184657794,1.1296442708970298,0.006141523425472776,-5.110740119258477,6.6202000885886925,-1.9001399155681726,-0.8900349527088802,0.42776232850306417,2.720543206435579,3,left
9.039,0.3914362922790657,1.1125162878669865,0.008149548960595885,-5.16116824586311,6.709140842972662,-1.9085212268901455,-0.8939766620850179,0.41200378732752163,2.726493462140432,3,left
9.04,0.4030328899282124,1.0950874557943358,0.010127892612599996,-5.209609922520598,6.795937329964579,-1.9161502939722685,-0.897607813978903,0.3960346749638888,2.7315458232505327,3,left
9.045,0.4146284808413552,1.0773734286559622,0.01207543386594929,-5.255997110744492,6.880464831320788,-1.923020728990144,-0.9009178104414709,0.3798720815551426,2.7356791325033596,3,left
9.046,0.4262091671728156,1.059390224078593,0.01399114904890515,-5.300263394830352,6.962598414806674,-1.9291269865767855,-0.9038961173748239,0.3635336304475236,2.7388726276607676,3,left
9.05,0.4377610872879081,1.0411541915935534,0.015874111600074455,-5.342344067458114,7.04221312727308,-1.9344643721157544,-0.9065322802417566,0.3470374487093421,2.7411059637817643,3,left
9.05,0.4492704554855747,1.0226819807376646,0.017723491524784203,-5.382176214704131,7.119184197102055,-1.9390290491648567,-0.9088159403899568,0.33040213525806245,2.742359235656087,3,left
9.055,0.46072360108000604,1.0039905091640238,0.019538554039242914,-5.419698800589902,7.193387246257604,-1.9428180460279327,-0.9107368519994169,0.31364672654876785,2.742613000407707,3,left
9.056000000000001,0.4721070066051972,0.9850969309224914,0.02131865742822082,-5.454852751288265,7.2646985121698995,-1.9458292614900627,-0.9122848996422769,0.2967906598270238,2.7418483002640293,3,left
9.057,0.4834073449430917,0.9660186050493083,0.02306325016812081,-5.487581039101325,7.3329950796737995,-1.9480614697292982,-0.9134501163516779,0.27985373420059545,2.740046685430671,3,left
9.059,0.4946115152221745,0.9467730645708488,0.024771867384723815,-5.517828766317801,7.398155123214561,-1.9495143244157946,-0.914222701930211,0.26285607023743274,2.7371902369133485,3,left
9.06,0.5057066773604219,0.9273779860041476,0.026444126733245053,-5.545543249050642,7.460058159525362,-1.9501883620069984,-0.914593041135848,0.24581806904888517,2.733261589072404,3,left
9.065,0.5166802851182916,0.9078511594413534,0.028079723814871175,-5.570674101084267,7.51858531063112,-1.9500850042243014,-0.9145517214737721,0.2287603715650412,2.7282439517455956,3,left
9.066,0.5275201175172408,0.888210459309503,0.029678427260089735,-5.593173317430908,7.573619575317007,-1.9492065595893804,-0.9140895504863437,0.21170381825560838,2.7221211318672403,3,left
9.067,0.5382143084966609,0.8684738158774923,0.03124007360011708,-5.612995356707293,7.62504610411786,-1.9475562237072612,-0.9131975725239182,0.19466940929780052,2.714877554561777,3,left
9.07,0.5487513747016465,0.848659187559504,0.03276456203428091,-5.630097221112727,7.672752471167886,-1.9451380778759428,-0.911867084996378,0.17767826514227425,2.706498283697296,3,left
9.071,0.5591202412863481,0.828784534061092,0.03425184920463134,-5.644438533104855,7.71662893794714,-1.9419570857051693,-0.9100896541040301,0.16075158742816176,2.696969041881418,3,left
9.076,0.5693102655990905,0.8088677904183665,0.035701944095295195,-5.655981608442634,7.756568707023734,-1.9380190876136538,-0.9078571300452889,0.14391062019830922,2.6862762298786773,3,left
9.077,0.5793112586113826,0.7889268419749831,0.03711490316131439,-5.664691525581004,7.792468165587144,-1.9333307931768253,-0.9051616616973059,0.12717661136595615,2.6744069454253103,3,left
9.079,0.5891135039642549,0.7689795003286155,0.038490825760779196,-5.670536191458404,7.8242271188984605,-1.927899771315974,-0.9019957107644198,0.11057077438427522,2.6613490014140435,3,left
9.08,0.5987077745259077,0.7490434802661969,0.03982984992670002,-5.673486403710178,7.851749013772064,-1.921734438317495,-0.8983520653879963,0.09411425007043896,2.6470909434181324,3,left
9.083,0.6080853463835583,0.729136377696712,0.04113214847936897,-5.673515909332854,7.874941152191663,-1.9148440436687821,-0.894223853209902,0.07782806853618626,2.6316220665205354,3,left
9.084,0.6172380102273171,0.7092756485802911,0.042397925453318934,-5.670601459816007,7.89371489515171,-1.9072386536951818,-0.8896045538804983,0.06173311117723062,2.6149324314106797,3,left
9.088,0.6261580801204328,0.6894785888423233,0.04362741280184036,-5.664722862750126,7.9079858568030605,-1.8989291329803215,-0.884488011000673,0.045850072674279686,2.5970128797078362,3,left
9.09,0.6348383996844669,0.669762315251643,0.04482086734489507,-5.655863029910528,7.917674088969308,-1.8899271235500383,-0.8788684434860398,0.030199422958925654,2.5778550484666503,3,left
9.093,0.6432723457555131,0.6501437472322786,0.04597856793445667,-5.644008021808908,7.922704256087554,-1.8802450217980808,-0.8727404563400194,0.014801369098214138,2.557451383816856,3,left
9.094,0.6514538295846762,0.6306395895676784,0.047100812818268376,-5.629147088695568,7.923005800614422,-1.8698959531297412,-0.8660990508210917,-0.000324182947691791,2.5357951536856844,3,left
9.099,0.6593772956643904,0.6112663159444293,0.04818791718966037,-5.611272707986882,7.918513098924998,-1.8588937442975815,-0.8589396339880653,-0.01515766673966925,2.5128804595479095,3,left
9.1,0.6670377182702235,0.5920401532709396,0.049240210922332224,-5.590380618083906,7.909165607718993,-1.8472528934014691,-0.851258027605747,-0.029679893989806392,2.4887022471449063,3,left
9.104,0.6744305958239906,0.5729770666983718,0.05025803650727088,-5.5664698485394055,7.894908000934844,-1.834988537523224,-0.8430504763919261,-0.043872093450996075,2.463256316110492,3,left
9.105,0.6815519432095017,0.5540927452690462,0.05124174722934684,-5.539542746521964,7.875690297158734,-1.8221164179642952,-0.834313655585094,-0.0577159501085236,2.4365393284377164,3,left
9.107999999999999,0.6883982822010543,0.5354025881231713,0.052191705633213493,-5.509604999517155,7.851467977501537,-1.8086528430530677,-0.8250446778108248,-0.07119364471532667,2.4085488157171335,3,left
9.107999999999999,0.6949666301888833,0.5169216912074079,0.053108282325041486,-5.476665654197071,7.822202093902652,-1.7946146484865924,-0.8152410992232333,-0.08428789371165851,2.379283185073441,3,left
9.113,0.7012544874005591,0.4986648344452906,0.05399185514016529,-5.4407371313809,7.787859367805383,-1.7800191551698015,-0.8049009248964029,-0.09698198956888542,2.3487417237237436,3,left
9.113999999999999,0.7072598228234396,0.4806464693456614,0.05484280868250042,-5.4018352370005305,7.7484122791342305,-1.7648841245135678,-0.7940226134391531,-0.10925984159609949,2.3169246020770164,3,left
9.117,0.7129810590350572,0.4628807070369694,0.05566153421509607,-5.359979168976613,7.703839145489936,-1.7492277111513141,-0.7826050808049784,-0.12110601724712672,2.2838328752907033,3,left
9.118,0.7184170561489625,0.4453813067201858,0.05644842986084934,-5.315191519901887,7.6541241914635645,-1.733068413032287,-0.770647703267449,-0.1325057839643626,2.2494684831967056,3,left
9.122,0.7235670950826509,0.4281616645329189,0.057203901067277116,-5.26749827542006,7.599257607956259,-1.7164250188480499,-0.7581503195298247,-0.14344515159467316,2.2138342485053664,3,left
9.124,0.7284308603475749,0.4112348028154719,0.05792836129907383,-5.2169288081800484,7.539235601376584,-1.6993165527472611,-0.7451132319548971,-0.1539109153427109,2.176933873241049,3,left
9.126,0.7330084225409101,0.3946133597659418,0.05862223293679646,-5.163515867236979,7.474060432572613,-1.6817622162923587,-0.7315372069936386,-0.16389069888246824,2.138771933602568,3,left
9.128,0.7373002206850802,0.37830957946663635,0.05928594836917443,-5.107295562762991,7.40374044534115,-1.6637813276103732,-0.7174234750590679,-0.17337299662872557,2.0993538738760313,3,left
9.128,0.7413070445329661,0.36233530226521515,0.05991995126625132,-5.048307345922643,7.328290084341651,-1.6453932576887713,-0.7027737301843027,-0.1823472138254452,2.05868600026733,3,left
9.134,0.7450300169460534,0.3467019555060523,0.060524698014175045,-4.9865939837595725,7.247729902227642,-1.6266173637659371,-0.6875901297081106,-0.1908037034500155,2.016775475274572,3,left
9.136000000000001,0.7484705764441547,0.33142054462480813,0.06110065928708363,-4.922201528932964,7.162086555793632,-1.607472919764678,-0.6718752940603471,-0.19873379954866674,1.9736303127792145,3,left
9.136000000000001,0.7516304600053397,0.3165016446323605,0.061648321730959035,-4.8551792841338495,7.071392791032307,-1.5879790438526409,-0.6556323066240178,-0.20612984696016853,1.9292593737877355,3,left
9.137,0.7545116861711597,0.30195539201670574,0.0621681897379451,-4.785579761000243,6.975687417539348,-1.5681546238957367,-0.638864713630355,-0.21298522745208387,1.88367236270347,3,left
9.138,0.7571165384969968,0.2877914770851334,0.06266078729513144,-4.713458633336746,6.875015273691807,-1.5480182427996043,-0.6215765240417674,-0.21929438229234408,1.8368798240046809,3,left
9.145,0.7594475493857872,0.27401913676668915,0.06312665989497357,-4.638874684433542,6.769427184568708,-1.527588106416469,-0.603772209376012,-0.22505283127737744,1.7888931392014222,3,left
9.147,0.7615074843547015,0.26064714790526794,0.06356637649229421,-4.561889748275462,6.65897991401092,-1.5068819760104737,-0.5854567034234255,-0.230257188236473,1.7397245239402566,3,left
9.148,0.7632993268009531,0.2476838210879361,0.06398053148685681,-4.482568644430265,6.543736111199936,-1.4859171060436709,-0.5666354018075629,-0.23490517303049502,1.68938702512243,3,left
9.148,0.7648262633458413,0.23513699506018573,0.06436974670414577,-4.400979106401382,6.423764251563823,-1.464710187360688,-0.5473141613381047,-0.23899562006148223,1.6378945178976783,3,left
9.152000000000001,0.7660916698406397,0.22301403178035517,0.0647346733414505,-4.317191703224094,6.299138571693186,-1.4432772957126203,-0.5274992991034302,-0.2425284833080789,1.5852617023924402,3,left
9.152999999999999,0.7670990981123033,0.21132181216336018,0.06507599384011382,-4.23127975407743,6.169938997936232,-1.421633845559961,-0.5071975912487996,-0.24550483790014663,1.531504100027909,3,left
9.157,0.7678522635111421,0.20006673255938284,0.06539442363618728,-4.143319235677551,6.0362510683284425,-1.3997945490936816,-0.4864162713846553,-0.24792687824430804,1.4766380492800206,3,left
9.158,0.7683550332988475,0.18925470200643293,0.06569071273302575,-4.053388682212085,5.898165847499028,-1.3777733804129229,-0.465163028568133,-0.2497979127105738,1.4206807007302196,3,left
9.161,0.7686114158877333,0.17889114028821623,0.06596564703476594,-3.9615690775687504,5.755779834183153,-1.3555835447971538,-0.44344600479947693,-0.2511223548886079,1.3636500112526009,3,left
9.161,0.7686255509149151,0.1689809768213399,0.06622004938071639,-3.867943739605781,5.609194860956129,-1.3332374530100928,-0.42127379197367726,-0.2519057114205954,1.305564737179854,3,left
9.167,0.76840170011006,0.1595286503898001,0.06645478022779644,-3.7725981962059603,5.458517985793049,-1.3107467005721518,-0.39865542822629196,-0.25215456641609846,1.2464444262872936,3,left
9.167,0.7679442388919487,0.15053810974154977,0.06667073794203275,-3.6756200528506744,5.303861375045098,-1.2881220519376932,-0.3756003936110839,-0.251876562452716,1.1863094084311856,3,left
9.172,0.7672576486074403,0.14201281506076754,0.06686885867973705,-3.577098851445217,5.145342177411627,-1.2653734295129218,-0.3521186050457981,-0.2510803781648127,1.125180784674545,3,left
9.173,0.7663465093080369,0.13395574032737487,0.0670501158606975,-3.477125920121618,4.983082388475402,-1.2425099074498298,-0.32822041046112393,-0.24977570242104774,1.0630804147306145,3,left
9.176,0.7652154929466914,0.12636937657066266,0.0672155192551344,-3.3757942137406114,4.8172087053569825,-1.2195397101512233,-0.3039165820866311,-0.24797320508992374,1.0000309025513177,3,left
9.177,0.7638693568726613,0.11925573601630647,0.0673661137207117,-3.273198144809901,4.64785237103312,-1.1964702154214921,-0.2792183088062456,-0.24568450439108958,0.9360555798851239,3,left
9.181000000000001,0.7623129375043872,0.11261635711574858,0.06750297763515337,-3.1694334045317376,4.475149007853303,-1.1733079621974676,-0.25413718751463643,-0.24292213082867237,0.8711784876259804,3,left
9.182,0.7605511440678333,0.10645231043461838,0.06762722107482379,-3.0645967736889075,4.299238439778238,-1.1500586627933918,-0.22868521340471692,-0.2396994877014846,0.8054243547722346,3,left
9.187000000000001,0.7585889523006257,0.10076420536425502,0.067739983791722,-2.958785923074602,4.120264502854028,-1.1267272195937423,-0.20287476911533575,-0.23603080818355923,0.738818574811816,3,left
9.187999999999999,0.7564313980414509,0.09555219760993894,0.0678424330415374,-2.852099203168303,3.9383748434262373,-1.1033177461273855,-0.1767186126671315,-0.23193110896710611,0.6713871793473536,3,left
9.191,0.7540835706476084,0.09081599740292594,0.06793576131245226,-2.744635422756713,3.7537207035887805,-1.0798335924562785,-0.15022986411346045,-0.22741614045866235,0.6031568087723937,3,left
9.191,0.7515506062064918,0.08655487838095559,0.0680211839973002,-2.6364936161959798,3.5664566933538433,-1.056277374811706,-0.1234219908322788,-0.2225023335179299,0.5341546798074304,3,left
9.192,0.7488376805242507,0.08276768708325857,0.06809993704152109,-2.527772799008949,3.3767405490206093,-1.0326510094108081,-0.09630879142612414,-0.2172067428160594,0.46440854981887836,3,left
9.195,0.745950001884849,0.07945285301177629,0.06817327458799213,-2.4185717115089376,3.184732877212683,-1.008955750385941,-0.06890437840766664,-0.21154698733146163,0.3939466784257563,3,left
9.195,0.742892803576323,0.07660839921899998,0.06824246662969337,-2.308988550139585,2.990596884046584,-0.9851922317592055,-0.04122316022768939,-0.20554118929660614,0.3227977879476966,3,left
9.201,0.7396713361818725,0.0742319533894621,0.06830879667454794,-2.199120686740107,2.7944980893768583,-0.9613605133126106,-0.013279823412761868,-0.1992079133506851,0.2509910248296936,3,left
9.202,0.7362908596344246,0.07232075938420282,0.06837355942377724,-2.089064378551142,2.596604028507838,-0.9374601297958327,0.014910684632246509,-0.19256610720946274,0.1785559235930181,3,left
9.202,0.7327566350349047,0.0708716892187587,0.06843805846420595,-1.9789144764682813,2.3970839481678383,-0.9134901421783732,0.04333317198276502,-0.18563504436611192,0.10552237380868187,3,left
9.205,0.7290739162372294,0.06988125544598116,0.0685036039752489,-1.8687641416567942,2.1961085059870142,-0.8894491892444161,0.071972217752218,-0.17843426889338831,0.031920590004020435,3,left
9.205,0.725247941208994,0.06934562391281789,0.0685715104524608,-1.7587045780332748,1.9938494802638795,-0.8653355382367912,0.10081218692977,-0.17098354232810337,-0.042218915705628676,3,left
9.21,0.7212839231869128,0.06926062685679481,0.06864309445030566,-1.6488247834266634,1.790479492388946,-0.8411471339912112,0.1298372445797367,-0.16330279261802652,-0.11686535846989285,3,left
9.211,0.7171870416599236,0.06962177630637176,0.0687196723450824,-1.5392113196238426,1.5861717418387187,-0.8168816464100537,0.15903136948490043,-0.1554120651105742,-0.19198770325234907,3,left
9.216000000000001,0.7129624332293872,0.07042427774910176,0.0688025581132397,-1.4299481009838373,1.3810997531593774,-0.7925365162064107,0.1883783673165455,-0.1473314755619239,-0.26755468528844334,3,left
9.216000000000001,0.7086151824125182,0.07166304403152524,0.06889306111151329,-1.3211162013051447,1.1754371343562915,-0.7681089988489148,0.2178618834145602,-0.13908116514453192,-0.3435348286667169,3,left
9.221,0.7041503124691534,0.07333270945536972,0.06899248383648551,-1.2127936786314857,0.9693573461028199,-0.7435962066376268,0.2474654152614377,-0.13068125743043005,-0.4198964632490786,3,left
9.222000000000001,0.6995727763416757,0.07542764403622006,0.06910211963525134,-1.105055417682268,0.7630334811796522,-0.7189951488410445,0.2771723247344463,-0.1221518173271316,-0.4966077401471398,3,left
9.225,0.6948874478036566,0.07794196789279546,0.06922325033733494,-0.9979729895952842,0.5566380535542531,-0.6943027698240485,0.3069658502206323,-0.11351281194248851,-0.5736366459728137,3,left
9.226,0.690099112915132,0.08086956573594203,0.0693571437807733,-0.8916145286706253,0.3503427965087673,-0.6695159850963641,0.3368291186796621,-0.1047840733544127,-0.6509510160824772,3,left
9.23,0.6852124618811319,0.08420410142553383,0.06950505121071276,-0.7860446258064577,0.1443184692240453,-0.6446317152108585,0.36674515773980804,-0.09598526326100133,-0.7285185470349977,3,left
9.231,0.680232081404791,0.08793903256140768,0.06966820453519026,-0.6813242383191948,-0.06126532877275967,-0.6196469174407311,0.39669690791263035,-0.08713583948629149,-0.8063068084848389,3,left
9.235,0.6751624476171952,0.09206762507198575,0.06984781342937485,-0.5775106158426591,-0.2662403358892877,-0.594558615164387,0.42666723501210724,-0.07825502431661095,-0.8842832547322799,3,left
9.236,0.6700079196542742,0.09658296776107184,0.07004506228589133,-0.474657242003095,-0.47043980006924824,-0.5693639248864993,0.45663894286411816,-0.06936177464229076,-0.9624152361535072,3,left
9.24,0.6647727339388687,0.10147798676978947,0.0702611070150103,-0.37281379156932015,-0.6736986443041012,-0.5440600808234793,0.4865947863922862,-0.06047475387935856,-1.0406700107339775,3,left
9.241,0.6594609992152377,0.10674545990787764,0.0704970717062469,-0.27202610277990186,-0.8758536266436228,-0.5186444569812774,0.5165174851662394,-0.051612305645741395,-1.1190147559289814,3,left
9.245,0.6540766923734325,0.11237803080676154,0.07075404517313744,-0.17233616455199569,-1.0767434952916113,-0.49311458665312985,0.5463897374983545,-0.0427924291664705,-1.1974165810757962,3,left
9.246,0.6486236550914298,0.1183682228453036,0.07103307741277066,-0.07378211827937566,-1.276209139370289,-0.4674681792645559,0.5761942351750012,-0.03403275638239719,-1.2758425405821583,3,left
9.249,0.643105591312994,0.12470845279778939,0.0713351760165464,0.023601726069789716,-1.4740937359337913,-0.44170313449258614,0.6059136789082097,-0.025350530736999305,-1.3542596481160465,3,left
9.25,0.6375260655680671,0.13139104415363456,0.07166130256729378,0.11978485984171593,-1.6702428938075031,-0.41581755358587785,0.635530794593539,-0.016762587615979135,-1.4326348920219372,3,left
9.255,0.6318885021294062,0.13840824006054242,0.07201236905289093,0.2147405318553812,-1.8645047948259146,-0.38980974781203775,0.665028350459729,-0.008285336414525621,-1.5109352521887536,3,left
9.256,0.6261961849847277,0.145752215846046,0.07238923432091553,0.30844569111019743,-2.056730333037137,-0.36367824395813,0.6943891751954749,6.525579266458077e-05,-1.5891277185947112,3,left
9.26,0.6204522585897005,0.15341509107412032,0.07279270059411287,0.4008809163192241,-2.246773252437232,-0.3374217868100057,0.7235961771383713,0.00827367900324269,-1.6671793117541394,3,left
9.26,0.6146597293565167,0.16138894109480692,0.07322351006250905,0.49203033254065837,-2.4344902837920985,-0.3110393385357361,0.7526323645614923,0.016324893489666394,-1.7450571051936223,3,left
9.261000000000001,0.6088214678282058,0.16966580804988834,0.07368234156361753,0.581881515176748,-2.6197412810988134,-0.28453007489807824,0.7814808668465298,0.024204341502664158,-1.8227282495968973,3,left
9.266,0.6029402114890539,0.17823771130651145,0.07416980735690037,0.6704253816056367,-2.802389358232062,-0.25789337822054226,0.8101249558888871,0.03189795756537125,-1.9001599973798464,3,left
9.267999999999999,0.5970185681591487,0.18709665729504338,0.07468644999326984,0.757656070707961,-2.982301026314617,-0.23112882703127027,0.8385480668334707,0.03939217746939208,-1.977319725968836,3,left
9.269,0.5910590199132704,0.19623464872367313,0.07523273927604353,0.8435708107161585,-3.15934633208891,-0.2042361823979346,0.8667338174855509,0.04667394606151191,-2.0541749585426508,3,left
9.27,0.5850639274597951,0.20564369314052078,0.07580906930799926,0.9281697766599929,-3.3333989962851094,-0.17721537141332158,0.8946660261835505,0.053730723869577515,-2.130693381875276,3,left
9.27,0.5790355349199472,0.21531581082243104,0.07641575562163859,1.011455940206771,-3.5043365486797504,-0.1500664690951802,0.9223287281661485,0.06055049259345547,-2.206842861403592,3,left
9.276,0.5729759749536683,0.22524304198099537,0.07705303239636098,1.0934349155402492,-3.672040455256574,-0.12278968041036832,0.9497061905146332,0.06712175948195945,-2.282591453740701,3,left
9.276,0.5668872741779214,0.23541745328218497,0.07772104977493301,1.174114804069155,-3.836396234146807,-0.09538532368614053,0.9767829257507118,0.07343356061599317,-2.3579074168546286,3,left
9.279,0.5607713588213666,0.24583114367897674,0.07841987129911661,1.2535060392237531,-3.9972935593106835,-0.06785381586677303,1.0035437041692121,0.07947546311747533,-2.432759218131092,3,left
9.28,0.5546300605631215,0.25647624956065984,0.07914947148783724,1.331621231745835,-4.154626352186897,-0.040195659626531995,1.029973564984289,0.0852375663029006,-2.507115540537872,3,left
9.283999999999999,0.5484651225115503,0.2673449492263812,0.07990973358120428,1.4084750157039243,-4.308292861781888,-0.012411432260260506,1.0560578263668876,0.09071050179964613,-2.58094528710708,3,left
9.285,0.5422782052868733,0.27842946669241003,0.08070044747259432,1.4840838954618014,-4.45819573366097,0.015498223727505337,1.0817820944503078,0.09588543264235937,-2.6542175839502886,3,left
9.289,0.5360708931772211,0.28972207484384044,0.08152130784984428,1.5584660938247739,-4.604242068293028,0.04353260841434444,1.1071322713797658,0.10075405136595957,-2.726901782020059,3,left
9.29,0.5298447003419485,0.3012150979431312,0.08237191256450722,1.6316414015845164,-4.746343469190053,0.07169097071249818,1.1320945624808514,0.10530857711095645,-2.79896745782989,3,left
9.294,0.5236010770373423,0.31290091351066507,0.08325176124529855,1.703631028679719,-4.884416081271904,0.09997251316233276,1.1566554826207536,0.10954175175593434,-2.870384413343022,3,left
9.295,0.5173414158372351,0.3247719535966441,0.08416025417016401,1.7744574571862681,-5.018380619875695,0.12837639534725026,1.1808018618350462,0.1134468350911711,-2.941122675238828,3,left
9.299,0.5110670578170529,0.33682070546839427,0.08509669141228991,1.8441442963472192,-5.148162390817823,0.15690173601093807,1.2045208502917162,0.11701759904646046,-3.011152493763751,3,left
9.3,0.5047792986685287,0.34903971174181575,0.08606027227818464,1.9127161398494155,-5.273691301905127,0.18554761395820016,1.2277999226629603,0.12024832098528365,-3.080444341371887,3,left
9.302999999999999,0.49847939471493835,0.361421569990509,0.08705009505797212,1.9801984255502711,-5.394901866279852,0.21431306782096537,1.2506268819740933,0.12313377607653535,-3.148968911358364,3,left
9.302999999999999,0.4921685688018945,0.37395893187197676,0.0880651571063501,2.04661729785496,-5.511733197971096,0.24319709477141607,1.2729898629976764,0.12566922875404946,-3.216697116686623,3,left
9.308,0.48584801604484407,0.3866445018177387,0.08910435526662966,2.1119994729410574,-5.624129000013211,0.2721986482645274,1.2948773352597118,0.1278504232731945,-3.283600089208606,3,left
9.308,0.4795189094204314,0.39947103534188577,0.09016648664239432,2.176372107024546,-5.732037545479245,0.3013166348926501,1.3162781057234594,0.12967357337281749,-3.349649179474631,3,left
9.312999999999999,0.4731824051942202,0.41243133702896545,0.09125024971455703,2.239762667858049,-5.835411651764907,0.3305499104351113,1.3371813212150878,0.13113535104981067,-3.414815957327459,3,left
9.314,0.4668396481807888,0.4255182582673793,0.09235424579620059,2.3021988096491763,-5.934208648445835,0.3598972751861436,1.357576470654016,0.13223287445255932,-3.4790722134726915,3,left
9.318,0.4604917768331786,0.43872469479877574,0.09347698081354008,2.363708251583962,-6.028390339018072,0.3893574686447895,1.3774533871494012,0.13296369489850043,-3.5423899622151684,3,left
9.318,0.45413992815804355,0.45204358415533386,0.09461686740077113,2.424318660137567,-6.117922956818599,0.4189291636507571,1.3968022500227955,0.1333257830199856,-3.604741445548527,3,left
9.323,0.44778524245161194,0.46546790305410496,0.09577222729929666,2.484057535351658,-6.20277711540968,0.4486109600505326,1.4156135868155455,0.13331751404159578,-3.666099138782438,3,left
9.323,0.441428867849584,0.4789906648117356,0.09694129405384384,2.542952101255232,-6.282927753697511,0.4784013779783759,1.43387827533801,0.13293765219100273,-3.7264357578893637,3,left
9.327,0.43507196468107445,0.49260491683536073,0.09812221599704475,2.601029200603054,-6.358354076042277,0.5082988508371504,1.4515875458054799,0.1321853342726207,-3.7857242686887673,3,left
9.328,0.4287157096129605,0.5063037382374768,0.09931305951209672,2.6583151941033902,-6.429039487603368,0.5383017180642498,1.4687329830507578,0.1310600525732618,-3.8439378976782224,3,left
9.329,0.42236129956765356,0.5200802376156554,0.100511812562161,2.7148358643042707,-6.4949715251499365,0.5684082177681995,1.4853065287056597,0.1295616375218018,-3.9010501437677942,3,left
9.333,0.41600995539488056,0.5339275510321039,0.10171638847404306,2.7706163243051942,-6.556141783553453,0.5986164793218164,1.5013004831887329,0.12769024066482676,-3.9570347898654377,3,left
9.334,0.40966292527508513,0.54783884022193,0.10292462996154046,2.825680931458882,-6.612545838165269,0.6289245159981125,1.5167075073882486,0.12544631837812767,-4.011865913563684,3,left
9.337,0.4033214878282778,0.5618072910527182,0.10413431337338602,2.8800532061861683,-6.664183163320971,0.6593302177121092,1.5315206240239891,0.12283061647897874,-4.065517896724872,3,left
9.338,0.39698695490009145,0.5758261122540865,0.10534315315406621,2.933755755828228,-6.7110570474613835,0.6898313438154265,1.5457332187230837,0.11984415576203074,-4.117965434064571,3,left
9.339,0.390660673997085,0.5898885344341362,0.1065488065112225,2.9868102031041754,-6.753174505817641,0.7204255156809318,1.5593390408541417,0.11648821845237499,-4.169183540890648,3,left
9.342,0.38434403034405396,0.6039878093949662,0.10774887828760726,3.0392371185433213,-6.790546191855899,0.7511102086984198,1.572332204162218,0.11276433556826576,-4.219147560152071,3,left
9.344,0.3780384485378504,0.6181172097489244,0.10894092603560368,3.0910559564562026,-6.823186308401749,0.7818827434191641,1.5847071872454275,0.1086742751849248,-4.267833168948035,3,left
9.345,0.3717453937773333,0.6322700288260221,0.11012246528725998,3.1422849943607494,-6.851112518879502,0.8127402757973102,1.5964588339122832,0.10422003158979044,-4.315216384644522,3,left
9.35,0.3654663726568716,0.6464395808562492,0.11129097500547414,3.1929412759749,-6.874345858826117,0.8436797865929374,1.6075823534570735,0.09940381531851737,-4.361273570741759,3,left
9.351,0.359202933518603,0.6606192014084925,0.11244390319562106,3.2430405579245587,-6.892910647773552,0.8746980700251824,1.6180733208888114,0.09422804405998153,-4.405981442632385,3,left
9.355,0.35295666636453077,0.674802248069327,0.11357867265269286,3.292597260314101,-6.906834401579814,0.905791721764066,1.627927677147511,0.08869533441749952,-4.4493170733863945,3,left
9.356,0.34672920233304194,0.6889821013498542,0.11469268681765558,3.3416244213049873,-6.916147745275513,0.936957126349894,1.637141729339736,0.08280849451243143,-4.491257899695135,3,left
9.36,0.3405222127468908,0.7031521658155128,0.11578333571800549,3.3901336558464283,-6.920884326479302,0.9681904441293349,1.6457121510235435,0.07657051741530449,-4.531781728102711,3,left
9.361,0.33433740774320087,0.7173058714399801,0.11684800196852903,3.4381351187005076,-6.9210807294222745,0.9994875977974889,1.6536359825711318,0.0699845753885695,-4.570866741649258,3,left
9.365,0.3281765345016993,0.7314366751885238,0.11788406680620386,3.485637471902612,-6.916776389608131,1.0308442586354698,1.6609106316356488,0.06305401492408509,-4.608491507046528,3,left
9.366,0.32204137509501596,0.7455380628390028,0.11888891612857798,3.5326478567965607,-6.908013509122834,1.0622558325332165,1.6675338737467775,0.055782352557416724,-4.644634982502141,3,left
9.37,0.31593374399292734,0.7596035510514665,0.11985994650020294,3.579171870782334,-6.894836972594362,1.0937174458874337,1.6735038530578552,0.0481732714400379,-4.679276526304741,3,left
9.371,0.3098554852588114,0.773626689700431,0.12079457108796643,3.625213548912891,-6.877294263790308,1.1252239314647292,1.6788190832654224,0.04023061864953147,-4.712395906278103,3,left
9.374,0.30380846948031465,0.7876010644871397,0.12169022548353357,3.670775350475127,-6.855435382828247,1.1567698143201772,1.6834784487202203,0.03195840321690958,-4.743973310207969,3,left
9.375,0.29779459047792867,0.8015202998516339,0.12254437337028795,3.7158581506886335,-6.829312763961115,1.188349297861675,1.6874812057467863,0.02336079484920139,-4.773989357341089,3,left
9.379,0.2918157618360742,0.8153780622050645,0.1233545119941537,3.760461237654537,-6.798981193887313,1.2199562501505918,1.6908269841869141,0.014442123324500494,-4.802425111051567,3,left
9.38,0.28587391330208634,0.8291680635013104,0.12411817740088146,3.8045823146852955,-6.764497730522859,1.2515841905293208,1.6935157891803612,0.005206878535716702,-4.829262092765183,3,left
9.384,0.2799709870992477,0.8428840651651586,0.12483294940315962,3.8482175081449657,-6.72592162216066,1.2832262766664386,1.6955480031943029,-0.004340288841656765,-4.854482297227879,3,left
9.384,0.27410893420097227,0.8565198823923799,0.12549645623951522,3.8913613809280743,-6.683314226929888,1.3148752921102604,1.6969243883111416,-0.014194566083372176,-4.8780682092000625,3,left
9.388,0.2682897106143203,0.8700693888327059,0.12610637888813306,3.934006951703831,-6.636738932456531,1.3465236344416291,1.6976460887824,-0.024350976578372565,-4.900002821653772,3,left
9.389,0.26251527372143557,0.8835265216587472,0.1266604550043623,3.976145720051014,-6.586261075614434,1.3781633041168275,1.6977146338545377,-0.0348043774462695,-4.920269655545131,3,left
9.394,0.25678757872711777,0.8968852870148394,0.12715648245832967,4.017767697607467,-6.53194786224456,1.4097858940915138,1.6971319408706425,-0.04554945663865135,-4.938852781229801,3,left
9.394,0.2511085752605613,0.9101397658323499,0.12759232245748875,4.0588614453566905,-6.473868286708818,1.4413825803165794,1.6959003186500807,-0.056580729553387644,-4.955736841584415,3,left
9.398,0.24548020417868935,0.923284119992822,0.12796590224837154,4.099414117172565,-6.412093051133594,1.472944113196807,1.6940224711359149,-0.06789253519909373,-4.970907076855982,3,left
9.4,0.23990439461375304,0.9363125988194669,0.12827521740022366,4.139411509741748,-6.346694484187106,1.5044608101031482,1.6915015012461019,-0.0794790319834874,-4.984349351075428,3,left
9.4,0.2343830612986466,0.9492195458816517,0.12851833367842783,4.178838118981764,-6.277746459223882,1.5359225490293738,1.6883409147691377,-0.0913341932645039,-4.996050179540808,3,left
9.404,0.22891810219830105,0.9619994060981648,0.12869338851994738,4.217677203071258,-6.205324311619059,1.5673187634837404,1.6845446240910276,-0.10345180283957113,-5.005996756689807,3,left
9.404,0.22351139647983626,0.9746467331152677,0.12879859213038758,4.255910852207289,-6.129504755104793,1.5986384387061958,1.6801169515905425,-0.11582545051350576,-5.014176983857162,3,left
9.405,0.2181648028585211,0.9871561969217852,0.12883222823159357,4.293520065056547,-6.050365797023533,1.6298701092886552,1.675062632631377,-0.12844852782194915,-5.0205794967334265,3,left
9.408999999999999,0.21288015835025065,0.9995225916598686,0.1287926544939941,4.330484831134089,-5.967986652966337,1.6610018582116035,1.6693868181299196,-0.1413142239522859,-5.02519369251742,3,left
9.41,0.2076592774464994,1.0117408435976136,0.1286783026869673,4.366784217024508,-5.882447662268682,1.6920213171946799,1.6630950766859287,-0.1544155218975771,-5.028009756785837,3,left
9.414,0.20250395171333171,1.023806019232759,0.12848767858073964,4.402396453627018,-5.793830206390086,1.7229156681945463,1.6561933962616022,-0.167745194879756,-5.029018690098389,3,left
9.414,0.19741594980511326,1.0357133334840158,0.12821936164195707,4.437299022335726,-5.702216631631168,1.7536716459471533,1.648688185392755,-0.18129580307903104,-5.0282123343517116,3,left
9.418,0.1923970178734583,1.0474581579068032,0.1278720045775335,4.471468739381365,-5.607690176618625,1.7842755415665648,1.6405862739140356,-0.19505969070711687,-5.025583398890111,3,left
9.418,0.18744888034192514,1.0590360288551948,0.12744433278811043,4.504881838290423,-5.510334904416423,1.8147132072762522,1.631894913178372,-0.20902898346257054,-5.021125486376023,3,left
9.423,0.1825732410091153,1.0704426555012507,0.12693514379009357,4.537514050561887,-5.410235639000173,1.8449700623611756,1.6226217757491015,-0.22319558640714246,-5.014833118417856,3,left
9.424,0.17777178443774544,1.0816739276129328,0.12634330665582172,4.569340684659699,-5.307477905823348,1.8750311004285425,1.6127749545415242,-0.23755118230266672,-5.006701760947662,3,left
9.427,0.17304617758377627,1.092725922983974,0.12566776150914907,4.600336703416872,-5.202147876195845,1.9048808980646514,1.6023629613889276,-0.2520872304486024,-4.996727849335792,3,left
9.427999999999999,0.1683980716170476,1.1035949144058301,0.124907519103932,4.630476799944945,-5.094332315187497,1.9345036249747032,1.591394725006465,-0.2667949660609048,-4.984908813224483,3,left
9.433,0.16382910388367072,1.1142773760734888,0.12406166050840539,4.659735472140166,-4.984118532761556,1.9638830556919127,1.579879588324613,-0.28166540023344844,-4.971243101056988,3,left
9.434,0.15934089996134834,1.1247699893230119,0.12312933691713428,4.68808709587538,-4.871594337835714,1.9930025829416294,1.5678273051623224,-0.29668932052374025,-4.955730204273588,3,left
9.437999999999999,0.15493507576048177,1.135069647609194,0.12210976961066278,4.715505996964155,-4.756847994961155,2.0218452327455334,1.5552480362083676,-0.31185729220515646,-4.938370681140547,3,left
9.437999999999999,0.1506132396239335,1.145173460646108,0.12100225007943426,4.741966521981145,-4.639968183303201,2.050393681350273,1.54215234427784,-0.32715966022840115,-4.919166180172733,3,left
9.443,0.14637699437553714,1.155078757650485,0.11980614032257052,4.767443108020084,-4.521043957600485,2.078630274064153,1.5285511888091834,-0.3425865519353257,-4.898119463105362,3,left
9.443999999999999,0.14222793926302865,1.164783089646974,0.1185208733243299,4.791910351468108,-4.40016471077321,2.106537046084702,1.514455919565657,-0.3581278805686624,-4.875234427364976,3,left
9.447000000000001,0.13816767173729724,1.1742842308134995,0.11714595370139377,4.815343075872394,-4.277420137844928,2.1340957453990845,1.4998782695036268,-0.3737733496216101,-4.85051612798451,3,left
9.448,0.13419778900794058,1.1835801788604408,0.11568095849949564,4.837716398972212,-4.152900200836379,2.1612878578384436,1.484830346768642,-0.38951245807156853,-4.823970798901987,3,left
9.454,0.13031988931430064,1.1926691544476606,0.11412553809786885,4.859005798966652,-4.026695094284352,2.188094634366296,1.4693246257788262,-0.4053345065426439,-4.795605873577108,3,left
9.454,0.12653557284942235,1.2015495996506045,0.11247941716166979,4.879187180085271,-3.8988952110331168,2.2144971206801123,1.4533739373537347,-0.42122860444184895,-4.765430004854741,3,left
9.457,0.12284644226961042,1.210220175492761,0.11074239557435231,4.8982369375258985,-3.7695911079409488,2.2404761892041587,1.4369914578454714,-0.43718367811418885,-4.73345308399908,3,left
9.458,0.11925410271413846,1.2186797585665248,0.10891434928759823,4.916132021820683,-3.638873471139352,2.2660125735505665,1.4201906972275535,-0.45318848006206197,-4.699686258816988,3,left
9.462,0.11576016125026099,1.2269274367672447,0.10699523104651835,4.932850002688328,-3.506833080478058,2.2910869055244367,1.4029854860957287,-0.469231599274611,-4.664141950783877,3,left
9.462,0.112366225651384,1.234962504166742,0.10498507098183889,4.948369132427168,-3.3735607727845394,2.315679754747564,1.385389961533712,-0.48530147271283486,-4.626833871080268,3,left
9.467,0.10907390241591725,1.2427844550536304,0.10288397710635176,4.962668408900474,-3.2391474035627104,2.3397716709741063,1.3674185517956055,-0.5013863979964147,-4.587777035442071,3,left
9.468,0.10588479394575137,1.2503929771678846,0.10069213580202956,4.975727638161943,-3.1036838067516963,2.3633432291701824,1.3490859597865676,-0.5174745472993237,-4.546987777732324,3,left
9.469,0.10280049482615347,1.2577879441559376,0.09840981241829659,4.987527496765918,-2.9672607521620167,2.386375077428009,1.330407145476963,-0.533553982266402,-4.504483762186207,3,left
9.471,0.09982258717650311,1.2649694072711035,0.09603735210649322,4.99804959376278,-2.8299689003217106,2.408847987685752,1.3113973076627694,-0.5496126694121868,-4.460283994364541,3,left
9.472000000000001,0.09695263506598777,1.2719375863431164,0.09357518100089778,5.007276532173365,-2.6918987550542877,2.430742908732815,1.2920718656387744,-0.5656384952683317,-4.414408830895155,3,left
9.472999999999999,0.09419217800917669,1.2786928600405372,0.0910238078441199,5.015191969367298,-2.5531406151739007,2.452041020096812,1.2724464411953085,-0.5816192807408866,-4.366879988027433,3,left
9.478,0.09154272358266975,1.2852357554521743,0.08838382615223504,5.0217806755634165,-2.4137845272729916,2.4727237849169135,1.2525368410696849,-0.5975427944895904,-4.317720548932086,3,left
9.479,0.08900573924449201,1.2915669370207477,0.08565591701389227,5.02702858986976,-2.2739202409830703,2.4927730003965447,1.2323590398278244,-0.6133967653361903,-4.266954969624206,3,left
9.481,0.0865826434868716,1.2976871948740403,0.08284085259770674,5.030922873642238,-2.1336371670210452,2.5121708453086318,1.2119291631197155,-0.6291688937476756,-4.21460908337314,3,left
9.482000000000001,0.08427479649667748,1.303597432613972,0.07993950038981319,5.033451961140273,-1.993024337739435,2.5308999245147836,1.1912634712515553,-0.6448468624401392,-4.160710103457995,3,left
9.488999999999999,0.08208349052797935,1.3092986546412395,0.0769528281038905,5.03460560749446,-1.8521703697788654,2.5489433105559614,1.1703783430166361,-0.660418346148787,-4.105286624123009,3,left
9.49,0.08000994020785773,1.314791953112666,0.07388190911097012,5.034374933997425,-1.711163428420046,2.566284582370329,1.1492902597263248,-0.6758710206093764,-4.0483686195824555,3,left
9.491,0.07805527300487732,1.3200784946521171,0.07072792813997439,5.032752470725096,-1.570091193231475,2.582907861192049,1.1280157893818035,-0.6911925707960971,-3.9899874409203226,3,left
9.491,0.07622052009448642,1.3251595069655173,0.06749218692810927,5.029732196491706,-1.4290408246084245,2.59879784368282,1.1065715709266086,-0.706370698460599,-3.9301758107255993,3,left
9.496,0.07450660785554461,1.3300362655428666,0.06417610947272187,5.025309576137836,-1.2880989307983208,2.613939832345943,1.0849742985194244,-0.7213931290165341,-3.8689678152997358,3,left
9.498,0.0729143502233329,1.3347100806548133,0.060781246541043873,5.019481595146832,-1.147351535007447,2.628319763270637,1.0632407057660502,-0.7362476178135984,-3.806398894268632,3,left
9.501,0.07144444210778308,1.3391822848561032,0.0573092791097271,5.012246791580899,-1.006884042183948,2.641924231252216,1.041387549848975,-0.7509219558446518,-3.742505827427403,3,left
9.502,0.07009745406206717,1.3434542211874867,0.053762020439682014,5.003605285324173,-0.8667812050724418,2.6547405123315975,1.0194315954925506,-0.765403974929044,-3.6773267186421643,3,left
9.508,0.06887382834963757,1.3475272322276604,0.050141416567658595,4.993558804616022,-0.727127089136087,2.666756583795431,0.9973895987013655,-0.7796815524147928,-3.610900976629179,3,left
9.509,0.06777387649959647,1.351402650102846,0.04644954511477244,4.982110709853793,-0.5880050359427641,2.677961141675889,0.975278290209078,-0.7937426154417461,-3.5432692924278877,3,left
9.512,0.06679777836233054,1.3550817875257608,0.042688612443839875,4.969266014640171,-0.44949762461307446,2.688343615786919,0.95311435857467,-0.8075751448073027,-3.474473613380673,3,left
9.514,0.0659455825917478,1.3585659299083552,0.038860949307303744,4.955031404046315,-0.31168663092914767,2.6978941823314493,0.9309144328628358,-0.8211671784756811,-3.4045571134286243,3,left
9.516,0.06521720840279141,1.3618563285676633,0.03496900519869282,4.939415250057887,-0.17465298370477275,2.7066037741117177,0.9086950648450244,-0.8345068147711059,-3.3335641595290997,3,left
9.517000000000001,0.06461244839488599,1.364954195017761,0.0310153416569324,4.92242762416709,-0.03847671801913643,2.7144640883725213,0.8864727106574988,-0.8475822152946222,-3.2615402739975483,3,left
9.52,0.06413097219930446,1.3678606963122453,0.02700262478879639,4.904080307069836,0.0967630750815525,2.7214675923048075,0.8642637118526729,-0.8603816076035578,-3.1885320925728395,3,left
9.522,0.06377233070196296,1.3705769513711452,0.022933617282008188,4.8843867954232065,0.2309883028080411,2.727607526234611,0.8420842757799323,-0.8728932876919304,-3.1145873180022523,3,left
9.526,0.06353596060975482,1.3731040281973275,0.018811170182173688,4.863362305614442,0.3641219291686406,2.7328779045198974,0.8199504552321344,-0.8851056223093364,-3.039754668939317,3,left
9.527000000000001,0.06342118916201492,1.375442941865358,0.014638214695419215,4.841023774488758,0.49608803821480435,2.737273514175421,0.7978781272940224,-0.8970070511550642,-2.964083823944881,3,left
9.53,0.06342723883130094,1.3775946531524839,0.010417754248888184,4.8173898569794735,0.6268119023771028,2.7407899112432177,0.7758829713288724,-0.9085860889833505,-2.887625360379082,3,left
9.531,0.06355323190132198,1.379560067676158,0.006152856990500781,4.792480920580061,0.7562200562738902,2.743423414923868,0.7539804460398231,-0.9198313276548381,-2.810430687969357,3,left
9.535,0.06379819484652537,1.3813400354064658,0.0018466488387957273,4.766319036594026,0.8842403763716042,2.7451710994811434,0.7321857655425127,-0.9307314381683983,-2.7325519768372133,3,left
9.536,0.06416106246211019,1.382935350439011,-0.00249769288838992,4.738927968094724,1.010802166872076,2.7460307839301312,0.7105138744371479,-0.9412751727162048,-2.654042079929152,3,left
9.537,0.0646406817061084,1.384346750945526,-0.006876945310521975,4.710333154523628,1.13583625219845,2.7460010195163997,0.6889794221247545,-0.9514513668522145,-2.574954450619558,3,left
9.54,0.06523581522045328,1.3855749192599414,-0.011287845379594763,4.680561692851939,1.2592750764473315,2.745081074991215,0.6675967370741447,-0.9612489419500366,-2.495343057735645,3,left
9.541,0.0659451444956769,1.3866204820980517,-0.015727094965286802,4.649642315259479,1.3810528098652066,2.743270919738025,0.6463798020028454,-0.9706569081733758,-2.415262301077293,3,left
9.542,0.06676727263674846,1.387484010941741,-0.02019136579569175,4.617605363444225,1.5011054608758985,2.7405712050666007,0.6253422306792676,-0.9796643681329532,-2.33476692967839,3,left
9.545,0.06770072668330575,1.3881660226431303,-0.02467730443499012,4.584482759965633,1.6193709894328168,2.736983244463378,0.6044972465923603,-0.9882605213159014,-2.253911963570559,3,left
9.546,0.06874395943458238,1.3886669803321101,-0.029181537485038673,4.550307977184473,1.735789415938085,2.73250899384773,0.5838576634791016,-0.9964346693242838,-2.1727526189842643,3,left
9.55,0.069895350719563,1.388987294753086,-0.033700677216742615,4.515116004195827,1.8503029214925815,2.7271510326176065,0.5634358676494219,-1.004176221948591,-2.0913442367561665,3,left
9.55,0.07115320803856719,1.3891273262036021,-0.03823132785190113,4.478943311855607,1.9628559379842327,2.7209125457907057,0.5432438020487024,-1.0114747041008858,-2.009742213710571,3,left
9.555,0.07251576649011525,1.389087387282658,-0.04277009269663589,4.441827815835079,2.0733952280434855,2.7137973072810904,0.523292951998585,-1.0183197636310566,-1.9280019367819432,3,left
9.556000000000001,0.07398118788537215,1.3888677466768677,-0.04731358227683782,4.403808837602355,2.18186995519481,2.7058096642958516,0.5035943325574538,-1.024701180048393,-1.8461787196447383,3,left
9.56,0.07554755893841188,1.3884686342229007,-0.05185842356039121,4.364927063227049,2.2882317445274536,2.6969545228339147,0.484158477442603,-1.0306088741694321,-1.764327741616254,3,left
9.561,0.07721288840425994,1.387890247487276,-0.056401270275328284,4.325224499901524,2.392434734202883,2.6872373342665514,0.4649954294568058,-1.036032918711717,-1.6825039885977964,3,left
9.567,0.07897510301945211,1.3871327600971188,-0.06093881424902219,4.284744430069631,2.494435618110434,2.6766640829766626,0.44611473236271487,-1.0409635498517733,-1.6007621958192313,3,left
9.568,0.08083204208184173,1.3861963320309578,-0.0654677976060286,4.243531363051313,2.594193679976614,2.665241275031412,0.4275254241492841,-1.0453911797642594,-1.5191567921518958,3,left
9.568999999999999,0.08278145048794557,1.385081122032694,-0.06998502557662221,4.201630984049119,2.6916708192273124,2.6529759278602976,0.40923603163517996,-1.0493064101578473,-1.4377418457549356,3,left
9.57,0.08482097003275943,1.383787302252179,-0.07448737958656386,4.15909010042044,2.7868315688958587,2.639875560908311,0.3912545663549649,-1.0527000468219796,-1.3565710108203601,3,left
9.574,0.08694812878217553,1.3823150751586852,-0.07897183022253092,4.115956585097163,2.8796431058634173,2.6259481872313755,0.3735885216746671,-1.0555631151972016,-1.2756974751825017,3,left
9.575,0.08916032836695167,1.380664692725594,-0.08343544960435202,4.072279317032482,2.970075253711672,2.6112023059988525,0.356244871084214,-1.0578868769802963,-1.1951739085581108,3,left
9.579,0.09145482912802616,1.3788364778373026,-0.08787542266132237,4.028108118552751,3.058100478461097,2.5956468958654977,0.33923006761508956,-1.0596628477739507,-1.115052411184021,3,left
9.581,0.0938287331676393,1.3768308478126405,-0.09228905682598385,3.983493689490589,3.143693877461381,2.5792914091728694,0.32255004433248136,-1.06088281578916,-1.0353844626201667,3,left
9.585,0.09627896552521593,1.3746483398683564,-0.0966737897383368,3.938487537973855,3.22683316169372,2.5621457669378573,0.3062102158521069,-1.0615388616070278,-0.9562208704867455,3,left
9.585,0.09880225388668669,1.3722896382578593,-0.10102719469315886,3.893141907743718,3.307498631737809,2.5442203545836586,0.2902154808328529,-1.0616233790050453,-0.8776117189054672,3,left
9.589,0.10139510742818282,1.36975560271124,-0.10534698374110449,3.847509701873765,3.3856731476493684,2.525526018366237,0.2745702253973226,-1.0611290968513394,-0.7996063164161337,3,left
9.59,0.10405379557062958,1.3670472976742383,-0.10963100853691356,3.801644402760976,3.461342092986998,2.50607406244704,0.25927832743336066,-1.060049102068755,-0.7222531431412429,3,left
9.594,0.10677432756488636,1.3641660217041338,-0.1138772591778208,3.755599988258404,3.5344933332200474,2.485876246560492,0.24434316173061713,-1.0583768636689999,-0.645599796972898,3,left
9.594,0.10955243391182497,1.361113336244677,-0.11808386136108802,3.7094308438185917,3.6051171687420607,2.4649447842225958,0.2297676059072148,-1.0561062578554186,-0.5696929385580397,3,left
9.599,0.11238355061408413,1.357891092895031,-0.12224907220174634,3.663191670516079,3.67320628270713,2.443292341424774,0.21555404708259607,-1.0532315941912762,-0.4945782348598882,3,left
9.6,0.11526280714234573,1.3545014582415498,-0.12637127500274384,3.616937388816849,3.73875568389929,2.420932035754967,0.20170438925365242,-1.049747642828736,-0.4203003010754899,3,left
9.604,0.11818501880350937,1.3509469353613248,-0.13044897317393295,3.5707230379621984,3.8017626448378157,2.3978774358858748,0.18822006133226876,-1.0456496627919976,-0.3469026406914082,3,left
9.605,0.12114468396654542,1.3472303812348867,-0.13448078336476282,3.524603670834313,3.8622266353140216,2.374142561368173,0.17510202580208667,-1.0409334312612177,-0.27442758359427555,3,left
9.606,0.12413598637723725,1.3433550194986728,-0.13846542774277898,3.4786342441707943,3.920149251547856,2.3497418826644956,0.1623507879464888,-1.0355952735765583,-0.20291622281735575,3,left
9.609,0.1271528025987842,1.339324448180572,-0.14240172525912212,3.4328695039954913,3.9755341411452956,2.3246903213579917,0.14996640558853397,-1.0296320932739802,-0.1324083516984482,3,left
9.609,0.13018871443429786,1.3351426422447235,-0.1462885816955217,3.3873638661332763,4.028386924030233,2.2990032504672895,0.13794849927777866,-1.0230414012371039,-0.06294240388914174,3,left
9.61,0.13323702600331644,1.3308139509080614,-0.15012497827982715,3.342171291845538,4.078715109612187,2.2726964947738173,0.1262962628668188,-1.0158213432731948,0.005444602003837447,3,left
9.613999999999999,0.13629078501281514,1.3263430897923707,-0.15390995871659535,3.2973451594674255,4.126528010918417,2.2457863309455344,0.11500847443375971,-1.0079707258255022,0.07271711255321511,3,left
9.615,0.13934280773101604,1.3217351280543288,-0.15764261461186707,3.252938134447141,4.171836657265983,2.218289487023303,0.10408350751471895,-0.9994890397579037,0.13884108448876664,3,left
9.618,0.1423857071594944,1.3169954707275289,-0.1613220694468822,3.209002041032142,4.214653707516589,2.190223140714349,0.0935193426128861,-0.9903764821911156,0.20378402471430423,3,left
9.619,0.1454119238229433,1.3121298366555574,-0.1649474614429569,3.1655877380045174,4.2549933654752845,2.161604916055532,0.0833135789517086,-0.9806339763679143,0.2675150255572364,3,left
9.623,0.14841375852254163,1.307144232569299,-0.16851792581531574,3.1227449993504446,4.292871298132685,2.1324528782234644,0.0734634464408155,-0.9702631895230015,0.33000479544058603,3,left
9.625,0.15138340641774053,1.3020449239968659,-0.1720325769928646,3.080522399906353,4.328304556968644,2.10278552638689,0.06396581782432524,-0.9592665487313403,0.39122568516396483,3,left
9.628,0.15431299189016906,1.2968384037535532,-0.175490491379492,3.03896720585718,4.361311502433317,2.0726217845191437,0.05481722098221351,-0.9476472547069746,0.4511517099765224,3,left
9.628,0.157194603737282,1.2915313587455386,-0.17889069117617074,2.9981252699637486,4.391911731714442,2.0419809900869934,0.04601385135643738,-0.9354092935225486,0.509758567621327,3,left
9.633,0.16002033031445162,1.2861306357579243,-0.18223212969966215,2.9580409313980773,4.420126009892687,2.0108828805306755,0.03755158447452426,-0.9225574462179393,0.5670236525269946,3,left
9.635,0.16278229429560226,1.2806432068139981,-0.1855136785475226,2.9187569200673384,4.445976204579916,1.979347577448512,0.029425988544335917,-0.9090972962646338,0.6229260663186633,3,left
9.638,0.16547268676685747,1.2750761346108246,-0.188734116887442,2.880314265309236,4.469485224128326,1.9473955683981305,0.021632337094708978,-0.8950352348507035,0.6774466248166278,3,left
9.639,0.16808380041526474,1.2694365384673765,-0.191892123093479,2.8427522088437476,4.490676959491564,1.9150476862249917,0.014165621637652476,-0.88037846394947,0.7305678616870963,3,left
9.642999999999999,0.17060806162980596,1.2637315611653965,-0.19498626890069334,2.8061081218684527,4.509576229812112,1.8823250858276803,0.00702056432874966,-0.8651349971332057,0.7822740289056201,3,left
9.644,0.17303806139683153,1.257968337012877,-0.1980150161899404,2.770417426187115,4.52620873180255,1.8492492182682094,0.00019163060336417644,-0.8493136580914906,0.8325510941897825,3,left
9.647,0.17536658494800048,1.2521539614078507,-0.20097671644469522,2.735713519263677,4.540600992981619,1.815841802134462,-0.00632695823281063,-0.8329240768121359,0.8813867355537143,3,left
9.648,0.1775866402013763,1.2462954621234235,-0.20386961285351488,2.702027703096485,4.552780328819428,1.7821247920608076,-0.012541212479397067,-0.8159766833809051,0.9287703331329465,3,left
9.654,0.17969148511256117,1.2403997724762905,-0.20669184497859946,2.669389116810281,4.562774803839645,1.7481203443119255,-0.018457361602803233,-0.7984826993546004,0.9746929584240048,3,left
9.656,0.18167465410489705,1.2344737064863291,-0.20944145587597082,2.6378246728663326,4.570613196720084,1.713850779333913,-0.02408184190225707,-0.7804541266604541,1.019147361079014,3,left
9.657,0.18352998376320678,1.228523936091041,-0.2121164015278275,2.607358996794004,4.576324969426727,1.6793385411758621,-0.02942128429826964,-0.7619037339731664,1.0621279533914152,3,left
9.658,0.18525163795535454,1.2225569704503483,-0.21471456241960163,2.578014370350048,4.579940240409956,1.6446061536842695,-0.034482502260536986,-0.7428450405193575,1.1036307926047024,3,left
9.662,0.18683413250146066,1.2165791373651706,-0.2172337570534836,2.5498106780150125,4.581489761885576,1.609676173371881,-0.039272479891452515,-0.7232922972576722,1.1436535611718726,3,left
9.663,0.18827235945281562,1.2105965668342922,-0.219671757137808,2.5227653567392725,4.581004901217117,1.574571138861872,-0.043798360180583376,-0.703260465381273,1.1821955450890527,3,left
9.668,0.18956161097699248,1.2046151767824242,-0.2220263041386066,2.4968933488544467,4.578517626409832,1.5393135168076415,-0.04806743344466536,-0.6827651920880039,1.2192576104225241,3,left
9.669,0.19069760277529957,1.1986406609997287,-0.22429512683653088,2.4722070580692024,4.574060495720949,1.5039256441879159,-0.052087125966892085,-0.6618227835620875,1.2548421781441195,3,left
9.673,0.19167649688732122,1.1926784793295058,-0.2264759595046659,2.4487163084717984,4.56766665138483,1.4684296668763699,-0.055864988848515845,-0.6404501751098414,1.2889531973857138,3,left
9.673,0.19249492367573723,1.1867338501196514,-0.2285665603185634,2.426428306465058,4.559369817445966,1.432847474384523,-0.05940868708014729,-0.6186648984541954,1.3215961172124517,3,left
9.674,0.19315000275496402,1.1808117449195403,-0.23056472964330188,2.4053476055628833,4.549204301687079,1.3972006306763,-0.06272598881496208,-0.596485046509614,1.3527778569759559,3,left
9.677999999999999,0.19363936263349363,1.17491688536555,-0.23246832790362018,2.3854760739808425,4.537205001634038,1.3615103009523366,-0.06582475478129429,-0.5739292365303991,1.382506775243043,3,left
9.679,0.19396115883898682,1.1690537421481781,-0.2342752927784706,2.3668128649568074,4.523407414613815,1.325797174301851,-0.06871292774696117,-0.5510165728422657,1.4107926372571036,3,left
9.679,0.19411409025696352,1.163226535886594,-0.23598365544401514,2.349354389822283,4.507847651721303,1.2900813823338497,-0.07139852197147631,-0.5277666100478476,1.4376465809192622,3,left
9.683,0.19409741338409003,1.157439239683309,-0.23759155557701658,2.333094294254444,4.490562454970191,1.2543824149699125,-0.07388961262571457,-0.5041993170231096,1.4630810813337554,3,left
9.684,0.19391095421636315,1.1516955831189069,-0.23909725487561048,2.318023438873061,4.471589215862353,1.2187190365078373,-0.07619432518245046,-0.48033504170250746,1.4871099139919748,3,left
9.687000000000001,0.1935551175132573,1.1459990574401102,-0.24049914892242671,2.3041298857558665,4.450965993029784,1.1831092061360184,-0.07832082478550217,-0.4561944765861488,1.5097481166723479,3,left
9.689,0.19303089315206146,1.140352921656338,-0.2417957772651599,2.29139889204342,4.428731527173528,1.1475700060078768,-0.08027730560465514,-0.431798624901295,1.53101195012915,3,left
9.692,0.19233985925008887,1.13476020922053,-0.2429858316420467,2.2798129110772773,4.404925252554773,1.1121175780586587,-0.08207198018300359,-0.40716876734969376,1.5509188576393127,3,left
9.693,0.19148418174460244,1.1292237349743879,-0.24406816235609521,2.2693516011126924,4.379587304863876,1.0767670696764646,-0.0837130687828364,-0.382326429371438,1.5694874234722949,3,left
9.697000000000001,0.19046661018969907,1.123746102086214,-0.24504178288192424,2.259991841569254,4.352758525403536,1.0415325881254498,-0.0852087887357056,-0.3572933488553144,1.586737330344137,3,left
9.699,0.18929046964094132,1.1183297087828246,-0.24590587284496643,2.2517077567861254,4.324480461517816,1.0064271636193807,-0.08656734380185077,-0.3320914442249319,1.6026893159129296,3,left
9.701,0.18795964864040723,1.1129767547656109,-0.24665977953604612,2.2444707472517815,4.2947953631943045,0.9714627209440279,-0.08779691354371137,-0.3067427828293136,1.6173651283690813,3,left
9.702,0.18647858346585602,1.1076892472952997,-0.2473030181208709,2.238249528281304,4.263746175762436,0.9366500595272038,-0.08890564271784167,-0.281269549566083,1.6307874811699798,3,left
9.707,0.1848522389306372,1.1024690070156347,-0.24783527068900577,2.233010176117374,4.231376528606834,0.9019988418556205,-0.0899016306891484,-0.25569401566489647,1.6429800069649256,3,left
9.708,0.1830860860818738,1.0973176736471781,-0.24825638427623584,2.228716181434101,4.197730719810484,0.8675175901381483,-0.0907929208710011,-0.23003850755834798,1.6539672107525407,3,left
9.711,0.18118607713976023,1.0922367117091203,-0.24856636799169438,2.225328510225749,4.162853696638635,0.8332136911154907,-0.09158749019441759,-0.20432537576721735,1.663774422309268,3,left
9.712,0.17915861797991184,1.0872274164210876,-0.24876538938145046,2.2228056720652254,4.1267910317705345,0.7990934089167466,-0.09229323860920308,-0.17857696372663792,1.6724277479240361,3,left
9.716000000000001,0.17701053841959402,1.0822909199069568,-0.24885377016202007,2.2211037957199156,4.089588895182447,0.7651619058638227,-0.09291797861962076,-0.15281557647953029,1.6799540214707072,3,left
9.717,0.17474906054612088,1.0774281977775908,-0.248831981462973,2.2201767121150424,4.051294021581853,0.7314232711251626,-0.09346942485689314,-0.12706344916348322,1.6863807548465393,3,left
9.722999999999999,0.1723817653218902,1.0726400761183805,-0.24870063872405626,2.219976044637207,4.011953673289326,0.6978805571207863,-0.09395518369057862,-0.10134271521716183,1.6917360878015817,3,left
9.724,0.16991655770809952,1.067927238859491,-0.2484604963895636,2.220451306773122,3.9716155984613284,0.6645358235811721,-0.09438274288063456,-0.07567537423228504,1.6960487371806754,3,left
9.725,0.16736163056227465,1.0632902354671445,-0.24811244252568365,2.2215500070807708,3.9303279845440113,0.6313901891630643,-0.09475946127176736,-0.05008325937724089,1.6993479455965932,3,left
9.726,0.1647254275807373,1.058729488864242,-0.24765749345948895,2.223217761492308,3.888139406845105,0.5984438905258543,-0.09509255853148119,-0.02458800431849855,1.7016634295497541,3,left
9.732000000000001,0.16201660557483857,1.0542453034679375,-0.24709678850911135,2.225398412949952,3.845098772108125,0.5656963487727446,-0.09538910493306933,0.0007889904338715936,1.7030253270069755,3,left
9.732999999999999,0.15924399638789663,1.049837873220447,-0.24643158484824776,2.228034158377913,3.8012552569703892,0.5331462431614793,-0.0956560111846462,0.026026591830042436,1.703464144448794,3,left
9.735,0.15641656877581414,1.0455072894865995,-0.24566325252638163,2.2310656829950166,3.7566582411837572,0.5007915919899936,-0.09590001830519178,0.05110396930683422,1.703010703392079,3,left
9.736,0.1535433905849294,1.0412535486961745,-0.24479326965113365,2.234432301974177,3.7113572354745497,0.46862984056290335,-0.09612768754847557,0.076000630609534,1.7016960863919157,3,left
9.74,0.1506335915585603,1.0370765596213054,-0.24382321773184304,2.238072109456153,3.6654018039168084,0.436657956145325,-0.09634539038566886,0.10069645842145225,1.6995515825634604,3,left
9.741,0.14769632707323926,1.0329761502006105,-0.2427547771809686,2.2419221349261655,3.618841480690885,0.40487252981107125,-0.09655929860752613,0.12517174751240645,1.6966086328588066,3,left
9.743,0.1447407430458487,1.0289520738495805,-0.24158972296837153,2.2459185069629264,3.5717256810973255,0.37326988509282694,-0.09677537469721803,0.14940724157559446,1.6928987756858405,3,left
9.746,0.14177594220159848,1.0250040152249165,-0.2403299204221644,2.2499966243703797,3.5241036066941422,0.3418461933424483,-0.0969993626750073,0.17338416862107117,1.6884535936505654,3,left
9.747,0.13881095187699416,1.0211315954363522,-0.2389773211700442,2.2540913345162608,3.476024144637034,0.3105975954870458,-0.09723677956580948,0.19708427409408277,1.6833046620051968,3,left
9.747,0.13585469351995172,1.0173343767224208,-0.2375339592176593,2.2581371177677902,3.4275357623665377,0.2795203287519183,-0.09749290755043721,0.22048985142703334,1.6774834990277068,3,left
9.751,0.1329159540096522,1.0136118666250966,-0.23600194716454276,2.262068275233555,3.3786864007035096,0.24861085491471518,-0.09777278681121133,0.24358377003378992,1.6710215183595005,3,left
9.752,0.13000335887267062,1.0099635217180907,-0.2343834725620748,2.2658191160864822,3.3295233694790496,0.21786598554059225,-0.09808120907263204,0.26634950081437153,1.663949983286495,3,left
9.755,0.12712534744470122,1.0063887509712899,-0.23268079441976922,2.269324141676862,3.28009324875776,0.187283000763734,-0.09842271183785677,0.2887711392372236,1.6562999629469517,3,left
9.756,0.12429015000914896,1.0028869188598513,-0.230896239861946,2.2725182253255554,3.230441796793358,0.1568597601883032,-0.09880157332179912,0.31083342606538455,1.6481022904475617,3,left
9.761000000000001,0.12150576691955758,0.9994573483357554,-0.22903220092556778,2.275336787621189,3.180613864788705,0.12659480559746736,-0.09922180808174483,0.3325217657919108,1.6393875228675376,3,left
9.762,0.11877994968460288,0.9960993237695851,-0.22709113147817614,2.2777159672312606,3.1306533183183647,0.09648745538264128,-0.09968716334647477,0.3538222428489375,1.630185903128802,3,left
9.765,0.1161201839698504,0.9928120939463222,-0.22507554423075143,2.279592787236195,3.0806029652711393,0.06653789060554406,-0.10020111604499206,0.3747216356537241,1.6205273237087905,3,left
9.766,0.1135336744514648,0.9895948751661797,-0.22298800782605205,2.280905316994311,3.0305044901695397,0.03674723260612627,-0.10076687053606852,0.39520742855395885,1.6104412921708962,3,left
9.771,0.11102733144103039,0.9864468544653763,-0.2208311439936707,2.281592829544397,2.9803983947227612,0.007117612069877305,-0.10138735703995518,0.41526782173348376,1.5999568984861852,3,left
9.772,0.10860775918488835,0.9833671929397204,-0.21860762477072349,2.281595954551153,2.9303239444694706,-0.02234777053152167,-0.10206523077373955,0.43489173913845275,1.5891027841187064,3,left
9.775,0.10628124572616923,0.9803550291321621,-0.216320169785658,2.28085682679714,2.880319121366573,-0.05164459321177533,-0.10280287179198196,0.45406883448274676,1.5779071128454771,3,left
9.776,0.1040537542053652,0.9774094824348161,-0.2139715435917326,2.2793192302230834,2.830420582180102,-0.08076736953889332,-0.10360238553441856,0.47278949539025095,1.5663975432810904,3,left
9.78,0.10193091546744666,0.9745296564531326,-0.2115645530218718,2.2769287375164127,2.780663622534467,-0.10970941458608784,-0.1044656040826838,0.4910448457303447,1.5546012030758234,3,left
9.781,0.09991802184033804,0.9717146422824472,-0.2091020445258342,2.2736328452457992,2.731082146476476,-0.13846281984879968,-0.10539408812817587,0.5088267462016758,1.5425446647551468,3,left
9.783999999999999,0.09802002195017948,0.9689635216543303,-0.20658690144916153,2.269381104537152,2.6817086414108777,-0.16701843721150061,-0.10638912965336589,0.5261277932179786,1.5302539231676215,3,left
9.785,0.09624151644269566,0.9662753699216469,-0.20402204121925197,2.26412524728409,2.6325741582645494,-0.1953658720473974,-0.10745175532903395,0.5429413161483615,1.5177543745073623,3,left
9.789,0.09458675448776037,0.9636492588658526,-0.20141041240907726,2.257819307883322,2.5837082967369693,-0.22349348553361886,-0.108582730630102,0.5592613729631294,1.505070796876482,3,left
9.791,0.09305963095573198,0.9610842593253321,-0.19875499164917823,2.250419740482608,2.5351391954952027,-0.25138840626389636,-0.10978256467292456,0.5750827443348303,1.492227332352269,3,left
9.794,0.09166368416830865,0.9585794436572078,-0.196058780360122,2.241885531726108,2.486893527172312,-0.27903655124014703,-0.11105151577709128,0.5904009262428117,1.4792474705232348,3,left
9.795,0.09040209414393244,0.9561338880566559,-0.19332480129001553,2.23217830897891,2.4389964980288803,-0.30642265632373544,-0.11238959775499151,0.6052121211281597,1.4661540334576562,3,left
9.799,0.08927768127951256,0.9537466747675925,-0.19055609486416772,2.221262444009388,2.391471852138173,-0.3335303162265175,-0.11379658693258833,0.6195132276444623,1.4529691620677618,3,left
9.8,0.08829290543630736,0.9514168942249355,-0.1877557153754427,2.209105152104798,2.3443418799563975,-0.36034203412106025,-0.11527202990504734,0.6333018290483926,1.4397143038323266,3,left
9.805,0.08744986542649041,0.9491436471692783,-0.1849267270542015,2.1956765865921373,2.2976274311405174,-0.3868392809486744,-0.11681525203106367,0.6465761802726547,1.4264102018401053,3,left
9.805,0.08675029892584935,0.9469260467698472,-0.18207220005487923,2.1809499287328507,2.251347931477139,-0.4130025645030964,-0.11842536666992828,0.6593351937223699,1.4130768851162787,3,left
9.809,0.08619558286389906,0.9447632207825816,-0.17919520638795322,2.1649014729563905,2.2055214037871322,-0.4388115083668012,-0.12010128516557042,0.6715784238345105,1.3997336601938744,3,left
9.81,0.08578673436105662,0.9426543137580329,-0.17629881581763057,2.1475107073939914,2.1601644926718184,-0.4642449407760242,-0.12184172758200794,0.6833060504385126,1.3863991038919903,3,left
9.81,0.08552441228949854,0.9405984893002358,-0.1733860917395497,2.1287603896703065,2.1152924929678267,-0.4892809934896095,-0.12364523417692308,0.6945188609714179,1.3730910572696156,3,left
9.814,0.08540891952847067,0.9385949323662925,-0.17046008704834026,2.1086366179067597,2.0709193817789995,-0.51389721073578,-0.12551017751074417,0.7052182316829031,1.3598266207590903,3,left
9.815,0.08544020597075411,0.9366428515884879,-0.16752384000186782,2.087128896886616,2.0270578539550814,-0.5380706683098454,-0.12743477492765196,0.715406108114355,1.346622150546783,3,left
9.815,0.08561787232516159,0.9347414815939041,-0.16458037008842633,2.0642301992361287,1.983719360849155,-0.5617781026163373,-0.1294171010555837,0.7250849852181619,1.3334932563039112,3,left
9.818999999999999,0.08594117475463611,0.9328900852911312,-0.16163267390279804,2.039937021013479,1.9409141519913649,-0.584996048055922,-0.13145510006201067,0.7342578873984268,1.320454800335281,3,left
9.818999999999999,0.0864090303848864,0.9310879560925827,-0.1586837210329057,2.014249430267546,1.8986513189654348,-0.607700978650697,-0.13354659756358242,0.7429283486025635,1.30752089815038,3,left
9.823,0.08702002371328013,0.9293344200408777,-0.15573644995220318,1.9871711066658517,1.8569388405801452,-0.62986944840821,-0.13568931217742305,0.7511003925082821,1.2947049204261984,3,left
9.824,0.08777241394607765,0.9276288378046866,-0.1527937639099665,1.958709370745746,1.8157836286252984,-0.6514782263150597,-0.13788086671992897,0.7587785128323246,1.2820194963243512,3,left
9.829,0.08866414328994923,0.9259706065077927,-0.14985852681471917,1.928875202164577,1.7751915738557762,-0.6725044243549402,-0.14011879905907218,0.7659676537858683,1.2694765181253758,3,left
9.83,0.08969284621379713,0.9243591613601573,-0.14693355911188297,1.8976832467793399,1.7351675920447043,-0.692925618336375,-0.14240057262635902,0.7726731907000806,1.2570871471434144,3,left
9.834,0.09085585968042666,0.9227939770695124,-0.14402163366067258,1.8651518124740578,1.6957156699875091,-0.7127199615921699,-0.14472358659473483,0.7789009108438921,1.2448618208848656,3,left
9.835,0.09215023432995746,0.9212745690229631,-0.1411254716164145,1.8313028536492235,1.6568389113402682,-0.7318662916109364,-0.14708518572885831,0.7846569944546561,1.2328102614149952,3,left
9.838,0.09357274657999512,0.9198004942398127,-0.1382477383266043,1.7961619442837344,1.618539582177386,-0.7503442296593074,-0.14948266991429446,0.7899479960009661,1.2209414848969395,3,left
9.838,0.09511991159160332,0.9183713521090004,-0.13539103925389315,1.759758239475915,1.5808191561552638,-0.7681342734516577,-0.1519133033722944,0.7947808256955378,1.2092638122680004,3,left
9.845,0.096787997036592,0.9169867849352534,-0.1325579159433913,1.7221244253664416,1.5436783591702872,-0.7852178829222946,-0.15437432356693984,0.7991627312747037,1.1977848810186307,3,left
9.846,0.09857303759189132,0.9156464783257574,-0.1297508420528919,1.683296657342283,1.507117213401113,-0.8015775591531521,-0.15686294981153415,0.8031012800597364,1.1865116580400346,3,left
9.847000000000001,0.10047085007970182,0.9143501614535542,-0.12697221946509132,1.6433144864171476,1.4711350806268917,-0.8171969165080603,-0.15937639158121647,0.8066043413138981,1.1754504535068475,3,left
9.847999999999999,0.10247704916559842,0.9130976072348699,-0.12422437450276842,1.6022207736804046,1.4357307047147352,-0.8320607480226261,-0.16191185653886264,0.8096800689078224,1.164606935761941,3,left
9.854,0.10458706351939111,0.9118886324551274,-0.1215095542708538,1.5600615927030217,1.4009022531713948,-0.8461550840966869,-0.16446655828141615,0.8123368843045576,1.1539861471709756,3,left
9.855,0.10679615233474636,0.9107230978741784,-0.11882992315293114,1.516886119785752,1.366647357655779,-0.8594672445341762,-0.1670377238138637,0.8145834598743542,1.14359252091494,3,left
9.857000000000001,0.10909942209412725,0.9096009083377979,-0.11618755949417185,1.4727465119316212,1.3329631533506021,-0.8719858839730698,-0.16962260075813293,0.8164287025480493,1.1334298986895384,3,left
9.857999999999999,0.11149184345736553,0.9085220129201705,-0.11358445250744509,1.4276977724217084,1.2998463170931056,-0.8837010307458752,-0.17221846430424528,0.8178817378166999,1.1235015492809228,3,left
9.863,0.11396826814647551,0.9074864051193507,-0.11102249944246731,1.3817976038702982,1.2672931041664386,-0.8946041192088822,-0.1748226239111044,0.8189518940839379,1.1138101879879228,3,left
9.863,0.11652344569673048,0.9064941231230518,-0.10850350305722983,1.335106248632724,1.235299383654927,-0.9046880155761133,-0.17743242976434007,0.8196486873763655,1.1043579968615815,3,left
9.867,0.11915203994573276,0.9055452501552536,-0.10602916942642879,1.2876863164366137,1.2038606722680867,-0.9139470372916154,-0.1800452789986588,0.8199818064161891,1.095146645733487,3,left
9.868,0.1218486451390748,0.9046399149059313,-0.10360110611534705,1.2396025991048047,1.1729721665398534,-0.9223769659713934,-0.1826586216921766,0.819961098059182,1.0861773140050575,3,left
9.872,0.12460780154157691,0.9037782920385041,-0.10122082074106907,1.1909218722359378,1.142628773311115,-0.929975053943946,-0.1852699666402255,0.819596553100003,1.0774507131706361,3,left
9.872,0.1274240104543716,0.9029606027635104,-0.09888971993543329,1.1417126837066376,1.112825138405214,-0.9367400244159899,-0.18787688691613447,0.8188982924458446,1.0689671100479325,3,left
9.879,0.1302917485506301,0.902187115462894,-0.09660910871522,1.0920451288572972,1.08355567340768,-0.9426720652875868,-0.19047702522398194,0.8178765536577701,1.0607263506755074,3,left
9.88,0.13320548146003486,0.9014581463480867,-0.09438019025617322,1.0419906122217648,1.0548145804630116,-0.9477728166384957,-0.19306809903578884,0.8165416778550773,1.0527278847650015,3,left
9.881,0.1361596765534339,0.9007740601368665,-0.0922040660607023,0.9916215956597194,1.0265958750028736,-0.9520453519051831,-0.19564790548306557,0.8149040969716141,1.044970790465655,3,left
9.882,0.1391488148956316,0.900135270736383,-0.09008173650504282,0.9410113331788509,0.99889340637091,-0.9554941528563837,-0.19821432596008448,0.8129743213490174,1.0374537991266675,3,left
9.882,0.14216740234150327,0.8995422419210984,-0.08801410175001448,0.8902335948810738,0.971700876557328,-0.9581250789269092,-0.2007653304087466,0.8107629276539682,1.030175319816339,3,left
9.883,0.1452099797552968,0.8989954879955511,-0.08600196300013556,0.8393623863328992,0.9450118577015248,-0.9599453322846149,-0.20329898127742121,0.8082805471111513,1.0231334634884757,3,left
9.887,0.14827113233952385,0.8984955744331934,-0.08404602409675799,0.7884716718076172,0.9188198092689589,-0.9609634204572639,-0.20581343715862163,0.8055378540457881,1.0163260667599179,3,left
9.888,0.15134549806561287,0.898043118483559,-0.08214689342945496,0.737635107698243,0.8931180955634785,-0.9611891178894848,-0.20830695611284167,0.8025455547294141,1.0097507152782825,3,left
9.891,0.15442777520372808,0.8976387897415746,-0.08030508614596718,0.6869257885331124,0.8679000037941677,-0.9606334269801127,-0.21077789868582714,0.7993143765217932,1.0034047666596828,3,left
9.892000000000001,0.1575127289566226,0.8972833106762506,-0.07852102663552442,0.6364160058777328,0.8431587626707375,-0.9593085386937042,-0.21322473062650205,0.7958550573011132,0.9972853729768666,3,left
9.898,0.16059519721150384,0.896977457120605,-0.07679505125421962,0.5861770199770083,0.8188875614536172,-0.9572277927468985,-0.2156460253127094,0.7921783351738894,0.9913895027788759,3,left
9.899,0.16367009543279906,0.8967220587279788,-0.07512741125607957,0.5362788439923186,0.7950795693862833,-0.9544056373680507,-0.2180404658918612,0.7882949384553154,0.9857139626239932,3,left
9.902000000000001,0.16673242072772637,0.8965179994000592,-0.07351827589063434,0.4867900406885057,0.7717279554387392,-0.9508575886263648,-0.22040684714352388,0.7842155759101491,0.9802554181083873,3,left
9.902999999999999,0.1697772551271034,0.8963662176897392,-0.07196773562705237,0.43777753142659487,0.7488259082924037,-0.9466001893245767,-0.22274407707089214,0.7799509272435927,0.975010414373516,3,left
9.906,0.17279976813608133,0.8962677071789604,-0.07047580546694696,0.38930641731905385,0.7263666564980021,-0.9416509674471146,-0.22505117822802745,0.7755116338310349,0.969975396075973,3,left
9.907,0.17579521862232964,0.8962235168278763,-0.06904242831355487,0.34143981240556576,0.7043434887393605,-0.9360283941535805,-0.22732728878965622,0.7709082896749596,0.9651467268040917,3,left
9.912,0.1787589561216607,0.8962347512868544,-0.06766747837245878,0.29423868870865666,0.6827497741372971,-0.929751841305358,-0.2295716633702402,0.7661514325767916,0.960520707926229,3,left
9.913,0.18168642165235338,0.8963025711585842,-0.06635076456475496,0.24776173303006802,0.661578982529078,-0.922841538511171,-0.2317836735989449,0.761251535510951,0.9560935968562577,3,left
9.916,0.18457314813710946,0.8964281931949006,-0.06509203393514526,0.20206521535049843,0.6408247046601557,-0.9153185296754806,-0.23396280845704284,0.7562189981879119,0.95186162472239,3,left
9.917,0.18741476053283238,0.8966128904110942,-0.06389097503517144,0.1572028686972444,0.6204806722261442,-0.9072046290317346,-0.23610867438419814,0.7510641387926261,0.9478210134260329,3,left
9.923,0.19020697576315085,0.8968579920995025,-0.06274722125770878,0.11322578034634505,0.6005407777041961,-0.8985223766406624,-0.2382209951599854,0.7457971858842571,0.9439679920779476,3,left
9.924,0.19294560253894277,0.8971648837248273,-0.061660354095254014,0.070182294228073,0.5809990939141498,-0.8892949933320504,-0.24029961156690288,0.7404282704427875,0.9402988127995523,3,left
9.926,0.19562654114022898,0.8975350066848078,-0.06062990629388247,0.028117924407003544,0.5618498932509894,-0.8795463350667395,-0.24234448084104288,0.7349674180477159,0.9368097658777483,3,left
9.926,0.19824578322068373,0.8979698579198852,-0.05965536487890852,-0.012924720489567887,0.5430876665313228,-0.8693008466939496,-0.24435567591648782,0.729424541173733,0.933497194262195,3,left
9.932,0.2007994116847561,0.8984709893549871,-0.05873617403737485,-0.052906002018414694,0.5247071413977267,-0.8585835150774782,-0.24633338446940312,0.7238094315879756,0.9303575073944838,3,left
9.932,0.20328360067710785,0.8990400071573829,-0.05787173785427457,-0.09178930596312238,0.5067033002259376,-0.8474198215628178,-0.248277907767701,0.7181317528331931,0.9273871943591806,3,left
9.936,0.20569461571516667,0.8996785707964116,-0.05706142291033001,-0.12954108579060528,0.489071397480977,-0.8358356937558138,-0.2501896593320538,0.712401032780922,0.9245828363472153,3,left
9.937000000000001,0.2080288139882947,0.9003883918919486,-0.056304560756376076,-0.16613089563617361,0.47180697646939895,-0.8238574565821307,-0.25206916341393837,0.7066266562385615,0.9219411184225852,3,left
9.941,0.2102826448408675,0.9011712328387992,-0.055600450282057845,-0.20153141292877966,0.4549058854359288,-0.8115117825955119,-0.2539170532962993,0.7008178575940571,0.9194588405838399,3,left
9.942,0.21245265045132164,0.9020289051952186,-0.05494835999555418,-0.2357184507648287,0.4383642929538321,-0.798825641501611,-0.255734069422323,0.6949837134817537,0.9171329281122768,3,left
9.945,0.21453546671431742,0.9029632678255848,-0.054347530228162313,-0.2686709601356085,0.42217870255940837,-0.7858262488630411,-0.2575210573577241,0.6891331354528444,0.9149604411992575,3,left
9.946,0.21652782432671616,0.9039762247897201,-0.053797175274417706,-0.300371022109981,0.40634596658204947,-0.7725410139502382,-0.2592789655929988,0.6832748626414105,0.9129385838505173,3,left
9.947000000000001,0.21842655007085512,0.905069722975181,-0.05329648547563264,-0.3308038300705022,0.39086329912233486,-0.7589974867017473,-0.26100884319773376,0.6774174544552544,0.9110647120908645,3,left
9.95,0.2202285682842148,0.9062457494736647,-0.05284462925266641,-0.3599576620975937,0.37572828813166104,-0.7452233037566514,-0.2627118373492763,0.6715692833896018,0.9093363415382301,3,left
9.951,0.2219309025028007,0.9075063287066949,-0.05244075509328861,-0.38782384371180517,0.36093890656713984,-0.731246133580942,-0.26438919076370904,0.6657385281000167,0.9077511544415284,3,left
9.951,0.22353067726324646,0.9088535193073195,-0.05208399350043369,-0.4143967017755831,0.3464935226926329,-0.7170936210084153,-0.266042239051271,0.6599331668325831,0.9063070062521495,3,left
9.955,0.2250251200454046,0.9102894107641035,-0.051773458907946907,-0.43967351142332506,0.3323909097708111,-0.702793332055167,-0.26767240800798725,0.6541609712405172,0.9050019317541952,3,left
9.956,0.22641156333226378,0.9118161198335004,-0.05150825157028126,-0.46365443847981863,0.31863025548824825,-0.6883727001657028,-0.2692812108494732,0.6484295005781358,0.9038341507539129,3,left
9.96,0.22768744675606217,0.9134357867275393,-0.0512874594347513,-0.4863424792284402,0.3052111713604206,-0.6738589747486474,-0.2708702453916651,0.6427460962555177,0.902802073324178,3,left
9.96,0.2288503192921296,0.9151505710841127,-0.05111016000822898,-0.5077433983157458,0.2921337021914472,-0.6592791723204654,-0.272441191183164,0.637117876737296,0.9019043046002673,3,left
9.966000000000001,0.2298978414597201,0.9169626477262932,-0.05097542222925097,-0.5278656649803547,0.27939833556826443,-0.6446600302757307,-0.27399580659381717,0.631551732769129,0.9011396491235686,3,left
9.967,0.23082778749163377,0.9188742022157906,-0.050882308349924084,-0.546720387671314,0.2670060113506853,-0.6300279632423089,-0.275535925864106,0.6260543229155396,0.9005071147302568,3,left
9.97,0.23163804744025174,0.9208874262039033,-0.05082987582470248,-0.564321247117442,0.2549581311197761,-0.6154090219796247,-0.2770634561198573,0.6206320693929693,0.9000059159823562,3,left
9.971,0.23232662919557212,0.9230045125806585,-0.05081717919973156,-0.5806844279054791,0.24325656754796776,-0.6008288547780761,-0.2785803743567472,0.6152911541820717,0.8996354771389891,3,left
9.974,0.23289166039840623,0.9252276504199695,-0.05084327199579641,-0.5958285486212428,0.23190367365530457,-0.5863126713176182,-0.2800887243990271,0.6100375154034657,0.8993954346659915,3,left
9.975,0.23333139023680227,0.927559019716782,-0.050907208575596816,-0.6097745906043816,0.22090229191722435,-0.5718852089435725,-0.28159061383686296,0.6048768439413861,0.899285639282458,3,left
9.979,0.2336441911165439,0.9300007859116833,-0.051008045981561514,-0.6225458253637763,0.2102557631902593,-0.5575707013178334,-0.283088210946651,0.5998145802998999,0.8993061575431466,3,left
9.98,0.23382856019890347,0.9325550941992682,-0.05114484572826815,-0.6341677406971393,0.19996793542305005,-0.5433928494038237,-0.2845837415986472,0.5948559116766107,0.8994572729560564,3,left
9.984,0.23388312080097218,0.9352240636187594,-0.05131667553624303,-0.6446679655549225,0.19004317212107633,-0.5293747947438053,-0.2860794861562297,0.5900057692390349,0.8997394866348619,3,left
9.985,0.2338066236560725,0.938009780928374,-0.05152261099757116,-0.6540761936852808,0.18048636053452707,-0.5155390949874726,-0.2875777763711006,0.5852688255891205,0.9001535174862644,3,left
9.99,0.23359794803542216,0.9409142942682999,-0.05176173716374729,-0.6624241060935356,0.17130291953976615,-0.5019077016311516,-0.2890809922787294,0.580649492401672,0.9007003019326939,3,left
9.991,0.2332561027374657,0.9439396066207452,-0.0520331500428161,-0.6697452923463657,0.16249880718589244,-0.4885019399273819,-0.2905915590983391,0.5761519182227609,0.901380993171175,3,left
9.994,0.23278022695629838,0.9470876690782953,-0.05233595798820323,-0.6760751707478223,0.1540805278789519,-0.47534249092518244,-0.2921119441417446,0.5717799864145218,0.9021969599695484,3,left
9.995,0.23216959104448537,0.9503603739336672,-0.05266928295563391,-0.6814509074112218,0.146055139177433,-0.4624493756018887,-0.29364465373536686,0.5675373132330729,0.9031497850016201,3,left
10.0,0.2314235971888344,0.9537595476062407,-0.05303226159716902,-0.6859113342480241,0.1384302581737676,-0.4498419410480931,-0.2951922301597681,0.5634272460266494,0.9042412627231984,3,left
10.001,0.23054178002058856,0.9572869434236585,-0.05342404615585389,-0.6894968658919601,0.13121406743766892,-0.4375388486679296,-0.2967572486110801,0.559452861541398,0.9054733967913647,3,left
10.004,0.22952380718453222,0.9609442342794348,-0.053843805124962604,-0.692249415573937,0.12441532049826837,-0.4255580643577046,-0.2983423141887349,0.5556169643226512,0.9068483970297204,3,left
10.004,0.22836947989599107,0.9647330051897559,-0.05429072364339297,-0.6942123099606183,0.11804334684316461,-0.41391685062669786,-0.2999500589139491,0.5519220851998817,0.9083686759427483,3,left
10.011000000000001,0.22707873352095026,0.9686547457742742,-0.054764003611103625,-0.6954302029670733,0.11210805641367322,-0.4026317606248266,-0.30158313878346305,0.5483704798439258,0.9100368447828334,3,left
10.012,0.22565163822052547,0.9727108426859403,-0.05526286352310907,-0.6959489885514938,0.10661994357676645,-0.3917186340427946,-0.3032442308630943,0.5449641273854592,0.9118557091738997,3,left
10.014,0.22408839970362823,0.9769025720139751,-0.055786538035447246,-0.6958157124977142,0.10159009055541939,-0.38119259485131857,-0.30493603042342243,0.5417047290882492,0.913828264296801,3,left
10.014,0.22238936012781022,0.9812310916825558,-0.05633427728712295,-0.6950784831891328,0.09703017030033444,-0.37106805084704686,-0.3066612481084593,0.5385937070917598,0.9159576896458717,3,left
10.015,0.2205549991781486,0.9856974338657891,-0.05690534600342354,-0.6937863813756248,0.09295244878730222,-0.36135869497385287,-0.3084226071074749,0.5356322032752705,0.9182473433733802,3,left
10.019,0.21858593534381304,0.9903024974380908,-0.05749902240078669,-0.6919893689331681,0.08936978672577466,-0.35207750838929613,-0.310222840288702,0.532821078316741,0.9207007562429126,3,left
10.02,0.21648292740702332,0.9950470404796592,-0.0581145969093041,-0.6897381966664825,0.08629564065370911,-0.34323676522874164,-0.3120646872652735,0.53016091099943,0.9233216252093215,3,left
10.022,0.21424687615631588,0.9999316728580403,-0.05875137072795702,-0.6870843114649386,0.08374406333578936,-0.33484803892855713,-0.31395089138461485,0.5276519977825396,0.9261138066364321,3,left
10.024,0.21187882633009003,1.0049568489060667,-0.059408654226725574,-0.6840797635913455,0.08172970327674059,-0.3269222098049589,-0.3158841966441637,0.5252943526319397,0.9290813091603286,3,left
10.025,0.2093799687891438,1.010122860213809,-0.06008576520893749,-0.6807771151434752,0.08026780310357792,-0.3194694734940785,-0.3178673445387114,0.5230877071033329,0.9322282862057587,3,left
10.027999999999999,0.20675164291348322,1.0154298285496424,-0.06078202704954935,-0.6772293504654717,0.0793741966314702,-0.3124993499523822,-0.3199030708447931,0.5210315106706505,0.9355590281636855,3,left
10.029,0.2039953392188046,1.020877698922673,-0.061496766731823124,-0.6734897888144904,0.07906530453625735,-0.3060206928839797,-0.3219941023476842,0.5191249312929084,0.9390779542385213,3,left
10.033999999999999,0.20111270218686123,1.0264662327941183,-0.06222931281400259,-0.6696119993255049,0.07935812861758774,-0.3000416995549799,-0.32414315351670797,0.5173668562131793,0.9427896039740916,3,left
10.035,0.19810553329958122,1.0321950014403236,-0.06297899336385726,-0.6656497182642048,0.08027024465014401,-0.29456992097488965,-0.3263529231347066,0.5157558929837767,0.9466986284679093,3,left
10.038,0.19497579426191694,1.0380633794673955,-0.06374513389861927,-0.6616567685573578,0.08181979382210629,-0.28961227242646187,-0.3286260908876899,0.5142903707121668,0.9508097812838747,3,left
10.039,0.1917256103949505,1.044070538476915,-0.06452705536222533,-0.6576869815896088,0.08402547276173229,-0.28517504432683277,-0.3309653139208403,0.5129683415225589,0.9551279090740783,3,left
10.045,0.1883572741779313,1.0502154408830267,-0.06532407216318888,-0.6537941212554543,0.08690652215471335,-0.2812639134042444,-0.33337322336722797,0.51178758222854,0.9596579419209413,3,left
10.046,0.18487324891454,1.056496833882805,-0.0661354902852936,-0.6500318102550331,0.09048271395679806,-0.2778839541761241,-0.3358524208557728,0.5107455962125407,0.9644048834115188,3,left
10.048,0.18127617249435973,1.0629132435832676,-0.06696060547201103,-0.646453458622447,0.09477433720806158,-0.2750396507157861,-0.3384054750051778,0.5098396155083287,0.9693738004563769,3,left
10.048,0.1775688612144468,1.0694629692889537,-0.06779870147868013,-0.6431121944755429,0.09980218245713937,-0.2727349086965305,-0.3410349179107577,0.509066603083134,0.9745698128660728,3,left
10.052999999999999,0.1737543136173994,1.0761440779539644,-0.06864904838593575,-0.6400607969764647,0.1055875248057428,-0.27097306770343943,-0.34374324163128966,0.5084232553164053,0.9799980826988814,3,left
10.054,0.16983571429252975,1.0829543988027697,-0.06951090097252195,-0.6373516314928079,0.11215210558582993,-0.26975691380470856,-0.34653289468322634,0.5079060046725885,0.9856638033940565,3,left
10.057,0.16581643757831072,1.0898915181254867,-0.07038349715291263,-0.6350365869498935,0.1195181126839209,-0.2690886923758993,-0.34940627854983003,0.5075110225657001,0.9915721887055622,3,left
10.058,0.1617000511002592,1.096952774255855,-0.07126605649110403,-0.6331670153655069,0.1277081595292247,-0.2689701211720569,-0.3523657442130132,0.5072342224138398,0.9977284614518827,3,left
10.062999999999999,0.15749031907986952,1.1041352527437287,-0.07215777880447258,-0.6317936735594316,0.1367452627644833,-0.2694024036442061,-0.3554135887159059,0.5070712628821468,1.004137842098195,3,left
10.065,0.15319120535474698,1.1114357817375438,-0.07305784287170748,-0.6309666670312385,0.14665281862074236,-0.27038624249830706,-0.35855205176440746,0.5070175513130583,1.01080553718789,3,left
10.068,0.14880687605490794,1.1188509275946996,-0.07396540525598325,-0.6307353960010678,0.1574545780196261,-0.27192185349633513,-0.36178331237623096,0.5070682473430633,1.0177367276411382,3,left
10.068999999999999,0.14434170188516032,1.126376990739566,-0.07487959924678059,-0.6311485036095669,0.1691746204291275,-0.27400897950072656,-0.36510948558619966,0.5072182667054763,1.0249365569389248,3,left
10.072000000000001,0.13980025996932255,1.1340100017902086,-0.07579953391353571,-0.6322538262747156,0.18183732650142767,-0.27664690476501774,-0.3685326192168171,0.5074622852190633,1.0324101192117183,3,left
10.073,0.13518733521799356,1.1417457179751813,-0.076724293258224,-0.6340983462049775,0.1954673495238255,-0.2798344694750883,-0.37205469072339764,0.5077947429626579,1.0401624472526971,3,left
10.078,0.1305079211866645,1.1495796198607997,-0.07765293545570891,-0.6367281460700689,0.2100895857164999,-0.2835700845470024,-0.37567760412331636,0.508209848636184,1.0481985004762262,3,left
10.08,0.12576722039521007,1.1575069084083325,-0.07858449217731037,-0.6401883658326207,0.22572914341353373,-0.2878517466890246,-0.3794031870192172,0.5087015841087771,1.0565231528430652,3,left
10.083,0.12097064408281623,1.1655225023805191,-0.07951796799921937,-0.6445231617461317,0.2424113111664082,-0.29267705373696223,-0.3832331877218758,0.5092637091570803,1.0651411807674032,3,left
10.083,0.11612381137420671,1.173621036118158,-0.08045233990057009,-0.6497756675268656,0.2601615248120285,-0.298043220273563,-0.3871692724565726,0.5098897664077168,1.0740572509856967,3,left
10.084,0.11123254783604325,1.181796857708993,-0.08138655685734009,-0.6559879577097271,0.27900533355026197,-0.30394709354426186,-0.39121302259729646,0.5105730865173846,1.083275908303443,3,left
10.089,0.10630288340883431,1.1900440275707018,-0.08231953954001414,-0.6632010132006615,0.2989683650789691,-0.31038516968313334,-0.3953659318512688,0.511306793634909,1.0928015631009267,3,left
10.09,0.1013410497084313,1.1983563174675167,-0.08325018012544122,-0.6714546889972239,0.3200762898112325,-0.3173536102382574,-0.3996294033387114,0.5120838111790829,1.1026384785157726,3,left
10.091000000000001,0.09635347669832606,1.2067272099779751,-0.08417734223445336,-0.6807876838340385,0.3423547840709372,-0.324848258856251,-0.40400474655292345,0.512896867947065,1.1127907572856723,3,left
10.092,0.09134678873745405,1.2151498984306988,-0.08509986100490419,-0.6912375111209254,0.36582949192901576,-0.3328646577514478,-0.408493174208175,0.5137385045575644,1.1232623282714795,3,left
10.092,0.08632780001193938,1.2236172873245532,-0.08601654330651934,-0.7028404703267813,0.3905259852142619,-0.34139806345573137,-0.41309579898766735,0.5146010802310269,1.134056932688936,3,left
10.096,0.08130350936799642,1.2321219932475456,-0.08692616810286341,-0.7156316181830757,0.4164697213676789,-0.35044346147753874,-0.4178136302041326,0.515476779909145,1.1451781100782046,3,left
10.097000000000001,0.0762810945750162,1.2406563463065006,-0.08782748696697619,-0.7296447394758471,0.4436859990498177,-0.35999557973585206,-0.4226475703859681,0.5163576217160905,1.156629184041299,3,left
10.102,0.07126790605677165,1.24921239207948,-0.0887192247572588,-0.7449123174160708,0.47219991154576607,-0.37004890076748115,-0.42759841180213054,0.5172354647639322,1.1684132477784268,3,left
10.103,0.06627146013205061,1.2577818941058485,-0.08960008045774215,-0.7614655036252214,0.5020362980423735,-0.38059767273361084,-0.43266683293934466,0.5181020173047372,1.1805331494552023,3,left
10.106,0.06129943180551008,1.2663563369331494,-0.09046872818489757,-0.779334087776348,0.5332196928559505,-0.39163591925304203,-0.4378533949455151,0.5189488452318671,1.1929914774336294,3,left
10.107000000000001,0.05635964714717511,1.274926929743502,-0.09132381836393447,-0.7985464669345969,0.5657742726924094,-0.40315744809099435,-0.443158538053565,0.5197673809329765,1.2057905454007167,3,left
10.111,0.05146007529450333,1.2834846105841906,-0.09216397908010672,-0.819129614644792,0.59972380202561,-0.41515585873376115,-0.4485825780002629,0.5205489324971802,1.2189323774295449,3,left
10.112,0.046608820103715976,1.2920200512274889,-0.09298781761329264,-0.8411090498174725,0.6350915766835454,-0.4276245488809141,-0.45412570245493866,0.5212846932788078,1.2324186930085814,3,left
10.117,0.04181411146855393,1.300523662683714,-0.09379392216687969,-0.8645088054686323,0.6719003657359383,-0.4405567198881413,-0.4597879674733283,0.5219657518200757,1.2462508920760178,3,left
10.118,0.03708429631601137,1.3089856013890875,-0.0945808638055156,-0.8893513973723483,0.7101723517808275,-0.453945381195173,-0.4655692939921318,0.5225831021349037,1.2604300400968798,3,left
10.121,0.03242782927962648,1.3173957760866495,-0.09534719862063869,-0.9156577926894909,0.749929069731795,-0.46778335377459995,-0.47146946438020676,0.5231276543559706,1.274956853221664,3,left
10.122,0.027853263041937446,1.3257438554157819,-0.09609147014658209,-0.9434473786397861,0.7911913442116218,-0.4820632726387195,-0.4774881190626638,0.523590245746946,1.2898316835662338,3,left
10.128,0.023369238330316938,1.3340192762245227,-0.09681221205162045,-0.9727379312886393,0.8339792256623675,-0.49677758844285647,-0.4836247532344718,0.5239616520816516,1.3050545046537105,3,left
10.128,0.018984473545344174,1.3422112526175984,-0.09750795112542704,-1.0035455845243362,0.878311925286125,-0.5119185682248949,-0.4898787136805218,0.5242325993916975,1.3206248970600936,3,left
10.131,0.014707753998160067,1.350308785750808,-0.09817721057540472,-1.035884799305489,0.9242077489350325,-0.5274782953220281,-0.4962491957194389,0.5243937760839019,1.3365420343063383,3,left
10.132,0.010547920733331604,1.3583006743797272,-0.09881851363132325,-1.069768333262907,0.9716840300734999,-0.5434486685069793,-0.5027352402887679,0.5244358454285406,1.3528046690406257,3,left
10.136000000000001,0.006513858916779592,1.3661755261684052,-0.09943038744553116,-1.1052072107444266,1.0207570619400463,-0.5598214003871727,-0.5093357311895003,0.5243494584191863,1.369411119555546,3,left
10.137,0.002614485773149885,1.3739217697612514,-0.10001136726736999,-1.1422106933956266,1.071442029040631,-0.5765880151115362,-0.5160493925082368,0.5241252670045801,1.3863592566859269,3,left
10.141,-0.001141261937745301,1.3815276676185846,-0.10056000086482642,-1.1807862513737952,1.1237529381099018,-0.5937398454307974,-0.5228747862356201,0.5237539376926341,1.403646491134013,3,left
10.142999999999999,-0.004744440910207703,1.3889813296147842,-0.1010748531630832,-1.2209395352969716,1.1777025486813666,-0.611268029158287,-0.5298103100999928,0.5232261655262995,1.4212697612697032,3,left
10.145,-0.0081861147462963,1.3962707273983994,-0.10155451106847227,-1.2626743490343828,1.2333023034121202,-0.6291635050793993,-0.5368541956355666,0.5225326884306337,1.4392255214545255,3,left
10.146,-0.011457367867066425,1.4033837095142874,-0.10199758844715247,-1.3059926234491008,1.2905622583124334,-0.6474170083589614,-0.5440045065047059,0.5216643019299808,1.457509730939005,3,left
10.151,-0.01454931987201333,1.4103080172875853,-0.10240273122997216,-1.350894391208282,1.3494910130352082,-0.6660190654968471,-0.551259137087225,0.5206118742287342,1.4761178433723472,3,left
10.151,-0.01745314033824738,1.4170313014697544,-0.10276862261863758,-1.397377762780883,1.4100956413850447,-0.6849599888832226,-0.5586158113148101,0.519366361623693,1.495044796905824,3,left
10.152000000000001,-0.02016006405375123,1.4235411396491824,-0.10309398837219769,-1.4454389037472977,1.4723816222114336,-0.7042298710058433,-0.5660720816657975,0.5179188241705595,1.5142850047669223,3,left
10.156,-0.02266140668052483,1.4298250544306168,-0.10337760215271585,-1.4950720135171776,1.53635277083248,-0.7238185783635983,-0.5736253282007391,0.5162604415016191,1.533832346123744,3,left
10.157,-0.0249485808424978,1.4358705323875063,-0.10361829090459514,-1.5462693053926277,1.602011171025921,-0.743715745145381,-0.5812727575545801,0.5143825287160672,1.5536801571185614,3,left
10.158,-0.027013112631508823,1.4416650437898548,-0.1038149402378091,-1.5990209876240022,1.6693571074229963,-0.7639107667413367,-0.5890114018647417,0.5122765523088291,1.573821222055602,3,left
10.161,-0.028846658521484842,1.4471960631060563,-0.10396649978004908,-1.6533152449464183,1.7383889980311005,-0.7843927931583581,-0.5968381176497818,0.5099341461280963,1.5942477647875049,3,left
10.161,-0.03044102267377537,1.4524510902684682,-0.1040719884528455,-1.7091382202532115,1.8091033267304624,-0.8051507224086795,-0.6047495846605955,0.507347127356164,1.61495144035745,3,left
10.167,-0.03178817460785162,1.4574176726816834,-0.1041304996163643,-1.7664739963615126,1.8814945758009596,-0.8261731939342488,-0.6127423047263794,0.5045075125075037,1.6359233269548037,3,left
10.168,-0.03288026720557068,1.462083427942682,-0.10414120602222175,-1.825304577993169,1.9555551586544762,-0.8474485821264736,-0.6208126006178367,0.5014075334373228,1.6571539182429416,3,left
10.17,-0.03370965501399581,1.4664360672332102,-0.10410336451267951,-1.885609874131341,2.03127535297594,-0.8689649900009481,-0.6289566149503445,0.4980396533531634,1.6786331161187094,3,left
10.17,-0.03426891280944257,1.4704634193362491,-0.10401632040719465,-1.9473676809174447,2.108643234480978,-0.8907102430875293,-0.6371703091500345,0.4943965828213645,1.7003502239637447,3,left
10.177,-0.03455085438391628,1.4741534552203852,-0.10387951152359433,-2.0105536652574005,2.187644611502931,-0.912671883596853,-0.6454494625059632,0.4904712957594677,1.7222939404486268,3,left
10.177,-0.03454855151496255,1.4774943131276517,-0.10369247178867634,-2.075141349310385,2.268262960626722,-0.9348371649250761,-0.6537896713317599,0.48625704540487474,1.7444523539515375,3,left
10.18,-0.034255353080173426,1.4804743240912355,-0.10345483439983995,-2.141102096037441,2.350479363591806,-0.9571930465592863,-0.6621863482603362,0.4817473802492762,1.766812937653797,3,left
10.181000000000001,-0.03366490427632464,1.4830820378004121,-0.10316633450642611,-2.208405095991411,2.4342724456911142,-0.979726189446642,-0.6706347216954341,0.4769361599275609,1.7893625453752855,3,left
10.184,-0.032771165899942015,1.4853062487226312,-0.1028268113877273,-2.277017355533673,2.5196183158975534,-1.0024229518908878,-0.679129835443961,0.4718175710490848,1.812087408213378,3,left
10.185,-0.03156843364247751,1.4871360223873353,-0.10243621011299747,-2.3469036866670994,2.6064905089541877,-1.0252693860404407,-0.6876665485532217,0.4663861429583328,1.8349731320496039,3,left
10.189,-0.03005135735017306,1.4885607217330363,-0.10199458267557635,-2.418026698678514,2.6948599296687803,-1.0482512350327493,-0.6962395353773089,0.4606367634111377,1.858004695988776,3,left
10.191,-0.028214960194956198,1.4895700334185527,-0.10150208859800294,-2.490346791787672,2.7846947996578044,-1.0713539308600981,-0.7048432858970426,0.4545646941517415,1.8811664517958449,3,left
10.195,-0.026054657696886946,1.490153994001232,-0.10095899500849531,-2.563822153003452,2.875960606789425,-1.0945625930224552,-0.7134721063179732,0.44816558637508436,1.904442124396187,3,left
10.196,-0.023566276531372558,1.490303015889421,-0.10036567619180131,-2.638408754391491,2.968620057579243,-1.1178620280333558,-0.7221201199710633,0.44143549605779453,1.9278148135054585,3,left
10.2,-0.02074607304766417,1.490007912983044,-0.0997226126192366,-2.714060353960922,3.0626330327968043,-1.1412367298451562,-0.7307812685407512,0.4343708991404271,1.951266996455517,3,left
10.202,-0.017590751420005192,1.4892599259244095,-0.0990303894651212,-2.790728499381206,3.157956546544968,-1.1646708812602988,-0.7394493136451735,0.42696870654255936,1.9747805322832395,3,left
10.204,-0.01409748134895982,1.4880507468903077,-0.09828969462193392,-2.8683625347432167,3.2545447090782385,-1.1881483563954858,-0.7481178387933759,0.4192262789914022,1.998336667149343,3,left
10.205,-0.01026391522872145,1.4863725438646933,-0.0975013162352482,-2.946909610581806,3.3523486936300424,-1.2116527242658774,-0.7567802517443799,0.41114144164362554,2.0219160411545367,3,left
10.21,-0.006088204698071246,1.4842179843375596,-0.0966661397906977,-3.0263146973799815,3.451316707522688,-1.235167253556602,-0.765429787292994,0.40271249847912766,2.04549869662052,3,left
10.211,-0.0015690164985146355,1.4815802583789572,-0.09578514479550716,-3.106520602777614,3.551393967837371,-1.2586749186489843,-0.774059510507257,0.39393824644450215,2.0690640879034508,3,left
10.215,0.0032944524272553134,1.4784531010365602,-0.09485940110185793,-3.1874679927101957,3.652522681925098,-1.2821584069689793,-0.7826623204423809,0.38481798932297323,2.0925910928075764,3,left
10.215,0.008502460651351995,1.4748308139998676,-0.09389006491390442,-3.2690954167056305,3.7546420330426877,-1.3056001277253262,-0.7912309543560321,0.3753515513065826,2.116058025666738,3,left
10.22,0.014054708835129581,1.4707082864652476,-0.09287837450388575,-3.3513393375693497,3.8576881714012505,-1.3289822221049148,-0.7997579924380982,0.36553929023989906,2.139442652128385,3,left
10.22,0.019950327200259257,1.4660810151292711,-0.09182564564270629,-3.4341341656901534,3.9615942109175157,-1.3522865749927886,-0.808235863009918,0.3553821104759243,2.1627222055096156,3,left
10.221,0.02618786393733887,1.4609451232346466,-0.0907332667363228,-3.5174122982011378,4.06629023196123,-1.3754948282840918,-0.816656848043254,0.3448814752341857,2.185873404297533,3,left
10.222999999999999,0.0327652746111201,1.4552973785818013,-0.08960269365432011,-3.6011041632318297,4.171703290394513,-1.398588395855085,-0.8250130887910662,0.33403941832240974,2.208872470200943,3,left
10.224,0.03967991266074658,1.4491352103916693,-0.0884354442412401,-3.685138269489229,4.277757433201507,-1.4215484802601432,-0.8332965913801077,0.32285855510978395,2.231695146325148,3,left
10.225,0.04692852114354575,1.4424567248762352,-0.08723309251679795,-3.76944126132484,4.384373720941268,-1.4443560911964468,-0.8414992323197912,0.3113420926885208,2.2543167153382653,3,left
10.229,0.05450722590517158,1.4352607193657598,-0.08599726259374962,-3.8539379790358788,4.491470256920477,-1.46699206565317,-0.8496127639396915,0.29949383918706124,2.276712017662071,3,left
10.23,0.06241153036686,1.4275466948582871,-0.08472962236380789,-3.9385515234117365,4.59896222237537,-1.4894370894373363,-0.8576288197794651,0.2873182122028056,2.2988554697528967,3,left
10.234,0.07063631213211499,1.419314866876594,-0.08343187702705779,-4.02320332312747,4.7067619166154575,-1.5116717196434897,-0.8655389199547304,0.27482024632129587,2.320721082537491,3,left
10.235,0.07917582165203976,1.410566174525675,-0.08210576257259368,-4.107813203996708,4.8147788014214,-1.5336764077584224,-0.8733344765222006,0.26200559968782267,2.3422824800681457,3,left
10.238999999999999,0.08802368321717426,1.4013022876548966,-0.08075303934077138,-4.192299459834806,4.922919549599581,-1.5554315233158928,-0.8810067988670793,0.24888055959648994,2.3635129184606316,3,left
10.24,0.0971728985227329,1.3915256120602284,-0.07937548579440128,-4.276578925093254,5.031088097935194,-1.5769173781402541,-0.8885470991354222,0.23545204706084596,2.3843853051776995,3,left
10.243,0.10661585298698714,1.3812392927060344,-0.07797489260429431,-4.360567049508207,5.1391857048539435,-1.59811425124216,-0.8959464977338408,0.22172762032928203,2.4048722187200378,3,left
10.244000000000002,0.11634432491784971,1.3704472149846059,-0.07655305712818872,-4.444177975005678,5.247111013102817,-1.619002414428806,-0.903196028918572,0.20771547730750795,2.4249459287856103,3,left
10.249,0.12634949754396765,1.3591540040547538,-0.0751117783349066,-4.527324615105319,5.3547601177604465,-1.6395621586903844,-0.9102866464955519,0.19342445684954515,2.4445784169572824,3,left
10.25,0.1366219738658121,1.3473650223076636,-0.07365285219321896,-4.609918737063884,5.46202663988738,-1.659773821423604,-0.9172092296527357,0.17886403887782765,2.4637413979775196,3,left
10.253,0.147151794240911,1.3350863650035154,-0.07217806750009802,-4.6918710469983775,5.568801806126092,-1.67961781455224,-0.9239545889454659,0.16404434329217688,2.4824063416677764,3,left
10.255,0.15792845658867316,1.3223248541136832,-0.07068920205758068,-4.773091278227546,5.674974534559725,-1.6990746536037302,-0.9305134724552419,0.14897612762661705,2.500544495548903,3,left
10.258,0.16894093907274993,1.309088030397921,-0.06918801902476643,-4.853488283068812,5.780431527137501,-1.7181249877998432,-0.9368765721417551,0.133670783412224,2.518126908217566,3,left
10.259,0.18017772508629937,1.2953841437455298,-0.06767626320304287,-4.93297012832587,5.8850573689732935,-1.7367496312183803,-0.9430345304075493,0.11814033120345784,2.5351244535322373,3,left
10.264000000000001,0.19162683033498046,1.281222141809865,-0.06615565700760974,-5.011444194700064,5.98873463482211,-1.754929595081762,-0.9489779468941274,0.10239741422471743,2.5515078556607933,3,left
10.264000000000001,0.20327583179519956,1.2666116569634704,-0.06462789596208979,-5.088817280356327,6.091344003037201,-1.7726461212271885,-0.9546973855277646,0.08645529059317367,2.5672477150401765,3,left
10.267999999999999,0.21511189832118313,1.2515629915998707,-0.06309464369830936,-5.1649957088718,6.192764377308093,-1.7898807168118336,-0.9601833818326966,0.07032782407329442,2.5823145352968764,3,left
10.269,0.22712182267534622,1.2360871018145343,-0.061557526588226254,-5.239885441792366,6.292873016477139,-1.8066151903052587,-0.9654264505287364,0.05402947331786458,2.5966787511752467,3,left
10.273,0.2392920547581591,1.2201955795138923,-0.06001812822391778,-5.313392196019183,6.3915456727290865,-1.822831688819904,-0.9704170934297324,0.0375752795497332,2.6103107575187936,3,left
10.274000000000001,0.25160873581977505,1.2039006330214426,-0.05847798397362325,-5.385421566243821,6.488656738444745,-1.8385127368291247,-0.975145807658602,0.02098085263798917,2.6231809393476695,3,left
10.277000000000001,0.26405773344955347,1.1872150662645509,-0.056938575794414525,-5.455879152646986,6.58407940200609,-1.8536412763208099,-0.9796030941939886,0.004262355521777134,2.6352597030735665,3,left
10.277999999999999,0.27662467715928346,1.170152256630647,-0.055401327413205935,-5.524670694071752,6.677685812835976,-1.8682007084331307,-0.9837794667628533,-0.012563513065481443,2.646517508891105,3,left
10.284,0.28929499439462014,1.1527261315813933,-0.0538675999325349,-5.591702206878029,6.769347255951167,-1.8821749366174299,-0.9876654610925669,-0.029479537619098536,2.6569249043826293,3,left
10.284,0.30205394681951403,1.1349511441161066,-0.0523386878925584,-5.656880129680493,6.858934336302531,-1.895548411371677,-0.9912516445352871,-0.04646800668135295,2.666452559371046,3,left
10.288,0.3148866667174365,1.1168422471858448,-0.05081581582260142,-5.720111474167359,6.946317173171035,-1.9083061765862774,-0.9945286260765969,-0.06351073550324601,2.6750713020529817,3,left
10.29,0.32777819334542224,1.0984148671758451,-0.04930013533059144,-5.7813039821923855,7.031365604882565,-1.9204339175423508,-0.997487066739547,-0.08058909059833672,2.682752156442094,3,left
10.29,0.3407135090732266,1.0796848765885363,-0.04779272279143839,-5.840366289327138,7.11394940409867,-1.931918010600862,-1.0001176903876134,-0.09768401621244105,2.6894663811164117,3,left
10.293,0.35367757515723997,1.0606685660539354,-0.046294577692851224,-5.897208094852527,7.19393850366686,-1.9427455745149287,-1.0024112948953208,-0.11477606260823879,2.695185509093812,3,left
10.294,0.3666553670455678,1.0413826157557906,-0.044806621677330176,-5.951740337150583,7.271203231671895,-1.9529045227743542,-1.0043587635934115,-0.13184541583911852,2.6998813883561708,3,left
10.294,0.3796319091586416,1.0218440663173398,-0.04332969829346745,-6.00387537162937,7.345614551918515,-1.9623836154509475,-1.0059510768606297,-0.14887192856174186,2.7035262223727776,3,left
10.297,0.39259230909427434,1.0020702891897848,-0.041864573446387776,-6.0535271472953935,7.417044304733077,-1.9711725084898295,-1.0071793237670885,-0.16583515156169518,2.7060926101379184,3,left
10.297,0.40552179116951736,0.9820789566313254,-0.04041193651195891,-6.100611379093382,7.485365444299273,-1.9792617989114856,-1.0080347137341577,-0.18271436589134557,2.707553585535462,3,left
10.302,0.4184057291791845,0.961888011407541,-0.038972402049224884,-6.145045714948414,7.550452271138801,-1.9866430653260023,-1.0085085882086504,-0.19948861564379025,2.707882656007436,3,left
10.302999999999999,0.4312296782442099,0.9415156363582378,-0.03754651201716708,-6.186749897450398,7.612180659674818,-1.9933089036804332,-1.0085924323548217,-0.216136741411585,2.7070538405338995,3,left
10.308,0.4439794056276896,0.9209802239727242,-0.036134738382740124,-6.225645920316002,7.670428281074166,-1.9992529582625054,-1.0082778867666142,-0.23263741447869726,2.705041706928264,3,left
10.308,0.45664092039948667,0.9003003461079115,-0.0347374859985897,-6.261658179755486,7.725074821555091,-2.0044699479818604,-1.0075567592014965,-0.24896917179382486,2.7018214084489394,3,left
10.312999999999999,0.4692005018317081,0.879494723973358,-0.03335509562851647,-6.294713620864095,7.776002196337514,-2.008955687947962,-1.0064210363361152,-0.26511045177286097,2.697368719724877,3,left
10.314,0.4816447264086567,0.8585821984938493,-0.031987847001596424,-6.324741879149581,7.823094759402918,-2.012707106361735,-1.0048628955428422,-0.2810396309778607,2.6916600719891726,3,left
10.317,0.4939604933355428,0.8375817011443748,-0.030635961778445492,-6.351675417299143,7.866239509220595,-2.015722256735917,-1.0028747166851242,-0.2967350617193802,2.6846725876114292,3,left
10.318,0.5061350484303584,0.8165122253361206,-0.029299606319389083,-6.3754496572806,7.905326290586303,-2.0180003254569994,-1.000449093928358,-0.3121751106285103,2.6763841139160336,3,left
10.322000000000001,0.5181560062839463,0.7953927984172375,-0.027978894163026773,-6.39600310786392,7.940247992708361,-2.0195416346995296,-0.9975788475617984,-0.32733819824431964,2.6667732562699014,3,left
10.323,0.5300113705776062,0.7742424543400248,-0.02667388815945165,-6.413277487640318,7.970900743664904,-2.0203476407014365,-0.9942570358257723,-0.34220283966174864,2.655819410419567,3,left
10.325999999999999,0.5416895524598618,0.7530802070369921,-0.025384602249267214,-6.427217843607117,7.997184101344344,-2.020420927406925,-0.9904769667372119,-0.35674768628426273,2.643502794053764,3,left
10.327,0.5531793869051448,0.7319250245413752,-0.024111002922572886,-6.437772665377274,8.019001240969134,-2.019765195481368,-0.9862322099052504,-0.37095156872477936,2.6298044775638387,3,left
10.333,0.5644701470033379,0.7107958038819814,-0.022853010417297516,-6.444893995063072,8.036259139290685,-2.0183852467005168,-0.9815166083273215,-0.38479354089752316,2.6147064139704903,3,left
10.333,0.5755515561556627,0.6897113467770115,-0.021610499721184628,-6.448537532873925,8.048868755530721,-2.016286963714252,-0.9763242901548891,-0.3982529253425488,2.598191467981415,3,left
10.335999999999999,0.5864137981765644,0.668690336147346,-0.02038330143449279,-6.448662738458514,8.056745209131554,-2.0134772851829967,-0.9706496804166012,-0.4113093598236895,2.5802434441404616,3,left
10.337,0.5970475253228996,0.6477513134674416,-0.019171202539674897,-6.445232928011601,8.05980795436466,-2.009964176282844,-0.9644875126853076,-0.4239428452396513,2.5608471140248894,3,left
10.341,0.6074438642915894,0.6269126569700046,-0.01797394711403395,-6.438215367155929,8.057980951833594,-2.0057565945733846,-0.957832840674015,-0.4361337948868746,2.5399882424432474,3,left
10.341,0.6175944202444535,0.6061925607158279,-0.016791237013725837,-6.427581359599462,8.051192836893714,-2.000864451220181,-0.9506810497444623,-0.4478630851116268,2.5176536125822904,3,left
10.345,0.6274912789334449,0.5856090145316378,-0.015622732553357362,-6.413306331558052,8.03937708499733,-1.9952985675618125,-0.94302786831061,-0.4591121073875775,2.4938310500471705,3,left
10.345999999999998,0.6371270070121067,0.5651797848089528,-0.014468053202970125,-6.395369911923312,8.022472173958889,-1.9890706270094274,-0.9348693791179099,-0.4698628218538351,2.468509445734962,3,left
10.352,0.6464946506320335,0.5449223961482669,-0.013326778320826809,-6.3737560081450955,8.000421743120535,-1.9821931222647744,-0.9262020303778045,-0.48009781234710214,2.441678777477328,3,left
10.353,0.6555877324372366,0.5248541138250882,-0.012198447936520463,-6.348452877787523,7.973174749383996,-1.974679297840744,-0.9170226467354617,-0.48980034296022346,2.41333013038387,3,left
10.355,0.6644002470813796,0.5049919270464582,-0.011082563596861925,-6.3194531957069975,7.940685620060085,-1.9665430878665553,-0.9073284400465894,-0.4989544160682203,2.3834557158358343,3,left
10.357000000000001,0.6729266553956812,0.48535253295891506,-0.009978589286414982,-6.286754116790105,7.9029144024723745,-1.957799049157869,-0.8971170199341704,-0.5075448313126462,2.35204888918771,3,left
10.357000000000001,0.6811618773300465,0.46595232136275716,-0.00888595243327532,-6.25035733417867,7.859826910236676,-1.9484622895302572,-0.8863864040881033,-0.5155572442257785,2.3191041664318504,3,left
