time,gFx,gFy,gFz,ax,ay,az,wx,wy,wz,subject_number,foot
10.066,-0.8444672623052167,0.2768152091086938,0.05091570027259105,2.324522512321493,3.6166493006218894,-0.7529274095577303,-0.3058285440927396,0.4087646196623221,-0.05588534759303273,2,right
10.067,-0.8433887383207442,0.2752226804667191,0.049289127045793836,2.1894218674243113,3.4483134763618186,-0.7279966268874266,-0.28256109863663814,0.39975064521915177,0.01922508576504109,2,right
10.07,-0.8420833956915853,0.2740368794824664,0.0476178378034806,2.0536314354735117,3.278076185478559,-0.7028139688675452,-0.2589839648705002,0.3901605247770593,0.09498526138106521,2,right
10.071,-0.840553915199164,0.27325344890533315,0.045904492702819294,1.9172479878467126,3.1060884700788893,-0.6774112277191366,-0.23511139084862628,0.37999925884637004,0.17135878930904805,2,right
10.075,-0.8388031007616632,0.27286769447502346,0.044151774777739704,1.7803668885635473,2.9325031810373785,-0.6518206001693045,-0.21095796354927387,0.36927257206055497,0.24830863138742384,2,right
10.076,-0.8368338794028276,0.27287460096750704,0.04236238530486213,1.643081992571409,2.757474773176342,-0.6260746042095758,-0.18653858356223207,0.3579869190189564,0.3257971366649658,2,right
10.081,-0.8346493003542069,0.2732688478495279,0.04053903947434877,1.5054855505668805,2.5811590942590534,-0.600205991433911,-0.16186843787895852,0.34614948974909393,0.4037860800513169,2,right
10.082,-0.832252533264124,0.27404482442236244,0.03868446238987852,1.3676681199598246,2.403713167297879,-0.5742476548829087,-0.13696297071592337,0.33376821475774754,0.48223670441311295,2,right
10.085,-0.8296468655081032,0.27519664436857716,0.03680138540343276,1.2297184815859545,2.225294965674853,-0.5482325323203152,-0.11183785230104334,0.3208517696384147,0.5611097663382201,2,right
10.086,-0.8268356986169684,0.2767181596534728,0.03489254277272489,1.0917235617727967,2.0460631805685403,-0.5221935048675925,-0.08650894562494957,0.30740957918575923,0.6403655856554725,2,right
10.087,-0.8238225438532976,0.27860297376860493,0.03296066861858993,0.9537683593633288,1.8661769801777561,-0.49616329092204947,-0.06099227152106445,0.29345182088915484,0.7199640981157654,2,right
10.089,-0.820611016970879,0.2808444543309165,0.03100849415864806,0.815935877383471,1.6857957606046272,-0.47017433547346,-0.03530397309106539,0.27898942753736344,0.799864909412424,2,right
10.09,-0.8172048321904312,0.28343574506652097,0.029038745196750062,0.6783070594509063,1.5050788901305332,-0.4442586958819853,-0.009460280854634769,0.26403408858792393,0.8800273480370135,2,right
10.091000000000001,-0.8136077954253963,0.286369777219989,0.02705413984739466,0.5409607317633911,1.324185451988716,-0.41844792688656396,0.016522520361050674,0.24859825003030353,0.9604105151505951,2,right
10.094,-0.8098237967985402,0.2896392804476892,0.0250573864658202,0.4039735519164863,1.143273992609333,-0.39277296856100796,0.042628122430363145,0.2326951126089416,1.0409733308804434,2,right
10.095,-0.8058568025041989,0.2932367932796905,0.023051181739098058,0.2674199653898009,0.9625022804383518,-0.3672640399872962,0.06884022283842536,0.2163386283478584,1.1216745771358545,2,right
10.099,-0.8017108460859792,0.29715467325933786,0.021038208879009732,0.1313721698010654,0.7820270770590597,-0.34195053970953215,0.09514255156507695,0.1995434953325137,1.2024729371738698,2,right
10.1,-0.7973900192077464,0.30138510688225606,0.01902113585082055,-0.004099913383043986,0.6020039204714915,-0.31686095308446566,0.121518896018565,0.18232515070326039,1.2833270321462686,2,right
10.104,-0.7928984619972731,0.30592011945599457,0.017002613573893845,-0.1389286600714586,0.4225869200108106,-0.2920227664553612,0.14795312409422404,0.16469976181343673,1.364195454859569,2,right
10.105,-0.7882403530423004,0.31075158499131766,0.01498527403783993,-0.27304875809932555,0.24392856238651592,-0.2674623880765558,0.1744292054336703,0.1466842155038824,1.4450368009800623,2,right
10.109,-0.7834198991207127,0.3158712362187849,0.012971728288704595,-0.40639721549370067,0.06617952832565166,-0.24320507571668976,0.2009312309602476,0.1282961054444494,1.5258096979160651,2,right
10.111,-0.7784413247500316,0.32127067480201993,0.010964564251920028,-0.5389133628415124,-0.11051148069507048,-0.21927487086931272,0.22744343076662854,0.10955371749191178,1.6064728316096084,2,right
10.113999999999999,-0.7733088616461035,0.3269413817946743,0.008966344373687277,-0.6705388501449528,-0.28599790614114995,-0.19569453950036536,0.25395019043059636,0.09047601301255738,1.6869849714697178,2,right
10.113999999999999,-0.768026738185473,0.3328747283633872,0.006979603081232727,-0.8012176385472387,-0.46013548704648166,-0.17248551926290276,0.28043606583510533,0.07108261011667721,1.7673049936792269,2,right
10.119,-0.7625991689679121,0.3390619867741055,0.005006844082212184,-0.9308959873093005,-0.6327824060811168,-0.14966787311036378,0.30688579656875004,0.05139376275115169,1.847391903106764,2,right
10.12,-0.7570303445731154,0.3454943416142573,0.003050537539168847,-1.0595224364154052,-0.8037994275644147,-0.12726024924069254,0.333284317982756,0.03143033759537036,1.9272048540551137,2,right
10.125,-0.7513244215989819,0.3521629012008354,0.0011131171616410238,-1.1870477851830006,-0.9730500279235326,-0.10527984730468166,0.3596167719805462,0.011213788704816902,2.006703170076597,2,right
10.126,-0.7454855130592081,0.3590587091073767,-0.000803022744644873,-1.3134250672492016,-1.1404005190929194,-0.08374239081302869,0.3858685166158342,-0.009233870154196513,2.085846363085459,2,right
10.13,-0.7395176792054905,0.3661727557330624,-0.0026955302405372687,-1.4386095223033255,-1.3057201653458095,-0.06266210567777143,0.4120251345750472,-0.029890095535948867,2.1645941519964507,2,right
10.131,-0.7334249188250132,0.373495989835116,-0.00456209870539753,-1.5625585649317135,-1.4688812940436349,-0.04205170482499242,0.438072440619694,-0.05073184677091333,2.2429064811178994,2,right
10.133,-0.7272111610482529,0.3810193299493231,-0.006400469761700401,-1.6852317509378003,-1.629759400783834,-0.021922378816951405,0.46399648806406146,-0.07173562090423578,2.3207435385265374,2,right
10.134,-0.7208802576872265,0.3887336756297887,-0.008208436160878097,-1.8065907414969538,-1.7882332494206976,-0.002283792423115719,0.4897835743633486,-0.09287749017637903,2.3980657746502216,2,right
10.138,-0.7144359761123088,0.3966299184468937,-0.00998384462286048,-1.9265992655020732,-1.9441849674277003,0.016855912919095987,0.5154202458870367,-0.11413314210575494,2.474833921283432,2,right
10.139,-0.7078819926687858,0.4046989526930538,-0.011724598624524189,-2.045223080452273,-2.097500137063221,0.0354901108116618,0.5408933019519386,-0.13547792223363114,2.551009011259066,2,right
10.142999999999999,-0.7012218866338067,0.4129316857612872,-0.013428661133406202,-2.1624299322331995,-2.2480678827946496,0.05361367582779532,0.566189798188976,-0.1568868795919949,2.6265523989985757,2,right
10.144,-0.6944591347195325,0.42131904818158156,-0.015094057279878231,-2.2781895141336657,-2.395780955428641,0.07122296372324419,0.5912970493173062,-0.17833481495538298,2.701425782160889,2,right
10.149,-0.687597106135914,0.4298520033206928,-0.01671887695365212,-2.3924734254393054,-2.5405358133877094,0.0883157859805683,0.6162026313989458,-0.19979633193794163,2.7755912246088723,2,right
10.15,-0.6806390582349545,0.4385215567685894,-0.01830127730461331,-2.5052551299398913,-2.6822327015654754,0.10489137873845403,0.6408943836465342,-0.2212458909971645,2.8490111809102636,2,right
10.152999999999999,-0.673588132767804,0.4473187654492676,-0.01983948512731637,-2.6165099146827924,-2.8207757281846835,0.12095036615664673,0.6653604098563376,-0.24265786640586792,2.921648522588082,2,right
10.154,-0.6664473527934924,0.45623474650502777,-0.02133179911121037,-2.7262148493008285,-2.956072940073616,0.13649471826560264,0.689589079538014,-0.2640066062540025,2.9934665663334985,2,right
10.155,-0.6592196202774843,0.465260686008379,-0.022776591943199604,-2.834348746238459,-3.0880363967677535,0.15152770334847904,0.7135690288023592,-0.2852664954267703,3.0644291042942426,2,right
10.158,-0.6519077144072963,0.4743878475524713,-0.024172312255858794,-2.940892122101393,-3.2165822436763234,0.16605383499885995,0.737289161019176,-0.3064120209299435,3.1345004360606152,2,right
10.158999999999999,-0.6445142906353004,0.4836075807620748,-0.02551748642174858,-3.045827159877957,-3.3416307837532777,0.18007881448243904,0.7607386471695442,-0.32741783789725837,3.2036454010890374,2,right
10.158999999999999,-0.6370418804435339,0.4929113297572993,-0.02681072019932051,-3.1491376709258545,-3.463106545679255,0.19360946990475503,0.7839069257676281,-0.3482588340390352,3.2718294098118395,2,right
10.163,-0.6294928918183049,0.5022906415928822,-0.028050700238973898,-3.250809055141084,-3.5809383457604747,0.2066536941719215,0.806783702274841,-0.3689101908663153,3.3390184721682026,2,right
10.164,-0.6218696104226515,0.5117371746844043,-0.02923619545871873,-3.3508282581934794,-3.6950593415312825,0.21922038324355528,0.8293589480155891,-0.38934744106024405,3.405179223168297,2,right
10.168,-0.6141742014559776,0.5212427072178972,-0.03036605829536532,-3.449183725558839,-3.805407076460207,0.23131937530035027,0.8516228986514446,-0.40954652193142377,3.4702789455886567,2,right
10.168,-0.6064087121889146,0.5307991455234705,-0.031439225828282645,-3.5458653535452234,-3.911923515939729,0.24296139096104885,0.8735660522794414,-0.42948382502851096,3.534285589991741,2,right
10.174,-0.5985750751594909,0.5403985323794501,-0.0324547207613041,-3.640864437600734,-4.014555074887475,0.25415797458493233,0.8951791672193281,-0.4491362419547149,3.5971677922596728,2,right
10.174,-0.5906751120166792,0.550033055201477,-0.03341165224108083,-3.7341736181852956,-4.113252637275693,0.2649214366946109,0.9164532595537149,-0.46848120645017477,3.6588948888290957,2,right
10.177,-0.5827105380002676,0.5596950540610462,-0.03430921649431107,-3.8257868244841653,-4.2079715678949015,0.2752647975525821,0.9373796004841312,-0.4874967327974395,3.7194369298109624,2,right
10.177999999999999,-0.5746829670519751,0.5693770294708829,-0.03514669728221399,-3.915699216236056,-4.2986717166464405,0.2852017319237496,0.9579497135650651,-0.5061614506064581,3.778764690175826,2,right
10.183,-0.5665939175605019,0.5790716498720591,-0.03592346619067404,-4.003907123943921,-4.385317415647353,0.2947465150548503,0.9781553718770779,-0.5244546360346062,3.8368496791819013,2,right
10.185,-0.5584448187489939,0.588771758761347,-0.03663898278925425,-4.090407987731557,-4.467877469419608,0.3039139699005332,0.9979885951990934,-0.5423562394963283,3.893664148219749,2,right
10.187999999999999,-0.5502370177134296,0.598470381406265,-0.037292794695964894,-4.17520029510433,-4.546325138424163,0.31271941562466715,1.0174416472389358,-0.5598469099159716,3.949181097243958,2,right
10.189,-0.5419717871131599,0.6081607311072661,-0.037884537576294154,-4.258283517867396,-4.620638116188696,0.3211786174043283,1.036507032980144,-0.5769080155763181,4.003374279958623,2,right
10.192,-0.5336503335007768,0.6178362149797907,-0.038413935087806605,-4.339658048449923,-4.690798500266119,0.32930773756283643,1.0551774962020228,-0.5935216616142005,4.056218207919781,2,right
10.193,-0.5252738062602842,0.6274904392421515,-0.03888079876149038,-4.4193251358788945,-4.756792757249201,0.3371232880571701,1.0734460172287972,-0.6096707042134081,4.107688153714228,2,right
10.196,-0.5168433071039247,0.6371172140067889,-0.03928502779337263,-4.497286821641163,-4.818611682054719,0.3446420843440958,1.091305810962624,-0.6253387615438558,4.157760153370344,2,right
10.198,-0.5083599000619137,0.6467105575808987,-0.03962660870766958,-4.573545875667539,-4.876250351678685,0.35188120064839956,1.1087503252540791,-0.6405102214947054,4.206411008152689,2,right
10.202,-0.4998246218880243,0.6562647002870033,-0.03990561484790316,-4.648105732667763,-4.929708073612194,0.35885792665570954,1.1257732396625915,-0.6551702462477964,4.253618285888164,2,right
10.203,-0.4912384927991302,0.6657740878145446,-0.040122205656020496,-4.720970429040358,-4.978988329095483,0.3655897256515455,1.1423684646581107,-0.6693047737363631,4.29936032196754,2,right
10.209,-0.48260252746693943,0.6752333841107208,-0.040276625709912015,-4.792144540576399,-5.0240987113757685,0.37209419412742917,1.1585301413141107,-0.6829005160325886,4.343616220162061,2,right
10.21,-0.47391774618125054,0.6846374738139258,-0.04036920350415047,-4.861633121171442,-5.065050859122462,0.37838902287413384,1.1742526415408174,-0.6959449547060805,4.386365853390701,2,right
10.211,-0.46518518610370313,0.6939814642273655,-0.040400349974869854,-4.929441642754921,-5.101860385141321,0.38449195958145194,1.1895305689063238,-0.7084263331938447,4.427589864569414,2,right
10.212,-0.45640591252897106,0.7032606868239544,-0.04037055678469639,-4.99557593664149,-5.134546800517166,0.39042077296320193,1.204358760092006,-0.7203336462207862,4.467269667669488,2,right
10.218,-0.4475810300673392,0.7124706982673328,-0.04028039439586401,-5.060042136503949,-5.163133434302849,0.3961932184255984,1.2187322870273964,-0.7316566263081852,4.5053874491077615,2,right
10.219,-0.43871169366069745,0.7216072809307582,-0.04013050996827245,-5.122846623162556,-5.1876473488602395,0.4018270052965538,1.232646459748392,-0.7423857274059819,4.5419261695870885,2,right
10.221,-0.42979911934489107,0.7306664428981791,-0.03992162512230783,-5.183995971380727,-5.208119250947187,0.40733976563298296,1.2460968300213828,-0.752512105683052,4.576869566501004,2,right
10.222000000000001,-0.42084459467454344,0.7396444174392764,-0.03965453360253056,-5.243496898852335,-5.224583398632651,0.41274902462273094,1.259079195748706,-0.7620275975648567,4.610202156983331,2,right
10.222999999999999,-0.4118494887327379,0.7485376619603858,-0.03933009886953238,-5.301356217561042,-5.23707750411047,0.41807217259734664,1.2715896060400897,-0.7709246953905249,4.641909241535365,2,right
10.227,-0.4028152616588033,0.7573428564438819,-0.038949251637772166,-5.35758078768734,-5.24564263247066,0.4233264386715771,1.2836243666005027,-0.7791965215715736,4.671976907900194,2,right
10.228,-0.393743473638841,0.7660569013975788,-0.038512987371722894,-5.412177474197252,-5.250323096543269,0.4285288660036756,1.2951800449540587,-0.7868368024170996,4.70039203470552,2,right
10.23,-0.38463579331066655,0.7746769153413573,-0.03802236375124534,-5.465153106056956,-5.251166348256627,0.43369628856295767,1.306253475151688,-0.7938398425041199,4.727142294535258,2,right
10.232999999999999,-0.37549400553971224,0.7832002318614453,-0.03747849811632259,-5.516514437679923,-5.24822286754934,0.4388453090974946,1.3168417618418502,-0.800200499958065,4.752216156343957,2,right
10.234,-0.36632001852843477,0.7916243962668934,-0.03688256490081195,-5.566268112023521,-5.241546050202481,0.44399227788727463,1.3269422837115956,-0.8059141627222371,4.775602887266919,2,right
10.236,-0.35711587022923597,0.7999471618898226,-0.036235793066375296,-5.614420624932358,-5.231192095609142,0.449153271975471,1.3365526963297822,-0.8109767258363385,4.797292553902843,2,right
10.236,-0.34788373404088696,0.8081664860785952,-0.03553946355037917,-5.660978290653951,-5.217219894878887,0.45434407476374744,1.34567093442286,-0.8153845697423333,4.817276023141001,2,right
10.241,-0.3386259237802031,0.8162805259377421,-0.034794906743368166,-5.705947208632663,-5.19969091932567,0.45958015596494006,1.3542952136122295,-0.8191345396340496,4.835544962600104,2,right
10.242,-0.3293448979302022,0.8242876338695032,-0.03400350001199536,-5.749333231720268,-5.178669109309632,0.4648766519279758,1.362424031640784,-0.8222239258650538,4.8520918407411555,2,right
10.247,-0.32004326317171433,0.8321863529703848,-0.03316666528192607,-5.791141935936867,-5.154220763392729,0.47024834634997087,1.3700561691148214,-0.8246504454274555,4.866909926711669,2,right
10.247,-0.310723777209971,0.8399754123333399,-0.032285866691977534,-5.831378591911402,-5.126414427758014,0.4757096513905859,1.3771906897860993,-0.8264122245124096,4.879993289973731,2,right
10.251,-0.3013893509135738,0.8476537223019734,-0.031362608325613474,-5.870048138126371,-5.0953207858323015,0.4812745892038839,1.3838269403973837,-0.8275077821611848,4.891336799763414,2,right
10.252,-0.29204304979063367,0.8552203697169856,-0.03039843201982991,-5.907155156086895,-5.061012548042132,0.4869567739031532,1.3899645501134137,-0.8279360150137659,4.900936124424106,2,right
10.255,-0.2826880948342923,0.8626746131877389,-0.029394915246149206,-5.9427038475297165,-5.023564341623313,0.49276939397441544,1.3956034295577762,-0.8276961831600466,4.908787730651328,2,right
10.255999999999998,-0.2733278627755463,0.8700158784145003,-0.028353669054632148,-5.976698013783231,-4.9830526003948705,0.4987251951546332,1.4007437694747529,-0.8267878970967598,4.914888882681613,2,right
10.26,-0.26396588578463,0.8772437535790739,-0.02727633606823971,-6.009141037385164,-4.9395554543990094,0.5048364637909708,1.4053860390337716,-0.8252111057913732,4.919237641453019,2,right
10.261,-0.2546058506635152,0.8843579848127974,-0.02616458851043162,-6.040035866060018,-4.89315261929966,0.5111150106978323,1.4095309837926622,-0.8229660858522578,4.921832863759827,2,right
10.265,-0.24525159757150672,0.891358471741971,-0.02502012624547691,-6.069384999153955,-4.843925285423422,0.5175721555288131,1.4131796233344855,-0.8200534318025243,4.9226742014189435,2,right
10.267000000000001,-0.23590711832305655,0.8982452631022886,-0.02384467481129237,-6.097190476620321,-4.791956006318101,0.5242187116811469,1.4163332485912727,-0.8164740474529946,4.921762100460495,2,right
10.27,-0.22657655429109166,0.90501855240655,-0.02263998342811703,-6.12345387064458,-4.73732858669572,0.5310649717507085,1.418993418866581,-0.8122291383678625,4.919097800350081,2,right
10.270999999999999,-0.21726419393990135,0.9116786736450744,-0.021407822970020644,-6.148176279992943,-4.680127969618767,0.5381206935561469,1.4211619585673538,-0.8073202054146777,4.914683333245089,2,right
10.276,-0.20797447000039748,0.9182260969956071,-0.020149983888507413,-6.171358327164616,-4.620440122780553,0.545395086751261,1.42284095365415,-0.8017490393883735,4.908521523282464,2,right
10.277000000000001,-0.19871195628937918,0.924661424517808,-0.0188682740788374,-6.193000158423084,-4.558351923722955,0.5528968000453119,1.4240327478173813,-0.7955177166971441,4.9006159858902745,2,right
10.280999999999999,-0.18948136416354697,0.9309853858060363,-0.017564516681503536,-6.213101446777466,-4.493951043827382,0.5606339090515549,1.4247399383857988,-0.7886285960960779,4.890971127110417,2,right
10.282,-0.18028753858854724,0.9371988335731634,-0.016240547814069677,-6.231661397980544,-4.427325830907705,0.5686139047849116,1.4249653719720552,-0.7810843164525437,4.879592142914732,2,right
10.285,-0.17113545379390738,0.9433027391374603,-0.014898214231433235,-6.248678759605633,-4.358565190226969,0.5768436828303488,1.4247121398587677,-0.7728877955254345,4.866485018491876,2,right
10.286,-0.1620302084762865,0.9492981877846325,-0.013539370915793766,-6.264151833260006,-4.2877584637530655,0.5853295332042054,1.4239835731271242,-0.7640422297384848,4.851656527477209,2,right
10.29,-0.1529770205071708,0.9551863739782214,-0.012165878603650933,-6.278078489988248,-4.214995307462165,0.5940771309314087,1.422783237528688,-0.7545510949259939,4.835114231093049,2,right
10.290999999999999,-0.14398122109940958,0.9609685963932115,-0.010779601266842943,-6.290456188914362,-4.140365566492576,0.6030915273622337,1.4211149280996744,-0.7444181480274161,4.816866477161656,2,right
10.290999999999999,-0.13504824838997317,0.9666462527489877,-0.009382403574324941,-6.301281999167118,-4.063959147945804,0.6123771422529974,1.4189826635242748,-0.7336474297010969,4.796922398966157,2,right
10.296,-0.1261836404016652,0.9722208344207609,-0.007976148364778623,-6.310552625103182,-3.985865891295337,0.6219377566362211,1.416390680295509,-0.7222432678039882,4.775291914018821,2,right
10.298,-0.11739302735228532,0.9776939208163443,-0.006562694153926731,-6.318264434710998,-3.9061754372050257,0.6317765065085378,1.4133434267986325,-0.7102102816434717,4.751985722951505,2,right
10.298,-0.10868212328613992,0.9830671735138425,-0.00514389268997206,-6.324413490845027,-3.824977097077988,0.641895877368953,1.4098455574840687,-0.6975533868839962,4.727015308827316,2,right
10.3,-0.10005671701197154,0.9883423301557314,-0.0037215865643872373,-6.328995584808305,-3.742359726498842,0.65229769964283,1.4059019272522404,-0.6842778010110068,4.700392937078595,2,right
10.300999999999998,-0.09152266234453707,0.9935211980852142,-0.0022976068831061986,-6.332006271923978,-3.6584116048807336,0.6629831450257937,1.4015175860934757,-0.6703890492917007,4.672131656111188,2,right
10.305,-0.08308586766243758,0.9986056477026121,-0.0008737709989785566,-6.333440908960872,-3.573220322100183,0.673952723778999,1.3966977739816115,-0.6558929711919431,4.64224529852112,2,right
10.306,-0.07475228480981196,1.00359760552148,0.0005481197004309836,-6.333294693400829,-3.486872672051948,0.6852062830060407,1.3914479160099738,-0.6407957272112165,4.610748482847219,2,right
10.309000000000001,-0.06652789738289398,1.0084990469156863,0.001966281960553832,-6.331562704556427,-3.399454552882933,0.6967430059422046,1.3857736177571496,-0.6251038060957191,4.57765661577853,2,right
10.311,-0.058418708454234,1.0133119885655426,0.0033789527938677118,-6.328239946543229,-3.311050873660604,0.7085614122875702,1.37968066086872,-0.6088240323879813,4.542985894730692,2,right
10.315,-0.05043072779931765,1.0180384806295604,0.0047843915856235425,-6.323321393106083,-3.221745467228029,0.7206593596162932,1.3731749988398774,-0.5919635742696433,4.506753310700844,2,right
10.315999999999999,-0.04256995870460566,1.0226805986857157,0.006180882166867089,-6.316802034294538,-3.131621008994604,0.7330340458952064,1.3662627529826485,-0.5745299516523316,4.468976651306007,2,right
10.319,-0.034842384452521837,1.0272404354998304,0.007566734838839872,-6.30867692497778,-3.0407589414086904,0.7456820131456837,1.3589502085602259,-0.5565310444698808,4.429674503905398,2,right
10.319,-0.027253954595029183,1.0317200926873968,0.008940288322310697,-6.298941235184965,-2.949239403855782,0.758599152283519,1.3512438110697311,-0.5379751011234822,4.388866258702618,2,right
10.324000000000002,-0.019810571140421132,1.0361216723381532,0.01029991159835673,-6.287590302252216,-2.8571411677234804,0.7717807091723567,1.3431501626535742,-0.518870747029693,4.346572111719243,2,right
10.325,-0.01251807478653397,1.040447268669189,0.011644005605085118,-6.274619684752915,-2.764541576372419,0.7852212919270042,1.3346760186184068,-0.4992269932196192,4.302813067526942,2,right
10.33,-0.005382231338025838,1.0446989597623362,0.012971004757960236,-6.260025218183326,-2.67151648975041,0.7989148795037204,1.3258282840395506,-0.47905324493598334,4.257610941620937,2,right
10.331,0.0015912815539644073,1.0488787994268267,0.014279378268916128,-6.243803072370927,-2.578140233385393,0.8128548316153374,1.3166140104276631,-0.4583593101732153,4.210988362313366,2,right
10.335,0.008396887195560861,1.0529888092115691,0.015567631249376351,-6.225949810568167,-2.4844855514913395,0.8270339000098113,1.3070403924333112,-0.4371554081041551,4.162968772020862,2,right
10.335999999999999,0.015029122074017125,1.0570309705748324,0.016834305592187845,-6.20646245018975,-2.3906235639200397,0.8414442411515294,1.29711476456405,-0.41545217733543505,4.113576427816557,2,right
10.339,0.021482647397552828,1.0610072172035578,0.01807798063573491,-6.185338525146789,-2.296623726690682,0.8560774303454013,1.2868445978875542,-0.39326068393211494,4.062836401112641,2,right
10.34,0.027752259873102435,1.0649194274622915,0.01929727362033182,-6.162576149726582,-2.20255379582833,0.87092447734445,1.276237496693315,-0.3705924291506805,4.010774576335546,2,right
10.343,0.033832901673593506,1.0687694169454462,0.020490839953430158,-6.138174083961986,-2.108479794241811,0.8859758434822836,1.2653011950844022,-0.3474593568180805,3.957417648451957,2,right
10.344000000000001,0.039719669575923516,1.0725589311060528,0.021657373306278413,-6.112131800429728,-2.0144659813711225,0.9012214603724634,1.254043553469809,-0.3238738602930778,3.902793119199909,2,right
10.347999999999999,0.0454078232773158,1.076289637938325,0.022795605568748954,-6.08444955241224,-1.9205748253342594,0.9166507502173993,1.2424725549269193,-0.2998487889448204,3.8469292918754916,2,right
10.349,0.050892792919348714,1.0799631207010587,0.023904306688273362,-6.055128443352928,-1.8268669773033548,0.9322526477699924,1.2305963014027035,-0.27539745408220334,3.789855264521934,2,right
10.354000000000001,0.05617018586467582,1.0835808706842767,0.024982284410849622,-6.024170497530066,-1.733401247840191,0.9480156239917958,1.2184230097213158,-0.2505336342662941,3.7316009213642007,2,right
10.355,0.06123579278136567,1.087144280040304,0.02602838392773844,-5.991578731869773,-1.6402345849214879,0.9639277114519944,1.205961007364869,-0.22527157993683403,3.672196922328691,2,right
10.359000000000002,0.06608559309486206,1.0906546347196906,0.027041487415266977,-5.957357228813884,-1.547422053384894,0.9799765315120003,1.1932187279932902,-0.19962601728260138,3.611674690484142,2,right
10.36,0.07071575986812352,1.09411310756811,0.028020513442232654,-5.921511210153742,-1.4550168155273058,0.9961493233409188,1.180204706679832,-0.17361215129108182,3.5500663972955397,2,right
10.360999999999999,0.07512266416592463,1.0975207516465941,0.028964416213360617,-5.884047111736326,-1.3630701125879872,1.0124329748075724,1.1669275748956154,-0.14724566794595023,3.4874049458750287,2,right
10.364,0.07930287895051742,1.1008784938325546,0.029872184618623676,-5.8449726588663395,-1.2716312469413675,1.0288140552406053,1.1533960553795204,-0.12054273560133454,3.423723952942403,2,right
10.365,0.083253182546782,1.104187128750298,0.03074284106346365,-5.80429694183294,-1.1807475652825083,1.0452788497757994,1.139618957086598,-0.09352000559497826,3.359057730500136,2,right
10.365,0.08697056170958754,1.107447313076067,0.0315754400614641,-5.76203049028254,-1.0904644439120352,1.0618133945190948,1.1256051703497796,-0.06619461212720318,3.2934412679294,2,right
10.368,0.09045221432528601,1.1106595602671891,0.032369066580607064,-5.7181853447642395,-1.0008252776857387,1.0784035114813306,1.111363662285191,-0.03858417137004198,3.22691021467878,2,right
10.369000000000002,0.09369555178082735,1.1138242357748576,0.03312283414860242,-5.672775124160129,-0.9118714737386856,1.0950348425137175,1.0969034724130438,-0.010706779735789162,3.15950086341907,2,right
10.373,0.09669820103320381,1.116941552808341,0.03383588274018384,-5.625815088410674,-0.82364245027291,1.1116928819642105,1.0822337084538576,0.017418988773490365,3.091250133475737,2,right
10.373,0.09945800640523514,1.1200115687201568,0.034507376485806374,-5.577322196331209,-0.7361756402426534,1.1283630080478566,1.0673635422591303,0.04577408621477352,3.0221955543480017,2,right
10.378,0.10197303112224076,1.1230341820777983,0.03513650125377789,-5.5273151583891265,-0.6495064996816954,1.1450305129788658,1.052302205834928,0.07433899543125622,2.9523752491209616,2,right
10.379000000000001,0.1042415585918729,1.1260091304794937,0.0357224621663942,-5.475814484306878,-0.5636685204194005,1.1616806319122261,1.0370589874162734,0.10309373593865244,2.8818279175747885,2,right
10.383,0.1062620934192751,1.1289359891593074,0.03626448111612964,-5.422842525351533,-0.4786932469342869,1.17829857074272,1.0216432275496377,0.13201787105202978,2.810592818792686,2,right
10.383,0.10803336214270794,1.131814170411773,0.03676179435097372,-5.368423511167281,-0.39461029709621154,1.1948695328091923,1.0060643151402873,0.16109051633519766,2.7387097530671283,2,right
10.387,0.10955431367154404,1.134642923849515,0.03721365019940638,-5.3125835810029765,-0.31144738655065124,1.2113787445518696,0.990331683420715,0.19029034945520917,2.666219042901797,2,right
10.388,0.11082411941060626,1.1374213374897317,0.03761930700508634,-5.255350809182601,-0.22923035650103124,1.2278114801704372,0.9744548057958895,0.21959562152502263,2.5931615129046603,2,right
10.392000000000001,0.11184217306319581,1.1401483396486067,0.03797803133774267,-5.1967552246623745,-0.1479832046476129,1.2441530853304468,0.9584431915205923,0.24898417001779496,2.5195784683657863,2,right
10.392999999999999,0.11260809011949013,1.1428227016093784,0.038289096540398616,-5.136828824514155,-0.06772811904409243,1.2603889999654483,0.9423063811636649,0.27843343333664333,2.4455116723117265,2,right
10.398,0.1131217070557981,1.1454430410224055,0.038551781665877034,-5.07560558117078,0.01151448536422593,1.2765047802220226,0.9260539418135764,0.30792046712401383,2.371003320826688,2,right
10.399000000000001,0.11338308029092134,1.1480078259953195,0.03876537084687791,-5.013121443265094,0.08972592775403619,1.2924861195946273,0.9096954619793367,0.3374219623950337,2.296096016429193,2,right
10.402999999999999,0.11339248496546123,1.1505153798381007,0.038929153130647806,-4.9494143298905735,0.1668892202199232,1.3083188692968675,0.8932405461404185,0.3669142655793975,2.2208327392915534,2,right
10.404000000000002,0.11315041362519387,1.1529638864402476,0.039042422791885724,-4.88452411810776,0.24298902458014446,1.323989057915457,0.8766988088990175,0.39637340055644604,2.1452568160881964,2,right
10.407,0.11265757489845833,1.1553513962733228,0.03910448012319121,-4.81849262351707,0.3180116074169451,1.339482910392747,0.8600798686876818,0.42577509276813624,2.069411886257757,2,right
10.408,0.1119148922601914,1.157675833030429,0.03911463269853691,-4.751363573715068,0.39194479357304274,1.3547868663832798,0.8433933409850586,0.4550947954945745,1.993341865462811,2,right
10.412,0.11092350297423328,1.1599350009327862,0.03907219711042594,-4.683182574447864,0.4647779183228665,1.3698875980293514,0.8266488309922575,0.4843077183766889,1.9170909060302357,2,right
10.413,0.10968475730312925,1.1621265927494546,0.03897650118552985,-4.613997068272059,0.536501778434045,1.3847720272000625,0.8098559257221131,0.5133888582704514,1.8407033541544136,2,right
10.417,0.10820021807208188,1.1642481985849717,0.03882688667919381,-4.54385628553047,0.6071085823315092,1.3994273422377959,0.7930241854534271,0.5423130325168234,1.7642237036448407,2,right
10.418,0.10647166067107754,1.166297315488232,0.03862271243909354,-4.472811187446891,0.6765918995734213,1.4138410142554716,0.7761631345021118,0.5710549147112922,1.687696545999188,2,right
10.421,0.10450107357430351,1.168271357926324,0.03836335802124489,-4.400914401141229,0.7449466098449558,1.428000813027309,0.7592822512610126,0.5995890730564876,1.611166516582472,2,right
10.422,0.1022906594453428,1.1701676691546412,0.038048227741901454,-4.328220146363644,0.812168851672755,1.4418948225151744,0.7423909574600764,0.627890011380912,1.534678236692724,2,right
10.425999999999998,0.09984283688028954,1.171983533503296,0.037676755153602616,-4.2547841537436994,0.8782559710596525,1.4555114560718898,0.7254986066302564,0.6559322128266697,1.4582762514443284,2,right
10.427,0.0971602428230193,1.1737161895908972,0.03724840793776237,-4.180663574348107,0.9432064702360226,1.4688394713621562,0.7086144719135178,0.6836901858103067,1.3820049641547798,2,right
10.427,0.09424573567187286,1.1753628444689674,0.03676269320672972,-4.105916880338348,1.0070199567208622,1.4818679850409817,0.6917477336475395,0.7111385111435158,1.3059085692789854,2,right
10.431,0.09110239908804023,1.1769206886911994,0.03621916320431892,-4.030603756753693,1.069697092830841,1.4945864872011332,0.6749074673127344,0.7382518888015455,1.2300309866900676,2,right
10.432,0.08773354651258618,1.1783869122915998,0.035617421387750904,-3.9547849856249018,1.1312395455142403,1.506984855462428,0.6581026322702042,0.7650051832245061,1.154415799351416,2,right
10.433,0.0841427263974419,1.1797587216449015,0.034957128868279674,-3.8785223257492616,1.1916499359189492,1.5190533683266725,0.6413420614330324,0.7913734667525689,1.079106195066981,2,right
10.436,0.08033372815546591,1.1810333571636342,0.03423801117801459,-3.801878392637727,1.2509317878423614,1.530782717283282,0.6246344518543645,0.8173320611932621,1.0041449122428474,2,right
10.436,0.07631058884063678,1.182208111750196,0.03345986531032588,-3.724916541961731,1.3090894744658215,1.5421640172875741,0.6079883561840178,0.8428565775976636,0.9295741894429541,2,right
10.442,0.07207760058203168,1.1832803498751612,0.03262256695444847,-3.6477007576988236,1.3661281632375042,1.5531888154809421,0.5914121749454924,0.8679229543211887,0.85543571852271,2,right
10.442,0.06763931880587128,1.1842475271109707,0.0317260778214118,-3.570295544993442,1.42205375902243,1.563849098159009,0.5749141495854037,0.8925074934434911,0.781770601125254,2,right
10.446,0.06300057127471405,1.185107209926216,0.03077045294565432,-3.4927658275118567,1.476872845686698,1.5741372960204427,0.5585023562475361,0.9165868956207518,0.7086193083262244,2,right
10.446,0.05816646793854417,1.1858570955470713,0.029755847850080112,-3.415176849069624,1.5305926262798064,1.5840462877280854,0.5421847002239157,0.9401382934423099,0.6360216432141496,2,right
10.452,0.05314241152576774,1.1864950317163205,0.0286825254803242,-3.3375940793093055,1.5832208619757326,1.593569401813002,0.525968911035525,0.9631392833622153,0.5640167061949234,2,right
10.454,0.047934108715204274,1.1870190362104491,0.027550862828703376,-3.2600831232058782,1.6347658099302718,1.6027004169509909,0.5098625380955304,0.9855679562748245,0.4926428628103098,2,right
10.456,0.042547581639211865,1.1874273159900461,0.026361357156646677,-3.1827096341770913,1.6852361602089692,1.6114335606400094,0.49387294690816297,1.007402926802048,0.42193771386200485,2,right
10.457,0.03698917937903692,1.1877182858468707,0.02511463168342059,-3.1055392305760265,1.7346409719368567,1.6197635063058526,0.47800731575668437,1.0286233613582803,0.3519380676344904,2,right
10.460999999999999,0.031265589025179494,1.1878905863739673,0.02381144056079502,-3.0286374153433377,1.7829896088180806,1.627685368862312,0.4622726328341849,1.0492090050573954,0.28267991401171905,2,right
10.462,0.025383845790587018,1.1879431010306336,0.02245267292518394,-2.952069498597041,1.8302916741704323,1.6351946987508814,0.4466756937712956,1.0691402075244898,0.2141984002845956,2,right
10.465,0.019351341591149568,1.187874972012096,0.021039355826467616,-2.8759005229382995,1.8765569456167288,1.6422874744839364,0.43122309951525123,1.0883979476732901,0.14652780844824076,2,right
10.466,0.013175831456047367,1.18768561457845,0.019572655878092312,-2.8001951912524343,1.9217953095719535,1.6489600937141327,0.4159212545151178,1.1069638575083212,0.07970153379015255,2,right
10.472000000000001,0.006865437109076667,1.1873747294657224,0.01805387954483237,-2.7250177967853335,1.9660166956620677,1.655209362851586,0.40077636516839205,1.1248202450090499,0.01375206457261051,2,right
10.472000000000001,0.0004286470836152509,1.1869423130088872,0.01648447205817375,-2.6504321552765924,2.009231011207422,1.6610324852492042,0.3857944384845966,1.1419501161512862,-0.051289037385004975,2,right
10.475999999999999,-0.006125687182314211,1.186388664657355,0.014866014996251346,-2.57650153893204,2.051448075900741,1.666427047975327,0.3709812809219254,1.1583371961191395,-0.11539115541588249,2,right
10.477,-0.012788359662183307,1.1857143916490807,0.013200222572749267,-2.5032886120198197,2.092677556806748,1.67139100719163,0.35634249735344486,1.1739659497587913,-0.1785246361968257,2,right
10.48,-0.019549822623567605,1.1849204107128781,0.011488936662330428,-2.430855367875905,2.1329289038075863,1.6759226721530078,0.3418834901198254,1.1888216013232555,-0.24066080760745567,2,right
10.481,-0.026400203954311474,1.1840079467719444,0.009734120584693053,-2.3592630671067947,2.17221128561534,1.6800206878449315,0.32760945812605957,1.2028901535551735,-0.30177199644165353,2,right
10.485999999999999,-0.03332932853795424,1.1829785287111458,0.007937851705322706,-2.288572176779202,2.2105335264701163,1.6836840162725377,0.3135253959401264,1.2161584061525041,-0.3618315461525478,2,right
10.487,-0.04032674306952651,1.1818339823396489,0.006102312986965102,-2.218842310388792,2.2479040436393363,1.6869119164144621,0.29963609285207515,1.2286139736597586,-0.42081383480948664,2,right
10.49,-0.04738174357893776,1.1805764207295322,0.00422978370811369,-2.150132168402423,2.284330785831108,1.6897039228531916,0.28594613185253465,1.2402453028251645,-0.47869429344249537,2,right
10.491,-0.054483404902470306,1.1792082321452306,0.0023226296122353766,-2.0824994791709543,2.319821172631781,1.6920598230924535,0.2724598884901988,1.2510416894618515,-0.5354494249466974,2,right
10.494000000000002,-0.061620611401213304,1.1777320658007884,0.0003832927405051188,-2.0160009400124266,2.3543820350750635,1.6939796335709172,0.2591815295813425,1.2609932948308393,-0.5910568236491931,2,right
10.495,-0.06878208835553502,1.1761508156828824,-0.0015857188634063274,-1.9506921582683514,2.388019557447356,1.6954635743802242,0.24611501180972115,1.2700911614713855,-0.6454951953032535,2,right
10.495999999999999,-0.07595643363257433,1.1744676026578378,-0.0035818414756603745,-1.8866275921389446,2.4207392204312743,1.6965120426941183,0.2332640803723005,1.2783272282400984,-0.6987443766694111,2,right
10.5,-0.08313214935921652,1.172685755072905,-0.005602466017630537,-1.8238604911405494,2.4525457457689153,1.6971255849815234,0.22063226789158366,1.2856943442279345,-0.7507853535052594,2,right
10.501,-0.09029767340350597,1.170808788079029,-0.007644948407324898,-1.7624428362027,2.4834430430350656,1.6973048684118401,0.20822289375118672,1.2921862813116085,-0.8016002761168906,2,right
10.501,-0.0974414105130398,1.1688403819143813,-0.00970661997704813,-1.7024252797332842,2.5134341598482415,1.6970506524654834,0.19603906389542428,1.2977977452552256,-0.8511724722235358,2,right
10.504000000000001,-0.10455176300491278,1.1667843593995786,-0.011784797995191438,-1.6438570861547694,2.5425212372561155,1.6963637620981127,0.18408367106956985,1.3025243853653166,-0.8994864572179745,2,right
10.505,-0.11161716093199942,1.1646446629389642,-0.013876796316967728,-1.5867860732475498,2.570705471617981,1.6952450634690805,0.1723593954651485,1.3063628027179117,-0.9465279419686555,2,right
10.509,-0.11862609166868074,1.1624253313730903,-0.015979936166593028,-1.531258554333054,2.5979870835639756,1.6936954426373807,0.16086870573526713,1.3093105569737626,-0.9922838383059042,2,right
10.51,-0.12556712888605967,1.1601304770383432,-0.018091557026234398,-1.477319281162624,2.6243652941968754,1.6917157872904514,0.14961386034564417,1.3113661717952878,-1.036742262330975,2,right
10.514000000000001,-0.13242896092374018,1.1577642633589433,-0.02020902758739717,-1.4250113873483181,2.649838308617431,1.68930697150263,0.13859690922766243,1.312529138876259,-1.0798925356830653,2,right
10.515,-0.13920041860287813,1.1553308832476263,-0.022329756718898773,-1.3743763321762152,2.6744033068516186,1.6864698435188055,0.1278196957004409,1.3127999205926963,-1.1217251848957024,2,right
10.52,-0.1458705025557555,1.1528345385407779,-0.024451204424165904,-1.325453844647363,2.698056442255572,1.683205216557581,0.11728385862959745,1.3121799512808747,-1.1622319389702025,2,right
10.520999999999999,-0.15242841016345182,1.1502794206517375,-0.026570892791010322,-1.2782818675961898,2.7207928474713765,1.6795138626270347,0.10699083479105757,1.310671637145782,-1.2014057252901396,2,right
10.525,-0.15886356218974898,1.147669692595476,-0.02868641696070306,-1.2328965017410078,2.7426066480042754,1.6753965093449235,0.09694186140895293,1.3082783548008141,-1.2392406639969795,2,right
10.526,-0.1651656291756672,1.1450094725133404,-0.030795456140103473,-1.1893319495261458,2.7634909834892385,1.6708538397539574,0.08713797883734598,1.3050044484369276,-1.275732060943229,2,right
10.529000000000002,-0.17132455761957502,1.1423028187997846,-0.032895784643450963,-1.1476204586202767,2.7834380367121847,1.6658864951215413,0.07758003335621404,1.3008552256169241,-1.3108763993356234,2,right
10.529000000000002,-0.17733059591932832,1.1395537168991814,-0.03498528289007914,-1.1077922649406355,2.8024390704485165,1.6604950807121568,0.06826868005282746,1.2958369516880044,-1.3446713301770334,2,right
10.534,-0.18317432000157494,1.1367660677990403,-0.037061948221941914,-1.069875535078046,2.820484472178941,1.6546801745193345,0.059204385760359385,1.2899568428031944,-1.3771156616119127,2,right
10.536,-0.18884665851415833,1.1339436781989893,-0.03912390535759562,-1.033896308002995,2.8375638067398654,1.64844233894295,0.0503874320262712,1.283223057539738,-1.4082093472762403,2,right
10.539000000000001,-0.19433891741325318,1.1310902522901183,-0.04116941627121008,-0.9998784359384013,2.8536658769629257,1.6417821353963566,0.0418179180837258,1.275644687100057,-1.437953473749041,2,right
10.539000000000001,-0.1996428037381875,1.1282093850452943,-0.043196889269932495,-0.9678435242902069,2.868778792355465,1.634700141826651,0.03349576379998975,1.267231744078404,-1.4663502471986876,2,right
10.544,-0.2047504483358743,1.1253045569024744,-0.04520488703506721,-0.9378108705324874,2.8828900458710134,1.6271969731301508,0.02542071257649592,1.257995149773883,-1.4934029793133083,2,right
10.545,-0.20965442727857406,1.122379129719835,-0.047192133394938246,-0.9097974019494001,2.895986598815988,1.6192733044439573,0.01759233417594844,1.2479467200280858,-1.5191160726007558,2,right
10.548,-0.2143477817184105,1.1194363438901616,-0.04915751861692795,-0.8838176121419866,2.9080549739360055,1.6109298972932582,0.0100100274525622,1.2370991495632055,-1.543495005139716,2,right
10.549000000000001,-0.21882403594088765,1.1164793165162585,-0.051100103046150605,-0.8598834962135888,2.9190813567223204,1.6021676285728135,0.002673022962238336,1.2254659947941131,-1.5665463148596872,2,right
10.552999999999999,-0.22307721341347964,1.1135110405622655,-0.05301911897408896,-0.8380044845534353,2.9290517049759752,1.5929875223398697,-0.004419614569814309,1.2130616550855602,-1.5882775834237013,2,right
10.555,-0.22710185066506217,1.110534384902913,-0.05491397068147792,-0.8181873751437883,2.9379518666643145,1.5833907843945303,-0.011268983945795426,1.199901352423375,-1.608697419783844,2,right
10.559000000000001,-0.23089300886734698,1.1075520951929854,-0.05678423265504432,-0.8004362643219196,2.945767706101494,1.5733788396224158,-0.01787634537744641,1.1860011094662628,-1.6278154434758012,2,right
10.56,-0.23444628301509196,1.1045667954753575,-0.058629646023065016,-0.7847524759340734,2.9524852384816116,1.5629533720732447,-0.024243118573978116,1.1713777259426092,-1.645642267714885,2,right
10.564,-0.2377578086195299,1.1015809904428566,-0.06045011328877273,-0.7711344888244979,2.958090772789979,1.5521163677477698,-0.030370881046562364,1.15604875338574,-1.6621894823350218,2,right
10.565,-0.24082426584636782,1.098597068272723,-0.06224569145798458,-0.759577862608553,2.9625710631149773,1.540870160064308,-0.03626136659491161,1.1400324683550762,-1.6774696365224728,2,right
10.565,-0.24364288105029389,1.0956173039625612,-0.06401658365826281,-0.7500751616848366,2.965913468379747,1.5292174779749217,-0.04191646386059086,1.1233478445695633,-1.691496221137579,2,right
10.569,-0.24621142567787369,1.0926438631033382,-0.0657631293484886,-0.742615877671491,2.9681061201753343,1.5171614965767235,-0.047338214786469685,1.1060145245338329,-1.7042836503281797,2,right
10.57,-0.24852821252569393,1.0896788060241203,-0.06748579322887142,-0.7371863515792343,2.9691380967013257,1.5047058894455898,-0.052528812865590795,1.0880527910794777,-1.7158472422206839,2,right
10.571,-0.25059208935652266,1.0867240922427004,-0.06918515297075382,-0.7337696990581927,2.968999597806547,1.4918548808077867,-0.05749060114224535,1.0694835389608852,-1.7262031986259452,2,right
10.573,-0.25240242990373957,1.0837815851556383,-0.07086188589782791,-0.7323457431829371,2.9676821144467644,1.4786132950468491,-0.06222606997192499,1.0503282464871069,-1.7353685837795165,2,right
10.574000000000002,-0.2539591223384455,1.0808530568927293,-0.0725167547845955,-0.7328909581244903,2.965178587545317,1.4649866016589073,-0.06673785455506688,1.0306089471382065,-1.743361302149532,2,right
10.578,-0.25526255533038045,1.0779401932495838,-0.0741505929864269,-0.7353784250452036,2.9614835542494715,1.4509809548791461,-0.07102873225885112,1.0103482011127887,-1.750200075342006,2,right
10.579,-0.2563136018919621,1.075044598607878,-0.07576428915617987,-0.7397778004366536,2.9565932812442313,1.436603227817968,-0.07510161974065974,0.9895690667517288,-1.7559044181299195,2,right
10.584000000000001,-0.2571136012434517,1.0721678007563904,-0.07735877182833471,-0.7460552969020718,2.9505058851163946,1.4218610410677226,-0.07895956988616455,0.9682950717815029,-1.7604946136290909,2,right
10.585,-0.2576643389723128,1.069311255533431,-0.07893499416352073,-0.7541736763903811,2.9432214397582404,1.4067627857397893,-0.08260576857437667,0.9465501843189649,-1.763991687640523,2,right
10.588,-0.2579680257834015,1.0664763512207538,-0.08049391914266124,-0.7640922558944094,2.934742070796785,1.3913176408907206,-0.08604353128136454,0.9243587835779289,-1.7664173821756552,2,right
10.589,-0.2580272751523518,1.0636644126285888,-0.08203650548163527,-0.7757669256312313,2.925072037031126,1.3755355852951183,-0.08927629953373024,0.9017456302164923,-1.7677941281777525,2,right
10.593,-0.2578450802054128,1.0608767048187255,-0.083563694506914,-0.789150179727874,2.9142177988569533,1.3594274035218843,-0.09230763722232586,0.8787358362626861,-1.7681450174495241,2,right
10.593,-0.25742479015755987,1.0581144364164767,-0.0850763981923304,-0.804191159440784,2.9021880736538734,1.343004686269502,-0.0951412267860929,0.8553548345547539,-1.7674937737939906,2,right
10.597999999999999,-0.25677008664795253,1.055378762463398,-0.08657548851049232,-0.8208357089424917,2.888993878107782,1.326279824915033,-0.09778086527531947,0.8316283476311562,-1.7658647233725995,2,right
10.599,-0.25588496031701496,1.052670786763057,-0.08806178820296162,-0.8390264437138102,2.874648557437131,1.3092660002305774,-0.10023046030303141,0.8075823560042503,-1.763282764281653,2,right
10.603,-0.2547736879703141,1.049991563675759,-0.0895360630220061,-0.8587028315846615,2.8591678014885433,1.2919771652200482,-0.10249402589266547,0.7832430657505343,-1.7597733353452298,2,right
10.604000000000001,-0.25344081066688023,1.04734209932889,-0.09099901544346561,-0.8798012864712195,2.8425696476639013,1.2744280220282413,-0.10457567822961628,0.7586368753493515,-1.7553623841199693,2,right
10.607999999999999,-0.2518911130497558,1.0447233522294954,-0.09245127979792159,-0.9022552748614986,2.824874470637744,1.2566339928733554,-0.10647963132370243,0.7337903417010346,-1.7500763341043613,2,right
10.609000000000002,-0.2501296042032794,1.0421362332946906,-0.09389341872076831,-0.9259954351057766,2.8061049588205336,1.2386111849533281,-0.10821019258906342,0.7087301452546256,-1.7439420511425134,2,right
10.613,-0.2481615002749111,1.0395816053507352,-0.0953259207851108,-0.950949709572317,2.7862860775201432,1.2203763492756052,-0.10977175834747653,0.6834830541745427,-1.7369868090097815,2,right
10.614,-0.24599220903952704,1.0370602821880928,-0.09674919915819516,-0.9770434897327451,2.765445018750802,1.201946833359262,-0.1111688092605722,0.6580758874748706,-1.7292382541651352,2,right
10.619000000000002,-0.24362731651506478,1.0345730272921894,-0.09816359111602828,-1.004199774245126,2.7436111376356105,1.183340527757738,-0.11240590569592927,0.6325354770493461,-1.7207243696526957,2,right
10.619000000000002,-0.2410725756677627,1.0321205523931285,-0.0995693582641386,-1.0323393401062657,2.7208158753457665,1.164575806349837,-0.11348768303154531,0.6068886285245647,-1.711473438132525,2,right
10.622,-0.2383338971783934,1.029703515986947,-0.1009666873419696,-1.0613809269480319,2.697092668516681,1.1456714603460905,-0.11441884690270537,0.5811620808634791,-1.7015140040184655,2,right
10.623,-0.23541734217816643,1.0273225219726434,-0.10235569152399826,-1.0912414345555395,2.67247684507834,1.1266466259570695,-0.115204168394813,0.5553824646458754,-1.6908748346986384,2,right
10.627,-0.23232911680231758,1.024978118524938,-0.10373641215947656,-1.1218361336878577,2.6470055064344895,1.1075207056697842,-0.11584847918530128,0.5295762589522107,-1.6795848808120781,2,right
10.628,-0.22907556834988155,1.0226707972871483,-0.10510882090644973,-1.1530788902844946,2.620717395922582,1.0883132830778999,-0.1163566666373092,0.5037697467769617,-1.667673235552961,2,right
10.632,-0.22566318278737219,1.0204009929274818,-0.10647282221444652,-1.1848824031432537,2.593652753483833,1.0690440312111615,-0.1167336688485388,0.4779889689704597,-1.655169093017223,2,right
10.633,-0.22209858331396673,1.018169083065126,-0.10782825610296817,-1.2171584551571677,2.5658531564703164,1.0497326143091241,-0.11698446966404913,0.4522596770729941,-1.6421017058309946,2,right
10.633,-0.21838852972059733,1.0159753885470462,-0.10917490117919784,-1.2498181782000775,2.537361346513648,1.0303985829840532,-0.11711409367169417,0.4266072860617501,-1.6285003427061884,2,right
10.637,-0.2145399182849167,1.013820174038907,-0.11051247783630416,-1.28277233129771,2.5082210427662837,1.0110612629622826,-0.11712760120427994,0.40105682839610424,-1.6143942467933636,2,right
10.638,-0.21055978192910227,1.0117036488802833,-0.11184065157021732,-1.3159315894509063,2.4784767437676516,0.9917396388161936,-0.11703008336640876,0.375632910382064,-1.5998125954738929,2,right
10.639000000000001,-0.20645529036129137,1.0096259681483764,-0.11315903635410925,-1.3492068363899192,2.4481735236833844,0.9724522363003126,-0.11682665709328846,0.35035967122007217,-1.5847844618242106,2,right
10.642000000000001,-0.2022337499215169,1.0075872338723668,-0.11446719801538979,-1.3825094522679822,2.4173568306073774,0.9532170081280124,-0.11652246024270535,0.3252607447358054,-1.569338777756982,2,right
10.642999999999999,-0.19790260282346514,1.0055874963354345,-0.11576465756261074,-1.4157515895745056,2.3860722926713347,0.9340512268023492,-0.1161226467198919,0.3003592237209831,-1.5535042987973706,2,right
10.645999999999999,-0.19346942544678214,1.0036267553984932,-0.11705089441493877,-1.44884643463742,2.354365534206852,0.914971385913266,-0.11563238163471602,0.2756776268116339,-1.5373095704512898,2,right
10.647,-0.1889419253367136,1.0017049617872622,-0.11832534950475176,-1.48170845435583,2.3222820022602746,0.895993110090538,-0.11505683649032857,0.2512378678317669,-1.520782896121332,2,right
10.652000000000001,-0.18432793660644475,0.9998220183017835,-0.11958742825128527,-1.514253628258291,2.289866803370555,0.877131073557441,-0.11440118440213214,0.22706122753096092,-1.503952306524951,2,right
10.652999999999999,-0.17963541349037454,0.9979777809298933,-0.12083650342893447,-1.5463996659815928,2.2571645505191245,0.8583989272303644,-0.11367059534567377,0.20316832764501572,-1.4868455305684287,2,right
10.657,-0.1748724218564714,0.9961720598689414,-0.12207191796999177,-1.5780662102642795,2.2242192201597084,0.839809234309878,-0.11287023143181933,0.17957910720950115,-1.4694899676292148,2,right
10.657,-0.17004712855368398,0.9944046204798866,-0.12329298774704052,-1.6091750255482147,2.1910740192350575,0.8213734143091013,-0.1120052422073371,0.15631280105679643,-1.4519126611983477,2,right
10.661,-0.16516778854515585,0.9926751842142514,-0.12449900437636824,-1.6396501722803716,2.157771262086751,0.8031016954655857,-0.11108075997880304,0.1333879204280243,-1.4341402738338744,2,right
10.661,-0.16024272985567783,0.990983429566928,-0.12568923807202578,-1.6694181670056476,2.124352257163514,0.7850030754833328,-0.11010189515753947,0.11082223563215579,-1.416199063375467,2,right
10.665,-0.15528033643702027,0.9893289931133865,-0.12686294056436712,-1.6984081283399053,2.0908572034329334,0.7670852905520089,-0.1090737316231134,0.0886327606854878,-1.3981148603697995,2,right
10.665999999999999,-0.15028902912284536,0.9877114706855774,-0.12801934808225082,-1.7265519089106303,2.057325096400978,0.7493547925908862,-0.10800132210274971,0.06683573986567452,-1.3799130466556873,2,right
10.671,-0.14527724490267752,0.9861304187280062,-0.12915768438667763,-1.7537842133505688,2.0237936436434154,0.7318167346655338,-0.10688968356385813,0.045446636115524276,-1.361618535057501,2,right
10.672,-0.14025341478987924,0.984585355858558,-0.13027716383501353,-1.780042702427477,1.9902991897529856,0.7144749645258003,-0.10574379261673118,0.02448012123285211,-1.3432557501349636,2,right
10.675999999999998,-0.13522594059117532,0.9830757646419039,-0.13137699444856904,-1.8052680833906956,1.9568766506060806,0.6973320262141636,-0.10456858092434336,0.003950067783804783,-1.324848609937092,2,right
10.677,-0.13020317090591932,0.981601093568339,-0.1324563809510242,-1.8294041866126403,1.9235594568526835,0.680389169694073,-0.10336893061606844,-0.016130457321755734,-1.3064205087077798,2,right
10.681,-0.1251933766925351,0.9801607592179485,-0.13351452773947867,-1.8523980286005177,1.8903795065334212,0.6636463684484735,-0.10214966970203422,-0.035749197653011516,-1.287994300490324,2,right
10.681,-0.12020472673789089,0.9787541485797973,-0.13455064174458956,-1.8741998614506123,1.8573671267277911,0.6471023449992652,-0.10091556748474861,-0.05489471053803986,-1.269592283578065,2,right
10.685,-0.11524526335537533,0.97738062148877,-0.1355639351347461,-1.8947632088143642,1.8245510441379125,0.6307546042990274,-0.09967132996456164,-0.07355636885841603,-1.2512361857582517,2,right
10.686,-0.1103228786220866,0.9760395131387787,-0.13655362782412073,-1.9140448884421872,1.7919583645125574,0.6145994749469054,-0.0984215952354707,-0.09172436141490234,-1.2329471502962448,2,right
10.69,-0.10544529144541996,0.9747301366306952,-0.13751894975541937,-1.9320050213675573,1.7596145608166862,0.5986321581811289,-0.09717092886773417,-0.10938969191920049,-1.214745722607243,2,right
10.690999999999999,-0.10062002572362266,0.9734517855170091,-0.1384591429430031,-1.9486070277903544,1.7275434700522703,0.5828467846011923,-0.09592381927372884,-0.1265441766653563,-1.1966518375628432,2,right
10.696,-0.0958543898326276,0.9722037363125484,-0.13937346327861286,-1.9638176097147582,1.6957672986368313,0.5672364785732744,-0.09468467305347104,-0.143180440932989,-1.1786848073799412,2,right
10.697000000000001,-0.09115545763256346,0.9709852509501078,-0.1402611821190136,-1.977606720393215,1.6643066362468293,0.5517934302730189,-0.0934578103162181,-0.15929191417307512,-1.1608633100397256,2,right
10.7,-0.08653005114370182,0.969795579169091,-0.14112158769011288,-1.9899475206241004,1.6331804780338186,0.5365089753203113,-0.09224745997976591,-0.17487282402628332,-1.1432053782047789,2,right
10.7,-0.08198472499598886,0.9686339608326698,-0.1419539863502361,-2.0008163219467043,1.602406255122131,0.5213736819611908,-0.09105775507502568,-0.18991818922602743,-1.1257283887023917,2,right
10.7,-0.0775257527124661,0.967499628174406,-0.14275770375408142,-2.0101925167730963,1.5719998732977487,0.5063774457525165,-0.08989272813019726,-0.2044238114434836,-1.1084490528221518,2,right
10.705,-0.07315911485090833,0.9663918079797679,-0.14353208595472877,-2.0180584957399765,1.5419757596650945,0.49150959151160223,-0.0887563067348487,-0.2183862661339541,-1.0913834077760638,2,right
10.706,-0.06889048900287066,0.9653097237114264,-0.1442765004790616,-2.0243995537979274,1.5123469163800187,0.47675898132418626,-0.08765230935832616,-0.23180289243876442,-1.0745468095702473,2,right
10.706,-0.06472524163039532,0.9642525975879561,-0.1449903374082107,-2.029203788780549,1.4831249793632844,0.4621141256597967,-0.08658444145028886,-0.24467178218874722,-1.0579539273582899,2,right
10.71,-0.06066842170011078,0.9632196526245538,-0.14567301048727377,-2.0324619974301696,1.4543202792304926,0.4475632936746646,-0.08555629182530176,-0.25699176805014906,-1.0416187392472134,2,right
10.710999999999999,-0.056724756048339146,0.9622101146451388,-0.14632395828275038,-2.0341675726139026,1.4259419023449806,0.43309461975195107,-0.08457132932832234,-0.2687624108514988,-1.0255545295077162,2,right
10.714,-0.052898646383191174,0.9612232142777749,-0.14694264540380517,-2.034316403230073,1.3979977511064157,0.41869620507405775,-0.08363289977802144,-0.27998398612840353,-1.0097738871410558,2,right
10.715,-0.04919416780902181,0.9602581889465132,-0.14752856380164436,-2.032906777062061,1.370494603258464,0.4043562139913389,-0.08274422318499226,-0.2906574699216631,-0.9942887057556732,2,right
10.720999999999998,-0.04561506874835943,0.9593142848707236,-0.1480812341582339,-2.029939286584457,1.3434381701340306,0.3900629651456263,-0.081908391242025,-0.30078452386251814,-0.9791101847074388,2,right
10.722000000000001,-0.04216477213262939,0.9583907590782719,-0.14860020737133742,-2.0254167377219505,1.3168331537578062,0.3758050173071763,-0.0811283650837582,-0.3103674795772703,-0.9642488314582115,2,right
10.725,-0.03884637773100266,0.9574868814335235,-0.14908506613709385,-2.0193440615569,1.2906833027271247,0.36157124988382117,-0.08040697331316074,-0.3194093224419398,-0.9497144651082489,2,right
10.725999999999999,-0.03566266548513403,0.9566019366775562,-0.14953542662312133,-2.0117282289770744,1.2649914667934166,0.3473509380612377,-0.07974691029244942,-0.327913674716058,-0.9355162210588892,2,right
10.73,-0.032616099717403105,0.9557352264768106,-0.14995094021417915,-2.002578168250577,1.2397596500678356,0.33313382253335133,-0.0791507346962078,-0.33588477808313033,-0.9216625567628329,2,right
10.731,-0.029708834082453964,0.9548860714766789,-0.15033129530095135,-1.9919046855105242,1.2149890627759459,0.31891017378196224,-0.07862086832463937,-0.3433274756237535,-0.9081612585202898,2,right
10.734000000000002,-0.02694271713612975,0.9540538133576495,-0.15067621907449485,-1.9797203881276193,1.1906801714876645,0.3046708508647191,-0.07815959517506453,-0.3502471932458244,-0.8950194492802231,2,right
10.735,-0.024319298401835096,0.9532378168938702,-0.15098547928620926,-1.9660396109443614,1.166832747749981,0.29040735467057954,-0.07776906076995405,-0.35664992059475287,-0.882243597406908,2,right
10.739,-0.021839834822030574,0.9524374720174715,-0.15125888593360012,-1.9508783453402494,1.1434459150512943,0.2761118756018759,-0.07745127173998152,-0.3625421914650685,-0.8698395263730356,2,right
10.741,-0.019505297492142866,0.9516521958957961,-0.15149629283308888,-1.9342541710930161,1.1205181940475344,0.26177733564206185,-0.07720809566077462,-0.3679310637333142,-0.8578124253416228,2,right
10.744000000000002,-0.01731637858500636,0.9508814350312578,-0.1516975990436804,-1.9161861909966214,1.0980475459815566,0.24739742476814883,-0.07704126114224728,-0.3728240988306331,-0.8461668606000385,2,right
10.745,-0.015273498384446318,0.950124667393709,-0.15186275011098807,-1.8966949681924874,1.0760314142286254,0.232966631666749,-0.07695235816960415,-0.3772293407719922,-0.834906787810525,2,right
10.749,-0.013376812355216722,0.949381404592898,-0.1519917391080007,-1.8758024661662636,1.0544667639021155,0.21848026871253234,-0.07694283869532222,-0.38115529475753834,-0.8240355650426726,2,right
10.749,-0.011626218183225737,0.9486511940947657,-0.1520846074539403,-1.8535319913582582,1.0333501194548735,0.20393449116777637,-0.07701401748163399,-0.3846109053601607,-0.8135559665544023,2,right
10.754000000000001,-0.010021362727084303,0.9479336214807103,-0.15214144549590747,-1.8299081383315918,1.0126776002129867,0.1893263105615424,-0.07716707319325988,-0.3876055343119341,-0.8034701972891156,2,right
10.755,-0.008561648832518741,0.9472283127437613,-0.15216239284367541,-1.8049567374381048,0.9924449537800011,0.17465360220685466,-0.07740304974036524,-0.39014893790073946,-0.7937799080577881,2,right
10.759,-0.007246241975805018,0.9465349366105195,-0.15214763845790855,-1.7787048049180936,0.972647587250921,0.15991510681408969,-0.0777228578719491,-0.3922512439870091,-0.7844862113759058,2,right
10.76,-0.006074076718528645,0.9458532068740549,-0.15209742050222597,-1.7511804953660668,0.9532805961765914,0.14511042615860598,-0.07812727702010651,-0.39392292864922046,-0.7755896979262752,2,right
10.765,-0.0050438629705343825,0.9451828847215661,-0.1520120259750463,-1.722413056490902,0.9343387912203303,0.13024001276046068,-0.07861695739584441,-0.39517479246546694,-0.7670904536198708,2,right
10.765999999999998,-0.004154092069686764,0.9445237810408571,-0.15189179013776685,-1.6924327860950457,0.9158167224499297,0.11530515353387234,-0.07919242233737142,-0.3960179364371669,-0.7589880772280234,2,right
10.767999999999999,-0.003403042696019866,0.9438757586906079,-0.15173709575340305,-1.6612709911937524,0.8977087012093776,0.1003079473639007,-0.07985407090803433,-0.3964637375765345,-0.7512816985532721,2,right
10.769,-0.0027887866432668874,0.9432387347212203,-0.15154837214570857,-1.6289599491917843,0.8800088195158718,0.08525127656762796,-0.08060218072136664,-0.3965238242622102,-0.743969997071752,2,right
10.769,-0.0023091944727027303,0.942612682536059,-0.15132609408464434,-1.5955328710315198,0.8627109669289077,0.07013877219694196,-0.08143691093504715,-0.39621005161744544,-0.7370512209170521,2,right
10.773,-0.001961941076614794,0.941997633985594,-0.1510707805014423,-1.5610238661909837,0.8458088448934855,0.0549747732666845,-0.08235830533586176,-0.39553447724807833,-0.7305232060410224,2,right
10.775,-0.0017445111833335656,0.9413936813875488,-0.15078299303575737,-1.5254679092469017,0.8292959788310522,0.039764280625960005,-0.08336629545796193,-0.3945093375924458,-0.7243833954237384,2,right
10.776,-0.001654204838816247,0.9408009794650151,-0.15046333441807197,-1.4889008074264214,0.8131657287396605,0.02451290733180208,-0.08446070371287524,-0.39314702498313464,-0.7186288582700278,2,right
10.777999999999999,-0.0016881429018890425,0.9402197471927977,-0.15011244669296775,-1.451359168407912,0.7974112993363597,0.009226828018449809,-0.08564124652992466,-0.3914600654354558,-0.7132563091666816,2,right
10.779000000000002,-0.0018432725951508357,0.9396502695408392,-0.14973100929327454,-1.4128803677883792,0.7820257505055551,-0.0060872708788472655,-0.08690753750995156,-0.38946109715972227,-0.7082621271827066,2,right
10.784,-0.0021163731568054596,0.9390928991031413,-0.1493197369793113,-1.3735025159203689,0.7670020083314608,-0.021422239328254388,-0.08825909059548608,-0.38716284979344406,-0.7036423748960786,2,right
10.785,-0.002504061634351182,0.9385480576004526,-0.1488793776596909,-1.3332644239785647,0.7523328767234477,-0.03677051025106533,-0.0896953232607551,-0.38457812434862126,-0.6993928173315552,2,right
10.788,-0.003002798851349249,0.9380162372440143,-0.14841071011172946,-1.2922055691456262,0.7380110495900766,-0.05212414446068259,-0.09121555972516487,-0.38171977386842104,-0.6955089407951958,2,right
10.788,-0.0036088955684810704,0.9374980019467674,-0.1479145416214586,-1.2503660588042234,0.7240291235186396,-0.06747487403490102,-0.0928190341941393,-0.37860068478666237,-0.6919859715923039,2,right
10.792,-0.004318518851832219,0.9369939883693448,-0.14739170556464845,-1.207786593619763,0.7103796109180547,-0.08281414416556931,-0.09450489413143867,-0.3752337589827124,-0.688818894616578,2,right
10.793,-0.0051276986547969675,0.9365049067908181,-0.14684305895067684,-1.1645084293959413,0.6970549535839545,-0.09813315352971852,-0.09627220356732417,-0.3716318965236097,-0.6860024717992989,2,right
10.798,-0.006032334614968197,0.93603154179706,-0.14626947995147146,-1.1205733375830174,0.6840475366457864,-0.11342289322623761,-0.09811994644717291,-0.36780797908448276,-0.6835312604084274,2,right
10.799000000000001,-0.007028203063657274,0.9355747527818505,-0.14567186543799424,-1.0760235643165748,0.6713497028566972,-0.12867418432214278,-0.1000470300253843,-0.36377485403761917,-0.6813996311884996,2,right
10.802999999999999,-0.008110964242531426,0.9351354742583313,-0.1450511285442304,-1.0309017878625377,0.6589537671879052,-0.1438777140524288,-0.10205228830965264,-0.359545319199865,-0.6796017863332179,2,right
10.804,-0.009276169718884812,0.9347147159822335,-0.14440819627204188,-0.9852510743423148,0.6468520316901806,-0.15902407071740565,-0.10413448556091176,-0.3551321082273988,-0.6781317772836268,2,right
10.808,-0.010519269989144325,0.9343135628925251,-0.14374400714259872,-0.9391148316101877,0.6350368005859355,-0.17410377732131357,-0.10629231985448497,-0.35054787664631987,-0.6769835223457378,2,right
10.809000000000001,-0.011835622259513418,0.9339331748781448,-0.1430595088947355,-0.8925367611534109,0.6235003955563012,-0.18910732399587168,-0.10852442670819853,-0.3458051885069289,-0.6761508241224237,2,right
10.812000000000001,-0.013220498391188242,0.9335747863813775,-0.14235565622699575,-0.8455608078839743,0.6122351711884078,-0.20402519925225152,-0.11082938278343725,-0.34091650364905013,-0.6756273867553493,2,right
10.812999999999999,-0.014669092993683316,0.9332397058490309,-0.14163340857714474,-0.7982311076895873,0.6012335305489087,-0.2188479201047747,-0.11320570966533809,-0.33589416556525264,-0.6754068329736245,2,right
10.818,-0.016176531644461797,0.9329293150409308,-0.14089372793214627,-0.7505919326101713,0.5904879408505936,-0.23356606110941563,-0.11565187772853122,-0.3307503898483732,-0.6754827209467749,2,right
10.819,-0.01773787920880481,0.9326450682022438,-0.14013757666440116,-0.7026876335050062,0.5799909491797091,-0.24817028235994423,-0.11816631009504647,-0.32549725320932327,-0.6758485609405119,2,right
10.822000000000001,-0.019348148232686165,0.9323884911044654,-0.13936591539457677,-0.654562580074661,0.5697351982523682,-0.262651356484269,-0.12074738669120892,-0.32014668305077904,-0.676497831774656,2,right
10.823,-0.021002307383562745,0.9321611799601419,-0.13857970088515256,-0.6062610981009496,0.5597134421691634,-0.2770001946832432,-0.123393448410547,-0.3147104475820032,-0.6774239970834154,2,right
10.828,-0.022695289917871037,0.9319648002166248,-0.1377798839705688,-0.5578274037673909,0.5499185621378098,-0.29120787185386693,-0.12610280138993316,-0.30920014645973415,-0.6786205213790584,2,right
10.83,-0.02442200215777422,0.9318010852336486,-0.13696740752784606,-0.5093055349220179,0.5403435821343439,-0.3052656508384664,-0.1288737214063681,-0.30362720193979587,-0.6800808859208312,2,right
10.832,-0.0261773319629498,0.9316718348491819,-0.1361432044852881,-0.46073927914387397,0.5309816844740716,-0.31916500584105184,-0.13170445840200665,-0.29800285052383824,-0.6817986043917653,2,right
10.833,-0.027956157187161525,0.9315789138373719,-0.13530819586028972,-0.4121720984741541,0.5218262252641115,-0.33289764505164976,-0.13459324114520432,-0.2923381350854013,-0.6837672383868005,2,right
10.835999999999999,-0.029753354114541764,0.9315242502600284,-0.13446328881512373,-0.36364705067269476,0.5128707497100136,-0.34645553251897515,-0.1375382820355416,-0.28664389745931895,-0.6859804127164022,2,right
10.837,-0.03156380587537772,0.9315098337093272,-0.13360937472177906,-0.31520670686038865,0.5041090072495441,-0.35983090931135536,-0.14053778205379386,-0.2809307714782209,-0.6884318305211653,2,right
10.838,-0.033382410844121524,0.9315377134363354,-0.13274732722986265,-0.26689306540809593,0.4955349664873225,-0.37301631400533874,-0.1435899358221862,-0.2752091764392359,-0.6911152881464612,2,right
10.842,-0.03520409102293571,0.931609996358307,-0.13187800033354127,-0.21874746193274403,0.4871428299045685,-0.38600460254091873,-0.14669293667599848,-0.26948931098294626,-0.6940246896420122,2,right
10.843,-0.037023800412494284,0.931728844935621,-0.13100222643495127,-0.1708104752615509,0.4789270483187782,-0.3987889674817826,-0.14984498161194518,-0.2637811473660483,-0.6971540607048109,2,right
10.843,-0.038836533369188755,0.9318964749059472,-0.13012081440208637,-0.12312182940062184,0.47088233507716737,-0.4113629566995938,-0.15304427601470416,-0.25809442610968863,-0.7004975619316179,2,right
10.847000000000001,-0.04063733294652811,0.9321151528615014,-0.1292345476184301,-0.0757202924194215,0.46300368001066466,-0.4237204914064919,-0.15628903812754769,-0.25243865100642,-0.7040495013328032,2,right
10.847999999999999,-0.042421299219185235,0.9323871936567907,-0.12834418202126197,-0.028643574737806612,0.45528636325209365,-0.43585588328973796,-0.15957750326896755,-0.2468230844692914,-0.7078043461070725,2,right
10.850999999999999,-0.04418359758983678,0.9327149576363929,-0.12745044412779052,0.018071769822215342,0.4477259690650933,-0.4477638504075671,-0.16290792780448107,-0.24125674320675694,-0.7117567336866772,2,right
10.852,-0.04591946708117184,0.9331008476730909,-0.1265540290532881,0.06439043773178241,0.44031839978838744,-0.45943953159895157,-0.16627859288293595,-0.23574839420717508,-0.7159014820632944,2,right
10.856,-0.04762422861829591,0.9335473060083161,-0.12565559853385208,0.11027846328296598,0.4330598899241242,-0.47087849932901066,-0.16968780794675634,-0.23030655101678682,-0.720233599405355,2,right
10.857000000000001,-0.04929329330910971,0.9340568108916789,-0.12475577897958531,0.15570329990822077,0.42594702035704224,-0.48207677098541324,-0.17313391402569467,-0.2249394702952003,-0.7247482929781632,2,right
10.860999999999999,-0.0509221707302878,0.9346318730225603,-0.12385515959618218,0.20063389542448518,0.41897673268317426,-0.4930308186593038,-0.17661528682376806,-0.2196551486325761,-0.7294409773787018,2,right
10.860999999999999,-0.052506477223304406,0.9352750317997457,-0.12295429061217658,0.2450407613336858,0.41214634362723024,-0.5037375774436063,-0.18013033960916966,-0.21446131961289847,-0.7343072820975591,2,right
10.866,-0.05404194419848256,0.9359888513825654,-0.12205368163375886,0.28889603631007277,0.40545355952821927,-0.5141944522808651,-0.1836775259170512,-0.2093654511079316,-0.7393430584209366,2,right
10.867,-0.05552442643544228,0.9367759165611419,-0.12115380012961617,0.3321735440033961,0.39889649087328094,-0.5243993233920878,-0.18725534207517444,-0.20437474278669635,-0.7445443856862083,2,right
10.870999999999999,-0.056949910356759406,0.9376388284280069,-0.12025507003191581,0.3748488452854323,0.39247366686009894,-0.5343505503173388,-0.19086232956252588,-0.19949612382556414,-0.7499075769050034,2,right
10.872,-0.0583145222415907,0.9385801998408516,-0.11935787043116741,0.4168992850657887,0.3861840499686672,-0.5440469745981212,-0.19449707721108178,-0.19473625080434337,-0.7554291837682715,2,right
10.875,-0.059614536341604754,0.9396026506667788,-0.118462534349515,0.45830403380125917,0.38002705052356756,-0.5534879211308588,-0.1981582232609982,-0.19010150577403728,-0.7611060010482602,2,right
10.877,-0.060846382863702274,0.940708802801757,-0.11756934759615331,0.499044123821275,0.374002541228307,-0.562673198220061,-0.20184445727958514,-0.18559799448227196,-0.7669350704128098,2,right
10.88,-0.06200665578952599,0.9419012749649784,-0.11667854772597362,0.5391024805902076,0.3681108716536432,-0.5716030963590278,-0.20555452195450366,-0.18123154474273476,-0.7729136836678159,2,right
10.880999999999998,-0.06309212050646372,0.9431826772757832,-0.1157903231300054,0.5784639490254262,0.3623528826622124,-0.5802783857652134,-0.20928721477169995,-0.17700770493532136,-0.7790393854441637,2,right
10.886,-0.06409972122714344,0.9445556056282975,-0.11490481228535093,0.6171153149881092,0.3567299207521519,-0.5887003126966363,-0.21304138958866425,-0.17293174262406746,-0.7853099753458752,2,right
10.887,-0.06502658817537225,0.9460226358831719,-0.11402210318421462,0.6550453220618541,0.3512438523027949,-0.5968705945749914,-0.21681595811366927,-0.16900864328033272,-0.7917235095766348,2,right
10.892000000000001,-0.06587004451650359,0.9475863178959797,-0.11314223294524814,0.6922446837321318,0.34589707770589934,-0.6047914139403878,-0.22060989130170897,-0.1652431090991148,-0.7982783020622897,2,right
10.892999999999999,-0.0666276130080455,0.9492491693991324,-0.11226518759016961,0.7287060910775968,0.340692545366261,-0.6124654112619105,-0.22442222067791998,-0.16163955789679457,-0.8049729250873325,2,right
10.895999999999999,-0.06729702234187188,0.9510136697499396,-0.11139090195438424,0.7644242160821951,0.3356337655559562,-0.6198956766274815,-0.2282520395993269,-0.15820212207905318,-0.8118062094637886,2,right
10.895999999999999,-0.0678762131452996,0.9528822535529263,-0.1105192596988931,0.799395710674919,0.3307248241068609,-0.6270857403357808,-0.2320985044658085,-0.1549346476681528,-0.8187772442513327,2,right
10.9,-0.06836334360731135,0.9548573041617544,-0.10965009340118884,0.8336192016019401,0.32597039592650245,-0.6340395624122787,-0.23596083589123387,-0.15184069337923775,-0.8258853760478669,2,right
10.901,-0.06875679469860466,0.9569411470665498,-0.10878318471943947,0.8670952812337237,0.32137575832272014,-0.6407615210707318,-0.23983831984577014,-0.14892352973579004,-0.8331302078701869,2,right
10.905,-0.06905517495864634,0.9591360431746917,-0.10791826463980876,0.8998264944075837,0.3169468041230421,-0.6472564001408083,-0.24373030877505808,-0.14618613821994533,-0.8405115976371836,2,right
10.905999999999999,-0.0692573248290173,0.9614441819947144,-0.10705501382426884,0.9318173214039948,0.31269005457513277,-0.6535293754818262,-0.24763622267524774,-0.1436312104793026,-0.8480296562305404,2,right
10.907,-0.06936232051951054,0.9638676747341093,-0.10619306307382134,0.9630741571528358,0.30861267201512377,-0.6595860004019262,-0.2515555500547741,-0.1412611476581379,-0.8556847450400812,2,right
10.91,-0.0693694773992279,0.9664085473238261,-0.10533199391473212,0.9936052867692882,0.304722472273375,-0.6654321901102677,-0.25548784868704305,-0.1390780599468772,-0.8634774728634441,2,right
10.911,-0.06927835290751758,0.9690687333842037,-0.10447133930853053,1.0234208575454273,0.3010279366989925,-0.6710742052737939,-0.2594327460849902,-0.13708376641877812,-0.8714086920680193,2,right
10.912,-0.06908874898067195,0.9718500671470053,-0.10361058448065258,1.0525328475726252,0.2975382235252511,-0.676518634829761,-0.2633899396766678,-0.1352797951775309,-0.879479493991687,2,right
10.915,-0.06880071399186889,0.9747542763464802,-0.10274916785645542,1.080955031196234,0.2942631782098929,-0.6817723782492193,-0.2673591966878056,-0.1336673838145958,-0.8876912035971672,2,right
10.915999999999999,-0.06841454420360985,0.9777829750905416,-0.101886482087847,1.1087029414735368,0.29121334247355385,-0.6868426274014529,-0.27134035374267657,-0.13224748017055238,-0.8960453734027645,2,right
10.919,-0.06793078473353292,0.980937656721877,-0.1010218751518212,1.1357938297527486,0.28839996191985184,-0.6917368480885452,-0.2753333161946355,-0.13102074339527958,-0.9045437767126986,2,right
10.92,-0.06735023003623947,0.9842196866779644,-0.10015465150536092,1.1622466224604386,0.2858349922100085,-0.6964627612740992,-0.27933805719773347,-0.12998754530233814,-0.9131884001706139,2,right
10.925,-0.06667392390505755,0.9876302953579871,-0.09928407328853281,1.1880818751771203,0.28353110378326674,-0.7010283240206922,-0.2833546165308435,-0.1291479720134764,-0.9219814356602695,2,right
10.925999999999998,-0.06590315899792944,0.9911705710034563,-0.09840936157732441,1.2133217240788778,0.2815016851150472,-0.7054417101501433,-0.28738309918576865,-0.12850182588973694,-0.9309252715778298,2,right
10.931,-0.06503947589137263,0.9948414525998657,-0.09752969769794127,1.2379898348210643,0.27976084450550415,-0.709711290640186,-0.29142367373083755,-0.12804862774619624,-0.940022483500593,2,right
10.932,-0.06408466166647729,0.9986437228104234,-0.09664422462255864,1.2621113489383344,0.27832341039188907,-0.7138456137706787,-0.29547657046152503,-0.1277876193479245,-0.9492758242774221,2,right
10.934000000000001,-0.0630407480320813,1.0025780009580108,-0.09575204846999377,1.285712827833575,0.2772049301789242,-0.7178533850320509,-0.29954207934967253,-0.1277177661853089,-0.9586882135665777,2,right
10.935,-0.061910008993315176,1.0066447360747446,-0.09485224013070097,1.3088221944266487,0.2764216675822158,-0.721743446808268,-0.3036205478029148,-0.12783776052743634,-0.9682627268470938,2,right
10.939,-0.060694958077927616,1.0108442000384978,-0.09394383702469375,1.3314686725323037,0.2759905984806117,-0.72552475784621,-0.30771237824595704,-0.12814602475278425,-0.978002583930282,2,right
10.939,-0.05939834513686941,1.0151764808126016,-0.09302584498972621,1.3536827240351104,0.27592940527432536,-0.729206372522997,-0.31181802553538257,-0.12864071495701507,-0.9879111369984137,2,right
10.944,-0.05802315273879827,1.0196414758001793,-0.09209724029158002,1.3754959839278758,0.27625646974661267,-0.7327974199224571,-0.31593799421970786,-0.12931972483821655,-0.9979918581980904,2,right
10.945,-0.05657259217953263,1.0242388853210842,-0.09115697174844165,1.3969411932786562,0.27699086442780096,-0.7363070827316146,-0.3200728356564408,-0.13018068986046905,-1.0082483268162892,2,right
10.949000000000002,-0.05505009912636857,1.0289682062190464,-0.09020396296349831,1.4180521301902536,0.27815234246153414,-0.739744575967801,-0.32422314499793764,-0.13122099169715648,-1.0186842160675544,2,right
10.95,-0.053459328915171564,1.0338287256082868,-0.08923711466363025,1.4388635388149302,0.2797613259742151,-0.7431191255467177,-0.3283895580578958,-0.13243776295596632,-1.0293032795213062,2,right
10.954,-0.05180415151722498,1.0388195147707397,-0.08825530714846712,1.459411056486019,0.2818388929497969,-0.7464399467015584,-0.33257274807036136,-0.13382789218804672,-1.040109337198734,2,right
10.955,-0.050088646192072116,1.0439394232160684,-0.08725740285962715,1.4797311390271508,0.28440676261330416,-0.7497162222630828,-0.33677342235317564,-0.13538802918430273,-1.051106261369265,2,right
10.959000000000001,-0.048317095840288204,1.0491870729162325,-0.08624224907925448,1.499860984298961,0.2874872793277515,-0.7529570808103556,-0.3409923188878321,-0.13711459056232037,-1.0622979620771213,2,right
10.959000000000001,-0.04649398106687704,1.0545608527253147,-0.08520868076034614,1.5198384540423817,0.29110339501047466,-0.7561715747017129,-0.34523020282776057,-0.13900376564790484,-1.0736883724290147,2,right
10.963,-0.04462397396361944,1.0600589129953109,-0.08415552348471111,1.5397019940769752,0.29527865007629883,-0.7593686579953849,-0.3494878629471095,-0.1410515226557074,-1.0852814336745813,2,right
10.964,-0.04271193161805507,1.0656791603996136,-0.08308159654202521,1.559490552912216,0.30003715291644356,-0.762557164269105,-0.3537661080421467,-0.143253615173892,-1.097081080111714,2,right
10.969000000000001,-0.0407628893575833,1.0714192529768656,-0.08198571612367463,1.5792434988291941,0.3054035579236026,-0.7657457843479607,-0.358065763297455,-0.1456055889582608,-1.1090912238495245,2,right
10.97,-0.038782053738730955,1.0772765954086811,-0.08086669862309964,1.5990005354898864,0.3114030420752454,-0.7689430439496877,-0.3623876666291556,-0.14810278904171123,-1.1213157394622453,2,right
10.974,-0.036774795293435684,1.0832483345456216,-0.07972336402901603,1.6188016161309302,0.31806128008886314,-0.7721572812565864,-0.3667326650151707,-0.1507403671578009,-1.133758448563291,2,right
10.975,-0.03474664104529529,1.0893313551965011,-0.07855453939339828,1.6386868563987271,0.32540441816462984,-0.7753966244232398,-0.3711016108111974,-0.15351328943992115,-1.1464231043058744,2,right
10.975,-0.032703266808521016,1.095522276196974,-0.07735906235532852,1.6586964458827202,0.3334590463327686,-0.7786689690292342,-0.37549535803060774,-0.15641634429012843,-1.1593133757750091,2,right
10.978,-0.030650489282921575,1.1018174467748636,-0.07613578470239615,1.6788705584384298,0.34225216941191994,-0.7819819554998346,-0.3799147585551534,-0.1594441502743813,-1.1724328322129292,2,right
10.979000000000001,-0.028594257960990507,1.1082129432312817,-0.07488357595139476,1.6992492615651615,0.3518111765223425,-0.7853429465861329,-0.3843606582548247,-0.1625911639390241,-1.1857849270440235,2,right
10.98,-0.026540646865518356,1.114704565957647,-0.07360132693134176,1.7198724254151971,0.3621638089838406,-0.7887590051195761,-0.38883389301580534,-0.16585168751159957,-1.199372981708208,2,right
10.984000000000002,-0.024495846137884098,1.1212878368093713,-0.07228795335374578,1.7407796321848426,0.3733381263659986,-0.7922368723243957,-0.39333528468694146,-0.1692198764871357,-1.2132001693357417,2,right
10.984000000000002,-0.022466153501071104,1.1279579968572833,-0.07094239935369821,1.762010086465206,0.38536247052493955,-0.7957829469030973,-0.39786563695749855,-0.17268974710893523,-1.227269498301854,2,right
10.988,-0.020457965626025768,1.1347100045376186,-0.06956364098058825,1.7836025268197324,0.39826542757908673,-0.7994032649870353,-0.40242573117905744,-0.17625518375322125,-1.2415837957002234,2,right
10.989,-0.01847776943099884,1.1415385342212727,-0.06815068961409029,1.805595138683261,0.41207578784320453,-0.8031034809757771,-0.40701632214448363,-0.17990994622730297,-1.2561456907750372,2,right
10.993,-0.01653213333985011,1.148437975223948,-0.06670259528422096,1.8280254686436763,0.4268225037553215,-0.8068888492754562,-0.41163813383698494,-0.1836476769912155,-1.2709575983520545,2,right
10.993,-0.014627698519133214,1.1554024312811586,-0.06521844988286199,1.8509303401682622,0.44253464583366475,-0.8107642069465277,-0.41629185516235995,-0.18746190831306303,-1.2860217023097984,2,right
10.998,-0.01277117010705762,1.1624257205152753,-0.06369739026289008,1.874345770838022,0.45924135670334226,-0.8147339572715651,-0.420978135677626,-0.19134606936855128,-1.301339939132719,2,right
11.0,-0.010969308438919653,1.1695013759245523,-0.06213860122637147,1.8983068911544796,0.47697180323519783,-0.8188020542539846,-0.42569758132930574,-0.19529349329543247,-1.3169139815888775,2,right
11.004000000000001,-0.009228920261795436,1.17662264642511,-0.06054131840547829,1.9228478649848382,0.49575512684203943,-0.8229719880588399,-0.43045075021474205,-0.19929742421380564,-1.332745222575435,2,right
11.005,-0.007556849918889674,1.1837824984761687,-0.05890483103977652,1.9480018117128366,0.5156203919802966,-0.8272467714070983,-0.4352381483799051,-0.2033510242234167,-1.348834759175951,2,right
11.009,-0.0059599704754730995,1.1909736183172166,-0.057228484651874155,1.9738007301642144,0.5365965329081058,-0.8316289269350934,-0.440060225667251,-0.20744738038928315,-1.3651833769742387,2,right
11.01,-0.004445174755510684,1.1981884148439446,-0.05551168362119783,2.000275424377355,0.5587122987538443,-0.8361204755311392,-0.4449173716272871,-0.21157951172713113,-1.3817915346702538,2,right
11.013,-0.003019366259060087,1.205419023147649,-0.05375389365361029,2.0274554312914335,0.5819961969522438,-0.8407229256615931,-0.4498099115075983,-0.21574037620027495,-1.3986593490442454,2,right
11.014000000000001,-0.0016894499325043786,1.2126573087388044,-0.05195464414346565,2.0553689504262573,0.6064764351084043,-0.8454372636989584,-0.45473810233318745,-0.21992287773969155,-1.4157865803161276,2,right
11.015999999999998,-0.0004623227662260507,1.2198948724693766,-0.05011353042619913,2.0840427756299067,0.6321808613533012,-0.8502639452649342,-0.459702129092084,-0.22411987329914518,-1.4331726179477908,2,right
11.019,0.0006551358003877309,1.2271230561633426,-0.0482302159232279,2.113502228972326,0.6591369032577364,-0.8552028876016357,-0.46470210104027626,-0.2283241799573003,-1.4508164669368033,2,right
11.02,0.0016560736770754208,1.234332948963794,-0.0463044341831592,2.1437710968651063,0.687371505375118,-0.8602534629845299,-0.469738048140125,-0.23252858207882277,-1.4687167346507048,2,right
11.025,0.0025336761209822614,1.2415153944072286,-0.04433599082170504,2.174871568489889,0.7169110654869691,-0.8654144931909517,-0.4748099176465194,-0.23672583854650986,-1.4868716182518378,2,right
11.026,0.0032811759173212588,1.248660998238725,-0.04232476535825912,2.206824176620067,0.747781369628661,-0.8706842450383858,-0.4799175708551387,-0.24090869007651222,-1.505278892763397,2,right
11.03,0.003891863712916064,1.2557601369836442,-0.04027071294222075,2.239647740922793,0.7800075259765399,-0.8760604270070241,-0.48506078002728564,-0.24506986662871003,-1.5239358998281183,2,right
11.030999999999999,0.004359098468406205,1.262802967291396,-0.03817386596002638,2.2733593138306722,0.8136138976813604,-0.8815401869614179,-0.4902392255058632,-0.24920209492428513,-1.5428395372117518,2,right
11.034,0.004676317997739833,1.269779436064871,-0.036034335516702244,2.307974129074983,0.8486240347367618,-0.8871201109863607,-0.49545249303716526,-0.25329810608249004,-1.5619862491041998,2,right
11.035,0.0048370495722668255,1.2766792913857807,-0.03385231279176971,2.3435055529747424,0.8850606049754186,-0.8927962233524387,-0.500700071313257,-0.25735064338855185,-1.5813720172719017,2,right
11.039000000000001,0.004834920578519807,1.283492094241283,-0.03162807027376318,2.379965038578506,0.9229453242894549,-0.898563987626984,-0.5059813497498195,-0.2613524702045663,-1.600992353115769,2,right
11.04,0.004663669228969003,1.2902072310523398,-0.029361962877565595,2.4173620827583635,0.96229888617575,-0.9044183089464508,-0.511295616508958,-0.26529637802825656,-1.6208422906710167,2,right
11.040999999999999,0.00431715532931408,1.2968139270022363,-0.02705442894545755,2.455704186358226,1.0031408907108528,-0.9103535374665133,-0.5166420567491912,-0.26917519466996315,-1.640916380492698,2,right
11.044,0.0037893711042369417,1.303301260164665,-0.024705991129688076,2.494996817501168,1.045489773064381,-0.9163634730064387,-0.5220197510356469,-0.2729817924561968,-1.661208684203606,2,right
11.045,0.0030744520797008675,1.3096581764300042,-0.022317257154196597,2.535243378139149,1.0893627316597105,-0.9224413708977823,-0.5274276738162099,-0.27670909633353624,-1.6817127693886396,2,right
11.046,0.0021666880173627696,1.3158735052240358,-0.019888920455667557,2.5764451738105367,1.1347756560735747,-0.9285799490138517,-0.5328646918968332,-0.28035009178084946,-1.7024217046135997,2,right
11.049000000000001,0.001060533896661127,1.321935976009334,-0.017421760707689523,2.6186013863564948,1.1817430547319023,-0.9347713958957256,-0.5383295628986033,-0.2838978324994992,-1.7233280545148224,2,right
11.049000000000001,-0.0002493790579398421,1.3278342355571846,-0.014916644236531619,2.6617090492294064,1.2302779824421368,-0.9410073798569838,-0.5438209337066183,-0.2873454478853476,-1.7444238749998882,2,right
11.055,-0.0017682323043281519,1.3335568659752712,-0.012374524342430719,2.705763025149872,1.280391967828165,-0.9472790589833009,-0.549337338926292,-0.2906861502930059,-1.7657007086188845,2,right
11.056,-0.0035010088624393113,1.3390924034753062,-0.009796441540898707,2.7507559860886435,1.3320949407770575,-0.9535770920040846,-0.5548771993627828,-0.2939132421025045,-1.7871495801662658,2,right
11.06,-0.0054524821438083374,1.3444293578663393,-0.007183523729203563,2.7966783956731947,1.3853951600327843,-0.9598916500472907,-0.5604388205393176,-0.2970201225982751,-1.808760992573889,2,right
11.061,-0.007627204729934709,1.3495562327594608,-0.004536986266208088,2.8435184941454756,1.4402991410808914,-0.9662124292954106,-0.5660203912702558,-0.3000002946700245,-1.830524923156333,2,right
11.064,-0.010029497100879883,1.3544615464641319,-0.0018581319363522497,2.891262286000077,1.496811584472683,-0.9725286645607025,-0.5716199823048046,-0.3028473713447595,-1.8524308202700976,2,right
11.065,-0.0126634363200768,1.359133853545654,0.0008516492448975132,2.9398935304347016,1.5549353047420411,-0.9788291437977864,-0.5772355450573563,-0.3055550821588717,-1.874467600448742,2,right
11.068,-0.015532844688619374,1.363561767000151,0.0035908804364433895,2.989393734747477,1.6146711600726216,-0.9851022235717344,-0.5828649104404817,-0.3081172793788314,-1.8966236460764623,2,right
11.069,-0.018641278390776832,1.3677339809905988,0.006357998646286369,3.0397421508182267,1.6760179828777697,-0.9913358454997798,-0.5885057878166576,-0.31052794407865436,-1.9188868036630178,2,right
11.074000000000002,-0.021992016159848787,1.3716392940759048,0.00915135573609193,3.090915774813363,1.7389725114601389,-0.9975175536847181,-0.5941557640848578,-0.3127811920819088,-1.941244382783284,2,right
11.075999999999999,-0.025588047999476254,1.375266632854735,0.011969219815507304,3.1428893502565574,1.803529322922609,-1.0036345131579927,-0.5998123029181738,-0.3148712797756077,-1.963683155745052,2,right
11.079,-0.029432064002731947,1.3786050759371835,0.014809777086383384,3.1956353746097808,1.869680767506737,-1.009673529350352,-0.6054727441686643,-0.3167926098029012,-1.9861893580490093,2,right
11.08,-0.03352644332201833,1.3816438781523581,0.017671134198319095,3.249124109511666,1.9374169045395722,-1.015621068607803,-0.6111343034556607,-0.31853973664102814,-2.0087486897050937,2,right
11.084000000000001,-0.03787324335654984,1.384372494900527,0.02055132117540476,3.3033235948224364,2.0067254401742787,-1.0214632797704073,-0.6167940719537696,-0.32010737207051965,-2.0313463174696587,2,right
11.085999999999999,-0.042474189239082596,1.3867806065649848,0.023448294964850486,3.358199666626864,2.0775916671145787,-1.027186016831239,-0.6224490163968297,-0.32149039054116246,-2.053966878068067,2,right
11.089,-0.04733066371646474,1.388858142910191,0.026359943637274216,3.4137159793488454,2.1499984065175766,-1.032774862692561,-0.6280959793140808,-0.32268383443972937,-2.076594482467493,2,right
11.09,-0.05244369752458784,1.3905953074066797,0.029284091235782756,3.469834032133228,2.22392595227404,-1.0382151540359708,-0.6337316795147953,-0.3236829192639699,-2.0992127212648106,2,right
11.093,-0.05781396035365863,1.3919826014368437,0.032218503234323397,3.5265131996524466,2.299352017869676,-1.0434920073229257,-0.6393527128376134,-0.32448303870682227,-2.1218046712545253,2,right
11.094000000000001,-0.06344175248474199,1.3930108483470143,0.03516089253635347,3.5837107674973723,2.3762516860353697,-1.0485903459416708,-0.6449555531807949,-0.3250797696542659,-2.1443529032417117,2,right
11.097999999999999,-0.0693269971566983,1.3936712173193209,0.03810892592844197,3.6413819723134986,2.454597361398709,-1.0534949285161663,-0.6505365538295714,-0.32546887709967426,-2.166839491164893,2,right
11.099,-0.0754692336981005,1.3939552470404002,0.041060230898105426,3.699480046845201,2.5343587263534197,-1.0581903783921414,-0.6560919490967387,-0.3256463189769571,-2.1892460225937356,2,right
11.104000000000001,-0.0818676114351406,1.3938548691419357,0.044012402726091526,3.757956270052282,2.615502700367567,-1.0626612143148852,-0.661617856292577,-0.32560825091419704,-2.2115536106662828,2,right
11.105,-0.08852088436693556,1.3933624313795192,0.046963011765898954,3.8167600224643765,2.6979934029555204,-1.0668918823128373,-0.6671102780401225,-0.3253510309088898,-2.2337429075302984,2,right
11.107999999999999,-0.09542740658656454,1.3924707205021878,0.04990961082452952,3.8758388469400114,2.7817921205427503,-1.070866788800424,-0.6725651049517434,-0.3248712239252892,-2.255794119353039,2,right
11.11,-0.10258512842144549,1.3911729847470757,0.05284974255901411,3.935138514998199,2.866857277456474,-1.0745703349129605,-0.6779781186828843,-0.3241656064137407,-2.2776870229635016,2,right
11.11,-0.10999159327036268,1.3894629558755263,0.055780946808263676,3.9946030988913774,2.9531444112790513,-1.077986952085731,-0.6833449953697985,-0.32323117075540736,-2.2994009841550773,2,right
11.114,-0.11764393512442951,1.3873348706592048,0.058700767794718174,4.054175049470114,3.040606152771832,-1.0811011388556406,-0.688661309413228,-0.3220651296559173,-2.3209149774973263,2,right
11.115,-0.12553887677196773,1.3847834917372466,0.06160676115365194,4.1137952792946795,3.1291922104161327,-1.0838974986980674,-0.6939225374893151,-0.3206649205481767,-2.3422076071832376,2,right
11.115,-0.1336727286984829,1.3818041277842186,0.06449650076702701,4.173403249376389,3.218849359325124,-1.0863607784137543,-0.6991240626241487,-0.3190282100846993,-2.3632571282589954,2,right
11.118,-0.14204138869983443,1.3783926529228787,0.06736758537904493,4.232937057335979,3.309521434119105,-1.0884759064147342,-0.70426117821295,-0.31715289877837727,-2.3840414677615267,2,right
11.119000000000002,-0.15064034223080955,1.3745455252804724,0.07021764495389564,4.292333525362355,3.4011493255245417,-1.0902280304223488,-0.7093290919453011,-0.315037125812577,-2.4045382456103623,2,right
11.122,-0.15946466351579422,1.3702598045488716,0.07304434671730271,4.35152828742769,3.4936709807567086,-1.091602554386429,-0.7143229296423984,-0.312679274020006,-2.424724795278462,2,right
11.123,-0.16850901745325195,1.3655331683866765,0.07584540080907431,4.410455875810582,3.5870214079133462,-1.0925851745986812,-0.7192377390210768,-0.3100779750249604,-2.444578184301667,2,right
11.127,-0.1777676623496817,1.360363927494832,0.07861856546085007,4.469049807097761,3.6811326846424297,-1.0931619150052876,-0.7240684933991559,-0.3072321145428695,-2.46407523468561,2,right
11.128,-0.18723445352182358,1.3547510392006872,0.08136165160286998,4.52724266783425,3.7759339713496973,-1.0933191617226339,-0.7288100953564414,-0.30414083783036344,-2.483192543268026,2,right
11.133,-0.19690284780994985,1.3486941193958946,0.08407252680379651,4.584966199991125,3.8713515292139564,-1.0930436967589576,-0.7334573803654884,-0.3008035552783865,-2.501906502093452,2,right
11.134,-0.20676590905109868,1.342193452689352,0.0867491184629679,4.6421513864190445,3.967308743280379,-1.092322730943546,-0.738005120405997,-0.29721994814018016,-2.520193318856262,2,right
11.138,-0.21681631456812805,1.335250000655294,0.08938941620182336,4.698728536454594,4.063726150903962,-1.0911439360639066,-0.7424480275764458,-0.2933899743852541,-2.5380290374669205,2,right
11.139000000000001,-0.22704636273763465,1.3278654080776917,0.09199147343409876,4.754627371845096,4.1605214758171005,-1.0894954762100908,-0.7467807577163065,-0.2893138746697569,-2.555389558795151,2,right
11.142999999999999,-0.23744798170736592,1.3200420071155317,0.09455340812652203,4.809777113156037,4.257609668096758,-1.0873660383240715,-0.7509979140518909,-0.2849921784129515,-2.5722506616425114,2,right
11.144,-0.2480127393403504,1.3117828193377892,0.09707340278832727,4.864106566823464,4.354902950308041,-1.0847448619507667,-0.7550940508785815,-0.28042570996879423,-2.5885880239955523,2,right
11.147,-0.2587318544648158,1.303091555599375,0.09954970374685518,4.917544213011816,4.452310870102061,-1.0816217681859455,-0.7590636772918821,-0.2756155948809084,-2.6043772446093874,2,right
11.148,-0.26959620950420393,1.293972613749572,0.10198061977756562,4.970018294435431,4.549740359546802,-1.0779871878148783,-0.7629012609793906,-0.2705632662085393,-2.619593864970051,2,right
11.154000000000002,-0.2805963645523289,1.2844310741829401,0.10436452016060742,5.021456906299675,4.647095801470295,-1.073832188634178,-0.7666012320854495,-0.2652704709103745,-2.6342133916825357,2,right
11.155,-0.2917225729470473,1.2744726932595223,0.10669983223646459,5.071788087515039,4.744279103095737,-1.0691485019478393,-0.7701579871598662,-0.2597392762724147,-2.648211319329801,2,right
11.157,-0.3029647983810956,1.2641038946369612,0.10898503853643342,5.120939913334798,4.841189777248219,-1.0639285482270189,-0.7735658932017146,-0.25397207636538555,-2.6615631538464237,2,right
11.158,-0.31431273357009354,1.2533317585726116,0.11121867357307122,5.168840589563832,4.937725031412547,-1.058165461921598,-0.7768192918088369,-0.24797159851648795,-2.6742444364488325,2,right
11.161,-0.3257558204746162,1.242164009269029,0.11339932038793883,5.215418548483073,5.033779864921108,-1.0518531154100599,-0.7799125034432476,-0.2417409097796052,-2.6862307681622877,2,right
11.162,-0.3372832720438816,1.2306090003503378,0.11552560696236144,5.260602546630587,5.12924717454996,-1.0449861420726687,-0.7828398318222213,-0.23528342338740305,-2.6974978349829035,2,right
11.167,-0.3488840954126281,1.2186756985689573,0.11759620259922669,5.304321764576765,5.22401786880024,-1.0375599584713837,-0.7855955684443955,-0.22860290516809254,-2.708021433711101,2,right
11.168,-0.3605471164445414,1.2063736658522886,0.11960981438339459,5.346505908827278,5.31798099114061,-1.0295707856183627,-0.7881739972597637,-0.2217034799089635,-2.717777498490862,2,right
11.173,-0.372261005481527,1.1937130398077742,0.12156518382875271,5.387085315983426,5.411023852484749,-1.0210156693133152,-0.790569399491956,-0.21458963764814631,-2.7267421280871065,2,right
11.173,-0.38401430413208965,1.1807045128119273,0.12346108382110565,5.425991059285345,5.503032173175893,-1.0118924995283678,-0.7927760586207095,-0.20726623987541962,-2.73489161393137,2,right
11.177,-0.3957954529137786,1.167359309814221,0.12529631596214438,5.463155057659094,5.593890234748137,-1.0022000288174828,-0.7947882655319247,-0.19973852562225283,-2.7422024689637543,2,right
11.177999999999999,-0.4075928195556792,1.1536891649868357,0.12706970840289886,5.49851018738404,5.68348104173151,-0.9919378897258481,-0.7966003238389908,-0.19201211740608423,-2.7486514572704994,2,right
11.179,-0.41939472777816245,1.1397062973378773,0.1287801142257749,5.531990396492182,5.771686493764916,-0.9811066111730274,-0.7982065553625837,-0.18409302692035887,-2.754215624382356,2,right
11.181,-0.43118948640233795,1.1254233853777782,0.13042641040355696,5.563530821892313,5.85838756806112,-0.9697076337670005,-0.7996013057269011,-0.17598766023009418,-2.758872327859289,2,right
11.182,-0.44296541867965095,1.1108535409015374,0.13200749734202197,5.593067908638319,5.9434645111815625,-0.9577433239294438,-0.8007789500137906,-0.16770282215929788,-2.7625992676527535,2,right
11.183,-0.45471089174816803,1.0960102819391264,0.13352229900004217,5.620539529732216,6.026797037125715,-0.9452169865757202,-0.8017338984315655,-0.1592457196288825,-2.7653745158660503,2,right
11.187999999999999,-0.46641434611013954,1.080907504937403,0.13496976356809617,5.645885104278586,6.108264527652644,-0.9321328760162767,-0.8024606019833858,-0.15062396383435964,-2.767176545767919,2,right
11.189,-0.47806432499505785,1.0655594562650497,0.13634886466331997,5.669045712369696,6.187746231830501,-0.9184962048196683,-0.8029535581353852,-0.14184557122495373,-2.767984260043663,2,right
11.190999999999999,-0.48964950344538427,1.0499807031628066,0.13765860296455273,5.689964206097956,6.265121463753747,-0.904313150511062,-0.8032073164872765,-0.13291896325985728,-2.7677770182917367,2,right
11.192,-0.5011587169538892,1.0341861042802858,0.13889800817140835,5.708585316654697,6.340269798445304,-0.8895908600536199,-0.8032164844475117,-0.12385296491687695,-2.7665346637709285,2,right
11.197000000000001,-0.5125809894854693,1.0181907799479335,0.1400661411411017,5.724855757581688,6.413071266171712,-0.8743374520735984,-0.8029757329143999,-0.1146568019282704,-2.764237549400411,2,right
11.198,-0.5239055607202611,1.0020100823348594,0.1411620960511912,5.738724324235347,6.483406545393313,-0.858562016788435,-0.802479801963902,-0.10534009671814913,-2.7608665630120184,2,right
11.2,-0.5351219123568373,0.9856595656428984,0.1421850024641841,5.75014198951705,6.551157154565089,-0.8422746135955478,-0.8017235065441142,-0.09591286301542308,-2.756403151851144,2,right
11.202,-0.5462197933172234,0.9691549564844777,0.14313402722659901,5.75906199591615,6.61620564299701,-0.8254862662780462,-0.8007017421757419,-0.08638549911588951,-2.750829346319615,2,right
11.206,-0.5571892437016406,0.9525121245864488,0.14400837620608536,5.765439943905452,6.678435780975738,-0.8082089557820591,-0.799409490657124,-0.07676877976672346,-2.744127782950825,2,right
11.206,-0.568020617352066,0.9357470539535364,0.1448072959394434,5.769233876721829,6.737732749342009,-0.7904556105189121,-0.7978418257716259,-0.06707384664631015,-2.736281726604255,2,right
11.21,-0.57870460290074,0.918875814613227,0.14553007531991033,5.770404361557531,6.7939833287103655,-0.7722400941439531,-0.7959939189944546,-0.05731219741207298,-2.7272750918633437,2,right
11.210999999999999,-0.5892322431999371,0.9019145350498043,0.1461760474863064,5.7689145671804,6.84707608850971,-0.7535771907624192,-0.7938610451951736,-0.04749567328869486,-2.7170924636174103,2,right
11.216,-0.5995949530486074,0.8848793754208247,0.1467445920829612,5.764730337993816,6.896901576014813,-0.7344825875113755,-0.7914385883314036,-0.037636445168906636,-2.705719116805058,2,right
11.216,-0.6097845351496208,0.8677865016359201,0.14723513803154972,5.757820264539642,6.9433525055301235,-0.7149728544654287,-0.7887220471283884,-0.027746998198825576,-2.693141035293155,2,right
11.220999999999998,-0.619793194251158,0.8506520603652707,0.14764716689574162,5.7481557504398335,6.986323947878164,-0.6950654218126359,-0.7857070407382927,-0.01784011481966981,-2.6793449298621077,2,right
11.222000000000001,-0.6296135494485909,0.833492155032507,0.14798021684249069,5.7357110757646055,7.025713520335406,-0.6747785542457903,-0.7823893143722577,-0.007928856237552646,-2.664318255264721,2,right
11.224,-0.6392386446468942,0.8163228228330203,0.14823388713126476,5.720463456807268,7.061421577148861,-0.654131322513076,-0.7787647448974077,0.0019734577070252995,-2.6480492263224846,2,right
11.225,-0.6486619572042088,0.7991600128028885,0.14840784300716067,5.70239310223789,7.0933514007565925,-0.6331435720709421,-0.7748293463901317,0.01185327029841803,-2.6305268330196254,2,right
11.232000000000001,-0.6578774047898235,0.7820195649464357,0.148501820835716,5.6814832656,7.121409393825095,-0.6118358887809562,-0.770579275636103,0.0216968113622538,-2.6117408545517358,2,right
11.232999999999999,-0.6668793504906314,0.7649171904132054,0.14851563329344483,5.657720294106485,7.145505272205927,-0.5902295615913702,-0.7660108375666145,0.03149012236744996,-2.5916818722822152,2,right
11.235,-0.6756626061901181,0.7478684526982424,0.14844917442061517,5.631093673682735,7.165552258903102,-0.5683465421431471,-0.7611204906199163,0.041219083242175464,-2.5703412815561655,2,right
11.235999999999999,-0.6842224342296429,0.7308887498216035,0.14830242435428106,5.60159607019692,7.181467279131656,-0.5462094012392851,-0.7559048520153396,0.05086944093200882,-2.5477113023177536,2,right
11.24,-0.6925545473493662,0.7139932974205868,0.14807545358647622,5.569223366809142,7.193171156536422,-0.5238412821154164,-0.750360702927074,0.060426839728394646,-2.523784988473398,2,right
11.242,-0.7006551068987841,0.6971971126601672,0.14776842662452436,5.533974697362935,7.200588810628423,-0.5012658504488645,-0.7444849935435425,0.06987685339531689,-2.4985562359394566,2,right
11.244000000000002,-0.7085207193070298,0.6805149988413386,0.14738160495856756,5.495852475734369,7.203649455484442,-0.47850724104261794,-0.7382748480008855,0.07920501906375269,-2.4720197893432965,2,right
11.245,-0.7161484308123827,0.6639615305781169,0.1469153492661184,5.454862421045763,7.202286799743215,-0.4555900011200112,-0.7317275691956274,0.0883968725725639,-2.4441712475124078,2,right
11.245999999999999,-0.7235357204681887,0.6475510394272079,0.1463701208118093,5.411013578642739,7.196439247919405,-0.4325390301653137,-0.7248406435121564,0.09743798441102304,-2.415007068187627,2,right
11.249,-0.7306804914659475,0.6312975998773528,0.14574648203488563,5.36431833669893,7.186050102798287,-0.40937951634993724,-0.7176117455171963,0.10631399512718023,-2.384524572562272,2,right
11.25,-0.7375810608375254,0.6152150156252456,0.14504509635031929,5.314792438173367,7.171067767432665,-0.38613687010871495,-0.710038742654972,0.11501064935652654,-2.3527219500757304,2,right
11.251,-0.7442361476095419,0.5993168060852114,0.1442667272162631,5.262454987601529,7.151445943039079,-0.3628366563756676,-0.7021196999442859,0.12351382814812764,-2.319598263581121,2,right
11.254000000000001,-0.7506448594896701,0.5836161931100903,0.14341223654793797,5.207328452061872,7.12714381784864,-0.33950452751355764,-0.6938528846602373,0.1318095795555674,-2.2851534548333703,2,right
11.255999999999998,-0.7568066781750613,0.5681260879399558,0.14248258259104604,5.149438655782505,7.098126243183313,-0.31616615844609836,-0.685236770978823,0.13988414751765446,-2.2493883502063308,2,right
11.259,-0.762721443379926,0.5528590784305248,0.141478817395224,5.088814768080514,7.064363895226787,-0.29284718455617054,-0.6762700445616663,0.1477239990532886,-2.2123046665437944,2,right
11.26,-0.7683893356725958,0.5378274166301339,0.14040208403846965,5.025489284449395,7.0258334221742915,-0.2695731423881136,-0.6669516070571251,0.15531584979428936,-2.1739050170454473,2,right
11.265999999999998,-0.7738108581967124,0.5230430067691495,0.13925361374425094,4.959498000628367,6.982517576677971,-0.2463694130871025,-0.6572805804930213,0.16264668787935366,-2.134192917085024,2,right
11.267999999999999,-0.7789868173388733,0.5085173937073896,0.1380347229982216,4.890879979479479,6.934405333490735,-0.22326116850867517,-0.647256311535233,0.1697037962316352,-2.0931727898541412,2,right
11.267999999999999,-0.7839183024066522,0.4942617518658933,0.1367468107087862,4.819677510490678,6.8814919921979,-0.20027331993160505,-0.636878375585376,0.17647477324172758,-2.050849971721502,2,right
11.269,-0.7886066644024721,0.48028687465636805,0.13539135538470634,4.745936061715322,6.823779264912122,-0.17743046930751585,-0.6261465806897913,0.18294755187708295,-2.0072307171933987,2,right
11.276,-0.7930534940198034,0.46660316441544186,0.13396991225685065,4.669704223951139,6.761275348793425,-0.15475686298090674,-0.6150609712310431,0.1891104172381127,-1.9623222033576904,2,right
11.277000000000001,-0.7972605990409584,0.4532206228480143,0.13248411026902676,4.591033646954165,6.693994983242324,-0.13227634781360448,-0.6036218313721095,0.19495202258039554,-1.9161325336896775,2,right
11.277999999999999,-0.8012299813687384,0.4401488419813629,0.1309356488938766,4.50997896747593,6.62195949160025,-0.11001232964807249,-0.5918296882224403,0.20046140382156208,-1.8686707410945904,2,right
11.279000000000002,-0.8049638139655773,0.4273969956299795,0.129326294764328,4.426597728905006,6.545196807177756,-0.08798773404449303,-0.5796853146940343,0.2056279925505363,-1.8199467900576956,2,right
11.284,-0.8084644179946081,0.41497383137380983,0.12765787812445337,4.340950292287053,6.463741483417291,-0.0662249692270926,-0.5671897320146765,0.21044162755589085,-1.7699715777693494,2,right
11.285,-0.8117342404530776,0.40288766306113005,0.12593228909421855,4.25309973849061,6.377634687983632,-0.0447458911758012,-0.5543442118644611,0.21489256488912095,-1.718756934088676,2,right
11.289000000000001,-0.8147758325602257,0.39114636385820206,0.12415147373022029,4.163111761279252,6.286924180561563,-0.023571770800022953,-0.5411502781007148,0.21897148647765705,-1.6663156202059197,2,right
11.29,-0.8175918291139498,0.37975735987403186,0.1223174298699524,4.071054551044196,6.191664274126853,-0.002723263132046473,-0.5276097080354263,0.2226695073014238,-1.612661325859936,2,right
11.293,-0.8201849289733376,0.36872762438560414,0.12043220277276402,3.9769986689451304,6.09191577944331,0.017779621521562764,-0.5137245332282847,0.2259781811457114,-1.5578086649637168,2,right
11.294,-0.8225578767709989,0.3580636726802051,0.11849788060000946,3.8810169112008968,5.987745932525419,0.03791754453137126,-0.49949703975742676,0.22888950494205762,-1.5017731694873357,2,right
11.298,-0.8247134459213586,0.34777155752529026,0.11651658979035473,3.7831841632657306,5.879228304793045,0.05767186405913659,-0.4849297679289993,0.23139592170774598,-1.4445712814442067,2,right
11.299000000000001,-0.8266544229734066,0.3378568652796639,0.11449049037599594,3.6835772436210097,5.766442695631796,0.0770246583933745,-0.4700255113856534,0.23349032209340803,-1.3862203428231128,2,right
11.302999999999999,-0.8283835933554998,0.32832471267447755,0.11242177125970113,3.582274736906951,5.649475007059943,0.0959587475642446,-0.45478731557310453,0.23516604454707662,-1.3267385833050667,2,right
11.304,-0.8299037285648206,0.31917974431609225,0.11031264544682706,3.4793568161133646,5.528417100190345,0.1144577132944652,-0.43921847552291543,0.23641687410187484,-1.2661451056007136,2,right
11.311,-0.8312175748522551,0.3104261309886871,0.10816534521085225,3.374905053543494,5.403366633163554,0.13250591734181544,-0.4233225329086937,0.23723703979334365,-1.2044598682406882,2,right
11.312000000000001,-0.8323278434368006,0.30206756885409713,0.10598211716535098,3.269002220260104,5.274426880216257,0.150088518287582,-0.40710327233193516,0.2376212107112079,-1.1417036656480932,2,right
11.312999999999999,-0.8332372022528749,0.2941072796526406,0.10376521721609269,3.16173207371833,5.141706531537543,0.1671914868240596,-0.3905647168161322,0.23756449072202365,-1.077898105411944,2,right
11.312999999999999,-0.8339482692007183,0.2865480119980242,0.10151690537285113,3.0531791332854117,5.005319473553936,0.1838016195929206,-0.3737111226035093,0.23706241206221942,-1.0130655831416377,2,right
11.314,-0.8344636068446545,0.27939204383615573,0.09923944041282977,2.9434284433432523,4.865384549273045,0.19990655162493368,-0.35654697355784754,0.2361109282955448,-0.9472292561152631,2,right
11.318,-0.8347857184779589,0.27264118611628196,0.09693507441004104,2.83256532366583,4.722025298304812,0.2154947674301357,-0.3390769755926265,0.23470640729198225,-0.8804130173959056,2,right
11.319,-0.8349170454388648,0.2662967877110037,0.09460604717765465,2.7206751072832556,4.575369676686073,0.23055561078491657,-0.32130605142612373,0.23284562471959078,-0.8126414716228026,2,right
11.319,-0.8348599655397142,0.2603597416096001,0.09225458069904036,2.607842868658051,4.425549759210497,0.2450792932548779,-0.30323933575419293,0.23052575824370947,-0.7439399128454903,2,right
11.322000000000001,-0.8346167924763571,0.254830492388909,0.08988287363263367,2.4941531497070843,4.272701431611743,0.2590569014797754,-0.2848821708138815,0.2277443824623395,-0.6743343043019183,2,right
11.323,-0.8341897760943325,0.2497090449423357,0.08749309597450175,2.379689693816866,4.116964082524695,0.2724804032391916,-0.26624010228684725,0.22449946457235406,-0.6038512599458996,2,right
11.328,-0.8335811033780185,0.2449949744233912,0.08508738396569851,2.264535195379972,3.9584803025540958,0.28534265232219413,-0.24731887549068468,0.22078936075986585,-0.5325180275265889,2,right
11.328,-0.8327929000127905,0.2406874373335388,0.08266783533081162,2.14877106766686,3.79739559311554,0.29763739223373675,-0.22812443180543804,0.21661281330675772,-0.46036247302008965,2,right
11.332,-0.8318272323692091,0.23678518365680426,0.08023650491633091,2.0324772292278843,3.6338580851190447,0.3093592587751206,-0.20866290528175918,0.21196894840405153,-0.38741306621076704,2,right
11.333,-0.830686109769954,0.23328656992044186,0.07779540076884692,1.915731908494876,3.4680182670402213,0.3205037815354509,-0.18894061937636808,0.20685727466145437,-0.3136988672174081,2,right
11.337,-0.829371486913859,0.2301895730436384,0.07534648066655227,1.7986114662499038,3.3000287219166196,0.331067384329398,-0.16896408375968802,0.20127768230108117,-0.23924951375700496,2,right
11.338,-0.8278852663429115,0.22749180482351608,0.07289164909867704,1.6811902356272954,3.13004387279977,0.3410473846149266,-0.1487399911397619,0.19523044302201323,-0.16409520893666066,2,right
11.343,-0.8262293008485216,0.22519052690011065,0.07043275467754115,1.563540379313712,2.9582197361868343,0.3504419919230009,-0.12827521404580647,0.1887162105210077,-0.08826670936191935,2,right
11.344000000000001,-0.8244053957253747,0.22328266604125027,0.06797158796631339,1.445731763609978,2.7847136829496066,0.35925030532960545,-0.10757680151403161,0.18173602165332944,-0.011795313347713589,2,right
11.347000000000001,-0.8224153107968221,0.2217648295932633,0.06550987970909534,1.3278318490175005,2.6096842062728887,0.3674723099987492,-0.08665197561764129,0.1742912982163346,0.06528715098390425,2,right
11.347999999999999,-0.8202607621553554,0.22063332095128654,0.06304929945444805,1.209905597011455,2.4332906961089638,0.37510887282343786,-0.0655081277822412,0.16638384933709524,0.14294833793701325,2,right
11.352,-0.8179434235838744,0.2198841549122274,0.06059145456672222,1.0920153926624467,2.255693219650078,0.3821617371899185,-0.04415281482720794,0.1580158744440152,0.22115539702567183,2,right
11.352,-0.8154649276448473,0.21951307278442736,0.05813788962078103,0.974220982768096,2.0770523073164604,0.3886335168888188,-0.022593754672923995,0.14918996680105429,0.2998749865297297,2,right
11.357000000000001,-0.8128268664412522,0.2195155571415322,0.05569008617442391,0.8565794291559063,1.897528743753491,0.39452768919512166,-0.0008388216531542377,0.13990911758185012,0.379073288045633,2,right
11.357999999999999,-0.8100307920643776,0.21988684612473824,0.05324946290995027,0.739145076818883,1.717283363328179,0.39984858713724175,0.021103958628767606,0.1301767204597037,0.45871602225681907,2,right
11.360999999999999,-0.8070782167519045,0.22062194721786813,0.05081737613412356,0.621969536545627,1.5364768496121024,0.404601390973804,0.04322641496185892,0.11999657668808086,0.538768466149768,2,right
11.362,-0.8039706127879906,0.22171565044346056,0.04839512062496008,0.5051016817070736,1.3552695383354358,0.4087921188950649,0.06552023676999348,0.1093729006449759,0.6191954719031538,2,right
11.366,-0.8007094121848143,0.22316254095415466,0.04598393081204105,0.3885876588626254,1.1738212232946148,0.41242761696427394,0.0879769809980102,0.09831032581318624,0.6999614876788103,2,right
11.367,-0.7972960061900785,0.2249570110201906,0.04358498227210188,0.2724709118491743,0.9922909646945747,0.41551554831264076,0.11058807970495937,0.08681391116726304,0.7810305805444084,2,right
11.370999999999999,-0.7937317446671882,0.22709327143874805,0.04119939351383026,0.15679221901737803,0.8108368994053462,0.41806438159996295,0.13334484842851246,0.07488914793662829,0.8623664617588123,2,right
11.370999999999999,-0.7900179353952732,0.22956536241185507,0.03882822801689032,0.041589743280574125,0.6296160526120969,0.4200833787513737,0.15623849538502907,0.06254196671308974,0.9439325146520545,2,right
11.38,-0.7861558433347737,0.23236716395437854,0.036472496480857416,-0.07310090535715447,0.4487841503374727,0.42158258197909876,0.17926013157021842,0.049778744869739266,1.0256918253327458,2,right
11.380999999999998,-0.7821466899004667,0.23549240590118237,0.0341331592307776,-0.18724659512599404,0.26849543231530903,0.42257280009656506,0.20240078182575008,0.03660631425699078,1.1076072164564925,2,right
11.382,-0.7779916522780509,0.23893467758357165,0.03181112872104406,-0.3008165859993639,0.08890246469544529,0.4230655941306818,0.22565139689507735,0.023031969125107195,1.1896412841632924,2,right
11.383,-0.7736918628126187,0.24268743723974948,0.0295072720823926,-0.413782431716234,-0.08984404793950497,0.4230732622366249,0.2490028662796787,0.009063474145401497,1.2717564376610815,2,right
11.383,-0.7692484084882147,0.24674402121346042,0.027222413666103125,-0.5261178706446399,-0.2675954517630217,0.4226088239179941,0.27244603132489925,-0.005290927735624352,1.353914939796617,2,right
11.386,-0.7646623305113576,0.2510976529851008,0.024957337546792576,-0.6377987059835668,-0.44420533433992415,0.4216860035466751,0.29597169775246496,-0.020022507952062712,1.4360789463238803,2,right
11.387,-0.7599346240098013,0.2557414520741024,0.02271278994784504,-0.74880267665353,-0.6195297155720193,0.42031921313979587,0.31957064706945604,-0.0351220457523268,1.518210542211758,2,right
11.388,-0.7550662378571896,0.26066844284665897,0.020489481557663777,-0.8591093217631631,-0.7934272353416026,0.4185235342858234,0.3432336466661564,-0.05057982254320242,1.6002717744693202,2,right
11.390999999999998,-0.7500580746331029,0.26587156325608513,0.018288089712761055,-0.9686998423921382,-0.965759332862701,0.4163146990749799,0.3669514586278566,-0.06638561720171898,1.68222468159838,2,right
11.390999999999998,-0.7449109907289364,0.27134367353556266,0.016109260431494403,-1.077556963573911,-1.136390414120545,0.41370906992343437,0.3907148473283846,-0.08252870239819587,1.7640313199091915,2,right
11.395999999999999,-0.7396257966132112,0.2770775648540092,0.013953610289657947,-1.1856647978209955,-1.3051880062493884,0.41072361824348463,0.41451458587332046,-0.09899784197484812,1.8456537869349505,2,right
11.397,-0.7342032572733199,0.2830659679338514,0.011821728137041925,-1.293008710678534,-1.4720228990685864,0.40737590194631046,0.4383414614610127,-0.11578128942533417,1.9270542421804382,2,right
11.401,-0.7286440928527136,0.289301561616122,0.009714176659879236,-1.3995751886188414,-1.6367692742668287,0.40368404176984807,0.462186279729639,-0.13286678752159628,2.008194925439739,2,right
11.402000000000001,-0.7229489795022542,0.2957769813463673,0.007631493796318966,-1.505351709587463,-1.799304822719158,0.39966669642324754,0.48603986815866435,-0.15024156913527983,2.0890381729174323,2,right
11.407,-0.7171185504630275,0.3024848275462418,0.005574194013086666,-1.610326616509081,-1.959510850415774,0.3953430365383361,0.509893078593124,-0.16789235930191931,2.1695464313870123,2,right
11.408,-0.7111533973973946,0.30941767383076546,0.003542769454236195,-1.714488994059385,-2.117272373475635,0.39073271741752064,0.5337367889592113,-0.18580537857694565,2.249682270619557,2,right
11.411,-0.7050540719852532,0.31656807502963796,0.0015376909776869143,-1.8178285490067447,-2.2724782027115156,0.3858558505666304,0.5575619042396753,-0.20396634773339947,2.3294083943148025,2,right
11.411,-0.6988210878014095,0.3239285749725763,-0.000440590900310671,-1.9203354944252287,-2.425021018206512,0.3807329740003212,0.5813593567775343,-0.22236049385202633,2.408687649765823,2,right
11.415,-0.6924549224868076,0.3314917140031918,-0.0023916451308487775,-2.022000438078179,-2.5747974343549567,0.375385021306841,0.605120105976579,-0.24097255785518304,2.4874830364874407,2,right
11.415999999999999,-0.6859560202215773,0.33925003619254696,-0.004315059307321628,-2.1228142752691834,-2.721708055813374,0.36983328945819016,0.6288351374670931,-0.2597868035366943,2.5657577140373244,2,right
11.422,-0.6793247945018092,0.3471960962308748,-0.006210438871872189,-2.2227680864549053,-2.8656575247994733,0.36409940535100516,0.6524954618051315,-0.27878702814046874,2.643475009257442,2,right
11.423,-0.6725616312155622,0.35532246598326583,-0.00807740633975484,-2.321853039911801,-3.0065545601692327,0.35820529106284915,0.6760921127735982,-0.29795657454130725,2.720598423162141,2,right
11.425,-0.6656668920082695,0.3636217407025313,-0.009915600532429276,-2.420060299746323,-3.1443119886939,0.3521731278080059,0.6996161453532295,-0.31727834508191805,2.7970916376976502,2,right
11.425999999999998,-0.6586409179237492,0.3720865448994209,-0.011724675813837074,-2.5173809395357294,-3.2788467689502467,0.3460253185763536,0.7230586334314338,-0.3367348171206846,2.872918522596173,2,right
11.431,-0.6514840333042258,0.3807095378756286,-0.013504301327525389,-2.6138058618841207,-3.4100800082286415,0.33978444943843317,0.746410667316756,-0.3563080603452182,2.9480431425460627,2,right
11.432,-0.6441965499305858,0.3894834189279749,-0.015254160235943202,-2.709325724175817,-3.5379369728545114,0.3334732494994315,0.7696633511265242,-0.3759797559071646,3.0224297648977334,2,right
11.434000000000001,-0.6367787713808527,0.3984009322324249,-0.016973948966908903,-2.803930870805619,-3.6623470923094987,0.32711454948446655,0.792807800115005,-0.39573121743411827,3.096042868123069,2,right
11.435,-0.6292309975807295,0.40745487141318476,-0.018663376474932877,-2.897611272162949,-3.7832439575291525,0.3207312389372946,0.8158351380091314,-0.41554341397483496,3.168847151244063,2,right
11.440999999999999,-0.6215535295197702,0.4166380837965582,-0.020322163526429713,-2.9903564706442474,-3.9005653137442997,0.3143462220143597,0.838736494418584,-0.4353969949342125,3.2408075444443005,2,right
11.440999999999999,-0.6137466741139032,0.4259434743476083,-0.02195004201631393,-3.082155533965377,-4.01425304822335,0.30798237185596616,0.8615030023866921,-0.45527231705474036,3.3118892210746886,2,right
11.445,-0.6058107492064634,0.4353640092955102,-0.02354675431551732,-3.172997016043135,-4.1242531732627095,0.30166248351628744,0.8841257961482901,-0.47514947350129105,3.3820576112624976,2,right
11.446,-0.5977460887095631,0.44489271946944003,-0.025112052633657074,-3.262868925712281,-4.2305158047622085,0.2954092254339166,0.9065960091602967,-0.49500832510624554,3.451278417330363,2,right
11.449000000000002,-0.5895530478926984,0.45452270338350886,-0.026645698365150065,-3.3517587035417713,-4.3329951367120145,0.2892450894247273,0.9289047724704018,-0.5148285338320057,3.5195176312293754,2,right
11.45,-0.5812320088259447,0.4642471301193159,-0.028147461381530004,-3.43965320701113,-4.431649411906935,0.2831923391789378,0.9510432134754095,-0.5345895984355507,3.5867415541078227,2,right
11.45,-0.5727833859814947,0.47405924205542127,-0.02961711924169205,-3.5265387043051204,-4.526440889193271,0.2772729572444629,0.9730024550532419,-0.5542708919576316,3.6529168177347624,2,right
11.455,-0.5642076319916219,0.4839523574869989,-0.03105445630797436,-3.6124008767891693,-4.617335807521619,0.2715085905528749,0.9947736149313572,-0.5738517000074702,3.7180104067753765,2,right
11.456,-0.555505243557231,0.4939198731716613,-0.032459262769535445,-3.697224829260838,-4.704304346963492,0.265920494914526,1.0163478050867392,-0.5933112584516488,3.7819896805124804,2,right
11.456,-0.5466767675018555,0.503955266832215,-0.03383133358213701,-3.7809951053339512,-4.787320586650391,0.26052947957559985,1.0377161310392067,-0.6126287894776565,3.8448223930052072,2,right
