time,gFx,gFy,gFz,ax,ay,az,wx,wy,wz,subject_number,foot
2.083,0.5635217625069973,0.78771294465655,0.037139083164271953,-4.509282885688914,5.341928041858696,-1.5016681888724122,-0.8858566140006148,-0.037143599836886566,2.413948354783834,4,left
2.088,0.5722432086675824,0.7701714271904192,0.038664274409056426,-4.516766777725924,5.374047334417314,-1.5088464017096996,-0.8807230685132785,-0.04579610680497297,2.40010544725632,4,left
2.089,0.5807973948187715,0.7526309796027345,0.04020896615748909,-4.522356908173486,5.403147702786554,-1.5157266451306715,-0.8750919726752705,-0.0541263781265093,2.385063353327464,4,left
2.089,0.5891763352577761,0.7351065464600421,0.041773331350094464,-4.526037650526138,5.429148804255249,-1.5223060321781028,-0.8689577923319781,-0.06211874105205834,2.3688083397809243,4,left
2.093,0.5973724374234043,0.717612987794278,0.043357478926999614,-4.527795205461077,5.45197294392071,-1.528581728495613,-0.8623153431569632,-0.0697581259836113,2.3513273683712885,4,left
2.094,0.6053785115285576,0.7001650635164798,0.04496145109603277,-4.527617670768482,5.4715452997507485,-1.534550953938135,-0.8551598033455254,-0.07703011453259198,2.332608118372636,4,left
2.0980000000000003,0.6131877781219389,0.6827774184420131,0.04658522087065877,-4.525495108054585,5.487794141835048,-1.540210984039703,-0.847486725834486,-0.0839209845179808,2.3126390087582123,4,left
2.099,0.6207938736356952,0.6654645678794021,0.048228689930492376,-4.5214196044068045,5.500651041262646,-1.545559151070895,-0.8392920500290985,-0.09041775192647318,2.2914092199609613,4,left
2.103,0.6281908539846327,0.6482408837367408,0.0498916868365665,-4.515385328294155,5.510051066830144,-1.5505928445888075,-0.8305721130165195,-0.09650820985553359,2.26890871516113,4,left
2.103,0.6353731962747958,0.6311205811085923,0.05157396561127148,-4.50738857957577,5.515932969318595,-1.5553095114767643,-0.8213236602437906,-0.10218096445911273,2.2451282610435412,4,left
2.1069999999999998,0.6423357986830011,0.6141177053152224,0.05327520469677117,-4.4974278336058156,5.518239353375866,-1.5597066554891215,-0.8115438556367804,-0.10742546791466495,2.220059447963537,4,left
2.1069999999999998,0.6490739785872507,0.5972461193720968,0.054995006326616705,-4.485503779417446,5.516916837031339,-1.56378183631562,-0.8012302911350304,-0.11223204842893791,2.1936947094569277,4,left
2.112,0.6555834690421032,0.5805194918737858,0.05673289635393372,-4.4716193519628415,5.511916198859737,-1.5675326681788357,-0.7903809956159299,-0.11659193729880803,2.1660273410256177,4,left
2.113,0.6618604136988187,0.5639512852834013,0.05848832456502088,-4.455779758380703,5.503192512800577,-1.5709568179773477,-0.7789944431801218,-0.12049729304220672,2.137051518126873,4,left
2.117,0.6679013602802885,0.5475547446221787,0.06026066548425088,-4.437992498256955,5.490705270629348,-1.5740520029863312,-0.7670695607685034,-0.1239412226129268,2.1067623132904774,4,left
2.117,0.6737032527415091,0.5313428865508758,0.06204921966026414,-4.4182673778387915,5.474418492065952,-1.576815988126341,-0.7546057350796546,-0.12691779971181702,2.0751557122842885,4,left
2.122,0.6792634222704298,0.5153284888274016,0.06385321541294281,-4.396616518156562,5.454300822495264,-1.5792465828101223,-0.7416028187549794,-0.1294220802055686,2.042228629244935,4,left
2.123,0.6845795773016082,0.4995240801179734,0.06567181100873905,-4.3730543570024425,5.430325618263839,-1.5813416373763287,-0.728061135797304,-0.1314501146629749,2.0079789206866394,4,left
2.127,0.6896497927207168,0.4839419301350982,0.06750409722139793,-4.347597644709228,5.402471019505948,-1.5830990391180917,-0.7139814861871236,-0.1329989580172041,1.9724053982973628,4,left
2.127,0.6944724984308687,0.4685940400759738,0.06934910023204925,-4.320265433667101,5.370720010441058,-1.5845167079134106,-0.699365149659146,-0.134066676361271,1.9355078404276727,4,left
2.131,0.6990464674353006,0.4534921333403994,0.07120578482464568,-4.291079061510716,5.33506046707386,-1.5855925914633833,-0.6842138886002314,-0.1346523508825272,1.897287002173941,4,left
2.1319999999999997,0.7033708035694083,0.43864764651778976,0.07307305783247194,-4.260062127903505,5.295485192216771,-1.5863246601433187,-0.6685299500282862,-0.1347560789406148,1.8577446239536843,4,left
2.138,0.7074449289919295,0.4240717206465573,0.07494977178906718,-4.227240464840746,5.251991937743684,-1.586710901470803,-0.652316066610123,-0.13437897229194962,1.8168834384670445,4,left
2.138,0.711268571524604,0.40977519276383534,0.07683472874041893,-4.192642100387584,5.204583413972506,-1.586749314193797,-0.635575456674767,-0.13352315246241572,1.7747071759346174,4,left
2.142,0.7148417519168832,0.3957685877768776,0.07872668418846453,-4.15629721576297,5.153267286062785,-1.5864379020008745,-0.6183118231771599,-0.13219174326857228,1.7312205674980425,4,left
2.142,0.718164771109663,0.3820621106968029,0.08062435115277344,-4.118238095675283,5.0980561573035015,-1.5857746668546997,-0.6005293515656887,-0.13038886048629383,1.6864293466659759,4,left
2.147,0.7212381975780399,0.36866563927998236,0.08252640434909395,-4.078499071810312,5.038967539154832,-1.584757601948852,-0.5822327065054564,-0.12811959866439196,1.640340248684297,4,left
2.147,0.7240628548416247,0.35558871712234424,0.08443148448663274,-4.037116459367257,4.9760238078965005,-1.5833846842870993,-0.5634270274369465,-0.1253900151143243,1.5929610077625531,4,left
2.148,0.7266398092317594,0.3428405472445462,0.08633820268295357,-3.9941284865334863,4.909252147724154,-1.5816538668832087,-0.54411792309441,-0.12220711128035262,1.5443003523694758,4,left
2.151,0.728970357993317,0.3304299861918971,0.08824514499016897,-3.9495752167839773,4.8386844801240585,-1.5795630705783725,-0.5243114653699465,-0.11857881200746903,1.4943679993189272,4,left
2.151,0.7310560177845749,0.3183655386624025,0.09015087701867885,-3.9034984638866335,4.764357379345354,-1.5771101754722943,-0.5040141830539586,-0.11451394339769734,1.4431746476485072,4,left
2.156,0.7328985136317528,0.30665535267615446,0.09205394863367722,-3.855941699646892,4.6863119740517725,-1.574293011993433,-0.4832330558350381,-0.11002220976946812,1.390731973004794,4,left
2.157,0.7344997683885306,0.29530721530039394,0.09395289868968791,-3.8069499552046397,4.6045938365920405,-1.571109351785208,-0.4619755086778106,-0.10511416991919317,1.3370526227332942,4,left
2.157,0.7358618927360793,0.28432854893811854,0.09584625976462141,-3.756569718103472,4.519252863780223,-1.5675568988581428,-0.44024940654967665,-0.09980121270830483,1.2821502115829797,4,left
2.161,0.736987175738749,0.27372640818104804,0.09773256285176657,-3.704848828132163,4.430343154434826,-1.563633281609234,-0.41806304943676775,-0.09409553196287936,1.2260393178747846,4,left
2.162,0.7378780759496067,0.26350747722887313,0.09961034195959517,-3.651836374149998,4.337922887546693,-1.5593360461564245,-0.3954251675880677,-0.08801010067176905,1.1687354799798841,4,left
2.166,0.7385372130390583,0.2536780678818026,0.10147813856222579,-3.597582592692276,4.242054202472522,-1.5546626511607866,-0.3723449169253016,-0.08155864446800729,1.1102551929500681,4,left
2.167,0.7389673599009596,0.24424411811405722,0.1033345058479827,-3.5421387683643184,4.142803081172367,-1.5496104641556039,-0.34883187455487813,-0.07475561437712282,1.0506159051390507,4,left
2.1719999999999997,0.7391714351783455,0.2352111912307381,0.10517801272988528,-3.4855571358717974,4.040239232225758,-1.5441767593700078,-0.32489603431687175,-0.0676161588149115,0.9898360146501317,4,left
2.1719999999999997,0.7391524961468832,0.2265844756028898,0.107007247602971,-3.427890783531648,3.9344359763511716,-1.5383587170337316,-0.3005478023047605,-0.06015609481616321,0.9279348654422522,4,left
2.176,0.7389137318968109,0.21836878496895756,0.10882082185103503,-3.3691935581043975,3.825470133143883,-1.5321534241484647,-0.2757979922883963,-0.052391878474833196,0.8649327429231519,4,left
2.177,0.7384584567598746,0.2105685592870871,0.1106173731148344,-3.3095199707854754,3.713421908737719,-1.525557876710193,-0.2506578209714672,-0.04434057457518213,0.8008508688550686,4,left
2.18,0.737790103931853,0.20318786612175416,0.11239556833532637,-3.248925104189971,3.5983747840869342,-1.5185689833658016,-0.22513890301353026,-0.03601982539248968,0.7357113953951974,4,left
2.181,0.7369122192405408,0.1962304025491937,0.11415410658178012,-3.1874645201623277,3.4804154035553494,-1.5111835704861123,-0.19925324574553843,-0.027447818641073596,0.6695373980899657,4,left
2.186,0.7358284550047953,0.18969949756853421,0.11589172166811106,-3.125194168239666,3.3596334634910514,-1.5033983886363982,-0.17301324350666644,-0.018643254546523345,0.6023528676390839,4,left
2.187,0.7345425639262854,0.18359811500784307,0.11760718455474187,-3.062170294594786,3.236121600456339,-1.4952101204242922,-0.14643167152915168,-0.009625312018283916,0.5341827002422905,4,left
2.191,0.7330583929544359,0.17792885691409305,0.11929930553113305,-2.9984493512824044,3.1099752787742445,-1.486615389703865,-0.11952167929681473,-0.00041361389800509803,0.46505268633874514,4,left
2.1919999999999997,0.7313798770664618,0.1726939674133501,0.12096693617590128,-2.9340879056098688,2.981292677044852,-1.477610772113505,-0.09229678330190626,0.00897180874159565,0.3949894975461188,4,left
2.1959999999999997,0.7295110329075571,0.16789533702413068,0.122608971093845,-2.8691425494514156,2.850174573276803,-1.4681928069240644,-0.064770859123947,0.018510553273220633,0.3240206716036029,4,left
2.197,0.7274559522419339,0.1635345074030964,0.12422434942994169,-2.803669808323035,2.716724228271819,-1.458358010172578,-0.03695813275328458,0.028181883193249272,0.25217459512030144,4,left
2.2,0.725218795174562,0.15961267649670868,0.12581205615988933,-2.7377260500331815,2.581047266892784,-1.4481028890556773,-0.008873171081187207,0.03796476682868327,0.17948048392779367,4,left
2.201,0.7228037831161209,0.1561307040657329,0.1273711231565969,-2.671367392722874,2.4432515568389457,-1.4374239575556371,0.019469128522569643,0.04783791710013717,0.10596836083305346,4,left
2.205,0.7202151914792003,0.1530891175442854,0.12890063003280958,-2.6046496121072247,2.303447084545087,-1.4263177532707951,0.048053549624490925,0.05777983236861219,0.031669030565393656,4,left
2.206,0.7174573421114101,0.15048811819286023,0.13039970476006452,-2.5376280477290765,2.161745827815149,-1.4147808554208787,0.07686456921517247,0.06776883839411114,-0.04338594829133063,4,left
2.21,0.7145345954891655,0.14832758750429154,0.13186752406172123,-2.4703575080342386,2.0182616247946794,-1.4028099039965494,0.10588637135152133,0.07778313143441101,-0.11916429459237418,4,left
2.211,0.7114513427127316,0.1466070938217524,0.13330331357430034,-2.402892174076779,1.8731100388807378,-1.3904016200212541,0.13510286203546795,0.08780082251250698,-0.19563303936498352,4,left
2.2159999999999997,0.7082119973571515,0.14532589912944913,0.13470634776949167,-2.3352855016619545,1.7264082191624237,-1.3775528268922361,0.16449768537077766,0.09779998283109054,-0.2727585640660651,4,left
2.217,0.7048209872408949,0.14448296598097707,0.13607594962992775,-2.2675901217336483,1.5782747559800887,-1.364260472766306,0.19405424083454886,0.10775869006106487,-0.35050664180233965,4,left
2.217,0.7012827461726914,0.14407696453608343,0.13741149007408446,-2.199857738812613,1.4288295311865062,-1.350521653954721,0.2237557011304188,0.11765507477853406,-0.42884247978278434,4,left
2.22,0.6976017057374008,0.14410627967945477,0.13871238712721834,-2.1321390272914242,1.278193562688812,-1.3363336392902567,0.2535850298853857,0.12746736607321774,-0.5077307606251149,4,left
2.222,0.6937822871937214,0.14456901819338136,0.1399781048346526,-2.064483525391783,1.1264888428459312,-1.3216938954282784,0.2835249986582444,0.13717393560255833,-0.5871356807897832,4,left
2.224,0.6898288935701593,0.14546301595425232,0.14120815191204045,-1.9969395267828431,0.9738381705664846,-1.3066001130082083,0.31355820309817256,0.1467533398181856,-0.6670209855865306,4,left
2.225,0.6857459020437136,0.14678584512570217,0.1424020801266962,-1.929553970825012,0.8203649783189961,-1.2910502334298668,0.34366707829799836,0.15618436034259398,-0.747350000850059,4,left
2.225,0.6815376566680891,0.1485348213276768,0.14355948240533348,-1.8623723341421718,0.6661931577296112,-1.275042475690715,0.37383391342812045,0.1654460425238706,-0.828085661512851,4,left
2.23,0.6772084615017018,0.15070701076502108,0.14467999066584578,-1.7954385271913116,0.511446888810057,-1.2585753625580929,0.4040408657373206,0.17451773219594813,-0.9091905373045487,4,left
2.2319999999999998,0.6727625741807419,0.1532992372985782,0.14576327337466793,-1.728794798533286,0.3562504764859764,-1.241647745519868,0.4342699740069256,0.1833791106714289,-0.9906268558085749,4,left
2.235,0.6682041999813979,0.15630808943950344,0.1468090328380525,-1.6624816477706819,0.2007281956273044,-1.2242588282627451,0.4645031715449402,0.19201022799354314,-1.0723565231078491,4,left
2.235,0.663537486408586,0.1597299272468032,0.14781700224463612,-1.5965377471537388,0.04500414441045974,-1.206408188596802,0.4947222988068907,0.20039153447325792,-1.154341142252508,4,left
2.24,0.6587665183379469,0.16356088910797809,0.14878694248656532,-1.5309998716629698,-0.11079789443321687,-1.1880957987776175,0.5249091157301794,0.2085039105369499,-1.2365420297834964,4,left
2.241,0.6538953137281495,0.1677968983818126,0.14971863879640193,-1.465902837378062,-0.2665545849292863,-1.16932204417604,0.555045313868762,0.21632869490939516,-1.3189202305467296,4,left
2.244,0.6489278199127244,0.17243366988190986,0.15061189724534127,-1.4012794479436972,-0.42214316217938264,-1.1500877402443164,0.5851125284149216,0.22384771115611166,-1.4014365310332673,4,left
2.245,0.6438679104741071,0.17746671618015686,0.15146654115316263,-1.3371604489440938,-0.5774415501350451,-1.1303941477259751,0.6150923501948178,0.23104329260831927,-1.4840514714815514,4,left
2.25,0.6387193826963213,0.18289135370963444,0.15228240746233526,-1.273574489999335,-0.7323284732733935,-1.110242986055531,0.6449663377243451,0.23789830569295645,-1.566725356978281,4,left
2.25,0.633485955585586,0.18870270864561162,0.153059343129267,-1.2105480943979054,-0.8866835626213484,-1.0896364448927631,0.6747160294116349,0.24439617168931577,-1.6494182677948817,4,left
2.254,0.62817126843999,0.1948957225418127,0.1537972015848216,-1.1481056360812967,-1.0403874565742661,-1.0685771937349937,0.7043229559922868,0.25052088693293256,-1.7320900691968144,4,left
2.255,0.62277887994156,0.201465157697851,0.15449583931308966,-1.0862693237980787,-1.1933218969536779,-1.047068389549482,0.7337686532831091,0.2562570414863833,-1.8147004209631403,4,left
2.258,0.6173122677378179,0.20840560223285334,0.15515511259156778,-1.0250591922464276,-1.345369820747297,-1.0251136823667426,0.7630346753397902,0.26158983629562593,-1.897208786853809,4,left
2.259,0.6117748284751732,0.21571147484003522,0.1557748744287006,-0.964493100025779,-1.49641544797259,-1.0027172187743014,0.7921026081035164,0.26650509884944373,-1.9795744442620766,4,left
2.263,0.6061698782422922,0.22337702919699645,0.15635497172813323,-0.9045867342200098,-1.6463443661029977,-0.9798836432491008,0.8209540836210837,0.2709892973584396,-2.061756494289285,4,left
2.2640000000000002,0.6005006533780628,0.23139635800618327,0.1568952427022371,-0.8453536214363478,-1.7950436114933548,-0.9566180972655002,0.8495707949225393,0.2750295534688687,-2.1437138724789366,4,left
2.269,0.5947703115964453,0.23976339663955024,0.15739551454880932,-0.786805145126052,-1.9424017482381686,-0.9329262161145364,0.877934511639816,0.2786136535254025,-2.2254053604465946,4,left
2.27,0.5889819333792007,0.24847192636246634,0.15785560139636842,-0.728950569014796,-2.088308944893225,-0.9088141233688661,0.9060270964492039,0.28173005839567666,-2.3067895986416063,4,left
2.274,0.5831385235875403,0.25751557711669015,0.15827530251946798,-0.6717970664726218,-2.2326570494874525,-0.8842884229265617,0.9338305224198281,0.28436791186820376,-2.3878251004759994,4,left
2.275,0.5772430132457353,0.26688782985278126,0.15865440082799184,-0.615349755655286,-2.375339663248128,-0.8593561885657162,0.961326891349574,0.2865170476339223,-2.4684702680551434,4,left
2.278,0.5712982614524158,0.27658201841828783,0.15899266164217987,-0.5596117402508162,-2.5162522134583436,-0.834024950940604,0.9884984531691244,0.2881679948603108,-2.548683409743881,4,left
2.278,0.5653070573769713,0.28659133102582673,0.1592898317743209,-0.5045841556670997,-2.6552920258611827,-0.8083026819489553,1.0153276264939426,0.2893119823656235,-2.6284227598008365,4,left
2.283,0.5592721222998555,0.29690881134009883,0.159545638944339,-0.45026622049835435,-2.792358397020265,-0.7821977763987363,1.0417970204031506,0.2899409413994001,-2.707646500312474,4,left
2.283,0.5531961116589931,0.30752735923211516,0.15975979155735145,-0.39665529311036213,-2.9273526670412426,-0.7557190309016861,1.067889457473711,0.2900475070507577,-2.786312785567481,4,left
2.2840000000000003,0.5470816170707614,0.31843973125154607,0.15993197886633287,-0.34374693318638627,-3.060178293053462,-0.7288756199197306,1.0935879978492689,0.2896250183884316,-2.8643797685617836,4,left
2.2880000000000003,0.5409311683011945,0.32963854086567546,0.1600618715341486,-0.2915349680777237,-3.1907409238453215,-0.7016770688893033,1.1188759636754597,0.2886675175861013,-2.9418056285150356,4,left
2.2880000000000003,0.5347472351688652,0.3411162585106644,0.16014912259994393,-0.24001156380487423,-3.318948476040935,-0.674133224347524,1.1437369629843448,0.28716974836895565,-3.018548597828927,4,left
2.292,0.5285322293653435,0.3528652115012109,0.1601933688478647,-0.18916730050712424,-3.444711212028898,-0.64625422108193,1.1681549123575699,0.28512715403201416,-3.0945669873648307,4,left
2.293,0.5222885061824631,0.36487758384612995,0.16019423257210832,-0.13899125188935868,-3.567941818994681,-0.618050446818362,1.1921140581431757,0.2825358751281436,-3.1698192097244524,4,left
2.294,0.5160183661372153,0.37714541601681917,0.1601513237307397,-0.08947106776511939,-3.6885554868663637,-0.5895325058496933,1.2155989962478344,0.27939274683823806,-3.2442638006640787,4,left
2.3,0.5097240564861469,0.3896606047144187,0.16006424247899953,-0.04059305854589424,-3.8064699821236125,-0.5607111835010583,1.2385946905746223,0.27569529601768733,-3.3178594388607223,4,left
2.301,0.503407772624321,0.40241490268206564,0.1599325820682457,0.007657719220480336,-3.9216057152653425,-0.5315974128323717,1.2610864901751266,0.271441737911683,-3.3905649642462423,4,left
2.303,0.49707165936948433,0.41539991860998965,0.1597559320893068,0.055297376705770084,-4.033885801259006,-0.5022022440889558,1.2830601451833168,0.2666309725303271,-3.4623393951232164,4,left
2.3040000000000003,0.4907178121380182,0.42860711718122324,0.15953388203065444,0.1023431062422892,-4.143236113139531,-0.47253681691628757,1.304501821597212,0.2612625806729174,-3.5331419442739023,4,left
2.3080000000000003,0.4843482780232264,0.44202781930448065,0.1592660251141549,0.14881309448748853,-4.24958532908848,-0.44261233525525573,1.3253981149729241,0.2553368195891886,-3.602932034271051,4,left
2.309,0.47796505678766804,0.45565320258000874,0.15895196236600767,0.19472643544907842,-4.352864973315832,-0.4124400448335053,1.3457360630941757,0.24885461826368727,-3.671669312196684,4,left
2.312,0.4715701017806098,0.46947430204463636,0.15859130687806405,0.2401030435058756,-4.45300945105837,-0.38203121316767324,1.365503157678853,0.24181757230786025,-3.739313663972139,4,left
2.313,0.46516532079153905,0.48348201124252504,0.15818368821373915,0.28496356655791094,-4.549956078000031,-0.3513971119905745,1.3846873551826027,0.23422793844283446,-3.8058252284997853,4,left
2.3169999999999997,0.45875257685291865,0.4976670836666721,0.15772875691302343,0.3293292994377375,-4.643645104410772,-0.3205490020166867,1.403277086757867,0.22608862855427064,-3.871164411813786,4,left
2.3169999999999997,0.45233368900943116,0.5120201346132713,0.15722618905352126,0.3732220977133384,-4.734019734291514,-0.28949811995859964,1.421261267425118,0.21740320329907972,-3.935291901434152,4,left
2.322,0.4459104330738327,0.5265316434880065,0.1566756908285903,0.41666429201155314,-4.821026139803535,-0.2582556677064516,1.4386293045113765,0.2081758652422056,-3.998168681115062,4,left
2.322,0.43948454238879814,0.5411919566007483,0.1560770031078704,0.4596786029895193,-4.904613471251325,-0.2268328035817574,1.4553711054093963,0.19841145150009953,-4.059756046175073,4,left
2.327,0.4330577086104256,0.5559912904825445,0.15542990594878128,0.5022880570802711,-4.984733862878416,-0.19524063557645172,1.4714770847091538,0.1881154258659445,-4.120015619593357,4,left
2.3280000000000003,0.4266315825248155,0.5709197357561275,0.15473422303060647,0.544515903137341,-5.061342434726023,-0.1634902164874207,1.4869381707515148,0.1772938703901325,-4.178909369052507,4,left
2.334,0.42020777490498734,0.5859672615882594,0.1539898259865501,0.5863855301019822,-5.134397290794523,-0.1315925408562759,1.5017458116521545,0.16595347638795516,-4.236399625104756,4,left
2.335,0.41378785741038177,0.601123720748477,0.15319663861334756,0.6279203858154688,-5.2038595137378225,-0.09955854362363864,1.5158919808419749,0.1541015348449439,-4.292449100634635,4,left
2.3369999999999997,0.40737336352667175,0.6163788552935409,0.1523546409409088,0.6691438970978322,-5.269693156310621,-0.06739910040674812,1.5293691821684219,0.1417459261887864,-4.347020911787177,4,left
2.338,0.40096578954233053,0.6317223028901381,0.15146387314430285,0.7100793912133649,-5.331865229778332,-0.035125029308783084,1.54217045460022,0.12889510939525664,-4.4000786005267365,4,left
2.3409999999999997,0.39456659556015183,0.6471436037809785,0.15052443927701975,0.7507500188422618,-5.39034568948915,-0.002747094167895497,1.5542893765761492,0.11555811039412874,-4.45158615898737,4,left
2.342,0.38817720654473953,0.6626322083925492,0.14953651079979974,0.7911786786768703,-5.445107417797298,0.029723990846406072,1.5657200700365623,0.10174450973959795,-4.501508055771455,4,left
2.346,0.3817990134103501,0.6781774855773394,0.14850032987631995,0.8313879437602,-5.4961262045160115,0.06227755538221495,1.5764572041744058,0.08746442950831154,-4.5498092643489025,4,left
2.347,0.37543337415731276,0.6937687314791873,0.14741621240724856,0.8713999896835739,-5.543380725068187,0.09490296589251683,1.5864959989405436,0.0727285193867163,-4.596455293704839,4,left
2.352,0.36908161506883025,0.7093951790067358,0.14628455077624117,0.9112365247596123,-5.586852516491964,0.12758961755406997,1.5958322283362139,0.05754794190806196,-4.641412221379124,4,left
2.353,0.3627450319822923,0.7250460078975783,0.14510581628338903,0.9509187222861051,-5.626525951447758,0.16032692521136999,1.604462223514539,0.0419343568150813,-4.68464672897236,4,left
2.353,0.3564248916487286,0.7407103553584147,0.14388056124361936,0.9904671550157674,-5.662388210362442,0.19310431343940035,1.6123828756664624,0.025899904608164475,-4.726126139868367,4,left
2.356,0.35012243319074066,0.7563773272741491,0.14260942072996538,1.029901731946361,-5.694429251835551,0.2259112058190461,1.6195916385842724,0.009457189490757016,-4.76581845834229,4,left
2.3569999999999998,0.34383886966780935,0.7720360099811532,0.14129311394235933,1.0692416375452205,-5.722641781421432,0.25873701351919326,1.6260865307492984,-0.007380737992427003,-4.8036924088985495,4,left
2.3609999999999998,0.3375753897610521,0.7876754825914645,0.1399324451804844,1.1085052735101155,-5.747021218929652,0.29157112329115636,1.631866136832883,-0.024600398415098042,-4.839717474997846,4,left
2.3609999999999998,0.3313331595917117,0.8032848298475951,0.1385283043976536,1.1477102031093973,-5.7675656645715465,0.32440288503868303,1.636929608577869,-0.04218790097207216,-4.873863936903169,4,left
2.362,0.32511332468470766,0.8188531554917066,0.13708166731408902,1.1868730980385536,-5.784275864623529,0.35722159923037894,1.641276665070352,-0.06012896105626094,-4.906102908689585,4,left
2.366,0.31891701208621237,0.8343695961378668,0.13559359506876317,1.2260096876714242,-5.797155177463362,0.39001650447894154,1.6449075924182959,-0.07840891795940791,-4.936406374521204,4,left
2.366,0.3127453326472806,0.8498233356306281,0.13406523338593593,1.2651347106428064,-5.806209540628001,0.4227767655540621,1.6478232428515567,-0.09701275274706486,-4.964747224293382,4,left
2.371,0.30659938348933513,0.865203619862575,0.1324978112280258,1.3042618688046175,-5.811447439176864,0.4554914619922794,1.650025033255807,-0.11592510635931638,-4.9910992887326815,4,left
2.372,0.3004802506664428,0.8804997720161172,0.13089263890307745,1.3434037836563448,-5.812879875436846,0.48814957740947706,1.6515149431507894,-0.13513029798973375,-5.015437374041619,4,left
2.376,0.2943890120355331,0.8957012081901649,0.12925110559229608,1.382571955362209,-5.810520340155121,0.5207399896101111,1.6522955121212808,-0.15461234379596872,-5.037737296169536,4,left
2.376,0.2883267403435952,0.9107974533673392,0.1275746762608441,1.4217767244674675,-5.804384785074773,0.5532514615871268,1.6523698367070943,-0.1743549759962841,-5.057975914785243,4,left
2.381,0.2822945065420493,0.925778157671027,0.12586488791488806,1.4610272364263317,-5.7944915969374335,0.5856726335063572,1.6517415667564057,-0.19434166240715747,-5.07613116702132,4,left
2.381,0.2762933833410622,0.9406331128540131,0.1241233451706709,1.5003314090540367,-5.780861572906161,0.617992015769004,1.6504149012446565,-0.21455562647789023,-5.092182101054059,4,left
2.386,0.2703244490183533,0.9553522689526183,0.12235171510723096,1.5396959030157085,-5.763517897390985,0.650197983245571,1.648394583559248,-0.2349798678789013,-5.106108909577167,4,left
2.386,0.26438879149801303,0.9699257510337647,0.12055172138368465,1.5791260954648014,-5.74248612024873,0.6822787707743663,1.6456858962482386,-0.2555971837010862,-5.117892963221317,4,left
2.391,0.25848751271561665,0.9843438759585379,0.11872513761502752,1.6186260569440332,-5.717794136318019,0.714222470017389,1.642294655229237,-0.2763901903242739,-5.1275168439656245,4,left
2.392,0.2526217332849421,0.9985971690842276,0.1168737800166875,1.658198531661908,-5.689472166239696,0.7460170277660974,1.6382272034527001,-0.2973413460134177,-5.134964378581024,4,left
2.395,0.2467925974769956,1.0126763808254806,0.11499949934672787,1.6978449212581144,-5.6575527385022895,0.7776502457891903,1.6334904040118705,-0.318432974301711,-5.140220672139357,4,left
2.396,0.2410012785144915,1.0265725029928652,0.11310417219427531,1.7375652721712742,-5.62207067264167,0.8091097823141439,1.6280916326896213,-0.33964728822032325,-5.143272141615762,4,left
2.4,0.23524898417637738,1.040276784823276,0.11118969168200546,1.7773582667227248,-5.583063063513603,0.8403831552338122,1.6220387699305412,-0.3609664154349039,-5.144106549605767,4,left
2.401,0.2295369626983209,1.0537807486094521,0.10925795767006832,1.8172212180302332,-5.540569266547557,0.8714577471289412,1.615340192224664,-0.38237242434940844,-5.142713038172122,4,left
2.405,0.223866508946041,1.0670762048247406,0.10731086657074673,1.8571500688657385,-5.494630883879946,0.9023208121969416,1.6080047628873544,-0.4038473512381495,-5.139082162830135,4,left
2.406,0.2182389708278826,1.0801552666254903,0.10535030090697542,1.8971393945714383,-5.445291751254822,0.9329594851767362,1.600041822217978,-0.4253732284672794,-5.133205926673871,4,left
2.415,0.21265575589901897,1.093010363597557,0.10337811876981476,1.9371824101487196,-5.392597925570018,0.9633607923589209,1.5914611770181317,-0.44693211386715886,-5.1250778146391935,4,left
2.415,0.2071183380903853,1.1056342545948536,0.1013961433451867,1.9772709816346334,-5.336597672936894,0.9935116647698738,1.5822730894483807,-0.4685061213172658,-5.114692827893201,4,left
2.416,0.20162826447139504,1.1180200394986546,0.09940615268531179,2.0173956418807744,-5.2773414571120245,1.0233989536178032,1.5724882652006518,-0.4900774526054422,-5.102047518333164,4,left
2.417,0.19618716193015767,1.1301611697116525,0.09740986989580522,2.05754561084958,-5.214881928149574,1.0530094480880365,1.5621178409616494,-0.5116284306233745,-5.087140023171608,4,left
2.42,0.19079674363397947,1.1420514571978397,0.09540895389836854,2.0977088205431937,-5.149273911113572,1.0823298955741432,1.551173371140927,-0.5331415339602453,-5.069970099577691,4,left
2.421,0.18545881512213,1.1536850818946167,0.09340499091334749,2.1378719446801355,-5.080574394680003,1.1113470244307158,1.5396668138355278,-0.5545994329564875,-5.0505391593385465,4,left
2.4219999999999997,0.1801752798863607,1.1650565973587144,0.09139948678517727,2.178020433235096,-5.0088425194493755,1.140047569332849,1.5276105160220268,-0.5759850271957675,-5.028850303462069,4,left
2.4290000000000003,0.17494814431395517,1.1761609345576955,0.08939386024521984,2.2181385519572014,-4.934139565781438,1.168418299326512,1.515017198068185,-0.5972814839944944,-5.004908356457529,4,left
2.43,0.16977952189670514,1.186993403773727,0.08738943717482613,2.2582094269820994,-4.856528940954791,1.1964460486531499,1.501899937840222,-0.6184722766942914,-4.978719899702543,4,left
2.431,0.16467163663274412,1.1975496946341602,0.08538744590753183,2.2982150945482793,-4.776076165440936,1.2241177503406946,1.4882721547831634,-0.6395412211439335,-4.950293303119867,4,left
2.431,0.15962682556141183,1.2078258743166639,0.08338901359713861,2.338136555303558,-4.69284885805096,1.2514204721010513,1.4741475942471538,-0.6604725091757268,-4.919638754559576,4,left
2.432,0.1546475403838893,1.2178183839984897,0.08139516366996245,2.3779538317435693,-4.606916719663795,1.2783414532610153,1.459540312145701,-0.6812507386346991,-4.88676828659713,4,left
2.434,0.14973634813989944,1.2275240336439712,0.07940681436767327,2.4176460267995203,-4.518351515214031,1.3048681410013836,1.4444646599273339,-0.701860939937353,-4.851695800629999,4,left
2.435,0.14489593092960354,1.2369399952599753,0.07742477836892316,2.4571913821166183,-4.427227053632072,1.3309882246291354,1.428935269820129,-0.7222885992200734,-4.8144370881847935,4,left
2.439,0.14012908468652205,1.2460637947846915,0.07544976344959128,2.4965673355082245,-4.3336191654626415,1.356689667418583,1.4129670403071737,-0.7425196781368507,-4.7750098493405035,4,left
2.44,0.13543871701822327,1.2548933027944769,0.0734823741047813,2.535750577594827,-4.237605677902785,1.3819607360074329,1.3965751217896898,-0.7625406303654955,-4.733433708167134,4,left
2.444,0.13082784413338241,1.2634267242117405,0.07152311401995946,2.5747171077413884,-4.139266386997793,1.4067900274227652,1.3797749023932355,-0.7823384148809968,-4.689730225072733,4,left
2.445,0.12629958687040407,1.2716625871798204,0.06957238925065912,2.6134422894061387,-4.038683026726276,1.4311664938107456,1.3625819938711479,-0.8019005060541141,-4.6439229059456,4,left
2.449,0.1218571658432667,1.2795997312493936,0.06763051194959185,2.6519009050133198,-3.9359392346987505,1.455079464942637,1.3450122175581687,-0.8212149006326893,-4.5960372079722704,4,left
2.449,0.11750389573137544,1.287237295007421,0.06569770446310186,2.6900672104617693,-3.831120514187413,1.4785186685684182,1.3270815903260267,-0.8402701216625258,-4.546100542005791,4,left
2.454,0.11324317876129254,1.2945747032816555,0.06377410360457872,2.7279149893805394,-3.7243141921983303,1.5014742486880108,1.3088063104916157,-0.8590552194040056,-4.494142271352742,4,left
2.455,0.10907849745173423,1.3016116540700766,0.06185976490503141,2.7654176072419774,-3.615609373291075,1.523936781808791,1.2902027436273327,-0.8775597692999045,-4.440193706841499,4,left
2.459,0.10501340671172214,1.3083481053656996,0.05995466664725085,2.802548065441845,-3.505096888844872,1.545897291256697,1.271287408222101,-0.8957738670491219,-4.384288098028355,4,left
2.46,0.10105152539352022,1.3147842620619046,0.05805871351384511,2.8392790554551586,-3.3928692414646355,1.5673472596068594,1.2520769611406126,-0.9136881208402691,-4.326460620392299,4,left
2.464,0.09719652740883974,1.320920563124671,0.05617173972073517,2.8755830131754165,-3.2790205442147995,1.588278639298261,1.2325881828273824,-0.9312936407982516,-4.266748358363545,4,left
2.465,0.09345213251902583,1.3267576692032421,0.05429351156248248,2.9114321735438247,-3.1636464543636706,1.6086838614954972,1.2128379622013108,-0.9485820256961496,-4.205190284025277,4,left
2.469,0.08982209690512194,1.3322964508209956,0.05242372935606115,2.9467986255739773,-3.046844101316113,1.6285558432592377,1.1928432811856071,-0.9655453469838408,-4.141827231322587,4,left
2.469,0.08631020360847673,1.3375379772484144,0.050562028827082356,2.98165436787623,-2.928712008407708,1.6478879930855064,1.1726211988171205,-0.9821761301839248,-4.07670186560713,4,left
2.474,0.08292025290403135,1.342483506115795,0.0487079820339795,3.0159713647846833,-2.8093500082291585,1.6666742148723788,1.1521888348783809,-0.9984673337045937,-4.009858648340762,4,left
2.475,0.07965605262810473,1.34713447377823,0.04686109797203638,3.049721603188317,-2.68885915114561,1.6849089103711736,1.1315633529949438,-1.0144123251181665,-3.941343796776215,4,left
2.478,0.07652140843951367,1.3514924864010882,0.0450208230409802,3.082877150166355,-2.567341606671742,1.7025869801776596,1.1107619431399878,-1.0300048549530472,-3.8712052384278253,4,left
2.479,0.07352011395941577,1.3555593116927194,0.04318654159698144,3.115410211526369,-2.444900557359952,1.719703823317232,1.0898018034874994,-1.045239028045893,-3.7994925601403846,4,left
2.483,0.07065594072032672,1.3593368711761205,0.0413575768387494,3.1472931913420235,-2.3216400848557135,1.736255335476434,1.0687001215548373,-1.0601092724997834,-3.726256951559401,4,left
2.483,0.06793262786214277,1.3628272328662454,0.03953319228869738,3.178498752585651,-2.1976650477712396,1.7522379059315958,1.0474740545749506,-1.074610306293172,-3.6515511428013774,4,left
2.488,0.06535387153971238,1.3660326042067223,0.03771259411437765,3.208999878949056,-2.073080951025944,1.7676484132237542,1.0261407090380774,-1.0887371015833716,-3.5754293361182192,4,left
2.489,0.06292331404200069,1.3689553251222717,0.03589493449057782,3.238769937944075,-1.9479938062998197,1.782484219627396,1.0047171193806708,-1.1024848468198183,-3.4979471314976966,4,left
2.489,0.06064453265225133,1.371597861064949,0.03407931613688172,3.267782745372489,-1.8225099832438274,1.7967431644589276,0.9832202259905807,-1.1158489071439777,-3.4191614468987654,4,left
2.494,0.05852102829372388,1.3739627959680127,0.03226479809412564,3.296012631252846,-1.696736051089615,1.8104235562691402,0.9616668530421738,-1.1288247842045138,-3.339130435186408,4,left
2.495,0.056556214014799516,1.3760528250536421,0.030450402736169193,3.32343450728966,-1.5707786102994592,1.823524163962282,0.940073686866455,-1.141408076877938,-3.257913400587815,4,left
2.498,0.05475340337991945,1.377870747461815,0.028635123948199295,3.350023935968275,-1.4447441138961783,1.8360442068826948,0.9184572553693972,-1.1535944440211612,-3.1755707167269227,4,left
2.498,0.053115798841543674,1.3794194586878405,0.026817936339530342,3.3757572012665427,-1.3187386784844757,1.8479833439069033,0.8968339086665736,-1.1653795697284406,-3.0921637469208063,4,left
2.499,0.05164648016188307,1.3807019428410205,0.024997805317568327,3.4006113805226015,-1.1928678868373597,1.8593416615703031,0.8752198009104221,-1.1767591312013952,-3.0077547666569715,4,left
2.503,0.050348392935457544,1.3817212647596815,0.023173697841300203,3.4245644161865663,-1.067236587273976,1.870119661243204,0.8536308732480795,-1.1877287692670875,-2.9224068880151184,4,left
2.504,0.04922433724929794,1.3824805620399179,0.02134459366509181,3.4475951857319216,-0.9419486969179772,1.880318245362249,0.8320828378477039,-1.198284061578019,-2.83618398579391,4,left
2.508,0.04827695651529623,1.3829830370653353,0.019509496846493127,3.4696835684494363,-0.8171070140632273,1.8899387027286327,0.8105911629312252,-1.2084204985267213,-2.7491506251003917,4,left
2.509,0.0475087265128688,1.383231949158534,0.01766744724875935,3.4908105086529426,-0.6928130415214243,1.8989826928955986,0.7891710587515409,-1.2181334619064421,-2.6613719901570203,4,left
2.512,0.046921944680472005,1.3832306070005285,0.015817531754817867,3.510958075273194,-0.5691668209644873,1.9074522296730974,0.7678374644522863,-1.2274182063482442,-2.572913814078755,4,left
2.513,0.04651871969062602,1.382982361478464,0.01395889492309786,3.5301095179032167,-0.4462667779032899,1.9153496637772554,0.7466050357484748,-1.2362698435636235,-2.48384230937031,4,left
2.5180000000000002,0.04630096133768816,1.382490599127649,0.012090748839799744,3.5482493193558016,-0.3242095769458919,1.922677664650631,0.7254881333665048,-1.2446833294205393,-2.394224098891559,4,left
2.5180000000000002,0.046270370760295616,1.3817587363341348,0.010212381947340522,3.5653632447909915,-0.20308998698027972,1.9294392014775987,0.7045008121822771,-1.252653453879519,-2.304126147037112,4,left
2.523,0.04642843100882805,1.3807902144620676,0.008323166651798178,3.5814383874685363,-0.08300075592876277,1.935637523417555,0.6836568109964632,-1.2601748338152545,-2.2136156908743314,4,left
2.524,0.04677639794906711,1.3795884960703666,0.006422565535730036,3.5964632111774026,0.03596750527640651,1.9412761390769977,0.6629695428862866,-1.2672419087478508,-2.122760170982483,4,left
2.529,0.04731529146158404,1.378157062390358,0.004510136034849475,3.610427589391468,0.15372642984393417,1.9463587952399177,0.6424520860735595,-1.2738489395066075,-2.031627161734331,4,left
2.53,0.04804588684964423,1.3764994122488592,0.002585533485482834,3.6233228411975618,0.2701899937456967,1.9508894548743108,0.6221171752491227,-1.2799900098479307,-1.9402843007603257,4,left
2.533,0.04896870631069581,1.374619062631459,0.0006485125151851846,3.6351417640389845,0.3852746061518373,1.9548722744310183,0.6019771932942873,-1.2856590310476645,-1.8487992173345096,4,left
2.5340000000000003,0.05008401026832307,1.3725195510781383,-0.0013010731773557393,3.645878663314615,0.4988991920168515,1.9583115804495064,0.5820441633403667,-1.2908497494868099,-1.7572394594204979,4,left
2.5380000000000003,0.051391788315589215,1.3702044400826996,-0.003263272538298301,3.655529378870622,0.61098526715105,1.9612118454836076,0.5623297411079062,-1.295555757248257,-1.6656724191152674,4,left
2.539,0.05289174949529967,1.3676773236311004,-0.005238040198457538,3.6640913084187243,0.7214570061078325,1.9635776633586755,0.5428452074677818,-1.2997705057408069,-1.5741652562280932,4,left
2.542,0.054583311639531056,1.3649418359684626,-0.007225240610516714,3.6715634279118405,0.8302413032130168,1.9654137237700429,0.5236014611669285,-1.3034873223653762,-1.482784819731749,4,left
2.543,0.056465589514102764,1.3620016626348674,-0.009224652990898361,3.6779463089048425,0.937267827058051,1.966724786231125,0.5046090116620905,-1.306699430236895,-1.3915975668230682,4,left
2.5469999999999997,0.05853738158052601,1.3588605537542109,-0.011235976696806439,3.6832421329250016,1.0424690687743108,1.967515653377974,0.48587797200564053,-1.3093999709739863,-1.3006694793301339,4,left
2.548,0.06079715532000075,1.3555223394903781,-0.013258836612052799,3.6874547028736013,1.1457803844008354,1.9677911436355688,0.4674180517282111,-1.311582030567092,-1.2100659772037283,4,left
2.552,0.06324303126711495,1.351990947489705,-0.01529278812228693,3.6905894514770616,1.247140031652817,1.9675560632496167,0.44923854966359766,-1.3132386683342592,-1.1198518288312294,4,left
2.553,0.06587276615671801,1.3482704219996424,-0.017337321356074194,3.692653446802782,1.3464892013929197,1.9668151776861533,0.43134834666214616,-1.3143629489723283,-1.0300910579118816,4,left
2.557,0.06868373586303035,1.3443649441905356,-0.019391864537715704,3.6936553948518234,1.443772044102081,1.9655731823997356,0.41375589813961383,-1.3149479777097774,-0.9408468466333013,4,left
2.557,0.07167291906592596,1.3402788530233631,-0.021455786496074606,3.693605639237461,1.5389356916408465,1.9638346729695693,0.39646922640929794,-1.314986938565966,-0.8521814348901932,4,left
2.5580000000000003,0.07483688275194246,1.3360166658473949,-0.02352839854760286,3.692516157955537,1.6319302745865238,1.9616041146014476,0.37949591277343775,-1.3144731356421155,-0.7641560154989112,4,left
2.562,0.07817177065535935,1.3315830978655272,-0.02560895606842732,3.690400557249529,1.722708935425506,1.958885810991947,0.3628430894876528,-1.3134000369784258,-0.6768306264197668,4,left
2.563,0.08167329555813178,1.3269830796985427,-0.027696660073810053,3.6872740625702045,1.8112278378740412,1.9556838725498924,0.34651743195948487,-1.3117613198092535,-0.5902640429028546,4,left
2.5660000000000003,0.08533673614472564,1.322221772392607,-0.02979065908786243,3.683153506626771,1.8974461725944953,1.9520021839686954,0.3305251516799144,-1.3095509156573018,-0.504513673531791,4,left
2.5669999999999997,0.08915693895592398,1.3173045792561033,-0.03189005156227968,3.6780573145024182,1.9813261595207379,1.947844371216922,0.3148719902507375,-1.3067630540955555,-0.4196354630849817,4,left
2.568,0.09312832582759129,1.3122371539773228,-0.03399388906204538,3.6720054856989655,2.06283304676453,1.9432137683888475,0.2995632146252019,-1.3033923047049731,-0.3356838032340014,4,left
2.572,0.09724490697201918,1.307025404649116,-0.03610118033404647,3.665019572782978,2.141935105644701,1.9381133855317976,0.2846036135433541,-1.299433617143695,-0.2527114510442243,4,left
2.573,0.10150029961075792,1.3016754935329595,-0.038210896199263863,3.657122656197626,2.2186036211389077,1.9325458789414993,0.26999749511714055,-1.294882359319748,-0.17076945503399052,4,left
2.577,0.10588775183343846,1.2961938325424889,-0.04032197496095441,3.6483393149071133,2.292812877286245,1.9265135250395107,0.2557486855212965,-1.2897343536575507,-0.08990708855125065,4,left
2.5780000000000003,0.11040017113901723,1.2905870745207715,-0.04243332775035036,3.638695592727301,2.364540137485556,1.9200181982690312,0.2418605287470558,-1.2839859114468395,-0.010171790229441905,4,left
2.5810000000000004,0.11503015693952374,1.2848621004630008,-0.04454384305778019,3.6282189602988586,2.4337656198625757,1.9130613530682634,0.22833588737673066,-1.2776338652609283,0.06839088871269622,4,left
2.5810000000000004,0.11977003619712617,1.2790260029114235,-0.04665238971940867,3.6169382726777504,2.500472467919048,1.9056440099039977,0.21517714433823598,-1.2706755994295111,0.14573733055956042,4,left
2.588,0.12461190132534876,1.2730860658211105,-0.048757817850425364,3.604883722515422,2.564646716669828,1.8977667453467673,0.20238620559966697,-1.26310907854948,0.22182589080433643,4,left
2.589,0.12954764950204037,1.2670497412611332,-0.050858957553871646,3.5920867887986487,2.6262772544667907,1.8894296861675866,0.18996450376508267,-1.25493287401551,0.2966169316974617,4,left
2.591,0.13456902259443618,1.2609246233802982,-0.05295461557504578,3.578580181116703,2.685355780701157,1.880632507434969,0.1779130025336979,-1.2461461885504146,0.3700728498600044,4,left
2.592,0.13966764696448317,1.2547184201356396,-0.05504357032159173,3.5643977794212818,2.741876759568562,1.8713744345895948,0.16623220198574196,-1.236748878713536,0.4421580981804546,4,left
2.595,0.14483507249300906,1.2484389233488384,-0.0571245657967929,3.549574569242499,2.7958373700738997,1.8616542494726778,0.15492214465930151,-1.2267414753636734,0.5128392022097027,4,left
2.596,0.15006281022970244,1.2420939777040287,-0.059196305019565396,3.534146572322222,2.8472374524456487,1.8514703002827557,0.1439824223835283,-1.2161252020513156,0.5820847712651468,4,left
2.6010000000000004,0.15534236814001148,1.2356914493184228,-0.06125744347212428,3.518150772624075,2.8960794511220405,1.8408205154343082,0.13341218383465567,-1.2049019913131749,0.6498655044509386,4,left
2.602,0.16066528447833606,1.2292391945025398,-0.06330658305870564,3.5016250376776155,2.9423683544640813,1.829702421290275,0.12321014278233278,-1.1930744988402833,0.7161541917973487,4,left
2.6060000000000003,0.16602315837330853,1.2227450292807314,-0.06534226698666316,3.4846080352124322,2.9861116313430993,1.8181131637392127,0.1133745869948471,-1.180646115489154,0.7809257107181121,4,left
2.6069999999999998,0.17140767727977932,1.21621670016823,-0.06736297589907102,3.467139145036299,3.027319164743136,1.8060495335864888,0.1039033877728676,-1.1676209771037729,0.8441570179804112,4,left
2.61,0.17681064105147823,1.2096618566057897,-0.06936712551458608,3.4492583661099947,3.0660031825111678,1.7935079957275757,0.09479401008239652,-1.1540039721144495,0.905827137377872,4,left
2.611,0.1822239825258704,1.2030880253474834,-0.07135306598820262,3.431006218769991,3.1021781853808466,1.7804847220701363,0.08604352325867076,-1.139800746877836,0.9659171432925948,4,left
2.615,0.18763978467865763,1.1965025869892845,-0.07331908319068933,3.4124236420489003,3.135860872388165,1.76697562817024,0.077648612253799,-1.1250177087207023,1.0244101403278212,4,left
2.616,0.19305029458054912,1.1899127547201191,-0.075263402073825,3.3935518860424194,3.1670700637901987,1.752976413546676,0.0696055894019593,-1.109662026648365,1.081291239188358,4,left
2.622,0.1984479345537437,1.183325555278373,-0.07718419219612901,3.3744323992704084,3.195826621590897,1.7384826056359381,0.061910406677012524,-1.0937416296769809,1.1365475289813447,4,left
2.622,0.20382531105512774,1.1767478120157027,-0.07907957532100346,3.3551067109788226,3.222153367770709,1.723489607349067,0.05455866841840709,-1.0772652027472518,1.1901680461053674,4,left
2.625,0.20917522187064694,1.1701861299209702,-0.08094763481730122,3.3356163083283663,3.246075000309752,1.7079927481901243,0.047545644498889816,-1.0602421802058672,1.242143739912541,4,left
2.6260000000000003,0.2144906621591976,1.1636468824509,-0.08278642647756436,3.3160025084150355,3.2676180070871834,1.6919873388946483,0.040866283891681586,-1.0426827369914826,1.2924674354297376,4,left
2.627,0.2197648297563314,1.1571362000448961,-0.08459399035536824,3.296306325067124,3.2868105777324574,1.6754687295450152,0.034515228565423384,-1.0245977779342164,1.3411337936116567,4,left
2.63,0.22499113002043553,1.1506599602470324,-0.08636836323835885,3.276568330362781,3.303682513497242,1.6584323711181734,0.028486827619315674,-1.0059989257281752,1.3881392696999222,4,left
2.6319999999999997,0.2301631804309021,1.1442237794024788,-0.08810759135321528,3.256828510811876,3.3182651352099417,1.640873880419763,0.022775151588687138,-0.9868985079828808,1.4334820701514388,4,left
2.635,0.23527481510199444,1.1378330059368869,-0.08980974289281352,3.237126118384216,3.330591189445656,1.6227891082587267,0.01737400688250979,-0.9673095434841894,1.4771621084032711,4,left
2.636,0.24032008932411386,1.1314927152573966,-0.09147292002861829,3.2174995177588,3.3406947534258005,1.6041742102228735,0.012276950332158748,-0.9472457276417171,1.5191809596303187,4,left
2.637,0.24529328419685187,1.1252077063203483,-0.09309527019481925,3.197986033315718,3.3486111398536234,1.5850257185284675,0.0074773038349951965,-0.926721417067932,1.5595418146260507,4,left
2.64,0.2501889113909164,1.1189824998987388,-0.09467499653897296,3.178621800585169,3.354376803273459,1.5653406129232543,0.00296816907724263,-0.9057516132326658,1.598249432931778,4,left
2.64,0.2550017180626959,1.1128213385615744,-0.09621036750223369,3.1594416256755236,3.358029249147077,1.5451163891129713,-0.0012575576785004855,-0.8843519451354401,1.635310095335183,4,left
2.645,0.25972669193164605,1.1067281883385722,-0.09769972553481308,3.1404788540557513,3.359606946135654,1.5243511240657326,-0.005207170754914605,-0.8625386509366767,1.6707315558540607,4,left
2.6460000000000004,0.2643590665081468,1.1007067419760672,-0.09914149497938261,3.121765248875206,3.3591492416816364,1.5030435380393028,-0.008888140183748396,-0.8403285584875878,1.7045229933164827,4,left
2.6510000000000002,0.26889432642742933,1.094760423603475,-0.10053418915840376,3.1033308787657443,3.3566962809010605,1.4811930532731612,-0.012308096803898499,-0.8177390646973021,1.7366949626438666,4,left
2.6510000000000002,0.2733282128041325,1.0888923945490923,-0.10187641667344484,3.085204015071767,3.3522889287909554,1.4587998492856953,-0.015474817345142071,-0.7947881136746019,1.767259345938726,4,left
2.655,0.277656728470913,1.0831055599916484,-0.10316688687765332,3.067411038454495,3.3459686957505914,1.4358649147153146,-0.018396209508112944,-0.771494173580504,1.7962293034741983,4,left
2.655,0.2818761429091427,1.0774025761197443,-0.10440441444484168,3.0499763548175753,3.337777666409626,1.4123900956427122,-0.021080297050362795,-0.7478762121268298,1.8236192246777942,4,left
2.659,0.28598299663694443,1.0717858574935673,-0.10558792295068108,3.032922320502008,3.327758431750564,1.3883781403299476,-0.02353520488762151,-0.7239536706548712,1.849444679197207,4,left
2.66,0.2899741048086889,1.0662575843556508,-0.10671644740508851,3.0162691766993257,3.3159540245074735,1.363832740310469,-0.02576914421866638,-0.699746436727278,1.8737223681314288,4,left
2.6639999999999997,0.2938465598099947,1.0608197097121923,-0.10778913572519899,3.0000349930329926,3.30240785781752,1.3387585677626466,-0.027790397681528314,-0.6752748151653586,1.8964700755058972,4,left
2.6660000000000004,0.297597732697959,1.0554739660934565,-0.10880524920944726,2.9842356202590747,3.2871636670966224,1.3131613090978373,-0.029607304548105024,-0.6505594974631147,1.917706620065892,4,left
2.6689999999999996,0.3012252734207216,1.05022187198873,-0.10976416215180783,2.968884652038381,3.270265455105418,1.2870476946924874,-0.03122824596361658,-0.6256215295085129,1.9374518074579692,4,left
2.67,0.30472710983367857,1.045064738026174,-0.110665360799992,2.9539933957334674,3.2517574401667133,1.2604255246922487,-0.03266163023672776,-0.6004822775417366,1.9557263828648153,4,left
2.675,0.30810144559728025,1.0400036730219795,-0.11150844189240743,2.9395708521851516,3.2316840074907285,1.2333036908145911,-0.03391587818557473,-0.5751633922794634,1.9725519841545778,4,left
2.677,0.31134675708411624,1.0350395900528409,-0.11229311099588192,2.9256237044244626,3.210089663559678,1.2056921940749088,-0.03499940854437081,-0.5496867711335746,1.9879510956014343,4,left
2.679,0.31446178943495384,1.0301732127117789,-0.1130191808113155,2.912156315277264,3.1870189935186257,1.177602158359662,-0.03592062343472701,-0.5240745184521228,2.001947002229946,4,left
2.68,0.3174455518864314,1.0254050816923126,-0.11368656953088636,2.8991707338201307,3.162516621515031,1.1490458397686634,-0.03668789390530878,-0.4983489037098743,2.0145637448315803,4,left
2.6839999999999997,0.32029731245933246,1.0207355618121592,-0.11429529924217434,2.8866667106474337,3.1366271739250586,1.1200366316472095,-0.03730954554295959,-0.47253231757528164,2.0258260756976925,4,left
2.6839999999999997,0.32301659206062655,1.0161648495383573,-0.11484549430673541,2.8746417219109346,3.1093952454004676,1.0905890652273917,-0.037793844157955905,-0.446647225780361,2.035759415109217,4,left
2.688,0.32560315802385936,1.0116929810173831,-0.11533737960763145,2.8630910020945923,3.080865367665789,1.0607188057965784,-0.03814898154561553,-0.42071612071961695,2.0443898086193744,4,left
2.6889999999999996,0.328057017093981,1.007319840555784,-0.11577127856292602,2.8520075854886566,3.051081980991508,1.0304426443097647,-0.038383061326063075,-0.39476147070390133,2.0517438851618,4,left
2.694,0.33037840785518735,1.0030451694507905,-0.11614761082988156,2.8413823563284906,3.0200894082651266,0.9997784843612302,-0.03850408487468427,-0.3688056668894941,2.057848816009393,4,left
2.695,0.33256779260335595,0.9988685750490417,-0.11646688966058233,2.83120410756493,2.9879318315782366,0.9687453244297268,-0.038519937411043974,-0.3428709683755792,2.0627322745889987,4,left
2.695,0.33462584867693496,0.9947895399148108,-0.11672971890052135,2.821459608234311,2.954653271244142,0.9373632353102663,-0.038438374413800526,-0.31697944681464235,2.0664223971237554,4,left
2.698,0.33655345928318675,0.9908074309938453,-0.11693678964674652,2.8121336793976286,2.92029756715709,0.9056533326444542,-0.03826700858443842,-0.2911529323533305,2.068947744054897,4,left
2.699,0.33835170389089264,0.9869215086472717,-0.1170888766077977,2.8032092786195513,2.8849083624008274,0.8736377444602647,-0.03801329752672458,-0.2654129622483548,2.070337262207752,4,left
2.7030000000000003,0.34002184829625726,0.9831309354161469,-0.11718683423351216,2.794667592959272,2.8485290890109782,0.8413395736311485,-0.0376845322084074,-0.2397807326507239,2.0706202476928572,4,left
2.7039999999999997,0.3415653344912139,0.9794347843826443,-0.1172315927019571,2.786488140446361,2.811202955792635,0.8087828551634297,-0.03728782621580525,-0.21427705357876184,2.0698263095462166,4,left
2.705,0.34298377046562,0.9758320470193347,-0.11722415385827946,2.7786488798473696,2.772972938066828,0.7759925083167197,-0.03683010580057134,-0.1889223070060133,2.067985334112754,4,left
2.708,0.34427892005809196,0.9723216404521982,-0.11716558719367523,2.771126327687151,2.7338817690928146,0.7429942840445424,-0.03631810071770573,-0.16373640799044592,2.065127450173843,4,left
2.7089999999999996,0.3454526929430295,0.9689024140970957,-0.11705702593424636,2.763895679972721,2.6939719326874663,0.7098147091115081,-0.03575833585368983,-0.13873876877172808,2.0612829948166924,4,left
2.713,0.3465071348201919,0.9655731556607917,-0.11689966329011088,2.7569309352255695,2.653285656436562,0.6764810287259736,-0.03515712364344299,-0.11394826576378822,2.0564824800403687,4,left
2.714,0.34744441786757974,0.9623325965274626,-0.11669474890173952,2.750205016272128,2.6118649050141847,0.6430211490432577,-0.03452055727464431,-0.08938320937034482,2.050756560090305,4,left
2.719,0.3482668315202794,0.9591794165796511,-0.11644358550596261,2.743689889760115,2.5697513733470294,0.6094635800240843,-0.03385450467782526,-0.06506131655163604,2.0441359995103223,4,left
2.719,0.3489767736363115,0.9561122485259254,-0.11614752582216283,2.737356683212118,2.5269864794820562,0.5758373786492051,-0.033164603300519145,-0.040999686071172145,2.0366516418984375,4,left
2.7230000000000003,0.34957674210373707,0.9531296818243475,-0.11580796963655397,2.731175799597019,2.483611357038591,0.5421720923941419,-0.03245625566365125,-0.017214776351979915,2.028334379350075,4,left
2.725,0.35006932693398596,0.9502302663011869,-0.11542636104854184,2.7251170294005025,2.4396668471239775,0.5084977028677097,-0.03173462569826854,0.006277614127494532,2.01921512256973,4,left
2.7260000000000004,0.350457202876041,0.9474125155679548,-0.11500418583972177,2.719149660176373,2.3951934895900235,0.474844569517786,-0.031004635860638643,0.02946236396691155,2.009324771629647,4,left
2.7289999999999996,0.35074312257446405,0.9446749103376475,-0.11454296892986134,2.713242583560871,2.3502315135057166,0.44124337330767804,-0.030270965023694228,0.052325043575286175,1.998694187351692,4,left
2.73,0.35092991028131776,0.9420159017350069,-0.11404427189198234,2.707364399732512,2.304820826720059,0.40772506026641614,-0.029538047142760513,0.07485192756741356,1.9873541632862795,4,left
2.735,0.351020456119408,0.9394339146862474,-0.1135096905069158,2.7014835193002384,2.2590010043873496,0.37432078481636355,-0.02881007069347875,0.09703000489204405,1.975335398260018,4,left
2.736,0.3510177108824176,0.9369273514601643,-0.11294085234199469,2.6955682626028485,2.2128112763258376,0.34106185278168166,-0.02809097887982766,0.11884698675745695,1.9626684694615937,4,left
2.74,0.3509246813443757,0.9344945954148728,-0.11233941433567204,2.6895869564027497,2.1662905130793697,0.3079796639814281,-0.027384470610146396,0.14029131241911835,1.949383806033388,4,left
2.741,0.35074442603471806,0.9321340149838759,-0.11170706036069586,2.68350802795707,2.1194772105505018,0.275105654311394,-0.026694002239076205,0.1613521528931086,1.9355116631343612,4,left
2.745,0.3504800514166972,0.9298439679130441,-0.11104549872783413,2.677300096449072,2.072409473072456,0.24247123721920355,-0.02602279007336306,0.18201941265796873,1.9210820964378867,4,left
2.7460000000000004,0.35013470838824257,0.9276228057378544,-0.11035645958503856,2.6709320617626084,2.0251249947863705,0.21010774447770833,-0.025373813639499,0.20228372940654601,1.906124937026431,4,left
2.75,0.34971158900724475,0.9254688784698208,-0.10964169216532084,2.664373190582102,1.9776610391894411,0.1780463661623043,-0.024749819711225675,0.22213647190831992,1.890669766643296,4,left
2.7510000000000003,0.3492139233299958,0.9233805394440239,-0.10890296183906706,2.6575931998001385,1.9300544167188205,0.14631808973849,-0.024153327094978257,0.24156973604155904,1.874745893260036,4,left
2.755,0.3486449762453554,0.9213561502669737,-0.10814204693016316,2.6505623372143163,1.882341460235524,0.11495363816676119,-0.02358663217141129,0.26057633905350464,1.8583823269166468,4,left
2.755,0.3480080441890284,0.9193940857960802,-0.10736073525898272,2.6432514594944503,1.8345579982720635,0.0839834069328045,-0.023051815191219387,0.2791498121055954,1.8416077557901847,4,left
2.76,0.34730645163010065,0.9174927390789384,-0.1065608203806999,2.635632107400578,1.7867393259071345,0.053437399911909905,-0.022550747323544118,0.29728439115954497,1.8244505224461411,4,left
2.761,0.3465435472336298,0.9156505261837665,-0.10574409749703602,2.627676578231519,1.7389201731303603,0.023345163977565267,-0.022085098455343635,0.31497500625885794,1.8069386002256231,4,left
2.765,0.3457226996184234,0.9138658908625734,-0.10491235903378117,2.619357995482918,1.6911346705599024,-0.006264277734671335,-0.021656345724617065,0.33221726927353856,1.7890995697498655,4,left
2.765,0.3448472926485938,0.9121373090035905,-0.10406738989104801,2.6106503756928245,1.6434163123756422,-0.03536249399570844,-0.02126578269259425,0.3490074602465281,1.7709605956707901,4,left
2.766,0.3439207202189196,0.9104632928448945,-0.10321096238393036,2.6015286924518963,1.5957979163306357,-0.06392171517025189,-0.020914528919922244,0.3653425126088088,1.7525484040622101,4,left
2.7689999999999997,0.3429463805130798,0.9088423949348622,-0.1023448309030547,2.5919689375542747,1.548311580703639,-0.09191490450792789,-0.02060353963410768,0.3812199976008718,1.7338892609936203,4,left
2.77,0.3419276697288015,0.9072732118382946,-0.10147072634453477,2.5819481792526413,1.5009886381897937,-0.11931583101021896,-0.020333615253461366,0.3966381081649028,1.7150089526793695,4,left
2.77,0.3408679752761773,0.9057543875997487,-0.10059035037911765,2.571444617522656,1.4538596073973653,-0.14609914328612877,-0.02010541067308454,0.4115956424410591,1.6959327673283198,4,left
2.7739999999999996,0.3397706684662662,0.9042846169872739,-0.09970536963940227,2.560437636137909,1.4069541438257271,-0.17224044280426462,-0.01991944429642948,0.42609198692785394,1.6766854786700975,4,left
2.7739999999999996,0.33863909672002523,0.9028626485562627,-0.09881740990981969,2.548907851298085,1.3603009928707661,-0.1977163543897702,-0.019776106811660463,0.4401270993509372,1.6572913311037554,4,left
2.779,0.3374765753442906,0.9014872875994203,-0.09792805041647495,2.536837156608765,1.3139279467339273,-0.22250459237032563,-0.01967566971216067,0.45370149128324117,1.6377740264140992,4,left
2.78,0.33628637893537505,0.9001573990750067,-0.09703881832176099,2.524208764312657,1.2678618059048254,-0.24658402177719252,-0.019618293560651603,0.4668162105581345,1.6181567120004379,4,left
2.784,0.3350717324754632,0.8988719106162067,-0.09615118352004608,2.511007242727686,1.222128345217569,-0.26993471456293056,-0.019604035996513856,0.47947282351590514,1.598461970562091,4,left
2.785,0.3338358021853749,0.8976298157145132,-0.09526655381225699,2.4972185498572137,1.1767522843476363,-0.29253800090695004,-0.019632859486021052,0.49167339712256974,1.5787118111846399,4,left
2.79,0.332581686195416,0.8964301771425074,-0.09438627051988525,2.4828300631360865,1.131757262617019,-0.3143765156780312,-0.01970463881532225,0.5034204809986881,1.5589276617706147,4,left
2.79,0.331312405095792,0.8952721306419416,-0.09351160458758802,2.467830605274557,1.0871658179763108,-0.3354342401208503,-0.019819168326131804,0.5147170893945461,1.539130362758084,4,left
2.793,0.33003089243008443,0.8941548888592145,-0.09264375322026397,2.452210466160437,1.0429993700334392,-0.35569653883140834,-0.01997616889420919,0.5255666831467621,1.5193401620704596,4,left
2.7939999999999996,0.32873998520214376,0.8930777454701038,-0.09178383710478394,2.4359614207781237,0.9992782069998248,-0.3751501920840643,-0.020175294650834563,0.5359731516500692,1.4995767112407268,4,left
2.799,0.3274424144794794,0.8920400794040048,-0.0909328982713657,2.419076743101393,0.956021476425922,-0.39378342357063484,-0.020416139447608467,0.5459407948767322,1.4798590626532664,4,left
2.8,0.3261407961911753,0.8910413590568474,-0.09009189864430966,2.401551215915064,0.9132471795993,-0.4115859236097393,-0.020698243065025976,0.5554743054747772,1.4602056678464674,4,left
2.804,0.3248376222300879,0.8900811463716413,-0.08926171931176602,2.3833811365188495,0.8709721694797118,-0.4285488678822511,-0.02102109716539646,0.5645787509749366,1.4406343768193888,4,left
2.805,0.32353525197417254,0.8891591006659563,-0.08844316051466766,2.364564318264863,0.8292121520469199,-0.44466493174636007,-0.021384150990799808,0.5732595561349549,1.4211624382858696,4,left
2.8080000000000003,0.32223590433959476,0.8882749820959273,-0.08763694232584172,2.345100087878442,0.787981690938439,-0.45992830018337005,-0.021786816806888442,0.5815224854486533,1.4018065008196665,4,left
2.81,0.320941650470109,0.8874286546649174,-0.08684370596866373,2.324989278510076,0.7472942152557832,-0.47433467342294516,-0.022228475093461472,0.5893736258459183,1.382582614834434,4,left
2.813,0.31965440715423094,0.8866200887085892,-0.08606401571184542,2.304234218464386,0.707162030419285,-0.4878812682940894,-0.022708479482852612,0.5968193696085672,1.3635062353426435,4,left
2.8139999999999996,0.31837593104433115,0.8858493628137627,-0.08529836127076115,2.2828387155502368,0.6675963319530698,-0.5005668153456987,-0.023226161447287324,0.6038663975258377,1.3445922254378726,4,left
2.818,0.31710781373086916,0.8851166651546163,-0.08454716064336266,2.260808036994223,0.6286072220833281,-0.5123915517780637,-0.02378083473647651,0.6105216623120708,1.3258548604452727,4,left
2.819,0.3158514777020717,0.8844222942551532,-0.08381076330904443,2.2381488848579068,0.5902037290346219,-0.5233572102242375,-0.02437179956682432,0.6167923723079916,1.307307832685444,4,left
2.822,0.3146081731963559,0.8837666592091394,-0.08308945372140704,2.2148693668973514,0.5523938289105838,-0.5334670034177104,-0.024998346563735705,0.6226859754858455,1.2889642567974169,4,left
2.823,0.31337897593540925,0.8831502794057027,-0.08238345502883865,2.190978962801689,0.5151844700470221,-0.5427256047803651,-0.025659760458615646,0.6282101437775269,1.27083667556694,4,left
2.8280000000000003,0.31216478571339934,0.8825737838189156,-0.08169293295845673,2.1664884857456337,0.47858159972712994,-0.551139124962221,-0.026355323542256188,0.633372757743728,1.2529370662068207,4,left
2.8289999999999997,0.31096632581122796,0.8820379099232908,-0.0810179998006206,2.1414100391890933,0.4425901931501918,-0.5587150843620181,-0.027084318876409764,0.638181891601056,1.2352768470366524,4,left
2.835,0.309784143199771,0.8815435022967626,-0.0803587184350889,2.115756968855267,0.4072142845469085,-0.5654623816552554,-0.02784603326544716,0.6426457986230051,1.217866884509877,4,left
2.835,0.3086186094905322,0.8810915109697544,-0.07971510634588791,2.0895438098169,0.37245700033620294,-0.5713912583538651,-0.02863975999217959,0.6467728969248376,1.2007175005473916,4,left
2.8360000000000003,0.3074699225886049,0.8806829895713021,-0.07908713957955116,2.0627862286186867,0.33832059422011945,-0.576513259419309,-0.029464801332433947,0.6505717556174435,1.183838480190632,4,left
2.8369999999999997,0.30633810900325986,0.8803190933110602,-0.07847475661022912,2.035500960470063,0.304806484103147,-0.5808411900069744,-0.0303204708818088,0.6540510812711133,1.167239079683241,4,left
2.838,0.30522302677258023,0.8800010768249482,-0.07787786208321568,2.007705742080592,0.2719152906638103,-0.5843890687097684,-0.031206095738544527,0.65721970460522,1.1509280351442088,4,left
2.839,0.304124368955671,0.8797302919065597,-0.0772963304136585,1.979419241679786,0.2396468772996873,-0.5871720781927551,-0.03212101857611719,0.6600865673428346,1.134913571943118,4,left
2.843,0.3030416676364061,0.8795081851452226,-0.0767300092195454,1.9506609883012411,0.2080003911085362,-0.5892065144007731,-0.03306459962050917,0.662660709211526,1.1192034147934653,4,left
2.844,0.3019742983677381,0.8793362954913891,-0.07617872256875381,1.9214513018699644,0.1769743046302646,-0.5905097352263597,-0.03403621853678208,0.6649512550946729,1.1038047985278274,4,left
2.847,0.30092148497311705,0.8792162517666042,-0.07564227402218544,1.8918112246591339,0.14656645818472794,-0.5911001089968542,-0.03503527622757889,0.666967402341543,1.088724479508884,4,left
2.8480000000000003,0.2998823046184491,0.8791497701265412,-0.07512044946184274,1.861762454141636,0.11677410270239015,-0.5909969628450359,-0.036061196546264614,0.668718408243555,1.0739687476311799,4,left
2.852,0.2988556930731369,0.8791386514745694,-0.07461301970293636,1.8313272771525124,0.08759394295871237,-0.5902205309670804,-0.03711342792749537,0.6702135776833218,1.0595434388694065,4,left
2.853,0.29784045008863863,0.8791847788139844,-0.07411974289892738,1.8005285052772182,0.05902218112490952,-0.5887919027695702,-0.03819144493808473,0.6714622509622877,1.0454539483298935,4,left
2.8569999999999998,0.2968352448363881,0.8792901145204999,-0.07364036675497591,1.7693894113794129,0.031054560549483055,-0.5867329709053087,-0.03929474975111335,0.6724737918120094,1.031705243762934,4,left
2.858,0.29583862136194194,0.8794566975132299,-0.07317463056667882,1.7379336671809056,0.0036864096866942907,-0.5840663791957525,-0.040422873546303396,0.6732575755933957,1.0183018794945158,4,left
2.861,0.2948490040261434,0.8796866403027346,-0.07272226709621658,1.7061852818053247,-0.02308731391010962,-0.5808154704360031,-0.041575377839753756,0.6738229776875152,1.0052480107369925,4,left
2.862,0.29386470291584804,0.8799821258975301,-0.07228300428830203,1.6741685411961111,-0.049271979610670785,-0.5770042340764937,-0.042751855746204326,0.6741793620808948,0.9925474082392103,4,left
2.867,0.292883919216316,0.880345404553858,-0.07185656681768898,1.6419079483185182,-0.07487323982412887,-0.5726572537737608,-0.04395193317706935,0.6743360701475838,0.9802034732375915,4,left
2.8680000000000003,0.29190475054487613,0.8807787903576509,-0.07144267745470013,1.6094281640544723,-0.09989698628638799,-0.5677996548010127,-0.04517526997754981,0.6743024096296266,0.9682192526706866,4,left
2.872,0.29092519625148666,0.8812846576335108,-0.07104105823972837,1.5767539486983677,-0.12434930659377587,-0.5624570513076,-0.04642156100620361,0.6740876438169886,0.956597454620714,4,left
2.873,0.2899431626960379,0.8818654371824577,-0.07065143146972315,1.5439101039611722,-0.1482364410565536,-0.5566554934149535,-0.04769053716042046,0.6737009809274035,0.9453404639466345,4,left
2.878,0.2889564685139614,0.8825236123565976,-0.07027352051259667,1.5109214153895913,-0.1715647399441755,-0.55042141413509,-0.04898196635131504,0.6731515636860682,0.9344503580743383,4,left
2.8789999999999996,0.2879628498822648,0.8832617149836416,-0.06990705047550662,1.4778125951064829,-0.19434062119255788,-0.5437815760963968,-0.05029565443161827,0.6724484591045867,0.9239289229105632,4,left
2.8819999999999997,0.2869599657992951,0.8840823211571963,-0.06955174876094782,1.4446082247782202,-0.21657052864199125,-0.5367630180600801,-0.05163144608021142,0.6716006484580714,0.9137776688482111,4,left
2.883,0.2859454033934884,0.8849880469103253,-0.06920734555129267,1.4113326987142913,-0.23826089087272598,-0.5293930012094329,-0.05298922564701269,0.6706170174588447,0.9039978468317813,4,left
2.888,0.28491668327851344,0.8859815437901314,-0.06887357426582466,1.3780101670040754,-0.2594180807036745,-0.5216989551929005,-0.054368917961989796,0.6695063466247377,0.8945904644526987,4,left
2.889,0.28387126497402443,0.8870654943495262,-0.0685501720315132,1.344664478595458,-0.2800483754181042,-0.5137084239008434,-0.055770489112135675,0.6682773018395725,0.8855563020453786,4,left
2.891,0.28280655241273644,0.8882426075685841,-0.0682368801996795,1.3113191242197495,-0.3001579177786451,-0.5054490109548812,-0.05719394719030768,0.6669384251030193,0.8768959287559345,4,left
2.892,0.28171989955569793,0.8895156142125098,-0.06793344492884781,1.2779971790672264,-0.31975267789240586,-0.49694832488777807,-0.05863934301989369,0.665498125466658,0.868609718556506,4,left
2.8960000000000004,0.28060861613728677,0.8908872621272165,-0.06763961784268714,1.2447212451175593,-0.3388384159854754,-0.4882339239909715,-0.06010677085933139,0.66396467015273,0.860697866179255,4,left
2.8960000000000004,0.27946997355898084,0.8923603114668035,-0.06735515676117763,1.2115133930293793,-0.3574206461445932,-0.4793332608060769,-0.06159636909057036,0.6623461758517531,0.8531604029451536,4,left
2.9010000000000002,0.2783012109470177,0.89393752984056,-0.06707982649333437,1.178395103493309,-0.3755046010822902,-0.47027362623600893,-0.06310832089303456,0.6606506001988711,0.8459972124605607,4,left
2.9019999999999997,0.2770995413839369,0.8956216873638141,-0.0668133996742155,1.1453872079529124,-0.3930951979803426,-0.46108209325074273,-0.06464285489173467,0.6588857334484903,0.8392080461396877,4,left
2.9019999999999997,0.27586215831801814,0.8974155515982922,-0.06655565762964197,1.112509828598213,-0.41019700546492827,-0.45178546016220594,-0.06620024574489332,0.6570591904024301,0.8327925384833582,4,left
2.906,0.27458624214884475,0.899321882370083,-0.06630639125617106,1.0797823176251309,-0.42681421175973144,-0.44241019350461713,-0.06778081462353835,0.6551784026665383,0.826750222029565,4,left
2.906,0.27326896698253567,0.9013434264550417,-0.06606540190739797,1.0472231961967575,-0.4429505940332251,-0.43298237086763086,-0.06938492954855635,0.6532506112905753,0.821080541908383,4,left
2.907,0.27190750754678833,0.9034829121243404,-0.06583250227980707,1.014850094338787,-0.45860948890349224,-0.4235276245899071,-0.07101300557411469,0.6512828598100786,0.81578286996363,4,left
2.912,0.27049904625290844,0.9057430435462671,-0.06560751729202063,0.9826796934441073,-0.47379376403395956,-0.4140710875319162,-0.07266550481939883,0.6492819876888095,0.8108565184207217,4,left
2.9130000000000003,0.2690407803884899,0.9081264950427064,-0.06539028494895568,0.9507276726197835,-0.4885057907806293,-0.4046373418352185,-0.07434293635327395,0.6472546241562608,0.8063007530844296,4,left
2.9160000000000004,0.2675299294210331,0.9106359052011972,-0.06518065717719321,0.9190086593141654,-0.5027474179014861,-0.39525037101481914,-0.07604585593654917,0.6452071824345853,0.8021148060513247,4,left
2.9160000000000004,0.2659637423910648,0.9132738708460025,-0.06497850061294083,0.8875361842201812,-0.5165199463659882,-0.38593351541976845,-0.07777486562659232,0.6431458543492137,0.7982978879227512,4,left
2.9219999999999997,0.26433950537356954,0.9160429408721095,-0.06478369732303121,0.8563226403630632,-0.5298241053069082,-0.3767094310349589,-0.0795306132491155,0.6410766053173498,0.7948491995052418,4,left
2.9219999999999997,0.2626545489880987,0.9189456099447801,-0.06459614544345156,0.8253792462814112,-0.5426600291554406,-0.3676000515972036,-0.0813137917420247,0.6390051697084759,0.7917679429863475,4,left
2.925,0.26090625593991434,0.9219843120664413,-0.06441575972619594,0.7947160132112107,-0.5550272359991419,-0.35862655399887866,-0.08312513837630177,0.6369370465709584,0.7890533325749151,4,left
2.926,0.25909206857634065,0.9251614140134249,-0.06424247198934267,0.7643417161831595,-0.566924607200922,-0.3498093269526804,-0.08496543385896421,0.6348774957188223,0.7867046045959047,4,left
2.931,0.2572094964450567,0.9284792086466417,-0.06407623146526625,0.7342638689444351,-0.5783503683159608,-0.3411679428913722,-0.08683550132322686,0.6328315341727558,0.7847210270308917,4,left
2.9330000000000003,0.25525612384557317,0.9319399081011972,-0.0639170050397235,0.7044887026168307,-0.5893020713420758,-0.3327211330767877,-0.08873620521107059,0.6308039329494144,0.7831019084964551,4,left
2.935,0.25322961737015204,0.9355456368594162,-0.06376477737293573,0.6750211480040211,-0.5997765783377134,-0.3244867658928026,-0.09066845005350671,0.6287992141931203,0.7818466066537032,4,left
2.9360000000000004,0.2511277334338821,0.9392984247105194,-0.06361955089483701,0.6458648214615675,-0.6097700464403825,-0.3164818282974908,-0.09263317915391076,0.6268216486440888,0.780954536043236,4,left
2.94,0.2489483257960369,0.9432001995995587,-0.06348134567176855,0.6170220142441319,-0.6192779143169864,-0.3087224104102377,-0.09463137317988826,0.6248752534373655,0.7804251753408914,4,left
2.9410000000000003,0.2466893530772974,0.9472527803679843,-0.06335019914906585,0.5884936852452602,-0.6282948900761326,-0.3012236932101936,-0.09666404866922508,0.6229637902267273,0.7802580740306704,4,left
2.946,0.24434888627955834,0.9514578693870488,-0.06322616577804015,0.5602794570459785,-0.6368149406711204,-0.293999939323104,-0.09873225645556873,0.6210907636278729,0.7804528584922734,4,left
2.946,0.2419251163162952,0.9558170450826647,-0.06310931653487975,0.5323776151893469,-0.6448312828209092,-0.28706448687425945,-0.10083708001958291,0.619259419975319,0.7810092375017289,4,left
2.95,0.23941636156160878,0.9603317543479652,-0.06299973833769762,0.504785110599018,-0.652336375474957,-0.28042974638605433,-0.10297963377141713,0.6174727463875207,0.7819270071446338,4,left
2.951,0.23682107542510328,0.9650033048393075,-0.06289753337144123,0.4774975650607412,-0.65932191384639,-0.2741072006994303,-0.10516106127043483,0.6157334701348403,0.7832060551425619,4,left
2.955,0.2341378539584511,0.9698328571524895,-0.06280281833717981,0.4505092796866532,-0.6657788250365168,-0.26810740789930876,-0.10738253338824956,0.6140440583051106,0.7848463645942405,4,left
2.955,0.23136544349854019,0.9748214168780419,-0.06271572364679784,0.4238132462830802,-0.6716972652722288,-0.2624400072249761,-0.10964524642122607,0.6124067177616676,0.7868480171341313,4,left
2.96,0.2285027483510874,0.9799698265381535,-0.06263639258360636,0.3974011615434481,-0.6770666187763361,-0.2571137279472825,-0.11195042015871569,0.6108233953888585,0.7892111955120895,4,left
2.96,0.2255488385164384,0.985278757412509,-0.06256498044601623,0.3712634439887572,-0.6818754982893636,-0.25213640119543795,-0.11429929591341051,0.609295778620179,0.7919361855988127,4,left
2.965,0.22250295745479384,0.9907487012643236,-0.06250165368920847,0.3453892535789107,-0.6861117472597904,-0.24751497471714481,-0.11669313452031879,0.607825296244339,0.795023377822831,4,left
2.965,0.21936452988089886,0.9963799619814818,-0.06244658908013182,0.3197665139190031,-0.6897624437181301,-0.24325553055678178,-0.11913321431098665,0.6064131194847123,0.7984732680458277,4,left
2.969,0.21613316956888223,1.0021726471531514,-0.062399972881225306,0.2943819369854585,-0.6928139058486409,-0.23936330563735614,-0.12162082906971652,0.605060163347785,0.8022864578841209,4,left
2.97,0.21280868713769782,1.0081266596091927,-0.06236200007394615,0.26922105029766247,-0.6952516992708084,-0.2358427152329612,-0.12415728597566329,0.6037670882353666,0.8064636544788211,4,left
2.971,0.20939109778008388,1.0142416889543566,-0.06233287362486299,0.2442682264614515,-0.6970606460410573,-0.23269737931951393,-0.12674390351983025,0.6025343018104226,0.8110056696864708,4,left
2.9739999999999998,0.20588062889643288,1.0205172031304535,-0.06231280378999747,0.21950671501150631,-0.6982248353834285,-0.2299301517926011,-0.1293820093591378,0.6013619610974251,0.8159134186058499,4,left
2.975,0.20227772759519558,1.0269524400414594,-0.06230200745084182,0.19491867648033442,-0.6987276361561908,-0.22754315254232804,-0.13207293805488587,0.6002499747932217,0.8211879173259182,4,left
2.975,0.19858306801696107,1.033546399280927,-0.062300707476632335,0.17048521861253585,-0.6985517110546051,-0.22553780231463683,-0.13481802865806755,0.5991980057696623,0.826830279812676,4,left
2.9789999999999996,0.1947975584338181,1.0402978340038476,-0.062309132109517766,0.14618643459565295,-0.6976790325234684,-0.22391485998212843,-0.13761862213112436,0.5982054737585308,0.8328417139109333,4,left
2.98,0.19092234807486766,1.0472052429835688,-0.06232751437058137,0.12200144309311345,-0.6960909003066479,-0.22267446129498347,-0.1404760586108786,0.5972715582145726,0.8392235164697917,4,left
2.984,0.18695883362669263,1.0542668628926768,-0.062356091483490306,0.09790842981727758,-0.6937679605341325,-0.22181615787615386,-0.14339167452053125,0.5963952013535924,0.8459770676080502,4,left
2.985,0.1829086653468992,1.0614806608483058,-0.06239510430813069,0.07388469042892429,-0.690690226269855,-0.22133895553361124,-0.14636679953877357,0.5955751113627716,0.8531038241368075,4,left
2.989,0.17877375271533646,1.0688443272641128,-0.062444796770694304,0.049906674636125935,-0.686837099486005,-0.221241351517068,-0.1494027534342242,0.5948097657805193,0.8606053121575953,4,left
2.99,0.1745562695397302,1.0763552690500593,-0.06250541527406428,0.025950031413662245,-0.6821873944521671,-0.2215213706551995,-0.1525008427735702,0.5940974150433352,0.8684831188554492,4,left
2.9939999999999998,0.17025865843062132,1.0840106031988552,-0.06257720807748486,0.001989655273908785,-0.6767193625304,-0.22217660037199316,-0.15566235751196172,0.5934360861973287,0.8767388835073917,4,left
2.995,0.16588363456387792,1.0918071507961273,-0.06266042464371063,-0.022000266479734888,-0.6704107183651409,-0.22320422458194025,-0.1588885674743846,0.5928235867721865,0.8853742877278821,4,left
2.9989999999999997,0.1614341886596357,1.099741431488537,-0.06275531495429006,-0.04604620558575245,-0.6632386674545317,-0.2246010564648692,-0.1621807187369134,0.5922575088155436,0.8943910449738666,4,left
3.0,0.15691358912406342,1.107809658438872,-0.0628621287852093,-0.07017524381264084,-0.6551799350874109,-0.22636357012229674,-0.16554002991693048,0.5917352330858501,0.9037908893331492,4,left
3.005,0.15232538332030274,1.1160077337910297,-0.06298111492475053,-0.09441502317123668,-0.6462107966277981,-0.22848793111824237,-0.168967688381581,0.591253933401969,0.9135755636208958,4,left
3.005,0.14767339795154868,1.1243312446631288,-0.06311252031451402,-0.11879369542037505,-0.6363071091262188,-0.23097002590851098,-0.17246484638392431,0.590810581147875,0.9237468068101737,4,left
3.009,0.14296173855028457,1.1327754596843187,-0.06325658910358768,-0.1433398709352565,-0.6254443442346671,-0.23380549016349889,-0.17603261713643506,0.590401949930945,0.9343063408235391,4,left
3.011,0.13819478807549584,1.141335326088972,-0.06341356161347735,-0.16808256700821728,-0.6135976223993884,-0.2369897359906169,-0.17967207083170258,0.5900246203924538,0.9452558567137799,4,left
3.013,0.13337720462672642,1.1500054673797955,-0.0635836732074651,-0.1930511556519978,-0.6007417483029786,-0.2405179780634515,-0.18338423062037768,0.589674985168994,0.9565970002630407,4,left
3.014,0.12851391829066816,1.1587801815687617,-0.06376715304530252,-0.21827531097608635,-0.5868512475245412,-0.24438525866580008,-0.18717006855661864,0.5893492540036364,0.968331357030667,4,left
3.0189999999999997,0.12361012714365337,1.1676534400018284,-0.06396422269394408,-0.24378495620728094,-0.5719004043838142,-0.24858647165971728,-0.19103050152149337,0.5890434590057428,0.9804604368812252,4,left
3.0210000000000004,0.1186712924433922,1.1766188867709058,-0.06417509456508586,-0.2696102104262606,-0.5558633009322804,-0.2531163853876968,-0.19496638713500386,0.588753460058417,0.992985658025286,4,left
3.023,0.11370313305442417,1.18566983871458,-0.06439997016096954,-0.29578133509269344,-0.5387138570513043,-0.25796966452008874,-0.1989785196676112,0.5884749503726474,1.00590833060668,4,left
3.0239999999999996,0.10871161916048844,1.1947992860060688,-0.06463903812657648,-0.3223286804322286,-0.520425871614287,-0.26314089085980874,-0.20306762596235234,0.5882034621872586,1.0192296398710747,4,left
3.028,0.10370296532117274,1.2039998933219729,-0.06489247212028183,-0.3492826317596263,-0.5009730646667149,-0.2686245831173419,-0.2072343613788573,0.5879343726138252,1.0329506289518575,4,left
3.029,0.09868362293072333,1.2132640015803435,-0.06516042851951417,-0.3766735558132736,-0.4803291205747784,-0.27441521566997057,-0.2114793057707943,0.5876629096257404,1.047072181310448,4,left
3.035,0.09366027213539514,1.2225836302334128,-0.06544304397633222,-0.4045317471774155,-0.45846773208996866,-0.2805072363200717,-0.2158029595084909,0.5873841581906495,1.0615950028693133,4,left
3.036,0.08863981326213086,1.2319504800994894,-0.0657404328388051,-0.43288737486959794,-0.4353626452737126,-0.2868950830682229,-0.22020573955870257,0.5870930665454637,1.0765196038771037,4,left
3.0380000000000003,0.08362935780489138,1.2413559367193878,-0.06605268445955574,-0.46177042917207445,-0.41098770522268413,-0.2935731999177421,-0.2246879756337242,0.5867844526131658,1.0918462805464775,4,left
3.0380000000000003,0.0786362190059756,1.2507910742249027,-0.06637986041767627,-0.4912106687872716,-0.3853169025319345,-0.3005360517281481,-0.22924990641914647,0.5864530105656885,1.1075750965032944,4,left
3.0389999999999997,0.07366790205938412,1.2602466597112056,-0.06672199168089055,-0.5212375683988344,-0.3583244204294098,-0.3077781381358818,-0.23389167587418833,0.5860933175625872,1.1237058640717905,4,left
3.043,0.06873209395330529,1.2697131581117331,-0.06707907573327036,-0.5518802667212906,-0.3299846825117773,-0.31529400656145923,-0.23861332957068815,0.5856998407410275,1.1402381253941154,4,left
3.043,0.06383665296236625,1.2791807375794562,-0.0674510736962423,-0.583167515122971,-0.30027240100775904,-0.323078264323049,-0.24341481102146673,0.585266944558017,1.1571711333685526,4,left
3.0439999999999996,0.058989597799267775,1.288639275379798,-0.06783790748000634,-0.6151276268704248,-0.2691626255270117,-0.3311255898745,-0.24829595796460308,0.5847888985602536,1.1745038324071073,4,left
3.0469999999999997,0.054199096435731425,1.2980783643016078,-0.06823945701078007,-0.6477884268539316,-0.23663079242689716,-0.33943074317281,-0.2532564985984691,0.584259885611018,1.1922348390416966,4,left
3.048,0.04947345459982735,1.3074873195972903,-0.06865555757719767,-0.6811772013128261,-0.20265277524626504,-0.34798857515591014,-0.2582960477781961,0.5836740105779469,1.2103624224245397,4,left
3.052,0.04482110395293172,1.3168551864692588,-0.06908599733115102,-0.7153206468908737,-0.16720493682953214,-0.3567940362985718,-0.2634141031875954,0.5830253094803013,1.2288844847725362,4,left
3.053,0.04025058994839237,1.3261707481240226,-0.06953051497457424,-0.7502448185443564,-0.1302641835820812,-0.36584218422880876,-0.26861004150078244,0.5823077590941994,1.2477985418065656,4,left
3.057,0.035770559373907315,1.3354225344178634,-0.06998879766417629,-0.7859750761703552,-0.09180802197313101,-0.3751281904127571,-0.27388311454798026,0.5815152870141154,1.267101703237781,4,left
3.0580000000000003,0.03138974757751577,1.3445988311210548,-0.07046047916426904,-0.8225360300152861,-0.0518146172198309,-0.38464734593055394,-0.2792324455002039,0.5806417821687694,1.286790653354098,4,left
3.062,0.02711696537317071,1.3536876898311447,-0.07094513827171564,-0.8599514849640731,-0.010262854046410488,-0.3943950663691966,-0.2846570250877508,0.579681105789335,1.3068616317612092,4,left
3.063,0.022961085619330652,1.362676938569126,-0.07144229753011055,-0.8982443838126566,0.03286760059213662,-0.4043668958590486,-0.29015570786764366,0.5786271028276714,1.3273104143335694,4,left
3.0669999999999997,0.018931029466241284,1.3715541930940764,-0.07195142224478818,-0.9374367496289139,0.07759623293677126,-0.4145585102813298,-0.2957272085553906,0.5774736138220616,1.3481322944319047,4,left
3.0669999999999997,0.01503575227445512,1.3803068689712257,-0.07247191980406882,-0.9775496273095314,0.12394161612093992,-0.42496571967458097,-0.3013700984366426,0.5762144872076808,1.3693220644448951,4,left
3.073,0.011284229214268906,1.3889221944258139,-0.07300313930390956,-1.0186030244428763,0.1719213422608631,-0.43558446986874294,-0.3070828018745435,0.5748435920687539,1.3908739977137645,4,left
3.073,0.0076854405589750615,1.397387224011219,-0.07354437146567414,-1.060615851590506,0.22155195306811448,-0.446410843376117,-0.3128635929287736,0.5733548313290783,1.412781830899581,4,left
3.076,0.004248356684178056,1.4056888531146616,-0.07409484883145463,-1.103605862102589,0.2728488691176661,-0.45744105956909575,-0.3187105921024941,0.5717421553772767,1.4350387468541306,4,left
3.077,0.0009819227837166238,1.41381383331819,-0.0746537462156086,-1.147589591585215,0.32582631790926875,-0.4686714741751611,-0.32462176323360037,0.5699995761228331,1.4576373580562614,4,left
3.0810000000000004,-0.002104956688018143,1.4217487886277846,-0.0752201813862534,-1.192582297140325,0.38049726086477587,-0.4800985781202413,-0.3305949105468859,0.5681211814786199,1.4805696906766193,4,left
3.082,-0.005003433837235406,1.4294802325789444,-0.07579321595370828,-1.238597896501793,0.4368733194088045,-0.49171899575210787,-0.3366276758839101,0.5661011502652702,1.503827169334698,4,left
3.0860000000000003,-0.007704733404748875,1.4369945862218416,-0.07637185645597461,-1.2856489071940482,0.49496470028495027,-0.5035294824760651,-0.34271753612754613,0.5639337675323779,1.5274006026131064,4,left
3.0869999999999997,-0.010200169082232214,1.4442781969830323,-0.07695505564443715,-1.3337463858425196,0.5547801202646376,-0.5155269218357531,-0.3488618008383624,0.5616134402911157,1.5512801693949116,4,left
3.092,-0.012481160059628784,1.4513173583945362,-0.07754171397657408,-1.382899867768118,0.6163267304105796,-0.5277083220724389,-0.3550576101201643,0.5591347136524573,1.5754554060908534,4,left
3.092,-0.014539247790055273,1.4580983306753423,-0.07813068131912702,-1.433117307000948,0.6796100400617477,-0.5400708121967182,-0.3613019327321834,0.5564922873647631,1.5999151948241235,4,left
3.096,-0.016366112954266897,1.4646073621451623,-0.07872075886242545,-1.4844050168514393,0.7446338407117014,-0.5526116376070858,-0.3675915644655595,0.5536810327440541,1.6246477526412948,4,left
3.097,-0.017953592602168115,1.4708307114455397,-0.07931070124465774,-1.5367676111801172,0.8114001299570939,-0.5653281552903631,-0.3739231268019074,0.5506960099898408,1.649640621818819,4,left
3.1010000000000004,-0.019293697444572502,1.4767546705396404,-0.07989921887994969,-1.5902079465102934,0.8799090356981615,-0.5782178286394904,-0.3802930658719007,0.5475324858789056,1.674880661335337,4,left
3.102,-0.020378629264968477,1.4823655884596896,-0.08048498047778632,-1.6447270651310166,0.950158740777994,-0.5912782219247054,-0.3866976517319328,0.5441859518289509,1.7003540395808225,4,left
3.1069999999999998,-0.021200798419660105,1.4876498957708912,-0.08106661573906693,-1.700324139340717,1.0221454082523906,-0.6045069944546324,-0.39313297797171803,0.5406521423085736,1.7260462283546454,4,left
3.1069999999999998,-0.021752841396792257,1.4925941297241163,-0.08164271821680895,-1.756996416985065,1.0958631074871032,-0.6179018944643083,-0.39959496163920905,0.5369270534947287,1.7519419981069035,4,left
3.108,-0.022027638409809185,1.4971849600753402,-0.08221184833209806,-1.81473916844566,1.1713037412842684,-0.6314607527676548,-0.4060793434214358,0.5330069619437185,1.7780254142008705,4,left
3.113,-0.022018331004257277,1.5014092155508576,-0.08277253653280392,-1.8735456352392628,1.2484569742448146,-0.645181476212399,-0.41258168799336287,0.5288884429664232,1.8042798338765802,4,left
3.114,-0.021718339655165137,1.5052539109299359,-0.08332328657286095,-1.9334069803903595,1.3273101625785964,-0.6590620409759157,-0.41909738447353356,0.5245683884727205,1.8306879036946038,4,left
3.114,-0.02112138132938688,1.5087062747069688,-0.08386257887835749,-1.994312240757221,1.4078482855681156,-0.6731004857253049,-0.42562164697320615,0.5200440241840891,1.8572315574167875,4,left
3.116,-0.020221486989064417,1.5117537772915945,-0.08438887396091561,-2.0562482815661216,1.4900538788424031,-0.6872949045873098,-0.43214951525233103,0.5153129261876026,1.8838920143796516,4,left
3.117,-0.019013019017621268,1.5143841597067857,-0.0849006158410511,-2.1191997535400353,1.5739069695249488,-0.7016434397334408,-0.4386758555010777,0.5103730368188949,1.9106497784362706,4,left
3.122,-0.017490688552694634,1.5165854627412583,-0.08539623544641409,-2.183149053082584,1.6593850132702082,-0.7161442733079484,-0.44519536126564213,0.5052226798610974,1.9374846375428505,4,left
3.123,-0.015649572709417414,1.5183460564970108,-0.08587415394484511,-2.24807628590951,1.7464628332621948,-0.7307956185049085,-0.45170255453707797,0.4998605750461514,1.9643756640665497,4,left
3.125,-0.01348513167561095,1.5196546702517264,-0.08633278596453117,-2.313959234394229,1.8351125613509556,-0.7455957097418338,-0.4581917870218867,0.4942858518443004,1.9913012158913637,4,left
3.1260000000000003,-0.010993225659678668,1.5205004225370318,-0.0867705426513589,-2.380773328825415,1.9253035815615942,-0.760542791955828,-0.46465724161308525,0.48849806252696454,2.0182389383991235,4,left
3.1310000000000002,-0.008170131671515707,1.5208728513180059,-0.08718583451873628,-2.4484916227630995,2.01700247622593,-0.7756351090643707,-0.4710929340804317,0.4824971944875915,2.045165767402809,4,left
3.133,-0.0050125601163871995,1.5207619441461353,-0.08757707405617172,-2.5170847726824848,2.110172974991395,-0.7908708916332449,-0.4774927149984376,0.4762836818044681,2.072057933109481,4,left
3.135,-0.0015176711824713349,1.5201581681478298,-0.08794267807842013,-2.58652102209736,2.2047759069661947,-0.8062483437945406,-0.48385027193072977,0.46985841602886586,2.0988909651901597,4,left
3.136,0.0023169089959697966,1.5190524997041963,-0.08828106981417246,-2.6567661903575894,2.3007691562640717,-0.8217656294580914,-0.4901591318892336,0.46322275618128195,2.1256396990339668,4,left
3.141,0.006493072418851293,1.5174364536752682,-0.08859068074729529,-2.7277836663176562,2.398107621216254,-0.8374208578601033,-0.4964126640865514,0.456378537937929,2.1522782832637137,4,left
3.142,0.011012213568061894,1.5153021120228658,-0.08886995223140393,-2.7995344070756576,2.496743177522257,-0.8532120684931516,-0.5026040829997838,0.44932808198901764,2.178780188589984,4,left
3.145,0.015875214055037917,1.5126421516893824,-0.089117336901118,-2.871976941984472,2.5966246456152096,-0.8691372154621142,-0.5087264517639049,0.4420742015497731,2.2051182180804823,4,left
3.1460000000000004,0.021082427610866386,1.5094498715941713,-0.08933129990275909,-2.945067382139026,2.6976977625212264,-0.8851941513110163,-0.5147726859126398,0.43462020900453013,2.231264518921128,4,left
3.15,0.026633665474561627,1.5057192186150514,-0.08951031996399307,-3.0187594355456935,2.799905158496071,-0.90138061036614,-0.5207355574846183,0.4269699216636571,2.2571905957449605,4,left
3.1510000000000002,0.03252818224798286,1.5014448124295827,-0.08965289031787471,-3.093004428181834,2.9031863387259214,-0.9176941916411464,-0.5266076995123739,0.4191276666124792,2.2828673256044625,4,left
3.156,0.03876466229452352,1.4966219690980367,-0.089757519495183,-3.1677513311553556,3.00747767038248,-0.9341323413503321,-0.5323816109115446,0.41109828463079456,2.3082649746623516,4,left
3.157,0.04534120676190758,1.4912467232769275,-0.08982273199974243,-3.2429467941758743,3.1127123753258994,-0.9506923350765134,-0.538049661787389,0.40288713316101593,2.333353216675255,4,left
3.16,0.05225532130899462,1.4853158489584533,-0.08984706888168886,-3.318535185550666,3.2188205287521,-0.967371259640398,-0.5436040991754699,0.39450008830241945,2.358101153343962,4,left
3.161,0.059503904615151385,1.4788268786356664,-0.08982908822197636,-3.3944586389200126,3.3257290640839265,-0.9841659947186611,-0.5490370532330752,0.3859435458084461,2.382477336603159,4,left
3.165,0.06708323775406172,1.4717781207941,-0.0897673655379958,-3.4706571069478396,3.433361784408306,-1.001073194258291,-0.554340543897644,0.3772244210634798,2.4064497929226403,4,left
3.1660000000000004,0.07498897453215966,1.4641686756280354,-0.08966049411542179,-3.5470684221846684,3.5416393807640754,-1.0180892677351125,-0.5595064880281363,0.3683501480150219,2.4299860496910317,4,left
3.17,0.08321613293418777,1.45599844887528,-0.08950708526719359,-3.623628365320859,3.6504794575874255,-1.0352103613047257,-0.5645267070449368,0.35932867703669696,2.453053163751979,4,left
3.1710000000000003,0.09175908788344356,1.4472681636617275,-0.089305768520002,-3.7002707410489126,3.759796565623999,-1.0524323388944254,-0.56939293508351,0.350168471697057,2.475617752161596,4,left
3.175,0.10061156559252453,1.4379793702516939,-0.08905519173342574,-3.776927461754199,3.8695022426185144,-1.069750763284975,-0.5740968276663744,0.340878504407758,2.497646025196211,4,left
3.176,0.10976663981424196,1.4281344536152876,-0.08875402116506294,-3.853528639253911,3.9795050620944017,-1.087160877231407,-0.57862997084626,0.3314682509194998,2.5191038214455186,4,left
3.177,0.1192167302862319,1.4177366387465042,-0.08840094150518941,-3.930002684804258,4.089710690537292,-1.1046575846723183,-0.5829838906805608,0.32194768362515974,2.5399566444782047,4,left
3.179,0.12895360363444905,1.406789993687774,-0.08799465591948315,-4.006276417433186,4.2000219531940015,-1.1222354320941508,-0.5871500628454477,0.3123272636244227,2.5601697003729957,4,left
3.18,0.13896837698703166,1.395299430233637,-0.0875338861558631,-4.0822751798417825,4.310338908182831,-1.1398885902009717,-0.5911199222487968,0.30261793150861965,2.5797079355990182,4,left
3.181,0.14925152452394,1.3832707023001578,-0.0870173727832632,-4.157922959652048,4.420558927681647,-1.1576108361912796,-0.5948848725928836,0.2928310968327396,2.5985360750742186,4,left
3.1839999999999997,0.15979288713839196,1.3707104019642697,-0.08644387564083128,-4.233142512964199,4.53057678444384,-1.1753955370273528,-0.598436295888535,0.282978626246049,2.616618660421319,4,left
3.185,0.1705816853337575,1.357625953201436,-0.08581217459558778,-4.307855487999815,4.640284742408924,-1.1932356339991117,-0.6017655619321277,0.273072830253451,2.633920088477368,4,left
3.1889999999999996,0.18160653542165436,1.3440256033742835,-0.08512107072605571,-4.3819825480712336,4.749572651104217,-1.2111236287339056,-0.6048640377562279,0.2631264485794954,2.650404650110893,4,left
3.19,0.1928554690178254,1.3299184125401458,-0.08436938805283284,-4.455443493930337,4.8583280440500864,-1.2290515707200487,-0.6077230970640559,0.25315263410676203,2.666036569398527,4,left
3.195,0.20431595577238917,1.315314240649226,-0.0835559759211321,-4.52815738571117,4.9664362414836845,-1.2470110463953383,-0.6103341296573227,0.2431649353601883,2.6807800432107336,4,left
3.196,0.21597492923697467,1.3002237327006274,-0.08267971210810558,-4.600042664679177,5.073780457714895,-1.2649931698519281,-0.612688550866319,0.23317727750879647,2.6945992812539075,4,left
3.2,0.22781881575926843,1.2846583019158284,-0.08173950668360011,-4.671017274997917,5.180241913426651,-1.2829885752090378,-0.6147778109904538,0.2232039418561967,2.7074585466136845,4,left
3.2,0.23983356629416458,1.2686301109833293,-0.08073430660340021,-4.740998785721964,5.285699953229969,-1.300987410705075,-0.6165934047567231,0.21325954379120488,2.7193221968417323,4,left
3.205,0.2520046910191368,1.2521520514277886,-0.07966310096219564,-4.809904513222321,5.390032168781777,-1.3189793345608065,-0.6181268808028549,0.20335900916991315,2.7301547256256473,4,left
3.2060000000000004,0.2643172966296465,1.2352377211636552,-0.07852492677818479,-4.877651644248071,5.493114527771144,-1.3369535126652514,-0.6193698511911131,0.19351754910059507,2.739920805078823,4,left
3.208,0.27675612616001305,1.2179014003068929,-0.07731887512658606,-4.944157359825117,5.594821509076582,-1.354898618135983,-0.6203140009579587,0.18375063310290884,2.7485853286842916,4,left
3.208,0.2893056011233972,1.2001580253359843,-0.07604409740160215,-5.0093389601897815,5.695026244393875,-1.3728028328055017,-0.6209510977039552,0.17407396061299024,2.756113454923585,4,left
3.213,0.3019498656978462,1.1820231617112074,-0.07469981148574026,-5.07311399095171,5.7936006666303035,-1.3906538506852866,-0.6212730012274708,0.1645034308061967,2.7624706516185884,4,left
3.214,0.31467283261580314,1.1635129750790172,-0.0732853076496973,-5.135400370676952,5.8904156653571516,-1.4084388834590533,-0.6212716732048724,0.15505511070947856,2.767622741011213,4,left
3.218,0.32745823035157123,1.1446442012097477,-0.07179995408210622,-5.196116520078284,5.985341249608094,-1.4261446680566283,-0.6209391869190235,0.14574520157561327,2.7715359456024298,4,left
3.218,0.3402896511514165,1.1254341148433449,-0.07024320202806178,-5.255181492995828,6.078246718306359,-1.4437574763596912,-0.6202677370369932,0.13659000349184328,2.7741769347688563,4,left
3.2230000000000003,0.35315059942305693,1.1059004976455356,-0.06861459056867851,-5.312515109346688,6.169000838598518,-1.461263127090446,-0.6192496494369574,0.12760587819581024,2.77551287217163,4,left
3.2239999999999998,0.36602454000405776,1.086061605498061,-0.06691375108342569,-5.368038090217888,6.257472032367298,-1.4786469999340577,-0.6178773910833176,0.11880921007207584,2.7755114639687277,4,left
3.2289999999999996,0.3788949458628427,1.0659361353533876,-0.0651404114074776,-5.421672195272087,6.3435285711900455,-1.4958940519454218,-0.6161435799480943,0.11021636530296387,2.7741410078382556,4,left
3.23,0.3917453448415653,1.0455431918733697,-0.0632943996537784,-5.47334036263063,6.427038780003264,-1.5129888362905237,-0.614040994975651,0.10184364914794973,2.7713704428164756,4,left
3.233,0.40455936511086493,1.0249022540475594,-0.06137564764443321,-5.522966851393234,6.507871249727095,-1.529915523372292,-0.611562586086794,0.09370726132636234,2.7671693999504945,4,left
3.234,0.41732077905818504,1.004033141958587,-0.05938419390270567,-5.570477386948269,6.585895059096678,-1.5466579243904623,-0.6087014842172507,0.08582324947874852,2.761508253761612,4,left
3.239,0.43001354536829145,0.9829559838331875,-0.05732018618765603,-5.615799309221849,6.660980005940008,-1.5631995173845268,-0.6054510113844688,0.0782074606828821,2.754358174511304,4,left
3.24,0.44262184908110214,0.961691183487802,-0.05518388359105793,-5.658861724008174,6.73299684813422,-1.5795234758083547,-0.6018046907756056,0.07087549100107869,2.7456911812577123,4,left
3.242,0.4551301394378102,0.9402593882470642,-0.052975658246352794,-5.699595657517435,6.801817554464146,-1.595612699684551,-0.5977562568497501,0.06384263311156581,2.735480195653854,4,left
3.2430000000000003,0.46752316536241173,0.9186814573818731,-0.05069599671229961,-5.737934214271323,6.867315565598613,-1.6114498493860336,-0.5932996654527026,0.05712382245425024,2.723699096272239,4,left
3.2439999999999998,0.4797860084713306,0.896978431084502,-0.04834550108739651,-5.773812738469724,6.929366065391019,-1.627017382091686,-0.5884291039530138,0.05073358300031814,2.710322772944148,4,left
3.248,0.4919041135402625,0.8751714999799886,-0.04592488989406236,-5.807168978723739,6.987846262335865,-1.6422975908840023,-0.5831390014132228,0.04468597413278396,2.695327180435117,4,left
3.2489999999999997,0.5038633163759532,0.853281975166238,-0.043434998753025575,-5.837943254934948,7.042635679174135,-1.6572726460645675,-0.5774240388026712,0.038994539749183696,2.678689390935938,4,left
3.2489999999999997,0.5156498690586484,0.8313312587690163,-0.04087678084599906,-5.8660786240984555,7.093616445338163,-1.6719246375580348,-0.5712791592455617,0.03367226002027139,2.660387645135986,4,left
3.253,0.5272504625510789,0.8093408149901549,-0.03825130713238947,-5.891521040691645,7.14067358508723,-1.6862356168830783,-0.5646995782903341,0.02873150586273938,2.64040140180328,4,left
3.253,0.5386522467074456,0.7873321416241219,-0.03555976624722552,-5.91421950841156,7.183695296003671,-1.7001876375592833,-0.5576807941839299,0.024183996109640147,2.6187113858234508,4,left
3.258,0.5498428477551249,0.7653267420190523,-0.03280346397992695,-5.934126222011514,7.222573215800736,-1.7137627935224076,-0.5502185981332824,0.020040757363246956,2.5952996346449764,4,left
3.258,0.5608103833531817,0.7433460974615351,-0.02998382223487794,-5.951196699088184,7.257202677211336,-1.7269432555108237,-0.5423090845351214,0.01631208651618506,2.5701495430732466,4,left
3.262,0.5715434753416815,0.7214116399724767,-0.027102377403759672,-5.9653899018843095,7.28748295108101,-1.7397113054631823,-0.5339486611539193,0.013007515927793367,2.5432459063510975,4,left
3.262,0.5820312602836594,0.6995447255131402,-0.024160778116415618,-5.97666834916409,7.313317477776597,-1.7520493689662553,-0.5251340592265346,0.010135781243836357,2.5145749614585258,4,left
3.267,0.5922633978813107,0.6777666076095932,-0.02116078236506136,-5.984998218210222,7.33461408700987,-1.7639400457907843,-0.5158623434708229,0.007704791848875283,2.484124426559305,4,left
3.2680000000000002,0.6022300773333712,0.6560984114047428,-0.01810425401461669,-5.990349436983278,7.3512852061629,-1.7753661385519777,-0.5061309219741912,0.005721603941824303,2.4518835385171847,4,left
3.272,0.611922021698265,0.6345611081397873,-0.014993158725284823,-5.992695766475744,7.363248057189184,-1.786310679530061,-0.49593755593676553,0.004192396226458846,2.4178430883992763,4,left
3.272,0.6213304903379039,0.613175490056628,-0.011829559325087422,-5.992014873284584,7.370424842151509,-1.7967569556850043,-0.48528036924253415,0.0031224482099078145,2.3819954548791378,4,left
3.2769999999999997,0.6304472795358435,0.5919621457069918,-0.008615610680845225,-5.9882883924176635,7.37274291744429,-1.8066885318982104,-0.47415785783050285,0.0025161211034457624,2.34433463544691,4,left
3.278,0.6392647214041752,0.5709414356581259,-0.005353554125969621,-5.981501980340692,7.370134956734555,-1.8160892724725732,-0.46256889883657726,0.0023768413212033866,2.3048562753286985,4,left
3.281,0.647775681211383,0.5501334685981564,-0.002045711510416861,-5.971645358262714,7.362539102642057,-1.8249433609208767,-0.45051275947555275,0.002707086573732067,2.2635576940122113,4,left
3.282,0.6559735532779958,0.529558077858523,0.0013055210582218779,-5.958712345649415,7.349899107165018,-1.8332353180710326,-0.4379891056312582,0.0035083745546880016,2.2204379092704527,4,left
3.287,0.6638522555997393,0.5092347983775495,0.004697679710153786,-5.942700883944702,7.332164460843882,-1.840950018515128,-0.42499801012155936,0.004781254220241155,2.175497658570054,4,left
3.2880000000000003,0.6714062233680549,0.4891828441267414,0.00812823946737718,-5.923613050472246,7.309290510641126,-1.8480727054276853,-0.41153996060358783,0.006525299662160996,2.1287394177456016,4,left
3.292,0.6786304015605142,0.4694210860161468,0.011594620972859852,-5.90145506247983,7.281238566500731,-1.8545890037769204,-0.39761586708321794,0.008739106576882089,2.080167416816092,4,left
3.293,0.6855202367645526,0.44996803029410565,0.015094197212032591,-5.876237271280499,7.247975996536244,-1.8604849319511316,-0.38322706899147313,0.011420291334205265,2.029787652814418,4,left
3.2969999999999997,0.6920716683778138,0.43084179746206464,0.01862430015358252,-5.847974146435712,7.209476310781657,-1.8657469118206509,-0.36837534178920167,0.01456549265064152,1.977607899495569,4,left
3.2969999999999997,0.6982811193017892,0.41206010173544266,0.02218222725465109,-5.81668424991684,7.165719233424436,-1.8703617772540442,-0.35306290306002563,0.018170375873753194,1.923637713784029,4,left
3.301,0.704145486218057,0.3936402310953386,0.025765247797788333,-5.782390200172606,7.116690763425095,-1.8743167811054704,-0.3372924180502305,0.0222296398851875,1.8678884388156531,4,left
3.302,0.7096621295143105,0.37559902799050077,0.029370609048078075,-5.745118626021325,7.062383223412656,-1.8775996006882878,-0.32106700461293614,0.02673702663142841,1.8103732034241555,4,left
3.306,0.7148288629160547,0.35795287075990834,0.03299554223458053,-5.704900110278092,7.002795296730295,-1.8801983417481363,-0.30439023751256555,0.03168533329261137,1.7511069179171814,4,left
3.306,0.7196439428818504,0.34071765585022673,0.036637268369135424,-5.661769123018463,6.937932052490278,-1.8821015409468307,-0.2872661520443146,0.037066427101048474,1.6901062659818435,4,left
3.312,0.7241060578325188,0.32390878089950825,0.0402930039174778,-5.615763944371617,6.867804958482185,-1.8832981668664706,-0.26969924692201797,0.04287126282239723,1.6273896925545281,4,left
3.313,0.7282143172991358,0.3075411287503175,0.04395996633265213,-5.566926576727558,6.7924318817632665,-1.8837776195412084,-0.2516944864019809,0.04908990287410301,1.562977387575632,4,left
3.313,0.7319682410793203,0.2916290524409135,0.04763537945121998,-5.5153026462345025,6.7118370767446045,-1.8835297285221182,-0.23325730168640027,0.05571153985914985,1.4968912659993228,4,left
3.3169999999999997,0.7353677484817936,0.27618636120295825,0.05131647874347409,-5.460941293638791,6.62605116073323,-1.8825447495158483,-0.21439359178793913,0.06272452093826242,1.4291549452414172,4,left
3.318,0.7384131477242016,0.2612263074765098,0.05500051640235947,-5.403895055433382,6.535111077683149,-1.8808133598220298,-0.19510972411310099,0.07011637326705233,1.3597937216980245,4,left
3.319,0.7411051255389723,0.2467615749455038,0.05868476624984288,-5.344219737932465,6.439060052347334,-1.8783266531277476,-0.1754125349434691,0.07787382992359457,1.2888345475083776,4,left
3.323,0.7434447370376307,0.23280426759986367,0.0623665284298021,-5.281974287803711,6.337947537815701,-1.8750761344016054,-0.15530932985344184,0.08598285610914887,1.2163060079126098,4,left
3.324,0.745433395881032,0.21936589983902913,0.06604313384352022,-5.217220661660111,6.231829158601454,-1.8710537154414335,-0.13480788402454927,0.09442867560366529,1.1422382990961588,4,left
3.326,0.747072864795909,0.2064573876378025,0.06971194827478133,-5.150023695646405,6.120766649969381,-1.8662517112920902,-0.11391644239978133,0.10319579749832856,1.0666632063170154,4,left
3.327,0.748365246464924,0.19408904079286748,0.07337037615104532,-5.08045097502576,6.004827793377335,-1.8606628375612737,-0.09264371962019406,0.11226804322840457,0.9896140821075239,4,left
3.3310000000000004,0.7493129748009851,0.18227055625829988,0.07701586389309835,-5.008572703580843,5.884086347726161,-1.854280208621768,-0.07099889968491592,0.12162857393061818,0.9111258243380271,4,left
3.333,0.7499188066000996,0.1710110125648618,0.08064590281663186,-4.934461572636403,5.758621976099178,-1.8470973366863186,-0.0489916352745575,0.13125991815021318,0.8312348539253223,4,left
3.3360000000000003,0.7501858135526898,0.1603188653037868,0.08425803156631471,-4.858192629503611,5.62852016765832,-1.839108131739062,-0.026632046676933644,0.14114399992372018,0.7499790919646578,4,left
3.3369999999999997,0.7501173745830463,0.15020194364293296,0.08784983808431086,-4.779843145139874,5.493872154350224,-1.8303069023051608,-0.003930720252938881,0.1512621672642852,0.6673979360598775,4,left
3.341,0.7497171684801665,0.1406674478317318,0.09141896113672272,-4.699492480811348,5.354774822062047,-1.8206883570379995,0.01910129362062289,0.16159522107718835,0.5835322356222855,4,left
3.342,0.7489891667784847,0.13172194764134296,0.09496309143956382,-4.617221953539237,5.21133061585345,-1.810247607100977,0.042452483195464984,0.17212344453390652,0.4984242659048919,4,left
3.345,0.7479376268427197,0.12337138167973023,0.09847997243824393,-4.533114700104958,5.063647438878155,-1.7989801693185967,0.06611087864869172,0.1828266329337458,0.4121177005348936,4,left
3.346,0.7465670851074027,0.11562105752003878,0.10196740079996541,-4.447255539383534,4.911838544595698,-1.7868819700692185,0.0900640560982595,0.1936841240826853,0.3246575823035565,4,left
3.352,0.7448823504176477,0.10847565258456224,0.10542322667782847,-4.359730832769037,4.756022421861543,-1.7739493498894636,0.1142991424040811,0.20467482921963348,0.23609029196910183,4,left
3.353,0.7428884974114087,0.10193921573393308,0.10884535380150434,-4.270628342450664,4.596322672471543,-1.7601790687579006,0.13880282082271075,0.21577726452079982,0.14646351482475709,4,left
3.358,0.7405908598746983,0.09601516951950961,0.11223173944290862,-4.180037087292964,4.432867880724892,-1.7455683120232446,0.16356133758439326,0.22696958321332716,0.05582620478082272,4,left
3.359,0.737995023992012,0.09070631306372734,0.1155803942934602,-4.0880471960689855,4.265791474558221,-1.7301146969399148,0.18856050946206931,0.2382296083297121,-0.035771454293573854,4,left
3.36,0.7351068214079499,0.08601482553693747,0.11888938227081859,-3.9947497577905535,4.095231577792341,-1.713816279771384,0.21378573240270043,0.24953486613486045,-0.128278090226405,4,left
3.36,0.7319323220170826,0.08194227020073021,0.12215682025508759,-3.900236668875644,3.921330853022352,-1.696671563419343,0.23922199129200694,0.2608626202578822,-0.2216411874566189,4,left
3.366,0.7284778264092987,0.07848959898994633,0.125380877749064,-3.804600476888764,3.7442363346714607,-1.6786795055342782,0.2648538709244042,0.2721899065609256,-0.31580713546899025,4,left
3.367,0.7247498579137168,0.0756571576109077,0.1285597764660497,-3.7079342205865458,3.564099251718828,-1.6598395270606465,0.2906655682505693,0.28349356877747733,-0.4107212810155791,4,left
3.37,0.7207551542011075,0.0734446911406146,0.13169178986273877,-3.610331265997218,3.381074839602205,-1.6401515211673827,0.31664090597567673,0.29475029495262156,-0.5063279843918896,4,left
3.3710000000000004,0.7165006584223421,0.07185135011819016,0.1347752426433056,-3.5118851382594363,3.1953221407869243,-1.6196158625120594,0.3427633475819036,0.3059366547177484,-0.6025706800381253,4,left
3.3739999999999997,0.7119935098811819,0.07087569712501345,0.13780851025855917,-3.4126893489429646,3.007003793484107,-1.5982334167845718,0.36901601384931787,0.31702913743213335,-0.699391941738083,4,left
3.375,0.7072410342643087,0.07051571385361069,0.14079001841190847,-3.3128372185710275,2.8162858079926414,-1.5760055504737953,0.39538170094973635,0.32800419122367536,-0.7967335526902172,4,left
3.38,0.7022507334757405,0.07076880866691905,0.14371824256841628,-3.212421694061724,2.623337330131669,-1.5529341407982185,0.4218429001470235,0.338838262925835,-0.8945365805505039,4,left
3.3810000000000002,0.6970302751371537,0.07163182464942922,0.14659170745213165,-3.1115351608037423,2.4283303912229437,-1.5290215857391325,0.4483818189300114,0.34950783873233116,-0.9927414566647561,4,left
3.3810000000000002,0.6915874818162023,0.0731010481509177,0.14940898651251355,-3.010269249079726,2.2314396440755497,-1.504270814112525,0.47498040303074274,0.35998948507543066,-1.0912880571189993,4,left
3.384,0.6859303200428211,0.07517221782247922,0.15216870133756713,-2.908714634866865,2.0328420848803437,-1.4786852956170078,0.5016203585733457,0.37025988905804624,-1.1901157823541986,4,left
3.385,0.6800668891757453,0.07784053414389212,0.1548695209861965,-2.8069608366321703,1.832716763222035,-1.4522690508107226,0.5282831738067396,0.3802958979446012,-1.289163632976421,4,left
3.385,0.6740054101797607,0.08110066944102956,0.15751016120960804,-2.705096012599393,1.6312444865630042,-1.4250266610001865,0.554950140248341,0.39007455753046294,-1.3883702809850373,4,left
3.391,0.6677542143694655,0.08494677839058865,0.16008938353102795,-2.603206764552955,1.4286075278545152,-1.3969632780396837,0.5816023732737282,0.3995731493843577,-1.487674136526013,4,left
3.392,0.6613217321782531,0.08937250900561618,0.16260599414937332,-2.5013779526544555,1.2249893426201373,-1.3680846340193826,0.6082208322288172,0.4087692269925476,-1.5870134104546925,4,left
3.3939999999999997,0.6547164820169666,0.09437101408994829,0.16505884262843373,-2.399692522886373,1.0205742977007326,-1.3383970507855616,0.6347863401411157,0.41764065083281293,-1.6863261729929362,4,left
3.395,0.6479470592839088,0.09993496314414534,0.1674468203345139,-2.2982313471483,0.8155474115405693,-1.3079074492159413,0.6612796031065812,0.42616562240547784,-1.785550408765758,4,left
3.4,0.6410221255777027,0.10605655470024195,0.1697688585920336,-2.19707307571336,0.6100941054300175,-1.2766233581671718,0.687681229428506,0.4343227172478496,-1.8846240685026976,4,left
3.4,0.6339503981531442,0.11272752905761514,0.17202392653538753,-2.0962940017528635,0.4043999651179946,-1.2445529230092103,0.7139717485847061,0.4420909169575097,-1.983485117689095,4,left
3.404,0.6267406396495409,0.11993918138745996,0.17421102864673613,-1.9959679376378976,0.19865051220557495,-1.2117049136590146,0.7401316300990793,0.4494496402489013,-2.0820715824521825,4,left
3.405,0.6194016481095302,0.12768237516810904,0.17632920198612634,-1.8961661027274224,-0.006969015269050793,-1.178088732023698,0.7661413023933347,0.45637877306659985,-2.1803215929664668,4,left
3.41,0.6119422472925573,0.13594755590691682,0.17837751314336883,-1.796957022353516,-0.21227387364477202,-1.1437144187610393,0.7919811716943783,0.46285869777753896,-2.2781734246622745,4,left
3.411,0.6043712772722711,0.14472476509729557,0.18035505496669443,-1.6984064377157093,-0.41708001644157355,-1.1085926592629987,0.8176316410724634,0.4688703214632887,-2.3755655375205342,4,left
3.4139999999999997,0.5966975852940313,0.15400365435334598,0.1822609431457505,-1.6005772263978606,-0.6212042897446628,-1.0727347887656935,0.8430731296847795,0.4743951033322485,-2.4724366137359146,4,left
3.415,0.5889300168587285,0.1637734996597566,0.18409431274328145,-1.503529333222705,-0.824464620758098,-1.0361527964871111,0.8682860922986725,0.47941508127032834,-2.5687255940292872,4,left
3.418,0.5810774069910869,0.17402321567109033,0.1858543147814983,-1.4073197111611053,-1.0266802001158772,-0.9988593286916825,0.8932510391681379,0.48391289754734973,-2.6643717128891597,4,left
3.4189999999999996,0.5731485716435382,0.18474136999352,0.18754011299630197,-1.3120022720150988,-1.2276716585364897,-0.9608676905787371,0.9179485563366326,0.48787182369499754,-2.759314533020232,4,left
3.424,0.565152299181696,0.19591619738521782,0.18915088087470916,-1.2176278465960677,-1.4272612384044534,-0.9221918468897725,0.9423593264385943,0.4912757845707073,-2.853493979275565,4,left
3.425,0.5570973418960128,0.2075356138191795,0.19068579908814184,-1.124244154121764,-1.6252729608593646,-0.8828464211274369,0.9664641500713426,0.4941093816203721,-2.9468503723469857,4,left
3.428,0.5489924074865848,0.219587230363292,0.19214405342730795,-1.0318957805584792,-1.821532788969469,-0.8428466932771108,0.9902439678082716,0.4963579153512078,-3.039324462486363,4,left
3.429,0.5408461504738549,0.23205836684567177,0.1935248333331884,-0.940624165637348,-2.015868787562747,-0.802208595920017,1.0136798829234173,0.49800740702452256,-3.130857463528157,4,left
3.435,0.5326671634975396,0.24493606528805792,0.19482733110358832,-0.850467598276614,-2.208111280283968,-0.7609487086248606,1.0367531848966038,0.49904461957649815,-3.2213910874813103,4,left
3.4360000000000004,0.524463968479769,0.2582071031059223,0.19605074183731205,-0.7614612201446573,-2.398093004441153,-0.7190842505031262,1.059445373767444,0.49945707777341347,-3.3108675799560197,4,left
3.438,0.5162450076443446,0.2718580060893738,0.19719426415891952,-0.6736370371016647,-2.585649264199345,-0.6766330708113262,1.0817381854054768,0.4992330876060195,-3.3992297566881926,4,left
3.4389999999999996,0.5080186343986027,0.28587506119233425,0.19825710174550754,-0.5870239382610241,-2.7706180826735993,-0.6336136374817067,1.103613617762686,0.4983617549260188,-3.4864210414215555,4,left
3.443,0.49979310409470495,0.30024432916918026,0.19923846565253345,-0.5016477224148213,-2.9528403534665975,-0.5900450234611855,1.1250539581735504,0.49683300332580954,-3.5723855054043323,4,left
3.444,0.49157656469295136,0.3149516571083838,0.20013757740933216,-0.4175311315712027,-3.1321599921893433,-0.5459468907366092,1.1460418117666242,0.4946375912608262,-3.657067908754208,4,left
3.448,0.48337704735162074,0.32998269092004084,0.2009536728310139,-0.3346938913548463,-3.3084240884959524,-0.5013394719227907,1.1665601310010512,0.4917671284067596,-3.740413743843684,4,left
3.449,0.47520245696466623,0.34532288783672527,0.20168600648017507,-0.2531527580253253,-3.481483059155689,-0.4562435492882051,1.1865922460931244,0.488214091216085,-3.8223692803631093,4,left
3.45,0.46706056266059265,0.3609575289853596,0.20233385671194118,-0.17292157187176277,-3.651190802677049,-0.410680431091706,1.2061218956520492,0.48397183758967127,-3.9028816108307027,4,left
3.4539999999999997,0.45895898826965525,0.37687173208503805,0.20289653123669477,-0.09401131674584429,-3.817404855989928,-0.3646719251021628,1.2251332565956883,0.47903462055134277,-3.9818986948237547,4,left
3.4539999999999997,0.45090520276721047,0.3930504643242525,0.20337337312574966,-0.016430185458951297,-3.9799865534255545,-0.3182403092723309,1.2436109726627034,0.4733976008372718,-4.05936940069247,4,left
3.455,0.44290651070375475,0.40947855546913486,0.20376376717758823,0.05981634942716812,-4.138801186938413,-0.2714083000410005,1.2615401812807199,0.46705685835684263,-4.135243544398101,4,left
3.457,0.43497004263264055,0.4261407112499677,0.2040671465681655,0.13472546024317342,-4.29371816418991,-0.22419901964352762,1.2789065387956946,0.4600094025055995,-4.209471925604004,4,left
3.458,0.4271027455512127,0.4430215270661201,0.20428299971590694,0.20829688531162394,-4.444611159817261,-0.17663596431370904,1.2956962441155326,0.45225318131407705,-4.28200636124205,4,left
3.463,0.41931137338545277,0.4601055020398165,0.2044108772859581,0.280532847322531,-4.591358256486111,-0.12874297475474197,1.3118960608194292,0.44378708941429074,-4.352799716772262,4,left
3.463,0.4116024775652139,0.47737705343725667,0.20445039924696923,0.35143796944028755,-4.733842074628659,-0.08054420934858772,1.3274933377827953,0.43461097480363814,-4.421805935348808,4,left
3.468,0.40398239774793615,0.4948205314634565,0.20440126189008012,0.4210191893933523,-4.87194989104334,-0.032064120067970325,1.3424760283659734,0.42472564438392674,-4.488980065100618,4,left
3.469,0.39645725275294136,0.5124202344265747,0.20426324472345117,0.48928567175421234,-5.0055737467773795,0.016672569046521493,1.3568327082132494,0.4141328682512072,-4.554278284729901,4,left
3.472,0.38903293177026343,0.53016042425936,0.20403621716227224,0.556248718613331,-5.134610544701288,0.06564088098263882,1.3705525917069465,0.4028353827100531,-4.617657927626702,4,left
3.4730000000000003,0.38171508591063047,0.5480253423802323,0.20372014494277904,0.6219216788469895,-5.25896213717182,0.1148156025652005,1.3836255471196137,0.3908368919838935,-4.6790775046923745,4,left
3.478,0.3745091201667554,0.5659992258737905,0.20331509619789614,0.6863198561751566,-5.3785354041670335,0.1641712991172983,1.3960421105055305,0.3781420685909737,-4.738496726059462,4,left
3.4789999999999996,0.3674201858585069,0.5840663239687188,0.20282124713908886,0.7494604162017839,-5.493242322263933,0.2136823271145978,1.4077934983709197,0.3647565523534976,-4.795876521889973,4,left
3.4819999999999998,0.360453173634545,0.6022109147896143,0.20223888729311698,0.8113622926262192,-5.6030000248157155,0.26332284497394637,1.4188716191604018,0.3506869480054923,-4.851179062428407,4,left
3.483,0.3536127071007731,0.6204173223586902,0.2015684242439832,0.8720460928107737,-5.707730853671946,0.3130668221180184,1.4292690835953434,0.3359408213629407,-4.904367777480131,4,left
3.488,0.3469031371416949,0.6386699338241179,0.20081038782930027,0.9315340028858712,-5.807362402770988,0.3628880464581743,1.4389792138978383,0.3205266940177403,-4.955407375479885,4,left
3.489,0.3403285369947364,0.6569532168941179,0.19996543373745845,0.9898496925706494,-5.901827553919841,0.412760130438081,1.4479960519321327,0.3044540365150892,-5.004263862309179,4,left
3.492,0.3338926981319713,0.6752517374589612,0.1990343464494311,1.0470182198833906,-5.991064505062093,0.46265651578093936,1.4563143662933462,0.2877332599719528,-5.050904560015326,4,left
3.4930000000000003,0.3275991270014085,0.6935501773853039,0.19801804146769378,1.103065935912726,-6.07501679132005,0.5125504770833833,1.4639296583713743,0.2703757060923541,-5.095298125578649,4,left
3.497,0.3214510426810801,0.7118333524678429,0.196917566774382,1.1580203898171904,-6.153633299082279,0.5624151243992643,1.470838167415861,0.252393635533335,-5.137414569868146,4,left
3.497,0.31545137550087576,0.730086230522121,0.1957341034621427,1.211910234217419,-6.226868273392815,0.6122234049566017,1.4770368746261278,0.23380021457358016,-5.177225276919527,4,left
3.5010000000000003,0.30960276668695413,0.7482939495997868,0.19446896548500545,1.26476513114205,-6.29468131888307,0.6619481041509727,1.4825235062879287,0.21460950003486629,-5.214703023663104,4,left
3.502,0.30390756908117134,0.766441836303632,0.1931235984822377,1.3166156586852664,-6.35703739447222,0.7115618459585331,1.487296535976874,0.19483642240470597,-5.249822000222438,4,left
3.5069999999999997,0.2983678489842032,0.784515424173883,0.1916995776336293,1.3674932185308557,-6.413906802046337,0.7610370929116941,1.491355185846319,0.17449676710680445,-5.282557830898075,4,left
3.5069999999999997,0.29298538916582934,0.8025004721094608,0.19019860450969575,1.4174299444946858,-6.465265169311017,0.8103461457802436,1.4946994270154823,0.15360715386423018,-5.312887595943965,4,left
3.513,0.28776169307759725,0.8203829827785558,0.18862250288678784,1.4664586122346213,-6.511093426996573,0.8594611431003787,1.497329979071498,0.13218501409853098,-5.340789854237397,4,left
