time,gFx,gFy,gFz,ax,ay,az,wx,wy,wz,subject_number,foot
5.505,0.24425904281140448,1.2486611667490273,-0.10809678059651125,-4.882953216628697,4.768744153473444,-1.5218302103107197,-0.9775354043637713,0.08125863203768832,2.649766527760966,4,left
5.506,0.25781973602521907,1.2332785781940545,-0.10733669097668969,-4.950427912601275,4.862522231843113,-1.5468438693040958,-0.9853251280544664,0.06220630227908727,2.663529127099313,4,left
5.507000000000001,0.27152803207544957,1.2174726969749599,-0.1065227786956671,-5.016494289818387,4.9554218495049875,-1.5717299284974613,-0.9928989144944591,0.043012240951268314,2.6764858029989225,4,left
5.507999999999999,0.28536880383721647,1.2012553916730373,-0.1056544658154043,-5.081071646449641,5.047341121617733,-1.5964728159169563,-1.0002462950150774,0.023695078505158437,2.6886094456834644,4,left
5.5120000000000005,0.29932659096779274,1.1846391663296074,-0.10473121349857063,-5.144079631980366,5.138176697868728,-1.6210569720015457,-1.0073567402675072,0.004274118456972505,2.699873180861396,4,left
5.513,0.31338563766106,1.1676371388153786,-0.10375252676867514,-5.205438366756826,5.227823878681827,-1.6454668776098478,-1.0142196684367435,-0.015230680890154244,2.710250400191021,4,left
5.516,0.32752993215540116,1.1502630174654966,-0.10271795896962242,-5.265068561367706,5.316176734043357,-1.669687080484745,-1.020824453752779,-0.034798727165158326,2.719714791206235,4,left
5.517,0.34174324776721027,1.1325310760487868,-0.10162711581039786,-5.322891635447054,5.403128224519387,-1.693702219829251,-1.027160435319435,-0.054408817144413014,2.7282403667352537,4,left
5.521,0.35600918518073704,1.1144561271629898,-0.1004796589556627,-5.378829835975461,5.488570324606942,-1.7174970489941985,-1.033216926280524,-0.07403916251945393,2.735801493842084,4,left
5.521,0.3703112156972326,1.0960534941736109,-0.09927530920417231,-5.432806355250632,5.572394148672783,-1.741056456347296,-1.0389832233422986,-0.09366741827323337,2.742372922317871,4,left
5.526,0.38463272512511415,1.077338981843386,-0.09801384934517092,-5.484745448693288,5.654490079729268,-1.7643654843925072,-1.0444486166703628,-0.11327071372119094,2.74792981274655,4,left
5.527,0.39895705798355463,1.0583288458251288,-0.09669512678875003,-5.53457255264893,5.734747901292545,-1.7874093472080805,-1.0496024001784219,-0.13282568627348523,2.75244776416648,4,left
5.532,0.4132675617019183,1.0390397612053022,-0.09531905604426087,-5.582214402340355,5.813056932563622,-1.8101734462708747,-1.0544338822254138,-0.15230851797472394,2.755902841346876,4,left
5.532,0.4275476305264209,1.0194887902886451,-0.09388562109464577,-5.627599150119979,5.889306167167934,-1.8326433847339054,-1.0589323967366988,-0.1716949748774571,2.7582716016949558,4,left
5.5360000000000005,0.4417807488838343,0.9996933498120547,-0.0923948777019153,-5.670656484164943,5.963384415683704,-1.854804980223287,-1.0630873147640894,-0.19096044930555853,2.759531121806721,4,left
5.5360000000000005,0.4559505339880753,0.9796711777751528,-0.09084695568091175,-5.711317747751717,6.035180452183857,-1.8766442762199287,-1.066888056498577,-0.2100800050634122,2.7596590236712575,4,left
5.54,0.47004077750299444,0.959440300076551,-0.08924206118116683,-5.749516059240417,6.104583165010243,-1.8981475520905071,-1.070324103748658,-0.22902842564654266,2.7586335005353053,4,left
5.541,0.4840354860938215,0.9390189971451882,-0.08758047900562602,-5.785186432892393,6.171481711992779,-1.9193013318313477,-1.0733850128961684,-0.24778026550898027,2.756433342431665,4,left
5.547000000000001,0.49791892071311006,0.918425770750837,-0.08586257496501598,-5.8182659006377415,6.235765680319505,-1.9400923915879262,-1.0760604283405262,-0.26630990444223274,2.7530379613717684,4,left
5.547999999999999,0.5116756344764137,0.8976793111650323,-0.08408879822479094,-5.848693634902342,6.297325251256679,-1.960507766011732,-1.0783400964412275,-0.28459160512024123,2.7484274161994158,4,left
5.55,0.525290508988694,0.8767984648248403,-0.08225968356564776,-5.87641107259676,6.356051369910883,-1.980534753515238,-1.0802138799673708,-0.30259957386413583,2.742582437099317,4,left
5.551,0.5387487889858266,0.8558022026299007,-0.08037585346505303,-5.901362040361891,6.411835920217547,-2.000160920484669,-1.0816717730618672,-0.32030802467996483,2.7354844497506385,4,left
5.555,0.5520361151601462,0.8347095889802382,-0.07843801991864074,-5.923492881158664,6.464571905332509,-2.0193741045091973,-1.08270391672687,-0.3376912466218612,2.7271155991122766,4,left
5.556,0.5651385550481032,0.8135397516399007,-0.07644698594548345,-5.94275258228127,6.5141536335951,-2.038162416684065,-1.0833006148357802,-0.3547236745323223,2.7174587728230097,4,left
5.56,0.5780426318709546,0.7923118524903215,-0.07440364674512798,-5.959092904865513,6.560476910222743,-2.0565142430439893,-1.0834523506759983,-0.3713799632104204,2.706497624196122,4,left
5.561,0.5907353512316083,0.7710450592180152,-0.07230899048906608,-5.972468514955727,6.603439234888367,-2.0744182451820232,-1.083149804025363,-0.3876350650578246,2.6942165947844012,4,left
5.564,0.6032042255794942,0.749758517964987,-0.07016409873813913,-5.982837116185489,6.642940005322832,-2.091863360107813,-1.0823838687639746,-0.4034643112515102,2.6806009364877457,4,left
5.565,0.6154372963634325,0.7284713269567384,-0.06797014648645917,-5.99015958411898,6.6788807270752235,-2.1088387993979554,-1.0811456710048615,-0.41884349635084284,2.6656367331756106,4,left
5.566,0.6274231538067048,0.7072025111085424,-0.06572840184074269,-5.994400102291314,6.711165229554207,-2.12533404768986,-1.0794265876408813,-0.4337489655450275,2.6493109218115247,4,left
5.569,0.639150954259862,0.6859709975947235,-0.06344022534665032,-5.995526299977545,6.739699888463726,-2.1413388605692094,-1.0772182650513336,-0.4481577024847157,2.631611313096888,4,left
5.571000000000001,0.6506104351042046,0.6647955923544371,-0.06110706897186184,-5.993509391711305,6.764393854736065,-2.1568432618997604,-1.0745126376256333,-0.46204741493972773,2.6125266116661745,4,left
5.575,0.661791927184811,0.6436949575059747,-0.05873047475324275,-5.988324318565204,6.785159290054839,-2.171837540642851,-1.07130194584479,-0.47539661622403023,2.592046435842969,4,left
5.5760000000000005,0.6726863647547138,0.6226875896449766,-0.05631207311284826,-5.9799498911961315,6.801911609049668,-2.1863122472125682,-1.0675787538126016,-0.4881847015886635,2.5701613369285097,4,left
5.577000000000001,0.6832852929199257,0.6017917990026493,-0.05385358084454456,-5.968368934384136,6.814569727895866,-2.2002581894214805,-1.0633359662118262,-0.5003920194823634,2.546862817971643,4,left
5.58,0.6935808725863093,0.5810256894361421,-0.05135679877129108,-5.953568431456869,6.823056317354006,-2.213666428122281,-1.0585668446760916,-0.5119999377181839,2.522143351961341,4,left
5.581,0.7035658829201432,0.5604071392170865,-0.04882360907189459,-5.935539664592907,6.827298055235807,-2.2265282727426348,-1.0532650235668284,-0.5229909045828127,2.4959963993788916,4,left
5.587999999999999,0.7132337213455398,0.5399537825810796,-0.04625597227314778,-5.914278345660466,6.827225871583846,-2.2388352769609234,-1.0474245251430268,-0.5333485049236107,2.4684164250428093,4,left
5.5889999999999995,0.72257840111858,0.5196829920029135,-0.04365592389867124,-5.889784733566378,6.82277518152783,-2.250579234717116,-1.0410397741101025,-0.5430575112466811,2.4393989141754515,4,left
5.591,0.7315945465469254,0.49961186116503603,-0.04102557076137293,-5.862063736470467,6.813886103804838,-2.2617521766579936,-1.034105611532627,-0.552103929857509,2.4089403876162034,4,left
5.5920000000000005,0.7402773859655253,0.47975718858616145,-0.03836708688563599,-5.831124998538745,6.8005036646057695,-2.272346367062444,-1.0266173080941325,-0.5604750420738935,2.377038416101998,4,left
5.595,0.7486227426248124,0.4601354618768898,-0.03568270905243007,-5.7969829711650736,6.782577986735077,-2.2823543012805483,-1.0185705766856397,-0.5681594405390316,2.343691633531802,4,left
5.596,0.756627023685515,0.44076284259435233,-0.032974731976994825,-5.759656968581673,6.760064464058128,-2.291768703718536,-1.0099615843029763,-0.5751470606607162,2.3088997491275665,4,left
5.599,0.7642872075374587,0.4216551516762756,-0.0302455031513451,-5.719171207769645,6.732923921197647,-2.3005825264000364,-1.0007869632313677,-0.5814292072006714,2.27266355839999,4,left
5.6,0.771600829669279,0.4028278554409251,-0.027497417406907296,-5.675554832571451,6.7011227584276485,-2.308788948132348,-0.9910438214941724,-0.5869985760360772,2.2349849528232957,4,left
5.604,0.7785659673168098,0.38429605214105317,-0.024732911270312786,-5.6288419218981876,6.664633081700094,-2.3163813743047643,-0.9807297525410252,-0.5918492711133412,2.195866928119084,4,left
5.606,0.7851812231136317,0.36607445905936103,-0.021954457193576863,-5.579071481915398,6.623432817726236,-2.3233534373442573,-0.9698428441490274,-0.5959768166121456,2.1553135910451577,4,left
5.61,0.7914457079571213,0.34817740013250986,-0.019164557737723603,-5.52628742208221,6.57750581402124,-2.329698997852083,-0.9583816865089854,-0.5993781643357585,2.1133301645810953,4,left
5.611000000000001,0.7973590232853236,0.33061879409109535,-0.01636573977840224,-5.4705385149096895,6.526841923807204,-2.3354121464431024,-0.946345379467068,-0.6020516963415327,2.069922991398196,4,left
5.614,0.8029212429345517,0.31341214310452403,-0.013560548786357832,-5.4118783392955185,6.4714370756561825,-2.3404872063078366,-0.9337335388906022,-0.6039972228234435,2.025099535497317,4,left
5.615,0.8081328947182572,0.29657052192355954,-0.010751543218663957,-5.350365207283482,6.411293327741262,-2.3449187365154676,-0.9205463021250798,-0.6052159752564341,1.9788683818940065,4,left
5.619,0.8129949418397878,0.2801065675202414,-0.007941289042550072,-5.286062074087713,6.346418906550136,-2.348701536074191,-0.9067843325077991,-0.6057105948102467,1.931239234226248,4,left
5.619,0.8175087642304466,0.26403246923376394,-0.005132354404332999,-5.2190364312133095,6.2768282299020095,-2.351830648763486,-0.89244882290191,-0.6054851160383328,1.8822229101560766,4,left
5.627000000000001,0.8216761398927579,0.24835995943953146,-0.0023273044491058117,-5.149360182496753,6.202541914095088,-2.354301368751021,-0.8775414982129806,-0.6045449458453483,1.8318313344322668,4,left
5.627999999999999,0.8254992263264712,0.23310030476543378,0.00047130371133995483,-5.077109502881549,6.123586764998309,-2.3561092470050475,-0.8620646168485547,-0.6028968377346635,1.7800775294773017,4,left
5.629,0.8289805421178064,0.21826429788382012,0.0032609258948079877,-5.002364679736688,6.039995752887449,-2.357250098511274,-0.8460209710795211,-0.6005488613352513,1.7269756033578287,4,left
5.629,0.832122948776568,0.20386224990972512,0.006039035629446097,-4.925209936517946,5.951807970812242,-2.3577200103012905,-0.8294138862604727,-0.5975103672052685,1.6725407349938741,4,left
5.632999999999999,0.8349296329083085,0.18990398343612583,0.008803128840333747,-4.845733238564615,5.859068576267793,-2.3575153502977435,-0.812247218864604,-0.593791946907612,1.6167891564581678,4,left
5.6339999999999995,0.8374040888062223,0.17639882623533337,0.011550728457035619,-4.764026080817158,5.761828715930209,-2.35663277697952,-0.794525353314152,-0.589405388435214,1.5597381323013957,4,left
5.6339999999999995,0.8395501015358632,0.1633556056497592,0.014279388948022798,-4.68018325723429,5.660145433203222,-2.3550692498682895,-0.7762531977212147,-0.5843636274843113,1.5014059362769985,4,left
5.638,0.8413717305668793,0.15078264368489386,0.016986700780295586,-4.594302611681415,5.554081558309486,-2.3528220408358034,-0.7574361788959776,-0.5786806958323764,1.4418118266303124,4,left
5.638,0.8428732939890948,0.13868775280973636,0.019670294795640378,-4.506484770055855,5.443705580647331,-2.349888746229415,-0.7380802371132261,-0.5723716684979343,1.3809760215547449,4,left
5.643,0.8440593533407945,0.12707823247124728,0.02232784648618632,-4.416832853408255,5.329091503121009,-2.346267299811321,-0.718191820991002,-0.5654526109351569,1.3189196759723756,4,left
5.643,0.844934699069784,0.11596086633381826,0.02495708014406936,-4.3254521723475,5.21031867851876,-2.3419559864785593,-0.6977778825898916,-0.5579405267538823,1.2556648599977855,4,left
5.644,0.8455043366372754,0.10534192025300368,0.02755577285800878,-4.232449905680231,5.087471629895066,-2.336953456596368,-0.6768458727044452,-0.5498533060314581,1.1912345389987282,4,left
5.648,0.8457734732617678,0.09522714098539127,0.030121758332852574,-4.137934771035396,4.960639860311242,-2.3312587405370406,-0.6554037362896088,-0.5412096741965686,1.1256525550754162,4,left
5.649,0.845747505285402,0.08562175563217402,0.03265293051027972,-4.042016697888635,4.829917659171001,-2.3248712628819628,-0.6334599079635401,-0.5320291414635047,1.0589436097767588,4,left
5.654,0.8454320061281599,0.07653047181709939,0.035147246967081075,-3.9448065107273385,4.695403910481491,-2.3177908558750104,-0.611023307526694,-0.5223319527936846,0.9911332478685132,4,left
5.654,0.8448327147781495,0.06795747860470787,0.03760273206709542,-3.8464156252882193,4.5572019049489505,-2.310017771951969,-0.5881033354355973,-0.512139038359636,0.9222478419649984,4,left
5.6579999999999995,0.8439555247515069,0.05990644816614022,0.040017479848783004,-3.746955758125946,4.415419155912562,-2.301552695301125,-0.5647098681682955,-0.50147196448511,0.8523145778327935,4,left
5.659,0.8428064734436432,0.05238053819692878,0.04238965664220832,-3.64653864923381,4.2701672187302835,-2.2923967524347018,-0.5408532534170339,-0.4903528850335144,0.7813614401716752,4,left
5.662999999999999,0.8413917317862278,0.04538239508545313,0.044717503425677756,-3.545275797434024,4.121561513219886,-2.282551521748795,-0.5165443050423548,-0.4788044932154322,0.7094171986749631,4,left
5.664,0.8397175941236634,0.0389141578231945,0.046999337951296245,-3.4432782082521647,3.969721148748123,-2.272019042047504,-0.4917942977214275,-0.4668499737846287,0.6365113941684333,4,left
5.667000000000001,0.8377904682291595,0.03297746263992367,0.04923355668477075,-3.3406561539875317,3.8147687515510245,-2.2608018200049513,-0.46661496122210233,-0.4545129555906528,0.5626743246240336,4,left
5.667000000000001,0.8356168653923884,0.027573448339063868,0.05141863661233689,-3.237518945688758,3.6568302938586497,-2.2489028365369212,-0.44101847423287843,-0.4418174644549091,0.4879370308417873,4,left
5.672000000000001,0.8332033905252164,0.02270276230135547,0.05355313696508434,-3.133974716741903,3.496034924388383,-2.236325552051857,-0.4150174576777114,-0.42878787633590837,0.4123312815905118,4,left
5.672999999999999,0.8305567322453657,0.018365567121178285,0.055635700900177235,-3.0301302177764504,3.332514799761894,-2.2230739105490054,-0.38862496744335345,-0.41544887074830644,0.3358895579953031,4,left
5.6770000000000005,0.8276836529075589,0.014561547841542318,0.057665057163552955,-2.926090622593164,3.1664049163923305,-2.2091523425295305,-0.3618544864457203,-0.4018253843993151,0.2586450369571571,4,left
5.6770000000000005,0.8245909785573424,0.011289919759189516,0.05964002174406145,-2.821959344816571,2.9978429423801103,-2.194565766684476,-0.3347199159606206,-0.38794256500510577,0.18063157338760005,4,left
5.682,0.8212855887853019,0.008549436776524092,0.06155949951675692,-2.7178378649739887,2.8269690489478463,-2.179319590321514,-0.3072355661430571,-0.37382572524894175,0.10188368103880419,4,left
5.683,0.8177744064610841,0.00633840027961164,0.0634224858629542,-2.613825567702433,2.6539257409375105,-2.1634197084905,-0.2794161456582254,-0.3595002968419554,0.022436511707358418,4,left
5.687,0.8140643873297757,0.004654668521175399,0.0652280682465073,-2.510019588784489,2.4788576858859193,-2.1468725017659405,-0.251276750346291,-0.34499178464674396,-0.057674167412343734,4,left
5.687,0.8101625094568582,0.0034956664858110135,0.06697542771941421,-2.4065146717142425,2.301911541187952,-2.129684832642592,-0.22283285084202048,-0.33032572082328426,-0.13841199845124494,4,left
5.692,0.8060757625099243,0.002858396213198666,0.06866384032476555,-2.303403033494682,2.1232357788507197,-2.111864040498525,-0.19410027906938224,-0.31552761895606823,-0.21974005989344694,4,left
5.693,0.8018111368658406,0.0027394475546123273,0.07029267836166757,-2.200774239368571,1.9429805073360769,-2.0934179350781363,-0.16509521353031276,-0.30062292812083563,-0.30162089613877396,4,left
5.696000000000001,0.7973756125339225,0.003135009337997304,0.07186141147665194,-2.0987150861856483,1.761297289983468,-2.0743547884457407,-0.13583416330597087,-0.2856369868488263,-0.38401654983193517,4,left
5.697,0.7927761478929688,0.004040880916921837,0.07336960754927345,-1.9973094941101268,1.5783389595001545,-2.054683325358577,-0.10633395068797363,-0.27059497694609674,-0.4668885971918397,4,left
5.7010000000000005,0.788019668255444,0.005452484078863526,0.07481693334351013,-1.8966384063738673,1.3942594280013139,-2.0344127120062425,-0.07661169235632574,-0.2555218771251374,-0.5501981865762041,4,left
5.702000000000001,0.783113054292233,0.007364875288309751,0.0762031548994021,-1.796779696782207,1.209213492078419,-2.0135525430618264,-0.0466847790678283,-0.24044241645062342,-0.6339060803852559,4,left
5.702999999999999,0.7780631303658108,0.009772758240848887,0.07752813764263897,-1.6978080846813135,1.023356632370637,-1.9921128269882353,-0.016570854057108526,-0.2253810278251088,-0.7179726997456307,4,left
5.706,0.7728766528244978,0.012670496706469145,0.07879184619537173,-1.599795057098028,0.8368448071107676,-1.970103969541511,0.013712209217947498,-0.2103618021438384,-0.8023581702214877,4,left
5.707000000000001,0.7675602983192792,0.01605212764007692,0.07999434387723918,-1.502808797765489,0.6498342391144725,-1.9475367554112308,0.04414632911612154,-0.19540844397197282,-0.8870223661369361,4,left
5.711,0.7621206522263692,0.019911374532259413,0.0811357918878826,-1.4069141228025308,0.46248119601844295,-1.9244223279876647,0.07471323700749183,-0.18054422937343279,-0.9719249517589715,4,left
5.712000000000001,0.7565641972748208,0.024241660969538417,0.08221644816182717,-1.3121724230783525,0.2749417652674509,-1.9007721674999427,0.10539449742286816,-0.16579196611723632,-1.0570254187863628,4,left
5.712999999999999,0.7508973024725794,0.02903612437573462,0.08323666588642795,-1.2186416137662899,0.08737162840189577,-1.876598068229066,0.136171527197615,-0.15117395626324992,-1.1422831202548078,4,left
5.716,0.7451262124147618,0.034287629907680035,0.08419689167328666,-1.1263760918544157,-0.10007415910735301,-1.8519121157542244,0.16702561369763297,-0.136711961084702,-1.2276573011021725,4,left
5.7170000000000005,0.7392570370661573,0.039988784471973224,0.08509766337279673,-1.0354267021232246,-0.28724137792672483,-1.8267266649331493,0.19793793221559833,-0.12242716828512709,-1.3131071256381963,4,left
5.721,0.7332957421247265,0.046131950819206194,0.08593960752385844,-0.9458407116347539,-0.473976843333429,-1.8010543188545285,0.22888956262583393,-0.1083401614677946,-1.3985917021634993,4,left
5.721,0.7272481400741462,0.05270926166545476,0.08672343643861123,-0.8576617925203498,-0.6601285922935645,-1.7749079087428434,0.2598615053864068,-0.09447089181612141,-1.4840701049830602,4,left
5.726,0.7211198820205493,0.05971263378795907,0.0874499449322542,-0.7709300128059083,-0.8455460596822097,-1.7483004747433009,0.2908346969772145,-0.08083865194407698,-1.5695013940595521,4,left
5.727,0.7149164503892254,0.06713378203993581,0.08812000671697008,-0.685681835017326,-1.0300802441816064,-1.7212452475131375,0.32179002486293534,-0.06746205187615542,-1.6548446325520216,4,left
5.731,0.7086431525340066,0.07496423322776138,0.08873457048601796,-0.6019501223129347,-1.213583864391876,-1.6937556305442123,0.352708342069775,-0.05435899711711348,-1.7400589024853796,4,left
5.731,0.7023051152865397,0.0831953397926054,0.08929465572010405,-0.5197641518938386,-1.3959115056866056,-1.6658451831404828,0.38357048146494627,-0.04154666877235255,-1.8251033187960386,4,left
5.737,0.6959072804476742,0.09181829323699718,0.08980134825307187,-0.43914963544733265,-1.5769197583431023,-1.637527603972669,0.4143572698277673,-0.029041505680556037,-1.909937041998775,4,left
5.739,0.6894544012022854,0.1008241372338492,0.09025579563629474,-0.3601287463829232,-1.756467347474159,-1.6088167151311625,0.4450495418011575,-0.01685918852097741,-1.9945192897195254,4,left
5.7410000000000005,0.6829510394236757,0.11020378035151321,0.09065920234024229,-0.28272015362491,-1.9344152552848008,-1.5797264465970362,0.47562815381214746,-0.005014625858608053,-2.0788093473383427,4,left
5.742000000000001,0.6764015638233524,0.11994800832488825,0.0910128248297311,-0.2069390617299931,-2.110626836173701,-1.550270821049828,0.5060739980498047,0.006478057908665492,-2.1627665779861234,4,left
5.746,0.6698101488940993,0.13004749580219577,0.09131796655014852,-0.1327972571029385,-2.284967925194751,-1.5204639389296575,0.5363680165887046,0.01760553273587914,-2.246350432138007,4,left
5.746,0.6631807745872771,0.14049281750235693,0.09157597286764986,-0.06030316008796033,-2.4573069403896985,-1.4903199636701314,0.5664912157457489,0.028355271283779696,-2.3295204570454953,4,left
5.751,0.6565172266589118,0.15127445872826364,0.09178822601533419,0.010538117281852201,-2.627514979497759,-1.459853107017454,0.5964246807577547,0.03871555547157078,-2.412236306248401,4,left
5.752000000000001,0.6498230976137357,0.16238282519358938,0.09195614010514694,0.07972470809003603,-2.79546591154277,-1.4290776143501434,0.6261495908667984,0.04867548126155553,-2.4944577494066382,4,left
5.756,0.6431017881730103,0.17380825213309883,0.09208115626772073,0.1472579221054281,-2.9610364637926763,-1.3980077499127868,0.6556472348998114,0.05822496170653191,-2.5761446826907086,4,left
5.756,0.6363565091922875,0.18554101267858147,0.09216473797861274,0.21314217231751606,-3.124106304580052,-1.3666577818763495,0.6848990274283746,0.06735472828967963,-2.657257139968409,4,left
5.76,0.629590283960008,0.1975713254948145,0.09220836662169205,0.2773848966372232,-3.284558122465864,-1.3350419671366516,0.7138865255940691,0.07605633058552895,-2.737755305023875,4,left
5.761,0.6228059508164906,0.20988936168216987,0.09221353733195893,0.3399964749571422,-3.4422777022218596,-1.3031745357617885,0.7425914466840748,0.08432213426942471,-2.817599525043538,4,left
5.765,0.6160061660443971,0.22248525096444075,0.09218175515191998,0.4009901417605015,-3.597153998099781,-1.2710696749984696,0.7709956865410151,0.09214531750169465,-2.896750325601929,4,left
5.766,0.6091934069947861,0.23534908719157807,0.09211453152689107,0.4603818944634387,-3.7490792048481016,-1.2387415127464785,0.7990813388902787,0.09951986571150288,-2.97516842737849,4,left
5.771,0.6023699754259428,0.248470933196572,0.09201338115436468,0.5181903976704757,-3.897948826929119,-1.2062041004097401,0.826830715667243,0.10644056480411948,-3.052814764834679,4,left
5.772,0.5955380010440889,0.2618408250537416,0.0918798191909171,0.5744368835184488,-4.043661746381099,-1.1734713950317956,0.8542263683790383,0.11290299282303526,-3.1296505069930363,4,left
5.773,0.5886994452431763,0.27544877579148896,0.09171535880915391,0.6291450482795511,-4.186120289761693,-1.1405572406228466,0.8812511102999772,0.1189035101419057,-3.205637080029617,4,left
5.775,0.5818561050433375,0.28928477861531277,0.09152150908843552,0.6823409453896003,-4.325230294600057,-1.1074753485849267,0.90788803887653,0.12443924834072026,-3.2807361906183217,4,left
5.776,0.575009617227856,0.30333880969905175,0.09129977321270383,0.7340528750631649,-4.460901175776072,-1.0742392771411957,0.9341205574821171,0.12950809796412066,-3.3549098485351676,4,left
5.78,0.5681614626817231,0.31760083060639704,0.09105164693320482,0.7843112706527662,-4.5930459922357,-1.0408624096748371,0.9599323958955155,0.13410869531362446,-3.428120387456262,4,left
5.781000000000001,0.5613129709394793,0.3320607904081545,0.0907786172396479,0.8331485819404413,-4.721581514264851,-1.0073579319477004,0.9853076292978482,0.13824040834346182,-3.500330483651353,4,left
5.782,0.5544653249508743,0.3467086275601218,0.09048216118053258,0.8805991557227268,-4.846428290648994,-0.9737388084941575,1.010230695816559,0.14190332168355255,-3.5715031727003295,4,left
5.785,0.5476195660694009,0.36153427160269197,0.09016374478201042,0.9266991143646068,-4.967510713442137,-0.9400177590716097,1.0346864126904898,0.14509822080283813,-3.6416018644429053,4,left
5.785,0.5407765992663925,0.37652764474000994,0.08982482202356906,0.9714862331709261,-5.084757077173146,-0.9062072363744764,1.0586599911289225,0.14782657532483834,-3.7105903563688463,4,left
5.79,0.5339371985754714,0.39167866335528034,0.08946683383098426,1.0149998172427548,-5.198099630192079,-0.8723194058924048,1.0821370499361511,0.15009052150595661,-3.77843284565312,4,left
5.791,0.5271020127753027,0.40697723951802633,0.08909120704805845,1.057280578163659,-5.307474617441901,-0.8383661282067726,1.1051036279718072,0.15189284388571558,-3.8450939400372737,4,left
5.794,0.520271571318568,0.4224132825367653,0.08869935335521223,1.0983705106800268,-5.4128223148151795,-0.8043589436935338,1.1275461955157742,0.15323695611676477,-3.9105386677551364,4,left
5.795,0.5134462905119205,0.43797670060575855,0.08829266811295117,1.1383127695005446,-5.514087055421229,-0.7703090595350822,1.1494516646051078,0.15412688098117094,-3.97473248669767,4,left
5.8,0.5066264799479123,0.4536574025867318,0.0878725291171241,1.1771515463363704,-5.611217248077797,-0.7362273389436189,1.17080739840891,0.1545672295981752,-4.037641293008399,4,left
5.8,0.4998123491872872,0.46944529995681356,0.08744029525967058,1.214931947300142,-5.704165388329778,-0.7021242924983537,1.1916012197055956,0.15456317982728726,-4.099231429297331,4,left
5.803999999999999,0.49300401468819793,0.48533030894434265,0.08699730509364724,1.2516998707786573,-5.792888062285786,-0.6680100714987485,1.211821418525459,0.15412045386928327,-4.159469692657725,4,left
5.805,0.4862015069761994,0.5013023528657725,0.08654487530489322,1.287501885890894,-5.877345943551487,-0.6338944632359179,1.2314567590198577,0.15324529506638324,-4.218323342666346,4,left
5.809,0.4794047780453454,0.5173513646703535,0.0860842990955008,1.3223851116400067,-5.957503783526619,-0.5997868880842396,1.2504964856167284,0.15194444390160874,-4.2757601095440725,4,left
5.81,0.4726137089782444,0.5334672896950007,0.08561684448697869,1.3563970968650214,-6.033330395320498,-0.5656963983151928,1.2689303285204951,0.1502251131960627,-4.331748202649829,4,left
5.814,0.46582811777218286,0.5496400886294527,0.08514375255282577,1.3895857010951784,-6.104798631528556,-0.5316316785354426,1.286748508612754,0.1480949625016312,-4.386256319476845,4,left
5.815,0.45904776735851094,0.5658597406914588,0.08466623558972575,1.4219989764072403,-6.171885356100111,-0.4976010476512063,1.303941741808408,0.14556207168538662,-4.439253655316179,4,left
5.82,0.45227237380276025,0.5821162470134144,0.08418547523291658,1.453685050383571,-6.2345714105151435,-0.4636124622609878,1.3205012429201903,0.14263491370076853,-4.490709913748266,4,left
5.82,0.4455016146736231,0.5983996342446173,0.08370262051520014,1.4846920102664336,-6.292841574475343,-0.42967352137883913,1.3364187290827356,0.13932232653944096,-4.5405953181190295,4,left
5.824,0.43873513757001636,0.6146999583758305,0.0832187858631143,1.515067788401724,-6.346684521302095,-0.39579147239040563,1.3516864227855787,0.13563348435656797,-4.588880624152716,4,left
5.825,0.43197256879646223,0.631007308794946,0.08273504902024426,1.5448600490632733,-6.396092768221463,-0.36197321814413075,1.3662970545626312,0.13157786776111713,-4.635537133849231,4,left
5.827999999999999,0.4252135221772578,0.6473118125847597,0.08225244888568103,1.5741160767468914,-6.441062621703545,-0.32822532508013824,1.3802438653838458,0.127165233261695,-4.680536710809201,4,left
5.829,0.41845760799885573,0.6636036390760546,0.08177198325250945,1.60288266602152,-6.48159411801084,-0.2945540322994731,1.3935206087929122,0.12240558185733762,-4.72385179712543,4,left
5.832999999999999,0.4117044420672267,0.6798730046706707,0.08129460642617965,1.6312060130231802,-6.5176909590975765,-0.26096526147656385,1.4061215528329427,0.11730912676162662,-4.765455431974703,4,left
5.834,0.40495365486324536,0.6961101779492331,0.08082122669841423,1.6591316086758594,-6.549360443989189,-0.22746462751797222,1.4180414818002027,0.11188626024747574,-4.805321272039159,4,left
5.837999999999999,0.39820490077541687,0.7123054850767889,0.08035270365225936,1.68670413372208,-6.576613395758364,-0.19405744987071266,1.4292756978640093,0.10614751959893687,-4.843423613881609,4,left
5.8389999999999995,0.39145786738574856,0.7284493155181347,0.0798898452782783,1.713967355644607,-6.599464084201392,-0.16074876438366337,1.4398200225803928,0.10010355219845783,-4.879737418344512,4,left
5.84,0.3847122847811371,0.7445321280754869,0.07943340488809553,1.7409640275596183,-6.6179301443058165,-0.12754333562584144,1.4496707982821806,0.09376507999233956,-4.914238336788699,4,left
5.843999999999999,0.3779679348596647,0.7605444572644393,0.07898407781778438,1.7677357891606418,-6.632032490587697,-0.09444566956558334,1.458824889248827,0.08714286396368888,-4.946902738535207,4,left
5.845,0.37122466059796905,0.7764769200447882,0.07854249792093744,1.794323069791663,-6.641795227364179,-0.06146002651495349,1.4672796825143597,0.08024766945653956,-4.977707738619819,4,left
5.848,0.3644823752411861,0.7923202229164878,0.07810923386119205,1.8207649937270571,-6.647245555014454,-0.028590434244001057,1.4750330882127995,0.07309023297871492,-5.006631225213365,4,left
5.849,0.3577410713723187,0.8080651693818763,0.07768478522525732,1.8470992877753618,-6.64841367238877,0.004159298819254946,1.482083539435768,0.06568123072273505,-5.033651886503143,4,left
5.85,0.35100082981647823,0.8237026677715104,0.07726957848519968,1.8733621915235403,-6.6453326761081595,0.03678557033214845,1.488429991617971,0.05803124882803432,-5.058749237074204,4,left
5.854,0.34426182833787733,0.8392237394332209,0.07686396284027174,1.899588370898216,-6.638038458556988,0.06928497065413004,1.4940719214728309,0.05015075536395084,-5.081903643873523,4,left
5.854,0.33752435008991044,0.8546195272821455,0.07646820596974781,1.9258108359202046,-6.626569606953608,0.10165426921199908,1.4990093254985168,0.04205007401222628,-5.103096351834634,4,left
5.858,0.3307887917779344,0.8698813046959684,0.0760824897348947,1.9520608633283127,-6.610967305276747,0.13389040054303908,1.503242718072606,0.03373935942706263,-5.122309509234799,4,left
5.859,0.3240556714923014,0.8850004847210585,0.07570690587571621,1.9783679243879915,-6.5912752397412975,0.1659904500436977,1.5067731291515798,0.025228574250119203,-5.139526192851171,4,left
5.864,0.3173256361685176,0.8999686295415666,0.07534145174947997,2.004759618000274,-6.567539507909759,0.19795163950584066,1.5096021015893428,0.016527467757200872,-5.154730432976812,4,left
5.865,0.3105994686318431,0.9147774601562279,0.07498602615432942,2.031261609186469,-6.539808531394593,0.22977131253317948,1.511731688086929,0.007645556112784478,-5.167907238351711,4,left
5.867999999999999,0.3038780941846832,0.929418866204191,0.07464042527772187,2.0578975730242415,-6.508132972095035,0.26144691993008157,1.5131644477835369,-0.001407895792044855,-5.17904262105822,4,left
5.869,0.2971625866976449,0.943884915880879,0.07430433880885613,2.0846891441109534,-6.472565651900257,0.2929760051545729,1.51390344249703,-0.010623890943222922,-5.1881236214245705,4,left
5.872000000000001,0.29045417416905184,0.9581678658874618,0.07397734625660735,2.11165587163045,-6.433161475779351,0.32435618992693743,1.5139522326200179,-0.0199937152743966,-5.195138332974287,4,left
5.872999999999999,0.28375424372149277,0.9722601713615395,0.07365891351949673,2.138815180099854,-6.389977358167239,0.35558516008490376,1.51331487267565,-0.02950895123066374,-5.200075927453449,4,left
5.877999999999999,0.277064346008043,0.9861544957396615,0.07334838976267175,2.166182335873376,-6.343072152544461,0.386660651775988,1.5119959065352462,-0.039161489851819095,-5.202926679961882,4,left
5.879,0.27038619900698335,0.9998437205031203,0.07304500466855986,2.193770419480645,-6.292506584097747,0.4175804380771348,1.510000362297916,-0.04894354140200521,-5.20368199420839,4,left
5.882999999999999,0.2637216911910372,1.0133209547580744,0.07274786613966573,2.221590303877618,-6.23834318533747,0.448342316131365,1.5073337468303418,-0.0588476445730855,-5.202334427904196,4,left
5.8839999999999995,0.25707288406289625,1.0265795446019916,0.07245595853892148,2.249650638688708,-6.180646234537334,0.47894409489069595,1.504002039962953,-0.06886667428945199,-5.198877718302771,4,left
5.8870000000000005,0.2504420140520769,1.0396130822333578,0.07216814155107157,2.277957840519415,-6.1194816968512,0.5093835835541539,1.5000116883367651,-0.07899384814235272,-5.193306807888186,4,left
5.888,0.2438314937672951,1.052415414771559,0.07188314973656668,2.306516089419394,-6.054917167951576,0.5396585807892452,1.495369598893241,-0.08922273148217548,-5.185617870208131,4,left
5.894,0.237243912592647,1.064980652766661,0.07159959282871345,2.3353273315765803,-5.987021820024165,0.5697668648247913,1.4900831319976127,-0.09954724119745521,-5.175808335841617,4,left
5.895,0.2306820366082646,1.0773031783900429,0.07131595679878204,2.3643912883237093,-5.915866349942915,0.5997061845025685,1.4841600941842195,-0.1099616482096838,-5.1638769184854025,4,left
5.896,0.2241488078103535,1.0893776533019124,0.07103060568694793,2.393705471539263,-5.841522929440233,0.6294742513747189,1.4776087305105394,-0.12046057871329413,-5.149823641137014,4,left
5.897,0.21764734260082613,1.1011990261870668,0.07074178417265162,2.4232652055256207,-5.7640651570774715,0.6590687329334202,1.4704377165047449,-0.13103901419046565,-5.1336498623461795,4,left
5.904,0.21118092951164497,1.1127625399338577,0.07044762083728882,2.453063655447895,-5.683568011811445,0.6884872470588189,1.4626561496897876,-0.1416922902306575,-5.115358302500415,4,left
5.905,0.20475302612478866,1.1240637384039334,0.07014613205606925,2.4830918624176572,-5.600107807943552,0.7177273577707366,1.4542735406652074,-0.1524160941850191,-5.094953070104379,4,left
5.906000000000001,0.19836725514478523,1.1350984727061224,0.06983522644675998,2.5133387853064573,-5.513762151229148,0.74678657236916,1.4452998037260862,-0.1632064616860576,-5.072439688006558,4,left
5.907,0.19202739957284842,1.1458629068568287,0.06951270980321145,2.543791349374714,-5.424609895916109,0.7756623400480237,1.435745247009741,-0.17405977204942955,-5.0478251195014066,4,left
5.907,0.18573739692091604,1.1563535226982775,0.06917629045189347,2.5744345018022248,-5.332731102472959,0.8043520520662772,1.4256205622236577,-0.18497274250629853,-5.021117794132427,4,left
5.912000000000001,0.1795013323944623,1.1665671239585695,0.06882358498938232,2.605251274207149,-5.238206995758716,0.8328530435597109,1.414936814122823,-0.19594242109135376,-4.992327632841745,4,left
5.914,0.17332343095847008,1.1765008393478558,0.06845212438645114,2.6362228522409237,-5.1411199233784926,0.8611625970764877,1.4037054299675686,-0.2069661779431357,-4.961466072009103,4,left
5.916,0.16720804817661952,1.1861521245755553,0.06805936047798196,2.667328652229098,-5.041553313997392,0.8892779478507623,1.3919381891267815,-0.2180416948421185,-4.928546086013785,4,left
5.917000000000001,0.16115965969733742,1.1955187631697237,0.06764267288937645,2.698546404238596,-4.939591635559071,0.9171962904880789,1.3796472128733754,-0.22916695293569855,-4.893582208120868,4,left
5.917999999999999,0.15518284926932552,1.2045988660050997,0.06719937647089343,2.7298522398903677,-4.835320353674602,0.9449147861234185,1.366844954352711,-0.24034021866802663,-4.856590549583863,4,left
5.921,0.14928229519221378,1.2133908694843103,0.06672672932803599,2.7612207826467987,-4.728825890621604,0.9724305687720576,1.3535441886901871,-0.2515600279464956,-4.817588816869198,4,left
5.921,0.14346275513074094,1.2218935323501443,0.06622194155640267,2.7926252388935304,-4.6201955852052885,0.9997407499329882,1.33975800320272,-0.2628251685768407,-4.776596326902147,4,left
5.926,0.13772904925428225,1.230105931148552,0.06568218479764436,2.8240374891975963,-4.509517653399787,1.026842421116339,1.3254997876773638,-0.27413466099894584,-4.7336340202279565,4,left
5.9270000000000005,0.1320860417213756,1.2380274544225853,0.06510460271153451,2.8554281797139227,-4.396881149500329,1.053732654305807,1.3107832246788853,-0.2854877373555864,-4.688724471976191,4,left
5.931,0.12653862060473198,1.2456577957828507,0.06448632241315784,2.8867668138303593,-4.282375927474377,1.0804085004345507,1.2956222798467258,-0.29688381892646687,-4.641891900510567,4,left
5.932,0.12109167643075397,1.2529969460500332,0.06382446686820255,2.918021844141411,-4.166092602193979,1.10686698595239,1.2800311921404106,-0.30832249196004125,-4.593162173640911,4,left
5.936,0.1157500795788482,1.260045184688595,0.06311616818074531,2.949160764840781,-4.048122510225942,1.13310510756156,1.2640244639911649,-0.31980348193572944,-4.542562812268287,4,left
5.937,0.11051865684545432,1.2668030707454374,0.062358581651944835,2.9801502046226855,-3.928557669851091,1.1591198251976407,1.2476168513162145,-0.3313266262892668,-4.490122991328789,4,left
5.941,0.10540216752213855,1.2732714334778774,0.06154890044314226,3.0109560201816574,-3.807490739978758,1.184908053331669,1.230823353351008,-0.3428918456340455,-4.435873537896102,4,left
5.942,0.1004052793609861,1.2794513628109008,0.06068437065166427,3.0415433904002276,-3.685014977617786,1.2104666506687949,1.2136592022534138,-0.3544991135114308,-4.3798469262975095,4,left
5.945,0.09553254480008866,1.2853441997130821,0.05976230660413023,3.0718769113134248,-3.5612241935607956,1.2357924083182152,1.1961398524327898,-0.3661484247031536,-4.3220772700927865,4,left
5.946000000000001,0.09078837779975595,1.2909515265305915,0.0587801061831773,3.101920691938516,-3.436212705934095,1.2608820365084563,1.1782809695557102,-0.377839762139003,-4.262600310760187,4,left
5.9510000000000005,0.08617703160480678,1.296275157275191,0.05773526601817221,3.1316384510577904,-3.310075291261623,1.2857321499214245,1.1600984191790802,-0.38957306243316436,-4.201453402928665,4,left
5.952000000000001,0.08170257771001706,1.3013171278307156,0.05662539637985658,3.1609936150414435,-3.1829071326874887,1.3103392517179693,1.1416082549603426,-0.40134818008266787,-4.138675495990438,4,left
5.955,0.07736888627264141,1.306079686028521,0.05544823562155465,3.189949416796791,-3.054803764998197,1.3346997163270296,1.1228267063935051,-0.41316485036153305,-4.074307111923123,4,left
5.956,0.07317960819189213,1.3105652815484794,0.054201664013908246,3.218468995929102,-2.925861016082404,1.3588097710697429,1.1037701660187906,-0.4250226509443159,-4.008390319145858,4,left
5.961,0.0691381590590041,1.3147765556244442,0.05288371683418655,3.24651550019831,-2.796174944463087,1.382665476689197,1.0844551760528267,-0.43692096229288496,-3.940968702229158,4,left
5.962000000000001,0.0652477051695783,1.3187163305605294,0.05149259658963093,3.274052188354698,-2.6658417725343275,1.4062627068558013,1.0648984143854578,-0.4488589268403712,-3.872087327273693,4,left
5.965,0.061511151780602714,1.3223875990847496,0.05002668426506599,3.3010425344354073,-2.5349578151325,1.4295971267175271,1.0451166798884681,-0.4608354070063549,-3.8017927027686955,4,left
5.966,0.05793113378398457,1.3257935135742054,0.048484549488223866,3.3274503336022665,-2.403619403069519,1.4526641705635406,1.0251268769807673,-0.4728489420774679,-3.730132735736433,4,left
5.97,0.05451000894466336,1.328937375183589,0.04686495951491537,3.353239809599964,-2.271922801253936,1.4754590186690102,1.0049459993938916,-0.4848977039877048,-3.657156682964962,4,left
5.971,0.051249853799253266,1.3318226229019463,0.0451668869587785,3.3783757239120185,-2.139964121024105,1.4979765733881076,0.9845911130810306,-0.49697945203284283,-3.5829150971273265,4,left
5.975,0.04815246222506723,1.3344528225568835,0.04338951621992077,3.402823486690345,-2.007839226316314,1.5202114345614584,0.9640793382121899,-0.5090914865534799,-3.507459767581442,4,left
5.975,0.04521934658613854,1.3368316557840818,0.041532248590528315,3.426549269532408,-1.8756436332897723,1.5421578743035167,0.9434278302275908,-0.5212306017073681,-3.430843655774537,4,left
5.976,0.04245174128275991,1.3389629089814643,0.039594706029590296,3.4495201201781165,-1.743472403029572,1.5638098112345418,0.9226537600710969,-0.5333930378821632,-3.3531208258393463,4,left
5.98,0.03985060849783053,1.3408504622677144,0.03757673360991308,3.471704079196607,-1.611420026948266,1.5851607842210311,0.9017742939953519,-0.5455744350744246,-3.2743463721663013,4,left
5.982,0.03741664591394242,1.3424982784640183,0.03547840065829701,3.493070298731,-1.4795803045065101,1.606203925687651,0.8808065734800975,-0.5577697889911263,-3.194576346399622,4,left
5.985,0.03515029613683903,1.3439103921180326,0.033300000636751384,3.5135891631718237,-1.3480462131669093,1.6269319346142905,0.859767695654602,-0.5699734111996552,-3.113867685635045,4,left
5.986000000000001,0.033051757539910125,1.3450908985889662,0.031042049835989183,3.5332324106513298,-1.2169097719636912,1.6473370495882267,0.8386746943444825,-0.5821788938776994,-3.0322781423933813,4,left
5.987,0.03112099627575299,1.3460439432093494,0.02870528495934088,3.551973252491442,-1.086261902714109,1.6674110227435037,0.8175445217127617,-0.5943790792841168,-2.9498662162742515,4,left
5.99,0.02935775924163701,1.3467737105332125,0.02629065967533822,3.5697864867594697,-0.9561922943664909,1.687145095675943,0.7963940304347555,-0.6065660339858296,-2.86669108705828,4,left
5.9910000000000005,0.027761587790633927,1.3472844136754547,0.023799340222713905,3.586648603059376,-0.8267892745128576,1.7065299781640493,0.7752399563462355,-0.618731027875791,-2.7828125490234776,4,left
5.994,0.026331831972609628,1.3475802837454158,0.021232700151197804,3.602537877440958,-0.6981396894527541,1.7255558300621265,0.7540989015041987,-0.6308645180170545,-2.6982909462391986,4,left
5.995,0.02506766510263181,1.3476655593798317,0.01859231426291334,3.6174344572828216,-0.5703287927284642,1.7442122464737204,0.7329873175995232,-0.6429561373479387,-2.613187108598863,4,left
6.0,0.023968098481674152,1.347544476387193,0.01587995179058474,3.631320436197552,-0.44344014176005175,1.7624882462610532,0.7119214896607738,-0.6549946882832123,-2.5275622883506093,4,left
6.001,0.023031996118657395,1.347221257527452,0.013097568822942513,3.644179919004671,-0.317555502210837,1.7803722639450856,0.6909175199884625,-0.6669681412461339,-2.4414780968832015,4,left
6.005,0.022258089320063196,1.3467001024678398,0.010247299967882942,3.655999076814144,-0.19275475971632167,1.7978521450497755,0.6699913122591469,-0.6788636381660585,-2.3549964415228435,4,left
6.006,0.021644991024292303,1.345985177976481,0.007331449227984997,3.666766192260297,-0.0691158386122219,1.8149151449430085,0.6491585557388903,-0.6906675009761674,-2.268179462095054,4,left
6.0089999999999995,0.021191209762092947,1.3450806084393965,0.004352480049393131,3.6764716949230425,0.053285372699852736,1.8315479312255558,0.6284347095457747,-0.7023652451456915,-2.1810894670044414,4,left
6.01,0.020895163121444307,1.343990466813302,0.0013130044955882625,3.685108186970354,0.17437509010742508,1.847736589718244,0.6078349869013866,-0.7139415982807714,-2.0937888685840678,4,left
6.016,0.02075519058530092,1.3427187661562858,-0.0017842285031798568,3.692670459052897,0.29408169621789926,1.8634666340963253,0.587374339311461,-0.7253805238278305,-2.006340117465144,4,left
6.017,0.020769565593515324,1.341269451908227,-0.004936345862060448,3.699155496478681,0.41233579721650016,1.8787230192187987,0.5670674406161844,-0.7366652499130347,-1.918805635716991,4,left
6.018,0.02093650665768246,1.3396463951186355,-0.008140364026676334,3.7045624756925264,0.5290702744991075,1.8934901581991586,0.5469286708510093,-0.747778303351059,-1.8312477485066232,4,left
6.019,0.021254187333980008,1.3378533868379758,-0.011393203603638699,3.7088927510820757,0.6442203314237193,1.9077519432627268,0.5269720998592341,-0.7587015488559862,-1.7437286140268646,4,left
6.025,0.021720744838551177,1.3358941338963448,-0.014691704861801602,3.712149832128966,0.7577235355201145,1.9214917704343597,0.5072114705980451,-0.7694162334867176,-1.6563101514416672,4,left
6.026,0.02233428707509047,1.3337722562879528,-0.01803264397993462,3.7143393509207008,0.8695198564929207,1.9346925680989215,0.48766018208019424,-0.7799030363587831,-1.5690539665972405,4,left
6.028,0.02309289783695598,1.3314912863594168,-0.021412749866534322,3.715469020035679,0.979551700348749,1.9473368294754538,0.468331271894016,-0.790142123653887,-1.4820212752477024,4,left
6.029,0.023994639947071173,1.3290546699629304,-0.024828721323488744,3.7155485808107325,1.0877639399733303,1.9594066490444773,0.44923739824504166,-0.8001132089579306,-1.395272823544257,4,left
6.034,0.025037556107834133,1.3264657696866562,-0.02827724426265711,3.714589741997494,1.1941039424796898,1.9708837629663127,0.43039082146307606,-0.8097956189575938,-1.3088688055373636,4,left
6.0360000000000005,0.02621966725254376,1.3237278702274218,-0.03175500861233069,3.712606108810851,1.2985215936433343,1.9817495935267027,0.4118033849192367,-0.8191683645248474,-1.22286877744201,4,left
6.039,0.027538968227348744,1.3208441859315037,-0.0352587244787534,3.709613102369748,1.4009693197352033,1.9919852976443706,0.3934864952981284,-0.8282102172179946,-1.1373315684170109,4,left
6.04,0.028993420702058292,1.317817870488173,-0.0387851370847444,3.705627869527603,1.501402107057762,2.001571819473447,0.3754511021710401,-0.8368997912270107,-1.0523151876102463,4,left
6.042999999999999,0.030580943324961904,1.3146520287054961,-0.0423310400306247,3.700669183086681,1.5997775194840973,2.0104899471319357,0.3577076768167904,-0.8452156307900643,-0.9678767272229116,4,left
6.044,0.032299399295267296,1.311349730231892,-0.0458932865269916,3.6947573323878586,1.6960557142942272,2.018720373585584,0.34026619029132327,-0.8531363029422308,-0.8840722615564209,4,left
6.044,0.03414658167187204,1.3079140250330281,-0.04946879840355678,3.687914004264372,1.7901994565970463,2.0262437617146567,0.3231360910164526,-0.8606404946318417,-0.8009567430533133,4,left
6.047999999999999,0.03612019682756863,1.3043479604006711,-0.05305457285536872,3.6801621543453447,1.8821741326204282,2.0330408135891918,0.306326282642269,-0.8677071117546189,-0.7185838982283532,4,left
6.0489999999999995,0.03821784655978157,1.3006545992147953,-0.05664768703436864,3.6715258686921683,1.9719477621459889,2.0390923439763355,0.2898451032070793,-0.8743153768300432,-0.6370061274340525,4,left
6.053,0.040437009540425235,1.296837039073202,-0.06024530073254897,3.662030216042376,2.059491010238507,2.044379357968314,0.27370030635115106,-0.8804449228677786,-0.5562744113606015,4,left
6.053999999999999,0.042775022913036365,1.292898431813493,-0.06384465749005232,3.6517010924043323,2.144777197811892,2.048883131952392,0.2578990448581781,-0.8860758824549296,-0.47643822528914187,4,left
6.053999999999999,0.04522906481457082,1.288842002943262,-0.06744308445499907,3.6405650623918646,2.227782309483887,2.052585295944857,0.24244785653083326,-0.8911889719181578,-0.39754546107338395,4,left
6.059,0.04779613852207559,1.2846710704915718,-0.07103799126200189,3.628649203156756,2.3084849965634024,2.0554679146437436,0.22735265235404556,-0.8957655705782264,-0.31964235661775336,4,left
6.06,0.05047305891644349,1.2803890627188919,-0.07462686814314481,3.6159809553033497,2.386866573609795,2.057513565217892,0.21261870690062248,-0.899787795113105,-0.24277343262282294,4,left
6.063,0.05325644192274105,1.275999534041848,-0.07820728342886062,3.602587982518881,2.462911008080226,2.0587054110448086,0.1982506509348429,-0.9032385690442832,-0.16698143637149107,4,left
6.064,0.056142697425027845,1.2715061785416215,-0.08177688050493426,3.588498040179624,2.5366049031765274,2.059027271272544,0.18425246617066776,-0.9061016873594023,-0.09230729233220732,4,left
6.069,0.05912802591493887,1.2669128405257946,-0.08533337417185269,3.573738852896516,2.6079374741167105,2.058463686211438,0.17062748214225182,-0.9083618762827249,-0.01879005935851392,4,left
6.07,0.06220841890231106,1.262223521752496,-0.08887454623481186,3.5583380009618506,2.67690051804954,2.056999978559116,0.15737837514548889,-0.9100048482033174,0.05353310573273914,4,left
6.0729999999999995,0.06537966291772729,1.2574423850804541,-0.0923982400763493,3.5423228156566156,2.7434883778238577,2.0546223104596297,0.1445071692103854,-0.9110173517691389,0.12462697841894028,4,left
6.074,0.06863734677280986,1.252573754476962,-0.09590235396237937,3.52572028337614,2.8076978998175526,2.05131773639509,0.13201523906512666,-0.9113872171534999,0.19445829077613902,4,left
6.077999999999999,0.07197687162241223,1.2476221114911907,-0.09938483291478999,3.5085569585298657,2.8695283860242826,2.0470742519055594,0.1199033150537792,-0.9111033964985815,0.2629957500380344,4,left
6.077999999999999,0.0753934633047738,1.2425920884629582,-0.10284365912993548,3.490858885169295,2.9289815405892243,2.0418808381303446,0.10817148997065643,-0.9101559995388953,0.3302100516136913,4,left
6.082000000000001,0.07888218642502523,1.2374884588613886,-0.106276841088941,3.4726515272964793,2.986061410978311,2.035727502161167,0.09681922777546355,-0.908536324405726,0.3960738867645246,4,left
6.082999999999999,0.08243795968238167,1.232316125218304,-0.10968240164090569,3.4539597078037882,3.0407743239585834,2.0286053131950053,0.0858453741544272,-0.9062368836117185,0.4605619451373766,4,left
6.0889999999999995,0.08605557199935573,1.2270801051404905,-0.11305836541462064,3.4348075559941886,3.09312881656046,2.0205064344716614,0.07524816889370653,-0.9032514252128686,0.5236509123467189,4,left
6.09,0.08972969907149281,1.2217855158683466,-0.11640274593702088,3.4152184636297664,3.143135562185902,2.0114241509783564,0.06502526003247117,-0.8995749491432496,0.585319462795133,4,left
6.093999999999999,0.09345492000613392,1.2164375578118507,-0.1197135328365289,3.3952150494548583,3.1908072920196817,2.00135289290088,0.0551737197641172,-0.8952037187158548,0.6455482479172759,4,left
6.095,0.09722573375610438,1.2110414974506818,-0.12298867951093354,3.374819132138819,3.236158711894173,1.990288254798015,0.045690062055173286,-0.890135267280969,0.7043198800285237,4,left
6.097,0.10103657508613678,1.2056026499427566,-0.12622609164990561,3.3540517115821964,3.2792064147513416,1.9782270104731268,0.036570261952522914,-0.8843684000314997,0.7616189119554075,4,left
6.098,0.10488182984733337,1.2001263617463733,-0.12942361701518512,3.332932958528905,3.3199687888389233,1.9651671235139851,0.027809776550634407,-0.877903190942704,0.8174318126208259,4,left
6.103,0.10875584938572218,1.194617993517998,-0.13257903688505365,3.311482212425846,3.358465921771103,1.951107753469019,0.01940356759154599,-0.8707409748317497,0.8717469387528372,4,left
6.104,0.1126529639774454,1.189082903492,-0.13569005955153893,3.2897179874703566,3.394719500577403,1.9360492576253552,0.011346125671397374,-0.8628843345205441,0.9245545028816049,4,left
6.107,0.11656749526324532,1.1835264314802019,-0.13875431620890485,3.267657986784858,3.428752707856917,1.9199931883511192,0.0036314960283305373,-0.8543370830832595,0.9758465377848082,4,left
6.108,0.12049376774178805,1.177953883554936,-0.14176935948736483,3.245319124657135,3.4605901141485322,1.9029422859616119,-0.0037466941124009944,-0.8451042411579869,1.0256168575375293,4,left
6.111000000000001,0.12442611946578232,1.1723705174087504,-0.14473266477069016,3.2227175567837474,3.49025756662134,1.8849004670661058,-0.010795206659274074,-0.8351920092999556,1.0738610153183021,4,left
6.112,0.1283589121535727,1.166781528328736,-0.14764163430620136,3.1998687184532426,3.517782074183049,1.865872808349141,-0.01752116230050066,-0.8246077354413816,1.1205762581518914,4,left
6.112,0.13228654095910153,1.1611920356968242,-0.1504936040063875,3.176787370605031,3.5431916890979225,1.8458655257373449,-0.02393200891862038,-0.8133598779690776,1.1657614789311734,4,left
6.117000000000001,0.13620344412695673,1.1556070699318102,-0.15328585277382636,3.153487653699027,3.5665153851995206,1.824885948899963,-0.03003548934948209,-0.801457965735466,1.2094171663552133,4,left
6.117999999999999,0.1401041127321125,1.150031559810653,-0.1560156141139688,3.129983149330454,3.587782932777382,1.8029424910284473,-0.03583960924566874,-0.7889125567647447,1.2515453535824157,4,left
6.121,0.14398310069943493,1.1444703201356403,-0.158680089686355,3.1062869495235303,3.607024770210698,1.780044613837647,-0.041352605618336084,-0.775735196966017,1.292149566227066,4,left
6.121,0.1478350352967506,1.1389280397523798,-0.1612764643230386,3.08241173341556,3.6242718726056866,1.7562027878618642,-0.04658291629723122,-0.7619383793568597,1.331234770024077,4,left
6.122000000000001,0.15165462826679887,1.1334092699633058,-0.16380192200465787,3.058369849934464,3.6395556186356055,1.73142844878388,-0.051539150362618,-0.747535503850919,1.3688073183162122,4,left
6.126,0.1554366877156386,1.1279184134088251,-0.1662536623480935,3.0341734030780505,3.6529076584832354,1.7057339517339751,-0.05623005956496503,-0.7325408375717072,1.404874899480433,4,left
6.127000000000001,0.15917613083496393,1.1224597135151284,-0.16862891723670795,3.0098343352949013,3.6643597867280837,1.6791325261608714,-0.06066451074744,-0.7169694756529951,1.4394464844056722,4,left
6.131,0.16286799751127798,1.1170372446513124,-0.17092496724895423,2.985364505574184,3.6739438230667547,1.6516382332062367,-0.06485145928546705,-0.7008373024844539,1.4725322741299836,4,left
6.132000000000001,0.16650746484917475,1.1116549031824883,-0.17313915755976444,2.9607757608454377,3.6816915020427077,1.6232659263100824,-0.0687999235568422,-0.6841609533595053,1.5041436477406984,4,left
6.1370000000000005,0.1700898625920001,1.1063163996200809,-0.17526891305871234,2.9360800003968537,3.6876343720079996,1.5940312151041856,-0.07251896045516479,-0.6669577764806793,1.5342931106369257,4,left
6.138,0.17361068936021065,1.1010252520463084,-0.17731175253145673,2.9112892332417895,3.6918037033446134,1.563950432514585,-0.07601764195863277,-0.6492457952761737,1.5629942432494683,4,left
6.141,0.1770656295540545,1.0957847809333119,-0.17926530184464967,2.8864156283628977,3.6942304059677005,1.5330406049916758,-0.07930503276556383,-0.6310436709797449,1.5902616503089955,4,left
6.142,0.18045057069190173,1.0905981053988232,-0.18112730614200645,2.86147155776296,3.6949449561278676,1.5013194257839582,-0.08239016900734597,-0.6123706654245507,1.6161109107491076,4,left
6.146,0.18376162088742345,1.0854681408550468,-0.1828956410984319,2.8364696322512257,3.693977332524562,1.4688052311690591,-0.08528203804888759,-0.5932466040001,1.6405585283267785,4,left
6.147,0.18699512611343175,1.0803975979351879,-0.18456832328942488,2.8114227298938355,3.691356961737588,1.4355169795532727,-0.08798955938603065,-0.5736918387200648,1.663621883038537,4,left
6.151,0.19014768685949626,1.0753889825366632,-0.18614351971772383,2.786344017056692,3.6871126729788735,1.4014742333485282,-0.0905215666488087,-0.5537272113473519,1.6853191834066883,4,left
6.152,0.19321617376747022,1.0704445968027512,-0.187619556511646,2.7612469619689866,3.6812726621617644,1.3666971435334263,-0.0928867907188768,-0.5333740165215414,1.7056694197058375,4,left
6.156000000000001,0.19619774183050173,1.0655665408681463,-0.1889949267853467,2.736145340735451,3.67386446528039,1.3312064368027559,-0.09509384396891021,-0.5126539648325601,1.724692318196012,4,left
6.157,0.19908984277316136,1.0607567152116075,-0.19026829763415384,2.711053235725331,3.6649149410869604,1.2950234052077365,-0.09715120563126452,-0.49158914578328344,1.7424082964247538,4,left
6.16,0.20189023529320388,1.056016823487474,-0.1914385162224783,2.685985026265999,3.6544502630502853,1.2581698981871294,-0.09906720830271026,-0.47020199058264317,1.758838419656685,4,left
6.1610000000000005,0.204596992932125,1.0513483757454052,-0.19250461490595566,2.6609553715691394,3.64249592057428,1.2206683168873063,-0.10085002559160085,-0.4485152347097647,1.7740043584852403,4,left
6.165,0.20720850943922411,1.046752691989704,-0.19346581532110146,2.635979185817442,3.629076729450819,1.182541610667377,-0.1025076609134017,-0.4265518801886697,1.7879283476775008,4,left
6.166,0.20972350158755662,1.0422309060702541,-0.19432153138327665,2.611071605339834,3.6142168515169137,1.1438132756835577,-0.10404793744010256,-0.40433515751215254,1.8006331462993794,4,left
6.171,0.21214100947863374,1.0377839699328826,-0.19507137115672699,2.586247947803366,3.5979398234819446,1.1045073554450942,-0.1054784892086516,-0.38188848715258034,1.8121419991647705,4,left
6.172000000000001,0.21446039443117185,1.0334126582853789,-0.19571513758988535,2.5615236633500467,3.580268594886434,1.0646484432322625,-0.10680675339319044,-0.3592354405965711,1.8224785996487136,4,left
6.176,0.21668133458877648,1.029117573752396,-0.1962528281352324,2.536914277607096,3.5612255751497277,1.0242616862652458,-0.10803996374553095,-0.3363997008397785,1.8316670539011204,4,left
6.176,0.218803818406517,1.0248991525938387,-0.1966846332917732,2.5124353264993484,3.54083268965988,0.9833727915110219,-0.10918514520799971,-0.3134050222773507,1.8397318464941754,4,left
6.18,0.2208281361879002,1.0207576710468536,-0.19701093412012033,2.488102282792804,3.519111444855018,0.9420080330138121,-0.11024910968772714,-0.2902751899684785,1.8466978075175584,4,left
6.18,0.2227548698362374,1.0166932523265875,-0.19723229878438,2.4639304742986687,3.4960830022415323,0.9001942606331287,-0.11123845290741392,-0.2670339784701302,1.852590081054352,4,left
6.181,0.22458488096136833,1.0127058742922932,-0.19734947817273238,2.4399349936675985,3.4717682612905576,0.8579589100720115,-0.11215955211456702,-0.243705110825583,1.857434094826883,4,left
6.184,0.2263192974693585,1.00879537775525,-0.19736340064978525,2.4161305997042724,3.4461879511503817,0.8153300140766834,-0.1130185643571917,-0.22031221851017949,1.8612555307206007,4,left
6.186,0.22795949877718796,1.0049614753717229,-0.19727516600609146,2.3925316101328904,3.4193627311086825,0.772336214687564,-0.11382142510748314,-0.19687880291921103,1.8640802959690081,4,left
6.19,0.22950709981823716,1.0012037610318876,-0.19708603868647606,2.369151786053888,3.391313299479788,0.7290067763623822,-0.11457384714765173,-0.17342819859160738,1.8659344949200234,4,left
6.191,0.23096393400705825,0.99752171963702,-0.19679744038593358,2.346004209878661,3.3620605093135456,0.685371599501054,-0.11528131970560851,-0.1499835381457237,1.8668444013792096,4,left
6.192,0.23233203531321592,0.9939147371562017,-0.19641094209836268,2.323101161312408,3.331625487023854,0.6414612333790466,-0.11594910784282926,-0.12656771885995674,1.8668364315380443,4,left
6.194,0.23361361958626928,0.9903821108513299,-0.19592825570408914,2.300453997501787,3.300029748756408,0.597306887205045,-0.11658225209657076,-0.10320337083087232,1.8659371174926112,4,left
6.195,0.2348110652974335,0.9869230595393784,-0.19535122519694798,2.2780730419187774,3.2672953105867415,0.5529404383077992,-0.11718556837848292,-0.07991282664154403,1.864173081355383,4,left
6.2,0.23592689389803687,0.9835367337376048,-0.19468181766850207,2.255967483770139,3.233444790931205,0.5083944369781456,-0.11776364813154584,-0.05671809247288384,1.861571009960135,4,left
6.2,0.2369637500151352,0.9802222255317617,-0.19392211417145708,2.2341452881766104,3.198501504825164,0.46370210778143955,-0.1183208587471613,-0.03364082059089326,1.8581576301574572,4,left
6.204,0.2379243817098554,0.9769785780212747,-0.19307430057779554,2.2126131170575793,3.1624895499744303,0.4188973472130131,-0.11886134424414144,-0.010702283142975104,1.8539596846958593,4,left
6.205,0.238811621021725,0.9738047942210917,-0.1921406585348889,2.191376260657736,3.125433884482734,0.37401471756876387,-0.11938902621126497,0.012076652803279898,1.8490039086810477,4,left
6.209,0.23962836501416504,0.9706998453321117,-0.19112355660602057,2.1704385796530326,3.087360396154906,0.3290894369025575,-0.11990760501501052,0.034675549045080696,1.8433170066036297,4,left
6.21,0.24037755752242587,0.9676626783268375,-0.19002544166257568,2.149802457774112,3.0482959632723725,0.2841573649418056,-0.12042056127402809,0.057074418919049054,1.8369256299232395,4,left
6.215,0.2410621717858927,0.9646922228312754,-0.18884883057881025,2.129468764886196,3.0082685067345576,0.23925498483236066,-0.12093115760187258,0.07925374893085202,1.829856355194911,4,left
6.216,0.24168519412241543,0.9617873973168538,-0.187596302270519,2.109436830465293,2.9673070334568905,0.19441938058374542,-0.12144244061949669,0.10119451940473119,1.8221356627214125,4,left
6.22,0.24224960877456866,0.9589471146458814,-0.18627049011466162,2.0897044274114527,2.9254416709132456,0.14968821008571798,-0.12195724323898356,0.12287822421723303,1.8137899157132449,4,left
6.221,0.24275838402922037,0.9561702870382783,-0.18487407478263068,2.070267766140639,2.882703692707895,0.10509967356726008,-0.12247818721999293,0.14428688967881423,1.8048453399360505,4,left
6.224,0.24321445968548278,0.9534558305439168,-0.18340977751107898,2.051121498897683,2.8391255350593645,0.060692477369268596,-0.12300768600039529,0.1654030926263124,1.7953280038233077,4,left
6.225,0.24362073592334527,0.9508026691134931,-0.1818803538221337,2.0322587342336154,2.7947408040759947,0.016505792902532117,-0.12354794780257884,0.18620997778853476,1.785263799030395,4,left
6.229,0.24398006360450483,0.9482097383613782,-0.18028858769482148,2.0136710615915305,2.749584273700497,-0.02742078933701516,-0.124100979016931,0.20669127448642904,1.7746784214043863,4,left
6.23,0.24429523601477113,0.9456759891073101,-0.17863728618511632,1.9953485859459656,2.7036918741983946,-0.07104731082324789,-0.12466858786401988,0.22683131272846102,1.763597352342289,4,left
6.234,0.2445689820319661,0.9432003907728883,-0.17692927449007337,1.9772799724415906,2.6571006710629193,-0.1143335012518637,-0.1252523883370328,0.24661503876093668,1.7520458405088721,4,left
6.235,0.24480396067524474,0.9407819346955941,-0.17516739144549953,1.9594525009777886,2.609848834206709,-0.15723884011556027,-0.12585380442606392,0.26602803013207243,1.740048883883728,4,left
6.2379999999999995,0.24500275696227777,0.9384196374071495,-0.1733544854343604,1.941852130686469,2.561975597308559,-0.19972262372761598,-0.12647407462588522,0.28505651032763774,1.7276312121057888,4,left
6.239,0.24516787896989625,0.9361125439051388,-0.17149341066960702,1.9244635742511775,2.513521207181459,-0.24174403781813664,-0.12711425672888116,0.30368736303497273,1.71481726908217,4,left
6.242999999999999,0.24530175596295412,0.9338597309298466,-0.16958702380607268,1.9072703820162595,2.4645268630262636,-0.2832622358261361,-0.12777523290487702,0.3219081460911194,1.7016311958269255,4,left
6.244,0.2454067374284008,0.9316603102441903,-0.16763818083174212,1.8902550358354828,2.4150346454335496,-0.32423642300940747,-0.12845771506964543,0.3397071051697016,1.688096813494101,4,left
6.247999999999999,0.245485092830174,0.9295134319028332,-0.16564973418725035,1.8733990526101332,2.365087434994558,-0.36462594649281366,-0.12916225054393174,0.3570731872600494,1.6742376065683193,4,left
6.249,0.24553901189097496,0.9274182874868969,-0.16362453006589392,1.8566830974671507,2.3147288203805605,-0.40439039137417926,-0.12988922799971472,0.3739960539604068,1.6600767061975343,4,left
6.25,0.24557060521887333,0.9253741132755499,-0.1615654058565043,1.8400871065283892,2.2640029957485663,-0.44348968300540575,-0.13063888366455753,0.39046609445346403,1.6456368737638891,4,left
6.255,0.24558190512840822,0.9233801933257639,-0.15947518770389316,1.8235904192225345,2.21295464732998,-0.4818841955647491,-0.13141130770830797,0.4064744377569113,1.6309404849898343,4,left
6.255,0.24557486653185667,0.9214358624315694,-0.15735668817019052,1.8071719200916123,2.1616288290576318,-0.5195348670344083,-0.13220645071054962,0.4220129636880504,1.6160095149880962,4,left
6.2589999999999995,0.2455513677788667,0.9195405089308789,-0.15521270398495965,1.7908101900443745,2.11007082708556,-0.5564033206956599,-0.13302413013319134,0.43707431213259057,1.6008655245509795,4,left
6.26,0.24551321132070397,0.917693577326557,-0.1530460138753733,1.7744836667102002,2.058326013397614,-0.5924519930024796,-0.13386403676930816,0.4516518904807299,1.585529647771601,4,left
6.261,0.24546212409295232,0.9158945706939456,-0.15085937647002232,1.758170812052774,2.006439690413236,-0.6276442664460945,-0.13472574116533254,0.4657398792446692,1.5700225809766692,4,left
6.263,0.24539975754224613,0.9141430528565071,-0.14865552827022974,1.741850282712668,1.9544569315816878,-0.6619446037772099,-0.13560870001894465,0.47933323590080923,1.5543645729273494,4,left
6.263999999999999,0.24532768724805173,0.9124386503195541,-0.1464371816818625,1.7255010970534557,1.9024224246685273,-0.6953186787039409,-0.1365122625550735,0.4924276969984971,1.5385754162442062,4,left
6.268,0.2452474121025742,0.910781053958682,-0.14420702309851452,1.7091027943806247,1.8503803227246676,-0.7277334994273847,-0.13743567688248298,0.5050197785757812,1.5226744400117151,4,left
6.269,0.2451603530205465,0.9091700204663357,-0.14196771102366254,1.6926355844928327,1.798374104644479,-0.7591575236176578,-0.13837809633347828,0.5171067749212174,1.5066805035174062,4,left
6.273,0.24506785116455845,0.9076053735678451,-0.13972187421808488,1.6760804872195736,1.746446445506172,-0.7895607646769307,-0.13933858578932648,0.5286867557193339,1.4906119910803257,4,left
6.274,0.24497116568826477,0.9060870050273353,-0.1374721098626047,1.6594194618981035,1.6946390965450504,-0.8189148893825126,-0.14031612799404253,0.539758561615924,1.4744868079231737,4,left
6.277,0.24487147101446172,0.9046148754729091,-0.1352209817335372,1.6426355267422783,1.6429927746103294,-0.847193307000192,-0.14130962985924542,0.5503217982378835,1.4583223770422122,4,left
6.278,0.24476985367704857,0.9031890150764873,-0.13297101839437264,1.6257128680557094,1.5915470609564304,-0.8743712499551156,-0.14231792876284208,0.5603768287008595,1.442135637028824,4,left
6.2829999999999995,0.2446673087672931,0.9018095241248201,-0.13072471141030878,1.608636939241334,1.540340309220012,-0.9004258461444712,-0.1433397988443447,0.5699247646365126,1.425943040796432,4,left
6.2829999999999995,0.2445647360366606,0.9004765735154389,-0.12848451359420374,1.5913945495591544,1.4894095624344583,-0.9253361829731601,-0.14437395729967295,0.5789674557697418,1.409760555166382,4,left
6.287999999999999,0.2444629357195888,0.8991904052060838,-0.1262528372938972,1.5739739425834953,1.4387904789341157,-0.9490833631904849,-0.14541907067833507,0.5875074780747577,1.3936036612663276,4,left
6.289,0.24436260414947977,0.8979513326384907,-0.12403205272846557,1.5563648643107024,1.3885172670012547,-0.9716505526026542,-0.1464737611859206,0.5955481205374373,1.3774873556946245,4,left
6.292999999999999,0.24426432925105568,0.8967597411478105,-0.12182448637239444,1.5385586208677182,1.3386226281095228,-0.9930230197326252,-0.14753661299487292,0.6030933705499439,1.361426152404293,4,left
6.294,0.24416858600123553,0.8956160883594191,-0.11963241937547157,1.520548125771472,1.289137708618549,-1.0131881674954668,-0.14860617856654093,0.6101478979621515,1.345434085260155,4,left
6.297000000000001,0.24407573195536234,0.8945209045670962,-0.11745808599957026,1.5023279366884803,1.2400920597753466,-1.0321355569540414,-0.14968098498753638,0.6167170378129809,1.3295247112228858,4,left
6.297999999999999,0.24398600293434103,0.8934747930806569,-0.11530367205316175,1.4838942816434875,1.1915136058792481,-1.049856923216375,-0.15075954032344735,0.6228067717633338,1.3137111141138693,4,left
6.303999999999999,0.24389950896285442,0.8924784305271637,-0.11317131330520352,1.4652450746253922,1.1434286204682786,-1.0663461835326238,-0.15184033999297722,0.628423708250901,1.298005908914943,4,left
6.305,0.2438162305416058,0.8915325670882245,-0.11106309385789241,1.446379920538117,1.0958617103861343,-1.0815994376460476,-0.15292187316559328,0.6335750613857302,1.2824212465573608,4,left
6.307,0.24373601532801337,0.8906380266554655,-0.10898104445414794,1.4273001094434574,1.0488358075902668,-1.0956149604488887,-0.15400262918578075,0.6382686286040613,1.2669688191545712,4,left
6.307,0.24365857528940274,0.8897957068847433,-0.10692714069473583,1.4080086000423366,1.0023721685629936,-1.1083931869905146,-0.15508110402700295,0.6425127670965806,1.2516598656337194,4,left
6.311,0.24358348438018548,0.8890065791267499,-0.10490330114431068,1.3885099923402708,0.9564903811890364,-1.1199366898816414,-0.15615580677847218,0.6463163690259092,1.2365051777211287,4,left
6.312,0.24351017677993583,0.8882716882102939,-0.10291138531518504,1.368810489442246,0.9112083789644387,-1.1302501491349002,-0.15722526616783225,0.6496888355468268,1.2215151062373943,4,left
6.317,0.24343794571413696,0.8875921520573238,-0.10095319152974697,1.3489178484215931,0.8665424624034297,-1.139340314478461,-0.15828803712284775,0.6526400496414428,1.2066995676581356,4,left
6.318,0.24336594286620894,0.8869691611150659,-0.09903045467270584,1.3288413202068603,0.8225073275114643,-1.1472159601758851,-0.15934270736958256,0.6551803478066683,1.1920680509056718,4,left
6.319,0.24329317838016148,0.8864039775978562,-0.09714484384929395,1.308591578430107,0.7791161011943941,-1.1538878323818493,-0.1603879040365255,0.6573204907621376,1.1776296243812596,4,left
6.321000000000001,0.2432185214486488,0.8858979345372748,-0.09529795996833307,1.2881806371794984,0.7363803834754856,-1.1593685890598746,-0.1614223001836861,0.6590716335831819,1.1633929433270493,4,left
6.322,0.2431407014801086,0.8854524346446302,-0.09349133327842282,1.2676217575985431,0.6943102963938119,-1.163672732484705,-0.16244462114765007,0.6604452957943089,1.1493662576513395,4,left
6.327000000000001,0.24305830983738944,0.8850689489977368,-0.09172642090369498,1.2469293432738304,0.6529145394593954,-1.1668165343485317,-0.1634536506215674,0.6614533318254611,1.1355574203073733,4,left
6.327999999999999,0.2429698021364864,0.8847490155751018,-0.09000460444274543,1.22611882435266,0.6122004515423516,-1.1688179534868408,-0.16444823643943046,0.6621079019945484,1.1219738962374717,4,left
6.327999999999999,0.24287350108902617,0.8844942376701813,-0.08832718769976354,1.2052065306125639,0.5721740789682371,-1.1696965464017168,-0.16542729606197495,0.6624214440466342,1.1086227718510036,4,left
6.332000000000001,0.24276759986845314,0.8843062822200718,-0.08669539460907519,1.184209555109489,0.5328402490589403,-1.1694733715843042,-0.16638982176709904,0.6624066452526952,1.095510764996543,4,left
6.332999999999999,0.24265016597722858,0.8841868780764178,-0.0851103674009832,1.1631456125603372,0.4942026473977665,-1.1681708901237895,-0.16733488554765663,0.6620764150698647,1.0826442353892063,4,left
6.337000000000001,0.2425191455866055,0.8841378142372612,-0.08357316504897545,1.1420328980204137,0.45626389656454425,-1.165812865914232,-0.16826164371943444,0.6614438583640845,1.070029195454827,4,left
6.337999999999999,0.24237236830970488,0.884160938050647,-0.08208476203840291,1.1208899500109564,0.41902563462336684,-1.16242426794022,-0.1691693412420762,0.6605222491951536,1.0576713215533187,4,left
6.341,0.2422075523576058,0.8842581533908285,-0.08064604749501955,1.0997355197224408,0.382488592610218,-1.1580311756302937,-0.17005731575566693,0.6593250051632508,1.045575965544271,4,left
6.3420000000000005,0.2420223100224503,0.8844314187928844,-0.07925782470164768,1.0785884465140883,0.3466526708045385,-1.1526606874368504,-0.1709250013356385,0.657865662315144,1.0337481666585593,4,left
6.346,0.24181415343263934,0.884682745514102,-0.07792081101645623,1.0574675396488746,0.3115170136777588,-1.146340832632851,-0.1717719319686018,0.6561578506074676,1.0221926636404728,4,left
6.347,0.24158050053365931,0.885014195475291,-0.07663563819246441,1.036391466203311,0.27708008341383733,-1.1391004863127714,-0.17259774475165582,0.6542152699236559,1.0109139071256252,4,left
6.351,0.24131868126315636,0.8854278790257019,-0.0754028530862269,1.015378645091286,0.2433397318988548,-1.130969287582427,-0.1734021828176652,0.6520516666403728,0.9999160722206839,4,left
6.352,0.241025943906323,0.8859259524731538,-0.0742229187335342,0.9944471471413375,0.21029327107872656,-1.1219775609195812,-0.1741850979889382,0.6496808107385588,0.9892030712517271,4,left
6.357,0.24069946163279213,0.8865106153257515,-0.07309621576184189,0.9736146011668412,0.17793754158609965,-1.112156240684595,-0.17494645316167726,0.6471164734535444,0.9787785666488416,4,left
6.357,0.24033633922634565,0.8871841072013043,-0.07202304410404607,0.9528981059687989,0.14626897953950185,-1.101536798757833,-0.1756863244235124,0.644372405458046,0.9686459839353703,4,left
6.361000000000001,0.23993362002257534,0.8879487043741534,-0.07100362497539764,0.9323141482111278,0.1152836814198028,-1.090151175278056,-0.1764049029063668,0.641462315571261,0.958808524791047,4,left
6.362,0.2394882930682825,0.8888067159453873,-0.07003810307287948,0.9118785261086447,0.08497746693102948,-1.0780317124536554,-0.1771024963768416,0.6383998499867259,0.9492691801590754,4,left
6.3660000000000005,0.23899730051333715,0.889760479638874,-0.06912654895372806,0.891606278868265,0.05534593975455289,-1.0652110914162902,-0.1777795305662462,0.6351985720110847,0.9400307433680529,4,left
6.3660000000000005,0.23845754524316015,0.8908123572392908,-0.06826896154902352,0.8715116218243198,0.026384546107624113,-1.051722272084291,-0.1784365502423383,0.6318719423054349,0.931095823240485,4,left
6.372000000000001,0.23786589875786368,0.8919647296972355,-0.06746527077204549,0.8516078872093185,-0.0019113689808113359,-1.037598436001082,-0.17907422002477946,0.6284332996204864,0.9224668571604914,4,left
6.372999999999999,0.2372192093027148,0.8932199919303431,-0.06671534018885897,0.8319074705019476,-0.029546507762154,-1.022872932111865,-0.17969332494625168,0.6248958420163615,0.9141461240741705,4,left
6.375,0.2365143102554211,0.8945805473496172,-0.06601896972603917,0.81242178229461,-0.05652556831125428,-1.0075792254398863,-0.18029477076112407,0.621272608557511,0.9061357573969606,4,left
6.376,0.23574802877948858,0.8960488021382624,-0.06537589839306339,0.7931612056233531,-0.08285319560187622,-0.9917508486217819,-0.1808795840035034,0.6175764614728958,0.8984377578032121,4,left
6.382999999999999,0.2349171947575022,0.8976271593073408,-0.06478580699395042,0.7741350587036152,-0.10853393519391984,-0.9754213562597736,-0.18144891179644823,0.6138200687713001,0.8910540058740744,4,left
6.3839999999999995,0.23401865001879302,0.8993180125510308,-0.06424832079783212,0.7553515630158371,-0.13357218960991551,-0.9586242820468521,-0.1820040214140777,0.6100158873013948,0.8839862745806885,4,left
6.385,0.23304925786950426,0.9011237399255719,-0.06376301213625213,0.7368178166856267,-0.1579721774764326,-0.9413930986195492,-0.18254629959825652,0.6061761462459613,0.8772362415805759,4,left
6.385,0.23200591292198014,0.9030466973779936,-0.06332940289893237,0.7185397731038394,-0.1817378955041856,-0.9237611800914595,-0.1830772516329227,0.6023128310448157,0.8708055013034205,4,left
6.386,0.23088555121010407,0.9050892121502658,-0.06294696690866888,0.7005222247326265,-0.20487308337877505,-0.9057617672193315,-0.18359850018621915,0.5984376677673661,0.8646955767903782,4,left
6.39,0.22968516057014493,0.9072535760817698,-0.06261513216717991,0.6827687920442248,-0.2273811916321668,-0.8874279351523011,-0.18411178394340139,0.5945621080033807,0.8589079312286096,4,left
6.391,0.22840179125912355,0.9095420388313558,-0.062333282976027575,0.6652819175399884,-0.2492653525631897,-0.8687925637136827,-0.18461895606059825,0.5906973143670065,0.8534439791106754,4,left
6.395,0.22703256677199626,0.9119568010410556,-0.062100761949234494,0.6480628647374442,-0.2705283542268885,-0.8498883101430484,-0.1851219824623372,0.5868541466825131,0.8483050969623311,4,left
6.397,0.22557469481167575,0.9145000074636609,-0.06191687194223962,0.6311117217115767,-0.29117261727760224,-0.830747584122161,-0.18562293999287693,0.5830431488724885,0.8434926336065298,4,left
6.397,0.22402547836765863,0.9171737400734352,-0.061780877921653175,0.6144274082331108,-0.3112001740291545,-0.8114025247217163,-0.18612401442423682,0.57927453654271,0.8390079199453437,4,left
6.4,0.22238232686217296,0.9199800111751568,-0.06169200879536265,0.5980076852449976,-0.33061264886059194,-0.7918849788018806,-0.18662749832237152,0.5755581852526741,0.8348522782450475,4,left
6.401,0.22064276731878643,0.9229207565238422,-0.06164945921734419,0.5818491657214035,-0.34941123932729284,-0.7722264805021267,-0.18713578877293524,0.57190361946086,0.8310270309105399,4,left
6.405,0.2188044555014085,0.925997828465113,-0.06165239137490718,0.565947326498472,-0.36759669775518783,-0.7524582316410291,-0.18765138496807995,0.5683200021339205,0.8275335087362223,4,left
6.406000000000001,0.21686518696867058,0.9292129891030275,-0.06169993675713195,0.5502965209692124,-0.38516931332723003,-0.732611082949379,-0.18817688565573912,0.5648161250091459,0.8243730586214018,4,left
6.41,0.21482290798958364,0.9325679034989844,-0.06179119789520168,0.534889992596089,-0.4021288947161191,-0.712715516080215,-0.18871498645286258,0.561400399499721,0.8215470507392282,4,left
6.4110000000000005,0.21267572626756479,0.9360641329027307,-0.06192525006156425,0.5197198891956138,-0.41847475331552136,-0.6928016263390422,-0.18926847702408886,0.5580808482325004,0.8190568851491373,4,left
6.416,0.21042192142004865,0.9397031280144982,-0.06210114291684141,0.5047772779499707,-0.43420568712026847,-0.6728991060772959,-0.18984023812737114,0.5548650972082529,0.8169039978437199,4,left
6.417000000000001,0.20805995516111403,0.943486222276423,-0.062317902099987665,0.4900521611013929,-0.44931996530425183,-0.6530372286919549,-0.19043323852810812,0.551760368574582,0.8150898662219038,4,left
6.419,0.20558848113542447,0.9474146251924284,-0.0625745307636123,0.475533492285696,-0.4638153135429688,-0.6332448331741644,-0.19105053178337605,0.5487734740020002,0.8136160139812966,4,left
6.42,0.20300635435248718,0.9514894156781869,-0.06287001105796643,0.46120919346201944,-0.47768890012590687,-0.6135503091497545,-0.19169525289791103,0.5459108086539376,0.8124840154235089,4,left
6.426,0.20031264017123407,0.9557115354452094,-0.06320330556461042,0.4470661723964495,-0.49093732290218056,-0.5939815823546611,-0.1923706148535516,0.5431783457417781,0.8116954991672494,4,left
6.4270000000000005,0.19750662278834488,0.9600817824249487,-0.06357335867933878,0.43309034065779173,-0.503556597101056,-0.5745661004884491,-0.1930799050139221,0.5405816316563573,0.8112521512649609,4,left
6.428999999999999,0.19458781319081261,0.9646008042400122,-0.06397909794674415,0.4192666320843125,-0.5155421440672117,-0.5553308193894234,-0.19382648140621483,0.5381257816677106,0.81115571771975,4,left
6.43,0.19155595654336652,0.9692690917298982,-0.06441943535313455,0.40557902168079185,-0.5268887809487841,-0.5363021894751704,-0.1946137688820192,0.5358154761852356,0.8114080064003478,4,left
6.434,0.18841103899273556,0.9740869725388145,-0.0648932685858534,0.392010544905706,-0.5375907113744429,-0.5175061423928117,-0.19544525515924246,0.5336549575708176,0.8120108883528309,4,left
6.435,0.1851532938808962,0.9790546047746569,-0.06539948226579896,0.37854331730879215,-0.5476415171539138,-0.4989680778237704,-0.19632448674727376,0.5316480274978759,0.8129662985088323,4,left
6.439,0.18178320736598272,0.9841719707511658,-0.06593694915918151,0.3651585544796397,-0.5570341510345324,-0.48071285038844125,-0.19725506475766116,0.5297980448497005,0.8142762357909682,4,left
6.44,0.17830152345174194,0.9894388708277669,-0.0665045313729968,0.35183659226828984,-0.5657609305445609,-0.46276475659682226,-0.19824064060269733,0.528107924150884,0.8159427626172187,4,left
6.443,0.17470924842565924,0.9948549173623195,-0.0671010815327141,0.33855690723911563,-0.5738135329521239,-0.445147521791908,-0.19928491158444808,0.5265801345260865,0.8179680038070098,4,left
6.444,0.17100765470383242,1.000419528791565,-0.06772544393178477,0.32529813731948864,-0.5811829913667292,-0.4278842870334537,-0.20039161637690472,0.5252166991808296,0.8203541448927665,4,left
6.4479999999999995,0.16719828407864865,1.0061319238537643,-0.06837645563695492,0.3120381026049186,-0.5878596920084272,-0.4109975958706014,-0.20156453040409922,0.5240191953994657,0.8231034298417251,4,left
6.449,0.16328295036470666,1.0119911159679376,-0.06905294753466025,0.29875382628247027,-0.5938333726677206,-0.39450938095280835,-0.20280746111719045,0.5229887550559412,0.8262181581938342,4,left
6.452999999999999,0.15926374144013283,1.0179959077832348,-0.06975374530944055,0.285421555634321,-0.5990931223773752,-0.37844095042953285,-0.20412424317370875,0.5221260656334372,0.8297006816225941,4,left
6.454,0.15514302068433605,1.0241448859101576,-0.0704776703499398,0.2720167830833171,-0.6036273823152899,-0.36281297409021535,-0.2055187335218337,0.5214313717485016,0.833553399924544,4,left
6.454,0.1509234278173242,1.030436415844323,-0.07122354057878567,0.2585142672423161,-0.6074239479555633,-0.3476454691972329,-0.20699480639026796,0.5209044771710024,0.8377787564331186,4,left
6.459,0.14660787914783482,1.0368686370940148,-0.07199017120016295,0.24488805392896035,-0.6104699724828414,-0.3329577859657121,-0.20855634817995677,0.52054474732315,0.8423792328338289,4,left
6.46,0.1421995672397287,1.0434394585232338,-0.07277637535493543,0.2311114971073216,-0.6127519714829456,-0.3187685926453488,-0.21020725225161346,0.5203511122365628,0.8473573433477599,4,left
6.462999999999999,0.13770196001098273,1.0501465539210664,-0.07358096467039256,0.21715727977106083,-0.614255828933019,-0.30509586019460966,-0.21195141360575848,0.5203220699515843,0.8527156282624712,4,left
6.4639999999999995,0.13311879928335993,1.0569873578071967,-0.07440274969348462,0.20299743504984963,-0.6149668045740534,-0.29195684670860766,-0.21379272345674946,0.5204556903521091,0.8584566468102962,4,left
6.465,0.1284540987989133,1.063959061483819,-0.07524054020233811,0.1886033683017854,-0.6148695428576822,-0.2793680820685355,-0.21573506370505166,0.5207496194344065,0.8645829694061469,4,left
6.471,0.1237121417155204,1.0710586093455916,-0.07609314539642972,0.1739458812214777,-0.613948083718672,-0.2673453534515608,-0.21778230131276627,0.5212010840098504,0.8710971692602166,4,left
6.472,0.1188974775930415,1.0782826954604923,-0.07695937396871104,0.15899519872543438,-0.6121858753604809,-0.25590369217208325,-0.2199382825877159,0.5218068968419408,0.8780018133820822,4,left
6.473,0.11401491888343554,1.085627760435296,-0.0778380340647632,0.14372099889428147,-0.6095657891277136,-0.24505736202166534,-0.22220682738167447,0.5225634622184486,0.8852994529938107,4,left
6.473,0.1090695369393561,1.0930899885804284,-0.07872793313690887,0.12809244598313696,-0.6060701364751474,-0.23481984910703982,-0.2245917232086315,0.5234667819599782,0.8929926133707887,4,left
6.478,0.10406665755601266,1.1006653053898954,-0.07962787770596581,0.11207822645712373,-0.6016806880282294,-0.22520385315335487,-0.22709671928929187,0.5245124618666784,0.9010837831301132,4,left
6.479,0.09901185606080712,1.1083493753515845,-0.0805366730482811,0.09564658800807668,-0.5963786947274817,-0.21622128024152748,-0.22972552052833725,0.5256957186052682,0.9095754029875177,4,left
6.483,0.09391095196503539,1.1161376001014596,-0.081453122826903,0.07876538150747957,-0.5901449110467316,-0.207883236950323,-0.2324817814313075,0.5270113870389606,0.918469854004937,4,left
6.484,0.08877000319209295,1.1240251169333513,-0.08237602868138565,0.06140210584955903,-0.5829596202725166,-0.200200025875562,-0.23536909996830635,0.5284539280032805,0.9277694453519585,4,left
6.487,0.08359529989624188,1.132006797674161,-0.08330418978403302,0.04352395563726247,-0.5748026618293928,-0.19318114250067414,-0.23839101139209168,0.5300174365311631,0.9374764016055614,4,left
6.4879999999999995,0.07839335788459871,1.1400772479313377,-0.08423640236614999,0.025097871662554852,-0.5656534606331953,-0.1868352733946685,-0.2415509820184753,0.5316956505311011,0.9475928496136998,4,left
6.492000000000001,0.0731709116532585,1.1482308067162088,-0.08517145921761377,0.006090594131083535,-0.5554910584515664,-0.1811702957154678,-0.24485240297733488,0.5334819599224719,0.9581208049494483,4,left
6.492999999999999,0.06793490704651163,1.1564615464451067,-0.08610814916533809,-0.013531281420219178,-0.5442941472482732,-0.17619327799846357,-0.24829858394292664,0.5353694162325229,0.9690621579836014,4,left
6.497999999999999,0.06269249354512757,1.164763273320599,-0.08704525653965235,-0.03380124556560061,-0.532041104484988,-0.17191048221207775,-0.2518927468525836,0.5373507426598209,0.9804186596047936,4,left
6.497999999999999,0.05745101618543342,1.1731295280962106,-0.08798156064208368,-0.05475281384769421,-0.518710030351291,-0.16832736706407309,-0.25563801962329086,0.539418344609285,0.9921919066173864,4,left
6.504,0.052218007106419745,1.1815535872290834,-0.08891583523215905,-0.07641946310590852,-0.5042787868906825,-0.1654485925443274,-0.2595374298760446,0.5415643207042052,1.004383326848559,4,left
6.505,0.04700117671806598,1.190028464426286,-0.08984684805116519,-0.09883456533430106,-0.488725038987358,-0.16327802569178052,-0.26359389867832683,0.5437804742809258,1.0169941639972286,4,left
6.507000000000001,0.0418084044800592,1.1985469125919639,-0.09077336039569295,-0.12203131912919729,-0.47202629717540256,-0.1618187475752704,-0.2678102343154613,0.5460583253721141,1.0300254622586293,4,left
6.507999999999999,0.03664772927635647,1.2071014261836197,-0.09169412674671339,-0.14604267878886928,-0.4541599622288983,-0.16107306147999714,-0.27218912610205903,0.5483891231847634,1.0434780507595673,4,left
6.511,0.031527339369117675,1.215684243985769,-0.09260789445648468,-0.17090128112973813,-0.43510337148821515,-0.1610425022933858,-0.27673313824521295,0.550763859079277,1.05735252784059,4,left
6.5120000000000005,0.0264555619165116,1.2242873523077704,-0.09351340349838178,-0.19663937008580892,-0.414833846874465,-0.16172784708616092,-0.2814447037715591,0.5531732800561582,1.0716492452225013,4,left
6.517,0.021440852042653422,1.2329024886103432,-0.09440938629198217,-0.2232887191603873,-0.3933287445407462,-0.1631291268864939,-0.28632611853078976,0.5556079027569827,1.0863682920958717,4,left
6.518,0.016491781453075043,1.2415211455628834,-0.09529456762366144,-0.2508805518015585,-0.3705655061053832,-0.16524563964713707,-0.29137953528867766,0.5580580279864565,1.1015094791734013,4,left
6.522,0.011617026593942356,1.2501345755318862,-0.09616766468835082,-0.2794454597754364,-0.34652171140888605,-0.1680759644075136,-0.29660695792315095,0.5605137557624591,1.1170723227462076,4,left
6.523,0.006825356357037951,1.258733795500811,-0.09702738727937002,-0.30901331961380657,-0.32117513273280013,-0.17161797665478695,-0.30201023573423286,0.5629650008908021,1.1330560287822675,4,left
6.524,0.0021256193348801146,1.267309592424845,-0.0978724381504028,-0.3396132072154923,-0.29450379041500707,-0.1758688648899871,-0.30759105786308405,0.5654015090102639,1.1494594770861886,4,left
6.527,-0.002473269369019856,1.2758525290295686,-0.0987015135685761,-0.37127331068356834,-0.26648600979235676,-0.18082514840731967,-0.31335094778696104,0.5678128729612835,1.166281205504219,4,left
6.529,-0.006962341768547183,1.2843529500672946,-0.09951330407343112,-0.4040208414834245,-0.23710047939776935,-0.1864826962968275,-0.3192912578413385,0.5701885492804752,1.1835193941393454,4,left
6.531000000000001,-0.011332591052026235,1.2928009890467305,-0.10030649545477287,-0.4378819440669706,-0.20632631033540114,-0.1928367476462593,-0.32541316373702334,0.5725178746742922,1.2011718495627959,4,left
6.532,-0.01557498605493054,1.3011865754523861,-0.10107976996092943,-0.47288160439793864,-0.174143096754903,-0.19988193273828042,-0.33171765906952694,0.574790082417285,1.2192359890459563,4,left
6.5329999999999995,-0.01968048613560976,1.3094994424714124,-0.10183180774566167,-0.5090435583322809,-0.14053097734421496,-0.20761229471403256,-0.3382055498345485,0.5769943186715162,1.2377088248581551,4,left
6.537000000000001,-0.023640056439686263,1.3177291352455949,-0.10256128855736382,-0.5463902010974826,-0.105470697757653,-0.21602131099430275,-0.3448774489671587,0.579119658733796,1.2565869486810275,4,left
6.537999999999999,-0.027444683529734483,1.3258650196640986,-0.10326689367039898,-0.5849424988312519,-0.06894367389069761,-0.225101913933292,-0.3517337709227967,0.5811551232172455,1.2758665161913418,4,left
6.541,-0.03108539134276821,1.3338962917098933,-0.1039473080567186,-0.6247199026274656,-0.030932055906445374,-0.2348465105090829,-0.35877472631871926,0.5830896941734947,1.2955432318653508,4,left
6.542000000000001,-0.03455325742277987,1.3418119873700907,-0.10460122279551848,-0.6657402652540272,0.008581207086774612,-0.24524700103859795,-0.3660003166550703,0.5849123311615979,1.315612334058891,4,left
6.547000000000001,-0.037839429360286836,1.349600993116738,-0.10522733771736226,-0.7080197606534314,0.0496123018115904,-0.25629479694311946,-0.3734103291352665,0.5866119872694905,1.336068580418607,4,left
6.547000000000001,-0.04093514135693902,1.357252056959944,-0.10582436427578763,-0.7515728063403408,0.09217648516081683,-0.2679808375923462,-0.3810043316059267,0.5881776250935195,1.356906233680812,4,left
6.551,-0.04383173082204023,1.3647538000702588,-0.10639102863519104,-0.7964119888140517,0.13628801821327124,-0.2802956062568469,-0.3887816676371018,0.5895982326812612,1.378119047915632,4,left
6.5520000000000005,-0.04652065489938252,1.3720947289629106,-0.10692607496024581,-0.8425479921073378,0.18196010004407923,-0.2932291452006279,-0.3967414517640907,0.5908628394424846,1.3997002552751834,4,left
6.556,-0.0489935068179547,1.3792632482338278,-0.10742826888871765,-0.8899895295968134,0.2292048014517769,-0.30677106994736575,-0.40488256491265723,0.5919605320327342,1.4216425533056314,4,left
6.556,-0.05124203196140864,1.3862476738364644,-0.10789640116470472,-0.9387432792036534,0.27803299872895865,-0.3209105827556602,-0.4132036500299873,0.5928804702135902,1.4439380928840566,4,left
6.561,-0.053258143560629724,1.3930362468888666,-0.10832929140206153,-0.9888138221172224,0.3284543076077001,-0.3356364853404399,-0.42170310794425053,0.5936119026932145,1.4665784668421062,4,left
6.562,-0.055033937929929576,1.3996171480023771,-0.1087257919393587,-1.0402035851779143,0.3804770175155015,-0.35093719087939945,-0.43037909347615105,0.5941441829503133,1.489554699339451,4,left
6.567,-0.056561709185798205,1.4059785121270416,-0.10908479174108814,-1.0929127870592725,0.4341080262820417,-0.36680073534506374,-0.4392295118263689,0.5944667850441356,1.5128572360510788,4,left
6.567,-0.05783396340424722,1.4121084439129288,-0.10940522029519342,-1.1469393883932286,0.4893527754416081,-0.3832147882047571,-0.44825201526330277,0.5945693194125861,1.536475935233443,4,left
6.572,-0.058843432187993476,1.417995033589265,-0.10968605145146013,-1.2022790459860955,0.5462151862806651,-0.40016666253240657,-0.45744400013603537,0.5944415486599582,1.5604000597354506,4,left
6.5729999999999995,-0.05958308562858598,1.4236263733643997,-0.10992630713784522,-1.258925071276726,0.6046975967846399,-0.41764332457772585,-0.4668026042379399,0.5940734033351932,1.584618270021212,4,left
6.5760000000000005,-0.060046144660858364,1.428990574350388,-0.11012506088607184,-1.3168683931920333,0.6648006996426378,-0.43563140283990304,-0.4763247045468423,0.5934549977009358,1.6091186182723773,4,left
6.5760000000000005,-0.06022609281774887,1.4340757840170557,-0.11028144109933623,-1.3760975255588352,0.7265234814734419,-0.4541171966944656,-0.48600691536813817,0.5925766454929994,1.633888543638764,4,left
6.584,-0.060116687403631755,1.4388702041820303,-0.110394634006653,-1.4365985392347307,0.7898631634408038,-0.47308668462349657,-0.4958455869077439,0.5914288756691604,1.65891486870682,4,left
6.585,-0.05971197011499605,1.4433621095455702,-0.110463886267107,-1.4983550391244391,0.8548151434306831,-0.4925255321008495,-0.5058368043022269,0.5900024481454859,1.684183797256283,4,left
6.585,-0.0590062771481208,1.4475398667817712,-0.11048850720538266,-1.561348146251724,0.9213729399677425,-0.5124190991854356,-0.5159763871339238,0.58828836951765,1.7096809133761586,4,left
6.586,-0.057994248842597115,1.451391954199173,-0.11046787067125473,-1.6255564850606659,0.9895281380530471,-0.5327524478770472,-0.5262598894593006,0.5862779087639215,1.7353911820118866,4,left
6.59,-0.0566708389162992,1.454906981981729,-0.11040141652006882,-1.6909561761236562,1.059270337109543,-0.5535103492905282,-0.5366826003792485,0.5839626129257066,1.761298951016254,4,left
6.59,-0.055031323350734844,1.458073713015713,-0.11028865171205916,-1.7575208344370292,1.130587101226501,-0.5746772907054076,-0.5472395451660576,0.5813343227653406,1.7873879547491232,4,left
6.591,-0.05307130898232171,1.4608810843028908,-0.1101291510284323,-1.8252215734887312,1.2034639118986918,-0.5962374825493773,-0.5579254868903348,0.5783851884231537,1.8136413191309393,4,left
6.595,-0.05078674184565086,1.46331822895639,-0.1099225574028982,-1.8940270152858463,1.2778841234606217,-0.6181748653752106,-0.5687349283621435,0.5751076851366964,1.84004156780225,4,left
6.596,-0.0481739153091785,1.465374498768859,-0.10966858186924831,-1.9639033065331415,1.3538289214206654,-0.6404731168918967,-0.5796621141291349,0.5714946291072901,1.8665706289012722,4,left
6.6,-0.04522947804813193,1.4670394873297574,-0.10936700312782095,-2.0348141410608496,1.4312772838500767,-0.6631156591028644,-0.590701032346703,0.5675391935749686,1.8932098421127301,4,left
6.601,-0.04195044190392907,1.4683030536565185,-0.109017666734937,-2.106720788122067,1.5102059457145616,-0.6860856655601212,-0.6018454164649379,0.5632349251201975,1.919939965894902,4,left
6.601,-0.03833418967472497,1.4691553462995584,-0.10862048392034823,-2.1795821253174195,1.590589365551371,-0.7093660686629294,-0.6130887467493809,0.5585757601866163,1.9467411849329028,4,left
6.605,-0.034378482875486296,1.4695868278764794,-0.10817543004163044,-2.2533546744266073,1.6723996936274774,-0.7329395668854946,-0.6244242516672772,0.5535560418134271,1.9735931178946928,4,left
6.605,-0.030081469507736398,1.4695882999762397,-0.10768254269318117,-2.327992638910294,1.7556067409903586,-0.7567886318642166,-0.6358449091713296,0.5481705365650493,2.0004748255665517,4,left
6.611000000000001,-0.02544169188341993,1.469150928353744,-0.1071419194986607,-2.40344794271436,1.8401779493161847,-0.7808955153571858,-0.6473434479132347,0.5424144516446443,2.027364819444971,4,left
6.612,-0.020458094545212593,1.4682662683192607,-0.10655371562517901,-2.479670270492145,1.9260783617360167,-0.8052422561345768,-0.6589123484195536,0.5362834521770803,2.0542410708620595,4,left
6.614,-0.015130032317139223,1.4669262902173803,-0.10591814106333654,-2.556607109458996,2.013270594878979,-0.8298106868684175,-0.6705438442627073,0.5297736786458543,2.081081020721633,4,left
6.6160000000000005,-0.00945727850865284,1.4651234048848083,-0.10523545772024098,-2.634203793095767,2.101714812375283,-0.8545824410909462,-0.6822299232601148,0.5228817644674263,2.107861589923194,4,left
6.621,-0.0034400332847437562,1.4628504889729492,-0.10450597637397155,-2.7124035469201337,2.1913687000657895,-0.8795389602914566,-0.6939623287346897,0.5156048536853446,2.134559190550963,4,left
6.622000000000001,0.0029210677942229763,1.4601009100176412,-0.10373005353758337,-2.791147536546616,2.2821874431685014,-0.9046615012221746,-0.7057325608700941,0.5079406187654558,2.1611497379050078,4,left
6.626,0.009624945065031035,1.4568685511347066,-0.10290808827955539,-2.8703749182581055,2.3741237056559736,-0.9299311434842849,-0.7175318781943012,0.4998872784723925,2.1876086634513636,4,left
6.626,0.016670065889947804,1.4531478352190126,-0.10204051904719845,-2.950022892313418,2.4671276121010988,-0.9553287974657638,-0.7293512992251534,0.49144361580642953,2.2139109287677754,4,left
6.629,0.024054435619302435,1.4489337485271312,-0.10112782053749562,-3.0300267592169483,2.5611467322520616,-0.9808352127031458,-0.7411816043117099,0.48260899597868917,2.2400310405614086,4,left
6.63,0.03177558837514966,1.4442218635259967,-0.10017050064972702,-3.110319979177893,2.6561260686004595,-1.0064309867397758,-0.7530133377052602,0.47338338440155525,2.265943066834475,4,left
6.6339999999999995,0.03983057763057732,1.4390083608881161,-0.09916909753241122,-3.190834234987709,2.7520080472096615,-1.032096574553468,-0.7648368098939392,0.4637673646700403,2.291620654273285,4,left
6.6339999999999995,0.048215966557271506,1.43329005050615,-0.09812417670714801,-3.271499498545495,2.8487325120733673,-1.057812298626801,-0.7766421002349051,0.4537621565087254,2.3170370469357007,4,left
6.638999999999999,0.05692781813111032,1.4270643913872239,-0.09703632822283108,-3.352244101261805,2.946236723277103,-1.0835583597335379,-0.7884190599180533,0.44336963365777127,2.3421651063113766,4,left
6.64,0.06596168502285964,1.420329510274639,-0.09590616377468014,-3.432994808572044,3.044455359237958,-1.1093148485148583,-0.8001573152952074,0.4325923416703788,2.3669773328284913,4,left
6.644,0.07531259935439287,1.4130842188378059,-0.09473431371888462,-3.513676898791024,3.143320523300303,-1.1350617579192355,-0.8118462716086804,0.4214335155929619,2.391445888879925,4,left
6.645,0.08497506246678913,1.4053280292738621,-0.093521423924408,-3.5942142465404703,3.2427617549674355,-1.1607789965798765,-0.8234751171530156,0.4098970974981812,2.4155426234410164,4,left
6.65,0.09494303492280866,1.397061168175812,-0.09226815242208453,-3.674529410981302,3.3427060460511817,-1.1864464032036721,-0.8350328279036044,0.3979877538398876,2.4392390983501144,4,left
6.651,0.10520992704604677,1.388284588539133,-0.09097516583092312,-3.754543729082301,3.443077862023302,-1.2120437620455815,-0.8465081726457386,0.3857108925979253,2.4625066163221496,4,left
6.653,0.1157685903686823,1.378999979799542,-0.08964313556211717,-3.8341774141563545,3.5437991688542168,-1.2375508195422824,-0.8578897186374775,0.3730726801796657,2.485316250764398,4,left
6.654,0.12661131040155407,1.369209775819418,-0.08827273382672346,-3.913349659894837,3.6447894656260034,-1.2629473021787825,-0.8691658378395106,0.36008005804407056,2.5076388774624427,4,left
6.6610000000000005,0.137729801141179,1.3589171607705148,-0.08686462950420341,-3.991978750129814,3.7459658232078303,-1.2882129356614793,-0.8803247137449552,0.34674075901302903,2.529445208203113,4,left
6.662000000000001,0.1491152016859992,1.3481260728932363,-0.08541948395846624,-4.069982174552657,3.8472429292830146,-1.3133274654709042,-0.8913543488333797,0.3330633231981901,2.550705826348725,4,left
6.662000000000001,0.16075807525724886,1.3368412061379706,-0.08393794690226118,-4.147276750616347,3.948533140017629,-1.3382706788670595,-0.9022425726311397,0.3190571132930604,2.5713912241198185,4,left
6.662999999999999,0.1726484108298883,1.3250680097053302,-0.08242065240678466,-4.223778751847154,4.049746538661136,-1.3630224284198904,-0.912977050284352,0.3047323286597564,2.591471840881821,4,left
6.664,0.18477562750603507,1.3128126855080828,-0.08086821515008785,-4.299404042789609,4.150791001369796,-1.387562657136993,-0.92354529150856,0.290100017461394,2.6109181014737786,4,left
6.667999999999999,0.1971285817184003,1.3000821835881238,-0.07928122701036541,-4.374068220806622,4.251572270543641,-1.4118714252601707,-0.9339346598206376,0.27517208626759415,2.6297004538713584,4,left
6.669,0.20969557731844643,1.2868841955303827,-0.0776602541234975,-4.4476867647540175,4.351994035863518,-1.4359289387452243,-0.9441323820334621,0.25996130687905283,2.6477894059348808,4,left
6.67,0.22246437857401216,1.2732271459098499,-0.07600583451537218,-4.520175189544586,4.451958022693931,-1.4597155791553607,-0.9541255580353045,0.2444813202936794,2.665155561247042,4,left
6.672999999999999,0.2354222260816351,1.2591201817901363,-0.07431847638830542,-4.591449203811031,4.551364086580163,-1.4832119341878363,-0.9639011708837603,0.22874663777144613,2.68176965409422,4,left
6.6739999999999995,0.2485558555875887,1.244573160276748,-0.0725986571041057,-4.661424866872546,4.650110312046839,-1.506398827769345,-0.9734460972434852,0.2127726389542831,2.69760258364326,4,left
6.678999999999999,0.26185151969642034,1.2295966341252702,-0.07084682287369602,-4.7300187422081725,4.7480931144240275,-1.529257348938264,-0.9827471181964155,0.1965755669965787,2.7126254473635716,4,left
6.678999999999999,0.27529501242400495,1.2142018354110282,-0.0690633891297206,-4.797148046439523,4.845207344361921,-1.5517688792411521,-0.9917909304525292,0.1801725206611177,2.7268095737421976,4,left
6.683,0.2888716965279015,1.198400657276317,-0.06724874152067065,-4.862730793823391,4.941346395213462,-1.573915118653388,-1.0005641579885391,0.16358144333460323,2.74012655433728,4,left
6.684,0.30256653352177093,1.1822056337820372,-0.06540323743007784,-4.926685936451115,5.036402313566193,-1.5956781100895727,-1.0090533641412065,0.146821108916269,2.7525482752130173,4,left
6.689,0.316364116252958,1.1656299179024978,-0.06352720790043803,-4.988933500347376,5.130265913202052,-1.6170402625683349,-1.01724506418123,0.12991110453249902,2.764046947796793,4,left
6.69,0.33024870389450073,1.1486872577146618,-0.061620959831536704,-5.049394717656651,5.222826892761095,-1.6379843730951094,-1.025125738392882,0.11287181002983378,2.774595139196683,4,left
6.692,0.34420425917566255,1.1313919708460032,-0.0596847783291728,-5.107992155100855,5.313973957381959,-1.6584936473253789,-1.0326818456837505,0.0957243741982569,2.7841658020149533,4,left
6.693,0.35821448764955505,1.1137589172588997,-0.05771892910803316,-5.164649838886865,5.403594944588481,-1.6785517190697057,-1.039899837748092,0.07849068767622824,2.7927323036905274,4,left
6.6979999999999995,0.3722628787724239,1.0958034704652106,-0.05572366090229211,-5.21929337623741,5.491576954688138,-1.6981426687006842,-1.0467661738064025,0.061193352488559685,2.8002684554006736,4,left
6.699,0.38633274854383,1.0775414872842355,-0.05369920789673775,-5.2718500737135185,5.577806485943904,-1.7172510405206989,-1.0532673359428875,0.043855648167920556,2.806748540549337,4,left
6.702000000000001,0.4004072834284941,1.0589892762827693,-0.05164579223971722,-5.322249052491125,5.6621695747767395,-1.7358618591480737,-1.059389845061533,0.026501494410513887,2.812147342866676,4,left
6.704,0.4144695852529569,1.0401635650674674,-0.04956362672544813,-5.370421360748634,5.744551941251217,-1.753960644977855,-1.0651202774804776,0.009155410216282744,2.8164401741413956,4,left
6.707000000000001,0.42850271675135176,1.0210814666328474,-0.04745291773881979,-5.416300083316307,5.824839140091747,-1.7715334287720976,-1.0704452821833295,-0.008157530536108277,2.8196029016044433,4,left
6.707999999999999,0.44248974743088065,1.001760444994863,-0.04531386854533305,-5.4598204487320725,5.902916717471529,-1.7885667654330781,-1.07535159874499,-0.02541174712931759,2.821611974979514,4,left
6.712000000000001,0.4564137994402724,0.982218280353361,-0.043146682984852504,-5.50091993384202,5.978670373810619,-1.8050477470114057,-1.0798260759484173,-0.04258120371217378,2.82244445321265,4,left
6.712999999999999,0.47025809314896455,0.9624730340262767,-0.04095156959486479,-5.539538366077234,6.051986132813532,-1.8209640149994788,-1.0838556911075952,-0.059639464719005816,2.822078030889976,4,left
6.7170000000000005,0.48400599217269674,0.9425430133884038,-0.038728746152794195,-5.575618023531839,6.122750516970405,-1.8363037719591924,-1.0874275701107776,-0.076559754052967,2.8204910643492798,4,left
6.718,0.4976410476054643,0.922446737032427,-0.0364784445902451,-5.60910373296023,6.190850729739124,-1.851055792531216,-1.090529008196833,-0.09331501808261904,2.8176625974877894,4,left
6.721,0.5111470412352648,0.9022029003520159,-0.03420091619720962,-5.639942965804261,6.256174844618773,-1.865209433871541,-1.093147491476237,-0.10987799250072222,2.8135723872650487,4,left
6.725,0.524508027532055,0.8818303417267399,-0.03189643700845691,-5.66808593235396,6.3186120013174465,-1.878754645559337,-1.0952707192069469,-0.1262212730937813,2.8082009288962846,4,left
6.725,0.5377083742030904,0.8613480094661776,-0.02956531325436653,-5.693485674137816,6.378052609209817,-1.8916819790184747,-1.0968866268340403,-0.1423173904704215,2.801529480728096,4,left
6.73,0.5507328011196196,0.8407749296446783,-0.027207886764149265,-5.716098154631152,6.434388558271885,-1.9039825964933565,-1.0979834097768781,-0.1581388886799954,2.7935400887818536,4,left
6.731,0.563566417441277,0.8201301749247417,-0.02482454022640491,-5.735882348363314,6.487513437672038,-1.9156482796179402,-1.0985495478274512,-0.173658407071584,2.784215610932428,4,left
6.731,0.5761947567996546,0.79943283442782,-0.022415702233319235,-5.7528003284965665,6.537322762188944,-1.9266714376150764,-1.0985738298084833,-0.18884876369775322,2.7735397406607585,4,left
6.735,0.5886038104233303,0.7787019846824641,-0.019981852048775978,-5.766817352941536,6.583714206617881,-1.9370451151614803,-1.098045378019703,-0.20368303798603252,2.761497030300896,4,left
6.735,0.6007800580789179,0.7579566616700845,-0.017523524042210515,-5.777901948978977,6.626587847998237,-1.946762999928777,-1.0969536721178428,-0.21813465098082133,2.74807291371242,4,left
6.736000000000001,0.6127104966978497,0.7372158339826872,-0.015041311730012386,-5.786025995914357,6.6658464138870315,-1.9558194296939522,-1.0952885722879977,-0.2321774425025755,2.7332537283306038,4,left
6.739,0.6243826665804242,0.7164983770912197,-0.012535871375212029,-5.791164804500413,6.70139553201649,-1.9642093987031897,-1.0930403416810666,-0.24578574515071025,2.7170267365568908,4,left
6.74,0.6357846750909442,0.6958230487062393,-0.010007925109852068,-5.793297191419388,6.733143975065284,-1.9719285628559233,-1.0901996681141186,-0.25893445519167896,2.6993801464510896,4,left
6.744,0.6469052177563933,0.6752084652037093,-0.007458263554896365,-5.792405547543176,6.761003895860977,-1.9789732433893097,-1.0867576850288805,-0.27159910037251356,2.6803031316826815,4,left
6.745,0.6577335966750584,0.6546730790822969,-0.004887747918536678,-5.788475899464092,6.784891051197615,-1.9853404289488872,-1.0827059917018633,-0.2837559046988656,2.6597858506946035,4,left
6.747999999999999,0.6682597361547016,0.6342351574085481,-0.002297311555941022,-5.781497964215327,6.80472501403979,-1.9910277760445383,-1.0780366726979542,-0.29538185021526797,2.6378194650287905,4,left
6.75,0.6784741955294085,0.6139127611954363,0.00031203902718931787,-5.771465197178513,6.820429374193039,-1.996033607911986,-1.0727423165575625,-0.30645473582394883,2.6143961567586538,4,left
6.754,0.6883681791372974,0.593723725652475,0.0029392237435689325,-5.75837483316708,6.831931927509028,-2.0003569117981073,-1.0668160337056642,-0.3169532331770701,2.5895091449695253,4,left
6.755,0.6979335434708662,0.5736856412432293,0.005583089074430497,-5.74222792066535,6.839164853682321,-2.003997334686401,-1.0602514735693196,-0.32685693967574214,2.5631527012239643,4,left
6.757999999999999,0.707162801535327,0.5538158354888365,0.008242408797146335,-5.723029349194531,6.842064882683714,-2.0069551774769883,-1.0530428408884338,-0.3361464286075783,2.535322163944607,4,left
6.7589999999999995,0.7160491244704918,0.5341313554629701,0.010915885275385534,-5.70078786976802,6.840573449863021,-2.0092313876335646,-1.0451849112027258,-0.34480329645290353,2.506013951643065,4,left
6.763,0.7245863405170687,0.5146489509320255,0.013602151291618873,-5.675516108389631,6.834636839741944,-2.0108275503077597,-1.0366730454960351,-0.35281020738802693,2.4752255749191385,4,left
6.763999999999999,0.7327689314454515,0.49538505810311,0.016299772404925198,-5.647230572539621,6.824206318505252,-2.011745877949408,-1.0275032039772451,-0.3601509350122247,2.442955647150395,4,left
6.768,0.7405920266118489,0.47635578395306144,0.019007249825096696,-5.615951650584646,6.809238255185854,-2.011989198409269,-1.0176719589752394,-0.366810401323265,2.4092038937879057,4,left
6.768,0.748051394851751,0.457576891125101,0.021723023798449034,-5.581703604039077,6.789694231526616,-2.0115609415387867,-1.0071765069234302,-0.3727747129644409,2.373971160169693,4,left
6.773,0.755143434451124,0.4390637833944226,0.024445477492879262,-5.544514552596472,6.765541140488856,-2.01046512428954,-0.9960146794075101,-0.3780311947641687,2.3372594177591903,4,left
6.774,0.7618651614447725,0.4208314917169953,0.02717294134703907,-5.5044164518413945,6.736751273364433,-2.00870633431308,-0.9841849532481778,-0.38256842058724927,2.299071768711747,4,left
6.779,0.7682141964832351,0.40289466088385684,0.02990369781729154,-5.4614450635432465,6.703302395435236,-2.00628971205994,-0.971686459588681,-0.38637624151490263,2.2594124486679754,4,left
6.78,0.7741887504942727,0.38526753680429976,0.032635986427115175,-5.415639918425373,6.66517781011059,-2.0032209313746763,-0.9585189919551116,-0.38944581136864986,2.2182868276684835,4,left
6.784,0.779787609349421,0.3679639544362843,0.03536800900515341,-5.367044271294303,6.62236641145986,-1.9995061785819002,-0.9446830132554633,-0.39176960959105434,2.175701409080293,4,left
6.785,0.7850101177306815,0.3509973263747758,0.038097934994445526,-5.315705048405779,6.574862725044116,-1.9951521300563695,-0.9301796616815512,-0.39334146149424354,2.1316638264210317,4,left
6.787999999999999,0.7898561623742894,0.33438063210331714,0.040823906726264125,-5.261672786936072,6.522666936937296,-1.99016592826834,-0.9150107554759627,-0.3941565558850113,2.0861828379627676,4,left
6.789,0.7943261548456088,0.3181264079132317,0.043544044570602444,-5.205001566419085,6.465784910813903,-1.9845551562935153,-0.8991787965243009,-0.3942114600731651,2.0392683189931615,4,left
6.794,0.798421013973011,0.3022467374970805,0.04625645189341097,-5.145748932001882,6.404228192966749,-1.9783278107751072,-0.882686972731054,-0.39350413226762165,1.990931251607455,4,left
6.795,0.8021421480440997,0.28675324322634843,0.04895921976731084,-5.083975809363508,6.338014005104815,-1.971492273323695,-0.8655391591355244,-0.3920339313625864,1.9411837119006563,4,left
6.797000000000001,0.805491436848782,0.27165707812572676,0.05165043140119901,-5.019746411134459,6.267165224767839,-1.9640572803387848,-0.8477399177432448,-0.3898016241159483,1.8900388545010054,4,left
6.797999999999999,0.8084712136392189,0.2569689185541738,0.05432816627368573,-4.953128134646693,6.191710353180863,-1.9560318912341956,-0.8292944961509361,-0.38680938972973483,1.8375108947608758,4,left
6.7989999999999995,0.8110842470661327,0.24269895759601565,0.05699050397187649,-4.884191450836869,6.111683470358532,-1.947425455047658,-0.8102088252293083,-0.3830608218580971,1.783615089599694,4,left
6.803999999999999,0.8133337231506286,0.22885689916190963,0.0596355277506406,-4.813009784118442,6.027124177255709,-1.9382475754132824,-0.7904895162306581,-0.3785609280760071,1.728367718368608,4,left
6.803999999999999,0.8152232273619704,0.2154519528043815,0.06226132783874089,-4.739659383201291,5.938077524963634,-1.9285080739400544,-0.7701438575818397,-0.3733161268297712,1.671786064723504,4,left
6.805,0.8167567268804552,0.20249282925676473,0.064866004523851,-4.664219183680285,5.84459393201743,-1.9182169523687875,-0.7491798114332173,-0.3673342418704786,1.6138883998065683,4,left
6.808,0.817938553120652,0.18998773670061186,0.06744767104755704,-4.5867706647368065,5.746729092811185,-1.9073843544740359,-0.7276060099278715,-0.36062449415945164,1.5546939666535493,4,left
6.809,0.8187733845844483,0.1779443777632704,0.0700044563394599,-4.507397703140363,5.644543881183592,-1.8960205290068,-0.7054317511326267,-0.35319749123064814,1.4942229656642174,4,left
6.812,0.8192662301143512,0.16636994725158447,0.07253450761984168,-4.426186426882079,5.538104252144756,-1.8841357946413304,-0.6826669945706965,-0.3450652139928499,1.432496540969737,4,left
6.813,0.819422412615023,0.1552711306333318,0.07503599289820277,-4.3432250692370475,5.427481142758764,-1.871740507292063,-0.6593223562939892,-0.33624100095238635,1.3695367675269459,4,left
6.817,0.8192475532954308,0.14465410327816877,0.07750710338579198,-4.258603823197611,5.312750372104567,-1.8588450298342587,-0.6354091034313962,-0.32673952983508303,1.3053666387658711,4,left
6.818,0.818747556459746,0.13452453046628612,0.0799460558261667,-4.172414696044464,5.193992540009522,-1.845459704194225,-0.6109391481476865,-0.31657679658410126,1.240010054613203,4,left
6.8229999999999995,0.8179285948499463,0.12488756816902123,0.08235109473323972,-4.0847513638174275,5.071292924237982,-1.831594825773532,-0.5859250409459711,-0.30577009170835134,1.1734918097109117,4,left
6.8229999999999995,0.8167970955195742,0.1157478646018519,0.08472049451456072,-3.995709025443031,4.944741375805523,-1.817260620170205,-0.5603799632450661,-0.2943379739542185,1.1058375816457149,4,left
6.827000000000001,0.8153597261960228,0.10710956254695993,0.08705256145119557,-3.9053842562714713,4.814432212077826,-1.8024672221584597,-0.5343177191614844,-0.28230024127144393,1.0370739190016962,4,left
6.829,0.8136233820684277,0.09897630244089661,0.08934563550510044,-3.813874860771347,4.680464107301914,-1.7872246568871706,-0.5077527264242268,-0.2696778990421564,0.9672282290450427,4,left
6.832999999999999,0.811595172921182,0.09135122622212764,0.09159809192919859,-3.721279724126564,4.542939980206416,-1.7715428232559203,-0.4807000063490177,-0.25649312554025505,0.8963287648466028,4,left
6.834,0.809282410520152,0.08423698193104788,0.0938083426640708,-3.627698662476155,4.401966878296719,-1.7554314794261516,-0.4531751727971471,-0.24276923458660832,0.8244046116447872,4,left
6.837000000000001,0.8066925961504376,0.07763572905024432,0.09597483751875889,-3.5332322715343327,4.257655858460365,-1.7389002304236536,-0.4251944200426352,-0.22853063536385482,0.7514856722482235,4,left
6.837999999999999,0.8038334082031512,0.07154914456615614,0.09809606514953738,-3.437981773325003,4.110121863487877,-1.7219585177873569,-0.3967745094700408,-0.21380278935298155,0.6776026512745538,4,left
6.841,0.8007126897171242,0.06597842972604315,0.10017055386491353,-3.3420488607621115,3.959483594104255,-1.7046156112181723,-0.367932755023875,-0.1986121643523057,0.6027870380188177,4,left
6.8420000000000005,0.79733843579916,0.06092431745728029,0.10219687229460384,-3.2455355398046697,3.805863376096825,-1.6868806021804066,-0.3386870073292758,-0.18298618553801202,0.5270710877420144,4,left
6.847,0.7937187808675951,0.05638708041036315,0.10417362996483304,-3.1485439689130477,3.649387022115879,-1.6687623994071024,-0.3090556364023372,-0.16695318352399294,0.4504878011676613,4,left
6.847,0.7898619856822024,0.052366539583718695,0.1060994778223638,-3.051176295531166,3.490183687715624,-1.650269726259502,-0.2790575128672774,-0.15054233937741232,0.37307090197149634,4,left
6.852,0.7857764241368479,0.048862073488116935,0.10797310874446447,-2.9535344893175504,3.328385721194391,-1.631411119889708,-0.24871198759647045,-0.13378362654516426,0.29485481204688174,4,left
6.853,0.7814705698006515,0.04587262781028152,0.10979325806140784,-2.855720171846833,3.1641285067848823,-1.6121949321545077,-0.2180388696882582,-0.11670774964523167,0.2158746243259792,4,left
6.857,0.7769529821997955,0.04339672553758413,0.11155870410497967,-2.7578344425022125,2.9975503007373807,-1.592629332227258,-0.18705840269640847,-0.09934608007586458,0.13616607293437238,4,left
6.857,0.7722322928366793,0.04143247750749447,0.11326826878575559,-2.6599777002785925,2.828792059831416,-1.57272231085367,-0.1557912390240871,-0.08173058839450165,0.05576550045451776,4,left
6.861000000000001,0.7673171909467513,0.039977593345917356,0.11492081819623913,-2.562249461215622,2.657997261844318,-1.5524816861963118,-0.12425841239427148,-0.06389377341744747,-0.02529017792878769,4,left
6.862,0.7622164089967259,0.039029392757113895,0.1165152632351759,-2.464748171179656,2.4853117174984294,-1.531915111211636,-0.09248130830765228,-0.04586858799049927,-0.10696351362982495,4,left
6.8660000000000005,0.7569387079318719,0.038584817126091936,0.11805056024817664,-2.3675710137137256,2.310883373402478,-1.5110300825023626,-0.0604816324612123,-0.027688361478110227,-0.18921656730651104,4,left
6.867000000000001,0.7514928621835398,0.03864044139566497,0.11952571168066797,-2.270813712674995,2.134862105496791,-1.4898339505870903,-0.028281377414743906,-0.009386719508650616,-0.27201095437304545,4,left
6.867000000000001,0.7458876444501057,0.03919248618517747,0.12093976674170741,-2.1745703293798093,1.9573995025065751,-1.468333931528067,0.004097211641434556,0.009002497604115723,-0.3553078915956348,4,left
6.871,0.7401318102704405,0.040236830120117355,0.12229182207996935,-2.0789330539773845,1.778648638902508,-1.4465371198571375,0.03663167085010781,0.027445315853058126,-0.43906824231476527,4,left
6.872000000000001,0.7342340824247677,0.041769022337122874,0.12358102247287,-1.9839919907743717,1.5987638368633017,-1.424450502738998,0.06929935053009222,0.04590770652388477,-0.523252558512232,4,left
6.872999999999999,0.7282031352175455,0.04378429512272174,0.12480656152544016,-1.8898349376078936,1.4179004171448317,-1.4020809752898011,0.10207744661363011,0.06435566263955066,-0.6078211191543079,4,left
6.876,0.7220475787073394,0.04627757664489866,0.12596768237092434,-1.7965471612357085,1.236214440827045,-1.379435356867289,0.13494303070869718,0.082755272817654,-0.6927339649169528,4,left
6.877000000000001,0.7157759429470931,0.04924350374374693,0.12706367836358454,-1.7042111740789792,1.0538624476331786,-1.356520407965973,0.16787307888001943,0.10107279259378549,-0.777950929534815,4,left
6.882000000000001,0.7093966623003054,0.05267643475189034,0.12809389375422842,-1.612906519524707,0.8710011985833409,-1.3333428472490436,0.200844499242913,0.1192747132637533,-0.8634316680168836,4,left
6.882999999999999,0.7029180599155048,0.056570462311608165,0.129057724338034,-1.5227095711280414,0.6877874286718164,-1.3099093683489191,0.23383415846431116,0.1373278282974685,-0.9491356819726355,4,left
6.885,0.6963483324613805,0.060919426148092405,0.12995461806353922,-1.4336933476925937,0.5043776115289678,-1.2862266562493967,0.26681890726552837,0.15519929737704002,-1.0350223422933973,4,left
6.8870000000000005,0.6896955352325863,0.06571692575278057,0.13078407559329444,-1.3459273443404913,0.32092773595682683,-1.2623014031626392,0.29977560502142947,0.17285670811129666,-1.1210509094343966,4,left
6.891,0.682967567731816,0.07095633292814375,0.13154565081068617,-1.259477379313216,0.13759309381238605,-1.2381403238336866,0.3326811435507243,0.1902681354785279,-1.207180551543622,4,left
6.892,0.6761721598233112,0.0766308041450455,0.13223895127300314,-1.1744054562476594,-0.045471921287961035,-1.2137501702044802,0.3655124701920952,0.20740219904871282,-1.2933703606841322,4,left
6.895,0.6693168585389188,0.08273329266527679,0.13286363861688774,-1.090769641675407,-0.2281140049694981,-1.189137745368677,0.3982466102607824,0.2242281180358941,-1.3795793673968626,4,left
6.896,0.662409015602084,0.08925656038420093,0.13341942892830658,-1.0086239574970375,-0.41018112333212237,-1.164309916747863,0.43086068898010715,0.24071576423064758,-1.4657665538512705,4,left
6.9,0.6554557757207653,0.09619318935156745,0.13390609309519066,-0.9280182881871722,-0.591522684940706,-1.1392736284191156,0.4633319529821986,0.25683571286180257,-1.5518908658313313,4,left
6.901,0.6484640656892896,0.10353559293253992,0.13432345716612457,-0.848998302490129,-0.7719897040972367,-1.1140359125232209,0.4956377914719116,0.27255929143568475,-1.63791122380445,4,left
6.905,0.6414405843318516,0.11127602657442123,0.13467140274145395,-0.7716053893703049,-0.9514349559174431,-1.0886038996822396,0.527755757147578,0.287858626600183,-1.7237865333207947,4,left
6.906000000000001,0.6343917933153885,0.11940659814622749,0.13494986742360093,-0.6958766079858272,-1.1297131237325324,-1.0629848283545131,0.5596635869718237,0.30270668907988596,-1.8094756949903767,4,left
6.91,0.6273239088549627,0.1279192778183501,0.13515884535059344,-0.621844651458558,-1.3066809393341525,-1.0371860530546262,0.5913392228852099,0.3170773367273987,-1.8949376142848984,4,left
6.9110000000000005,0.6202428943292466,0.13680590744831808,0.13529838782847184,-0.5495378242182047,-1.482197316577768,-1.011215051365279,0.6227608325549159,0.3309453557347318,-1.9801312114109821,4,left
6.916,0.6131544538178141,0.1460582094368626,0.1353686040644189,-0.4789800327030562,-1.6561234788562862,-0.9850794296674893,0.6539068302500799,0.3442865000473616,-2.065015431500851,4,left
6.917000000000001,0.6060640265664166,0.15566779501906639,0.13536966198906727,-0.410190789204733,-1.8283230809520088,-0.95878692751503,0.6847558979347454,0.3570775290221895,-2.1495492553658795,4,left
6.92,0.5989767823796731,0.16562617196159515,0.13530178915008984,-0.3431852286492841,-1.998662325770824,-0.9323454205785051,0.7152870066686331,0.3692962433691878,-2.2336917110576713,4,left
6.921,0.5918976179306907,0.17592475164837182,0.13516527366079684,-0.2779741381119787,-2.167010076457989,-0.9057629220840059,0.7454794384051662,0.38092151941500835,-2.3174018864804182,4,left
