time,gFx,gFy,gFz,ax,ay,az,wx,wy,wz,subject_number,foot
3.2260000000000004,0.21876273490979092,0.9434993378168146,-0.13099773626869335,1.5365063799039107,2.09450692080388,0.177208719525376,-0.02121206369937054,0.16317072844763147,1.6642358575323106,2,left
3.2289999999999996,0.2196090016391505,0.9416933063549376,-0.13032908602255525,1.517171011734848,2.0523531685405385,0.14421030630447546,-0.021389498387705083,0.1767608158709362,1.6530490748563424,2,left
3.23,0.22044415131866857,0.9399560976133744,-0.12961808847156644,1.497871420317362,2.009999448694201,0.11129829435698896,-0.021590015082445013,0.19000200478227583,1.6414467615517765,2,left
3.234,0.22126765157452954,0.9382865586939456,-0.1288668073218526,1.478601679586086,1.967477081988522,0.07850716761933459,-0.021815635280078825,0.20289051684562684,1.62945284712711,2,left
3.235,0.22207889273690873,0.9366835376703985,-0.12807732262780616,1.459356402236582,1.924817323004541,0.045871781406667714,-0.02206819297169938,0.21542322563112273,1.6170909010282002,2,left
3.239,0.22287719348523777,0.9351458863688504,-0.12725173014729727,1.4401307577071853,1.882051326648148,0.013427268833733762,-0.022349338965204205,0.22759764727249338,1.6043841186299321,2,left
3.239,0.22366180686651033,0.9336724632032534,-0.1263921405022006,1.4209204871270156,1.8392101116002397,-0.018791057422060296,-0.02266054580167992,0.23941192934692537,1.5913553080120753,2,left
3.2439999999999998,0.2244319265364318,0.9322621360498615,-0.12550067812584245,1.4017219151748486,1.7963245206270901,-0.0507478081090328,-0.023003113256232423,0.2508648380343342,1.5780268774935722,2,left
3.245,0.22518669308841588,0.9309137851404147,-0.12457947998151664,1.3825319587936222,1.7534251776281389,-0.08240762523420107,-0.0233781743612685,0.26195574371697866,1.564420823947033,2,left
3.245,0.22592520036320607,0.929626305953483,-0.12363069404019687,1.3633481327053718,1.710542441298198,-0.11373529483332025,-0.023786701796112805,0.2726846053682552,1.5505587220016162,2,left
3.2489999999999997,0.22664650165339145,0.9283986120842881,-0.12265647750983893,1.3441685516714434,1.6677063552809437,-0.14469586476971447,-0.024229514434596366,0.28305195418343926,1.5364617142901518,2,left
3.2489999999999997,0.22734961571892653,0.9272296380735908,-0.12165899481225781,1.324991929442847,1.6249465946905164,-0.17525476765277495,-0.02470728389468325,0.29305887679913734,1.5221505028470272,2,left
3.253,0.22803353252523412,0.9261183421775299,-0.12064041530715237,1.3058175743858633,1.5822924090210848,-0.20537794874860205,-0.02522054102850564,0.3027069982582305,1.5076453416752889,2,left
3.2539999999999996,0.228697218623662,0.9250637090641929,-0.11960291076635918,1.2866453819691708,1.5397725621792386,-0.23503199766699753,-0.025769682343613345,0.3119984647710889,1.4929660304522105,2,left
3.2560000000000002,0.22933962211425557,0.924064752428695,-0.1185486526044609,1.2674758246608069,1.49741527166109,-0.264184280650869,-0.026354976356811385,0.32093592630180784,1.4781319093322602,2,left
3.258,0.22995967714851043,0.9231205175254503,-0.11747980887616821,1.2483099399844282,1.455248149611149,-0.2928030692056406,-0.026976569882060947,0.3295225190071863,1.4631618548058394,2,left
3.259,0.23055630793697798,0.9222300836227524,-0.11639854105735711,1.2291493172831998,1.413298147785536,-0.3208576618921359,-0.02763449425402186,0.3377618475551455,1.4480742765716652,2,left
3.263,0.23112843222965979,0.9213925663889051,-0.11530700063317595,1.2099960833776124,1.3715915071557734,-0.3483184980619498,-0.028328671488918253,0.34565796734826937,1.4328871153802212,2,left
3.264,0.23167496424450923,0.9206071202203879,-0.11420732552169781,1.1908528871023996,1.3301537121750548,-0.37515726340001504,-0.02905892038451318,0.35321536667714204,1.4176178418053154,2,left
3.2680000000000002,0.23219481703121775,0.9198729405220755,-0.11310163636521679,1.171722882667514,1.289009449586537,-0.40134698735489166,-0.029824962561082122,0.3604389488271591,1.4022834559004371,2,left
3.2689999999999997,0.23268690427104727,0.9191892659481653,-0.1119920327230436,1.1526097117881497,1.2481825716538968,-0.4268621325356077,-0.03062642844537906,0.36733401416150724,1.3869004876963233,2,left
3.273,0.23315014152779176,0.9185553806095895,-0.11088058919939432,1.1335174845288227,1.20769606369517,-0.4516786761520921,-0.03146286319969243,0.37390624220203306,1.3714849984959059,2,left
3.2739999999999996,0.23358344697878455,0.9179706162487165,-0.1097693515383558,1.11445075880656,1.1675720158017213,-0.47577418357438267,-0.03233373259819073,0.3801616737287626,1.356052582922626,2,left
3.278,0.23398574166679992,0.9174343543756401,-0.10866033271543069,1.0954145184983015,1.1278315986251164,-0.49912787408385395,-0.0332384288528593,0.38610669291789246,1.340618371677957,2,left
3.279,0.2343559493238444,0.9169460283538279,-0.10755550905215719,1.0764141500976763,1.0884950431156308,-0.5217206788877092,-0.03417627639142986,0.3917480095371468,1.3251970349638842,2,left
3.284,0.23469299582729886,0.9165051254178255,-0.10645681637696394,1.0574554178663924,1.0495816240971814,-0.543535291465911,-0.03514653758980339,0.3970926412164819,1.3098027865260444,2,left
3.284,0.23499580835793582,0.9161111886027837,-0.10536614625148087,1.038544437425562,1.0111096475645551,-0.5645562103175983,-0.036148418461563754,0.4021478958112331,1.2944493882732127,2,left
3.2910000000000004,0.23526331433673114,0.9157638185650371,-0.10428534227753575,1.019687647732395,0.9730964415899758,-0.584769774171857,-0.03718107430727468,0.40692135387392353,1.2791501554288718,2,left
3.2910000000000004,0.2354944402213209,0.9154626752750559,-0.10321619649813041,1.0008917813878104,0.9355583507272601,-0.6041641897254768,-0.0382436153263458,0.411420851250106,1.2639179621706669,2,left
3.293,0.2356881102428191,0.9152074795685502,-0.10216044590662501,0.9821638332206495,0.8985107338030802,-0.6227295519680522,-0.03933511219434391,0.4156544618127759,1.2487652477136681,2,left
3.293,0.23584324516035216,0.9149980145473976,-0.10111976908029023,0.9635110270943389,0.8619679649861665,-0.6404578571524726,-0.040454601608714204,0.4196304803490832,1.2337040227935194,2,left
3.298,0.2359587611048032,0.9148341268287216,-0.10009578295626975,0.944940780882022,0.8259434380266468,-0.6573430084664929,-0.04160109180596185,0.4233574056122896,1.2187458765057408,2,left
3.299,0.23603356857481517,0.9147157276476466,-0.09909003977061043,0.9264606695563727,0.7904495735591255,-0.6733808144587016,-0.04277356805342736,0.42684392355114953,1.2039019834576816,2,left
3.302,0.23606657163748776,0.9146427938258468,-0.0981040241836325,0.9080783863405234,0.7554978293645513,-0.6885689802698022,-0.043970998118869654,0.4300988907281549,1.189183111189882,2,left
3.303,0.2360566673752371,0.9146153686216496,-0.09713915061513968,0.8898017018667769,0.7210987134874157,-0.7029070917177039,-0.045192337721148265,0.4331313179373689,1.1745996278238982,2,left
3.3080000000000003,0.23600274561079565,0.9146335624768485,-0.09619676080930939,0.87163842129003,0.687261800106338,-0.7163965922824919,-0.0464365359653705,0.43595035403188476,1.1601615098939655,2,left
3.3089999999999997,0.23590368893430297,0.9146975536715424,-0.09527812164151503,0.8535963393031177,0.6539957480576563,-0.7290407530349049,-0.04770254076594141,0.43856526997027767,1.1458783503202485,2,left
3.313,0.23575837304873182,0.9148075888934167,-0.09438442316974306,0.8356831930015902,0.6213083219132234,-0.7408446355495142,-0.04898930425715802,0.4409854430898047,1.1317593664889203,2,left
3.3139999999999996,0.23556566744230772,0.914963983723708,-0.09351677692567818,0.8179066125457628,0.5892064155152221,-0.7518150478413633,-0.050295788171731554,0.44322034160859797,1.1178134084403575,2,left
3.315,0.23532443638963346,0.9151671230394895,-0.09267621443717346,0.8002740695682246,0.5576960778724528,-0.7619604933624007,-0.051620969132901304,0.4452795093497063,1.1040489672312952,2,left
3.3169999999999997,0.23503354027630785,0.9154174613299767,-0.09186368597232292,0.782792823275362,0.5267825413242051,-0.7712911130916316,-0.05296384378654017,0.4471725506743869,1.0904741835728657,2,left
3.318,0.23469183723350262,0.9157155229219717,-0.09108005949237162,0.7654698641918466,0.49647025187950755,-0.7798186207505208,-0.05432343371903176,0.4489091156164115,1.0770968568113295,2,left
3.323,0.23429818505996902,0.9160619021067522,-0.09032611979607653,0.7483118556013745,0.4667629016204216,-0.787556231306051,-0.05569879014153548,0.45049888521745024,1.063924454254718,2,left
3.323,0.2338514434031606,0.9164572631594681,-0.08960256783460728,0.7313250732570072,0.4376634629556474,-0.7945185835876847,-0.0570889983406306,0.4519515570680153,1.0509641208135296,2,left
3.324,0.23335047617016055,0.916902340243184,-0.08891002017594338,0.7145153448702488,0.40917422432502676,-0.8007216590413012,-0.058493181899242935,0.45327683105897315,1.0382226889170667,2,left
3.327,0.23279415413756988,0.9173979371913025,-0.08824900859961865,0.6978879914080941,0.3812968268531527,-0.8061826993071014,-0.0599105066918032,0.4544843953482121,1.0257066886675845,2,left
3.3280000000000003,0.2321813577222863,0.9179449271619875,-0.08761997980437983,0.6814477717081471,0.35403230155615245,-0.8109201246400604,-0.06134018465762888,0.4555839125466619,1.0134223581950415,2,left
3.333,0.23151097986484348,0.9185442521572764,-0.08702329521447648,0.6651988309870848,0.3273811068948687,-0.8149534539902035,-0.06278147735656162,0.4565850061274905,1.0013756541758565,2,left
3.3339999999999996,0.2307819289685719,0.9191969224006976,-0.08645923087726237,0.6491446532986362,0.30134316657353466,-0.8183032268916712,-0.06423369931093001,0.4574972470619698,0.989572262479735,2,left
3.3360000000000003,0.22999313183250447,0.9199040155713996,-0.08592797745391055,0.6332880178938577,0.2759179075056193,-0.8209909271742253,-0.06569622113794348,0.45833014068518896,0.9780176089092841,2,left
3.3369999999999997,0.22914353651362157,0.9206666758986013,-0.0854296403122072,0.6176309594370316,0.25110429787028155,-0.8230389085088243,-0.0671684724766559,0.4590931137945116,0.9667168699978267,2,left
3.341,0.2282321150548615,0.9214861131252713,-0.08496423973396153,0.602174732031077,0.22690088518463233,-0.8244703217969396,-0.06864994471366984,0.45979550198341895,0.955674983831513,2,left
3.342,0.22725786601944797,0.9223636013526707,-0.08453171125203289,0.5869197770069223,0.2033058343187614,-0.8253090444113801,-0.07014019351178112,0.46044653721315015,0.9448966608625502,2,left
3.346,0.22621981677939346,0.923300477778209,-0.08413190613544186,0.5718656944318674,0.18031696538224354,-0.8255796112945608,-0.07163884114579261,0.4610553356243536,0.9343863946810967,2,left
3.347,0.22511702551508797,0.9242981413390621,-0.08376459204378355,0.557011218292531,0.15793179141259037,-0.8253071479183756,-0.07314557864975155,0.4616308855907855,0.9241484727141097,2,left
3.352,0.22394858289263175,0.9253580512724305,-0.08342945387180675,0.5423541953085618,0.1361475557978603,-0.8245173051081389,-0.07466016777989114,0.4621820360169471,0.9141869868201936,2,left
3.353,0.22271361339705315,0.9264817255991088,-0.08312609480269284,0.5278915673338619,0.11496126936738084,-0.8232361957314274,-0.07618244279758075,0.4627174848814261,0.9045058437502653,2,left
3.3560000000000003,0.22141127631274318,0.9276707395310866,-0.08285403758840075,0.5136193573026472,0.0943697470862705,-0.8214903332510913,-0.0777123120766128,0.4632457680276187,0.8951087754446319,2,left
3.3569999999999998,0.22004076635471895,0.9289267237977252,-0.08261272608040705,0.4995326586782304,0.07436964429117371,-0.8193065721402282,-0.07924975953917675,0.46377524820343047,0.8859993491378758,2,left
3.36,0.21860131396415625,0.9302513628786901,-0.08240152704298255,0.4856256283629728,0.05495749240633905,-0.8167120501554902,-0.0807948459248933,0.4643141043515152,0.8771809772437433,2,left
3.361,0.2170921852906164,0.9316463931252466,-0.08221973228852628,0.47189148302839207,0.036129734080879924,-0.8137341324637711,-0.08234770989730368,0.4648703211515861,0.8686569269930472,2,left
3.367,0.21551268189367484,0.9331136007458978,-0.08206656117408553,0.4583224988249472,0.01788275768975518,-0.8104003576160573,-0.08390856899223058,0.46545167881633803,0.8604303297984238,2,left
3.3680000000000003,0.2138621402084619,0.9346548196280676,-0.0819411634872304,0.4449100144315345,0.00021293114269601158,-0.8067383853610454,-0.08547772041245004,0.466065743142547,0.8525041903206175,2,left
3.3710000000000004,0.21213993083184732,0.9362719289638514,-0.08184262273032435,0.4316444374052237,-0.016883365053015624,-0.8027759462900358,-0.08705554167313538,0.46671985581896014,0.8448813952118128,2,left
3.372,0.21034545769671845,0.9379668506450153,-0.08176995978952058,0.41851525379223564,-0.03340970552834368,-0.7985407933035822,-0.08864249110255795,0.46742112499266364,0.8375647215123864,2,left
3.377,0.20847815720864082,0.9397415463917097,-0.08172213695370346,0.4055110409616093,-0.04936958863763821,-0.7940606548894362,-0.09023910820255314,0.4681764160957082,0.8305568446783177,2,left
3.3789999999999996,0.20653749742097688,0.9415980145817008,-0.08169806223537969,0.3926194836234278,-0.06476640594223994,-0.7893631902004653,-0.09184601387328539,0.46899234293388603,0.8238603462173645,2,left
3.3810000000000002,0.20452297732111255,0.9435382867528609,-0.08169659394369531,0.3798273929938631,-0.07960341264003239,-0.7844759459204361,-0.09346391050687226,0.46987525903968913,0.8174777209129901,2,left
3.3819999999999997,0.2024341262911973,0.9455644237606121,-0.08171654546565676,0.36712072906965315,-0.09388369898679753,-0.7794263149048533,-0.09509358195390782,0.4708312492944382,0.8114113836212677,2,left
3.383,0.20027050379215194,0.947678511581749,-0.08175669021900925,0.35448462597495045,-0.1076101627536127,-0.7742414965834185,-0.09673589336421745,0.471866121838772,0.8056636756536318,2,left
3.386,0.19803169930404993,0.949882656763899,-0.08181576674537246,0.34190342034376353,-0.12078548276291834,-0.7689484591101295,-0.09839179089827943,0.4729854003161279,0.8002368708074027,2,left
3.386,0.19571733254667087,0.9521789815246289,-0.08189248391215527,0.3293606827014556,-0.13341209354428615,-0.7635739032465704,-0.1000623013030443,0.4741943165080804,0.7951331811336722,2,left
3.39,0.19332705400337896,0.954569618507181,-0.08198552618642063,0.31683925180896777,-0.14549216114932598,-0.7581442279635559,-0.10174853134865797,0.4754978034066039,0.7903547625063029,2,left
3.391,0.19086054577249312,0.9570567052027391,-0.08209355893980096,0.30432127188371005,-0.15702756015010189,-0.7526854977355436,-0.10345166712756158,0.4769004887433179,0.7859037200085554,2,left
3.392,0.1883175227656774,0.9596423780516292,-0.08221523374694092,0.2917882323617845,-0.16801985177643164,-0.747223411449786,-0.10517297322022251,0.4784066889820047,0.7817821131280382,2,left
3.3960000000000004,0.18569773426362635,0.9623287662377887,-0.08234919364877148,0.27922100941736433,-0.17847026302451813,-0.7417832727580711,-0.10691379173234246,0.48002040377815336,0.7779919607462591,2,left
3.397,0.18300096583042472,0.9651179851940076,-0.08249407835887416,0.2665999082056705,-0.18837966650037616,-0.7363899616466157,-0.10867554120843867,0.4817453109095686,0.7745352459099932,2,left
3.4019999999999997,0.18022704158096783,0.9680121298399853,-0.08264852939285902,0.25390470504533397,-0.19774856082737682,-0.7310679070518653,-0.11045971542674539,0.48358476168238135,0.7714139203726347,2,left
3.403,0.17737582678975516,0.9710132675786057,-0.08281119510081807,0.24111468920473178,-0.20657705156702932,-0.7258410604439797,-0.11226788208044007,0.485541776817103,0.7686299088946456,2,left
3.405,0.17444723082433683,0.9741234310771958,-0.08298073558428497,0.22820870420611786,-0.21486483266798437,-0.7207328703521272,-0.11410168135025815,0.4876190428196867,0.7661851132931783,2,left
3.406,0.17144121038266502,0.9773446108617301,-0.08315582747847244,0.21516518861103454,-0.22261116847017384,-0.7157662578163478,-0.11596282437362554,0.489818908842887,0.7640814162319072,2,left
3.41,0.16835777300932214,0.9806787477545734,-0.08333516857570354,0.20196221625021674,-0.22981487628944766,-0.7109635927510206,-0.1178530916155066,0.492143384043544,0.7623206847430766,2,left
3.412,0.1651969808607974,0.984127725190241,-0.08351748226061748,0.188577535860867,-0.23647430960651525,-0.7063466712053093,-0.1197743311462394,0.49459413544176656,0.7609047734747449,2,left
3.415,0.16195895468578836,0.9876933614466141,-0.08370152172665622,0.17498861009378364,-0.24258734188244194,-0.701936693506369,-0.12172845683170837,0.497172486288336,0.7598355276571878,2,left
3.4160000000000004,0.1586438779844194,0.9913774018284037,-0.08388607394775807,0.1611726538523653,-0.24815135102139133,-0.6977542432715622,-0.12371744644128903,0.49987941494701466,0.7591147857834036,2,left
3.42,0.1552520013115456,0.9951815108351357,-0.08406996338721842,0.14710667192499305,-0.2531632044997392,-0.6938192672764678,-0.12574333967908774,0.5027155542987993,0.7587443819996599,2,left
3.4210000000000003,0.15178364669350164,0.9991072643404768,-0.08425205543447248,0.13276749587170322,-0.2576192451791153,-0.6901510561660572,-0.12780823614409464,0.5056811916755303,0.7587261482030113,2,left
3.425,0.14823921213271704,1.0031561418066273,-0.0844312595685721,0.11813182012541207,-0.26151527781934925,-0.6867682259970668,-0.12991429322496786,0.5087762693306338,0.7590619158437238,2,left
3.426,0.14461917617903067,1.007329518556654,-0.08460653225413457,0.10317623726723474,-0.2648465563057114,-0.6836887006003043,-0.1320637239352735,0.5120003854551454,0.7597535174315447,2,left
3.43,0.14092410254979257,1.0116286581252725,-0.08477687958082782,0.08787727243465547,-0.2676077716032398,-0.6809296947523903,-0.13425879469511776,0.5153527957475335,0.7608027877457691,2,left
3.431,0.1371546447826333,1.0160547047019304,-0.0849413596606577,0.07221141682045425,-0.2697930404493354,-0.6785076981472562,-0.1365018230652263,0.5188324155462143,0.7622115647500726,2,left
3.4339999999999997,0.13331155090475716,1.0206086756711124,-0.08509908479921535,0.05615516021937579,-0.2713958947941846,-0.6764384601585891,-0.13879517543965048,0.5224378225340175,0.7639816902140992,2,left
3.435,0.12939566810099518,1.025291454247442,-0.08524922345713143,0.03968502257854094,-0.2724092719969277,-0.6747369753853326,-0.1411412647034111,0.526167260024232,0.7661150100448266,2,left
3.44,0.1254079473611822,1.0301037821986456,-0.08539100201391424,0.02277758450654534,-0.2728255057838378,-0.6734174699733204,-0.14354254786152842,0.530018640838224,0.7686133743317543,2,left
3.44,0.12134944808736227,1.0350462526473474,-0.08552370633741053,0.005409516695069876,-0.27263631797309895,-0.6724933887071306,-0.14600152364603217,0.5339895517849813,0.7714786371110081,2,left
3.446,0.11722134264318397,1.0401193029435867,-0.08564668315135586,-0.012442391794362047,-0.27183281096907896,-0.6719773828673027,-0.1485207301076961,0.5380772587532923,0.7747126558544912,2,left
3.447,0.11302492083120388,1.0453232076039232,-0.0857593411852025,-0.03080120642710112,-0.2704054610272737,-0.6718812988491559,-0.15110274219940092,0.5422787124276195,0.7783172906912641,2,left
3.449,0.10876159428805814,1.050658071318246,-0.08586115208723212,-0.0496898213255065,-0.26834411228936117,-0.672216167540583,-0.15375016935819505,0.5465905546390691,0.7822944033693875,2,left
3.449,0.10443290079118908,1.0561238220305749,-0.08595165108430637,-0.06913093468383139,-0.26563797158603586,-0.6729921944573602,-0.1564656530895746,0.551009125350467,0.7866458559610775,2,left
3.45,0.10004050847235547,1.0617202041051155,-0.08603043737778283,-0.08914702552064914,-0.2622756040035015,-0.6742187506357229,-0.15925186453907922,0.5555304702112511,0.7913735092828584,2,left
3.4530000000000003,0.09558621993241982,1.0674467715938454,-0.0860971742724451,-0.10976033182313066,-0.25824492920767744,-0.6759043642831899,-0.16211150200299834,0.560150348503681,0.7964792209454565,2,left
3.4539999999999997,0.09107197625029559,1.0733028816276526,-0.08615158904275026,-0.13099283013907087,-0.2535332185183195,-0.6780567131898868,-0.16504728831157303,0.5648642412385414,0.801964842917025,2,left
3.4589999999999996,0.08649986087677962,1.0792876879597175,-0.08619347254772876,-0.15286621663630612,-0.24812709275247458,-0.680682617916693,-0.1680619680368865,0.5696673592224425,0.8078322185166004,2,left
3.46,0.08187210340074723,1.0854001346951618,-0.08622267860983665,-0.175401889461347,-0.24201252100028922,-0.6837880358417748,-0.171158304511338,0.5745546510336232,0.814083178813789,2,left
3.4610000000000003,0.0771910831711915,1.0916389502424562,-0.08623912317289911,-0.19862093188966906,-0.23517482075617308,-0.687378056263454,-0.1743390766614186,0.5795208109070659,0.820719538443997,2,left
3.463,0.07245933275382535,1.0980026415210726,-0.08624278325327003,-0.22254409557241184,-0.22759865997184453,-0.6914568968226471,-0.1776070756654548,0.5845602865427096,0.8277430908560669,2,left
3.464,0.06767954119518177,1.1044894884592915,-0.08623369569817438,-0.2471917833756712,-0.21926806145022704,-0.6960279014455562,-0.18096510144422145,0.5896672868507902,0.8351556030102795,2,left
3.469,0.0628545570621963,1.1110975388144575,-0.08621195576344956,-0.27258403165169215,-0.21016640973514658,-0.7010935398936401,-0.18441595899356714,0.59483578964856,0.8429588095457916,2,left
3.47,0.0579873912240556,1.117824603341802,-0.08617771551920242,-0.2987404919728245,-0.2002764605041359,-0.7066554089453716,-0.18796245456844635,0.6000595493228559,0.8511544064376879,2,left
3.4739999999999998,0.05308121934660321,1.1246682513277397,-0.08613118208881822,-0.32568041239909024,-0.18958035244037788,-0.7127142352229189,-0.19160739172801103,0.6053321044731691,0.8597440441649462,2,left
3.4739999999999998,0.04813938407597241,1.1316258064928082,-0.08607261572381858,-0.35342261835235106,-0.17805962155760513,-0.7192698796783059,-0.19535356725168102,0.610646785550054,0.8687293204117361,2,left
3.4810000000000003,0.043165396894338015,1.1386943432602774,-0.08600232771086562,-0.3819854931722566,-0.16569521794950462,-0.7263213437550317,-0.19920376693638742,0.615996722503867,0.8781117723255984,2,left
3.4819999999999998,0.03816293963519928,1.1458706833796168,-0.08592067809770394,-0.4113869584314068,-0.15246752493286211,-0.7338667772425521,-0.20316076128546628,0.6213748524589683,0.8878928683571844,2,left
3.483,0.033135865649274704,1.1531513928897634,-0.0858280732180376,-0.4416444540894633,-0.13835638055130833,-0.7419034878424576,-0.20722730109996995,0.6267739274286409,0.8980739997073699,2,left
3.484,0.028088200615502892,1.1605327794048643,-0.08572496299792691,-0.47277491856830056,-0.12334110140410538,-0.7504279524665961,-0.21140611298346262,0.6321865220860771,0.9086564714087022,2,left
3.488,0.023024142993241216,1.1680108897040633,-0.08561183803803545,-0.5047947688326998,-0.1074005087619304,-0.7594358302888151,-0.21569989477167364,0.6376050416068703,0.91964149306928,2,left
3.489,0.017948064110314466,1.1755815076078395,-0.08548922648017955,-0.5377198805635414,-0.09051295692907399,-0.7689219775733999,-0.22011131089869676,0.6430217295985043,0.9310301693083163,2,left
3.4930000000000003,0.012864507878320016,1.1832401521278135,-0.08535769067640503,-0.5715655685129614,-0.07265636380887339,-0.7788804643046875,-0.22464298771174468,0.6484286761323738,0.9428234899137892,2,left
3.4939999999999998,0.0077781901238876084,1.1909820758844831,-0.08521782368150758,-0.6063465671334918,-0.05380824362654016,-0.7893045926437242,-0.22929750874680102,0.6538178258938826,0.9550223197537395,2,left
3.498,0.002693997524723638,1.1988022637958995,-0.08507024558742633,-0.6420770115758015,-0.03394574176082191,-0.8001869172392035,-0.23407740997784718,0.6591809864661679,0.9676273884739328,2,left
3.498,-0.0023830138558001536,1.2066954320470693,-0.08491559971540982,-0.6787704191522997,-0.013045671633152029,-0.8115192674212787,-0.23898517505268807,0.6645098367629615,0.9806392800157674,2,left
3.503,-0.007447620431643977,1.2146560273525262,-0.0847545486826513,-0.7164396713665482,0.008915446399907217,-0.8232927713081785,-0.24402323052875374,0.6697959356260555,0.9940584219894755,2,left
3.5039999999999996,-0.012494433337902242,1.222678226523117,-0.08458777036310211,-0.7550969966111563,0.03196134420803798,-0.8354978818568738,-0.2491939411226133,0.6750307306027579,1.0078850749388268,2,left
3.508,-0.017517901027508356,1.230755936345442,-0.084415953764989,-0.7947539536395979,0.056115963162447303,-0.8481244048903265,-0.25449960498730534,0.6802055669186313,1.0221193215347175,2,left
3.509,-0.02251231218794372,1.2388827937810438,-0.08423979484861961,-0.8354214159201867,0.0814034095881944,-0.8611615291351249,-0.25994244903196245,0.685311696660681,1.0367610557361935,2,left
3.513,-0.02747179894754613,1.2470521664924714,-0.08405999230576405,-0.8771095569832922,0.10784790845982102,-0.8745978583045454,-0.26552462429858953,0.6903402881860106,1.051809971958629,2,left
3.514,-0.03239034034891284,1.2552571537038306,-0.08387724331589361,-0.9198278368757387,0.13547375540972637,-0.8884214452632897,-0.27124820141124173,0.6952824357707946,1.0672655542899523,2,left
3.5180000000000002,-0.037261766076846184,1.263490587404172,-0.08369223928806352,-0.9635849898392389,0.16430526712198343,-0.9026198283113243,-0.2771151661075202,0.7001291695068812,1.0831270657847276,2,left
3.5180000000000002,-0.042079760437794794,1.2717450339034513,-0.0835056615942403,-1.008389013332641,0.19436673018761627,-0.9171800696253976,-0.2831274148340874,0.7048714654164451,1.0993935378058293,2,left
3.5189999999999997,-0.04683786659545824,1.2800127957527787,-0.08331817730119875,-1.0542471585207251,0.2256823485007529,-0.9320887958979172,-0.2892867503368038,0.7095002556888536,1.116063759274362,2,left
3.522,-0.05152949107300763,1.2882859140417515,-0.08313043491427022,-1.1011659223552699,0.25827618927853113,-0.947332241213948,-0.2955948771478832,0.7140064389069587,1.1331362656284012,2,left
3.5239999999999996,-0.05614790853707331,1.296556171085092,-0.08294306015867516,-1.149151041377115,0.292172127791168,-0.962896292208131,-0.30205339690149746,0.7183808901664049,1.1506093273535378,2,left
3.5269999999999997,-0.060686266882194945,1.3048150935105056,-0.08275665183846218,-1.198207487286456,0.3273937908787356,-0.9787665354655283,-0.3086638034611899,0.7226144710572213,1.168480938059615,2,left
3.529,-0.06513759263575518,1.3130539557613625,-0.08257177781895059,-1.2483394639090657,0.3639644992675058,-0.9949283067373909,-0.3154274778714987,0.72669803951329,1.1867488021404502,2,left
3.529,-0.06949479670382702,1.3212637840305934,-0.08238897117334075,-1.2995504044285529,0.4019072085812324,-1.011366740834625,-0.3223456831523488,0.730622459542238,1.2054103220667314,2,left
3.532,-0.07375068048100286,1.3294353606442812,-0.08220872652842741,-1.3518429673352592,0.441244448879194,-1.028066820668642,-0.32941955895520325,0.7343786108478931,1.2244625853634243,2,left
3.532,-0.07789794235171364,1.3375592289142844,-0.08203149664697637,-1.4052190299680656,0.48199826262404943,-1.0450134243040843,-0.336650116100409,0.737957398357019,1.2439023513241665,2,left
3.536,-0.08192918461302312,1.3456256984795665,-0.08185768928976267,-1.459679679289129,0.5241901411077309,-1.062191369597852,-0.3440382310156116,0.7413497616615796,1.263726037516244,2,left
3.5380000000000003,-0.08583692084793085,1.3536248511559894,-0.08168766439931459,-1.5152251999572601,0.5678409594349566,-1.079585456393586,-0.3515846400955639,0.7445466843873054,1.283929706130884,2,left
3.542,-0.08961358377512689,1.361546547313857,-0.08152173164081385,-1.5718550598532792,0.6129709101814849,-1.0971805063202502,-0.35928993400410203,0.7475392034988224,1.3045090502346957,2,left
3.543,-0.09325153359692526,1.3693804328017902,-0.08136014832882964,-1.6295678932138016,0.6595994358483598,-1.1149614002441324,-0.3671545519395132,0.7503184185510711,1.325459379979201,2,left
3.5469999999999997,-0.09674306686235329,1.3771159464349174,-0.08120311776145145,-1.6883614815330181,0.70774516023759,-1.1329131134242,-0.37517877588497633,0.7528755008961783,1.3467756088264853,2,left
3.548,-0.10008042585792688,1.384742328064809,-0.0810507879727951,-1.7482327323951532,0.7574258188789488,-1.1510207484213204,-0.3833627248662117,0.7552017028543615,1.3684522398500776,2,left
3.551,-0.10325580853589936,1.3922486272485273,-0.08090325090311293,-1.8091776564033852,0.8086581886418844,-1.1692695658123964,-0.3917063492389332,0.7572883668568273,1.3904833521712325,2,left
3.552,-0.10626137898977289,1.3996237125348319,-0.08076054197959394,-1.8711913423741238,0.8614580166708931,-1.1876450127609552,-0.4002094250291541,0.759126934567994,1.4128625875918395,2,left
3.556,-0.10908927848714617,1.4068562813862375,-0.08062264010314293,-1.9342679309686297,0.9158399487871056,-1.2061327494961755,-0.40887154834985734,0.7607089559937017,1.4355831374862167,2,left
3.557,-0.11173163706595074,1.4139348707560833,-0.08048946804295057,-1.9984005869370431,0.9718174575033024,-1.224718673752747,-0.417692129917999,0.7620260985813846,1.4586377300150652,2,left
3.562,-0.11418058569128335,1.4208478683406502,-0.08036089324598056,-2.063581470152957,1.029402769804065,-1.2433889432243175,-0.4266703896962702,0.76307015631747,1.4820186177258614,2,left
3.563,-0.11642826896008251,1.4275835245276312,-0.08023672907002244,-2.129801705619725,1.0886067948473201,-1.2621299960836112,-0.43580535168450113,0.763833058826531,1.5057175656049362,2,left
3.5669999999999997,-0.11846685833178641,1.4341299650632002,-0.08011673644625585,-2.19705135263272,1.149439051748109,-1.2809285696225763,-0.4450958388860441,0.7643068804759577,1.5297258396474607,2,left
3.568,-0.12028856585355871,1.440475204458811,-0.08000062597016686,-2.265319373284775,1.2119075976100355,-1.2997717170661705,-0.45454046847492574,0.7644838494891306,1.5540341960124815,2,left
3.572,-0.12188565833823808,1.4466071601545696,-0.07988806040879289,-2.334593600505015,1.2760189559744886,-1.3186468226135937,-0.4641376471900086,0.7643563570692697,1.5786328708310722,2,left
3.572,-0.12325047194394835,1.4525136674500938,-0.07977865760013422,-2.4048607058242486,1.3417780458624105,-1.3375416147609402,-0.4738855669828479,0.763916966535304,1.6035115707365486,2,left
3.576,-0.12437542709819355,1.458182495208124,-0.07967199370913054,-2.4761061670630067,1.4091881115880838,-1.356444177959379,-0.4837822009463714,0.7631584224702528,1.6286594641865568,2,left
3.577,-0.1252530437062476,1.4636013623311863,-0.07956760679272062,-2.548314236141206,1.4782506535291198,-1.3753429626630542,-0.4938252995519494,0.7620736598817368,1.6540651736476808,2,left
3.58,-0.12587595658356415,1.4687579550071825,-0.07946500061367023,-2.621467907211267,1.5489653600415634,-1.394226793820966,-0.5040123872228536,0.7606558133733423,1.6797167687140129,2,left
3.5810000000000004,-0.12623693105589814,1.4736399447153035,-0.07936364863396898,-2.69554888531932,1.6213300407137714,-1.4130848778671012,-0.5143407592725295,0.7588982263246431,1.7056017602319078,2,left
3.585,-0.12632887867902157,1.4782350069781205,-0.0792629981190883,-2.7705375558019014,1.6953405611574606,-1.4319068082630877,-0.5248074792365303,0.7567944600767489,1.7317070955038771,2,left
3.5860000000000003,-0.12614487303988078,1.4825308408401936,-0.07916247429343337,-2.846412954628242,1.7709907795390627,-1.4506825696475938,-0.5354093766170526,0.754338303124522,1.7580191546238317,2,left
3.5860000000000003,-0.12567816561061457,1.486515189051709,-0.07906148450089004,-2.9231527399009307,1.8482724850592642,-1.4694025406466256,-0.5461430450078532,0.7515237803417756,1.7845237478892726,2,left
3.591,-0.1249222016349578,1.4901758589374758,-0.07895942233807329,-3.00073316473032,1.9271753385933321,-1.488057495398771,-0.5570048404748813,0.7483451623118359,1.811206114043555,2,left
3.592,-0.12387063603049485,1.4935007439303356,-0.07885567173559628,-3.0791290517006087,2.0076868157095262,-1.5066386038493074,-0.5679908800167787,0.7447969748609842,1.838050918994669,2,left
3.596,-0.1225173492887279,1.4964778457405028,-0.07874961096285654,-3.1583137691030134,2.089792152234374,-1.525137430863579,-0.5790970399813503,0.7408740088651206,1.865042254764813,2,left
3.597,-0.12085646335256897,1.4990952971267273,-0.07864061653183757,-3.2382592088889552,2.173474292272137,-1.5435459341931321,-0.5903189544073115,0.7365713303518814,1.8921636386186396,2,left
3.597,-0.11888235745279853,1.50134138523781,-0.07852806698084597,-3.3189357658937135,2.2587138381114666,-1.5618564612977346,-0.6016520133125474,0.7318842908932363,1.9193980124258052,2,left
3.602,-0.11658968389077037,1.5032045754976289,-0.0784113465262032,-3.4003123176583396,2.345489001190737,-1.5800617450094345,-0.61309136096078,0.7268085382772842,1.9467277423353238,2,left
3.603,-0.11397338376142996,1.5046735360060666,-0.07828984857303994,-3.482356204404724,2.433775553564138,-1.5981548980412965,-0.6246318941388722,0.7213400274468776,1.9741346188396025,2,left
3.605,-0.11102870261769697,1.5057371624248395,-0.07816297907441892,-3.5650332091256267,2.523546779794056,-1.6161294063733098,-0.6362682604773123,0.7154750316916018,2.001599857306358,2,left
3.6060000000000003,-0.10775120608397852,1.5063846033157013,-0.07803015972168002,-3.648307537978388,2.614773429465755,-1.6339791215644075,-0.6479948568467326,0.7092101540785171,2.0291040990568847,2,left
3.61,-0.10413679543175927,1.5066052858971661,-0.07789083093788622,-3.732141801217942,2.7074236705779136,-1.6516982520425554,-0.6598058278636019,0.7025423391059499,2.056627413069369,2,left
3.61,-0.10018172313237897,1.5063889421813554,-0.077744454630891,-3.816496994906564,2.80146304406686,-1.669281353424535,-0.6716950645385088,0.6954688845634729,2.0841492983861025,2,left
3.614,-0.09588260840000261,1.5057256354440673,-0.07759051664561786,-3.9013324836394885,2.8968544197264947,-1.6867233179166827,-0.683656203100712,0.6879874535800738,2.111648687303571,2,left
3.616,-0.0912364527310359,1.5046057869694156,-0.07742852884245696,-3.9866059845271584,2.9935579537899875,-1.704019362847482,-0.6956826240328701,0.6800960868413494,2.1391039494244404,2,left
3.6210000000000004,-0.08624065543552496,1.5030202029959459,-0.07725803072724072,-4.072273552676344,3.0915310484433203,-1.7211650183825022,-0.7077674513500964,0.6717932149554019,2.1664928966504524,2,left
3.623,-0.08089302914287802,1.5009601017751235,-0.07707859057132303,-4.158289568413746,3.190728313544626,-1.7381561144717845,-0.7199035521576823,0.6630776709459392,2.193792789195186,2,left
3.6260000000000003,-0.0751918152501304,1.4984171406383229,-0.07688980598469078,-4.2446067264969605,3.2911015308270333,-1.7549887670793503,-0.7320835365220253,0.6539487028499071,2.220980342695506,2,left
3.627,-0.06913569926728125,1.4953834429578639,-0.076691303934453,-4.3311760275588025,3.392599620866367,-1.7716593637440776,-0.7442997576894612,0.6444059863957993,2.2480317365003377,2,left
3.63,-0.06272382600251512,1.4918516248815048,-0.07648274022970108,-4.417946772031997,3.495168613098574,-1.788164548520753,-0.7565443126878502,0.6344496377376044,2.2749226232151334,2,left
3.6310000000000002,-0.05595581452100946,1.4878148217166618,-0.07626379851736152,-4.504866556802092,3.5987516191751054,-1.804501206349636,-0.7688090433458873,0.6240802262181673,2.301628139580087,2,left
3.636,-0.048831772803878515,1.4832667138400628,-0.0760341888515492,-4.591881274837172,3.7032888099477153,-1.820666446902432,-0.781085537765217,0.6132987871345473,2.3281229187597554,2,left
3.637,-0.04135231202986187,1.4782015520111786,-0.07579364591447596,-4.678935118043528,3.808717396377211,-1.8366575879520715,-0.7933651322805082,0.6021068344767759,2.3543811041212828,2,left
3.639,-0.03351856040545895,1.4726141819740461,-0.07554192698342617,-4.7659705835968795,3.914971614663586,-1.8524721383132257,-0.805638913942705,0.5905063736102264,2.380376364577892,2,left
3.64,-0.025332176482203435,1.4665000682422769,-0.07527880975386499,-4.852928483998973,4.021982715897713,-1.8681077803999921,-0.8178977235607033,0.5784999138706262,2.406081911573698,2,left
3.6460000000000004,-0.016795361922258306,1.4598553169747326,-0.0750040901342125,-4.939747961109538,4.129678960537326,-1.883562352446677,-0.8301321593367069,0.5660904810395645,2.431470517785222,2,left
3.647,-0.007910873701106234,1.452676697859734,-0.07471758010873465,-5.026366504403499,4.237985618012375,-1.8988338304371055,-0.8423325811305051,0.5532816296671779,2.4565145376142206,2,left
3.65,0.001317964241138769,1.4449616649275334,-0.07441910571217847,-5.112719973703099,4.346824971767014,-1.9139203097873747,-0.8544891153878673,0.5400774552075253,2.4811859295456262,2,left
3.6510000000000002,0.010887249885646861,1.4367083762004065,-0.07410850508410738,-5.198742626634238,4.45611633004746,-1.9288199868264315,-0.8665916607681796,0.5264826059310149,2.5054562804434632,2,left
3.654,0.020792492575379233,1.4279157120685513,-0.07378562650495221,-5.284367151055705,4.565776042746666,-1.9435311401183553,-0.8786298945063513,0.5125022945770922,2.52929683185663,2,left
3.654,0.031028603090163167,1.418583292257201,-0.0734503262921888,-5.36952470270923,4.675717524618322,-1.9580521116696712,-0.8905932795287689,0.4981423097010677,2.5526785083640466,2,left
3.655,0.041589884500156826,1.4087114912424203,-0.0731024664600292,-5.454144948337335,4.785851285173955,-1.9723812880644958,-0.9024710722673097,0.48340902662683793,2.5755719477809493,2,left
3.659,0.05247002398305305,1.3983014519877899,-0.07274191210071294,-5.538156114514825,4.896084965577975,-1.986517081569775,-0.9142523309791433,0.46830941784233643,2.5979475326750427,2,left
3.66,0.06366208583214035,1.3873550978980826,-0.07236852851306128,-5.621485042438372,5.006323382856301,-2.0004579112523238,-0.9259259243042162,0.4528510626324627,2.6197754224333645,2,left
3.6639999999999997,0.07515850594803877,1.3758751429071843,-0.07198217817728865,-5.704057248917154,5.11646858173475,-2.0142021841488265,-0.9374805398676876,0.4370421557841681,2.641025585325846,2,left
3.6639999999999997,0.08695108816122206,1.3638650996455715,-0.07158271773444033,-5.785796993805733,5.226419894423662,-2.0277482765294064,-0.9489046928704017,0.42089151527113283,2.6616678303819126,2,left
3.665,0.09903100272563399,1.351329285673316,-0.0711699951415949,-5.866627354007671,5.336074008567825,-2.0410945153115,-0.9601867346857854,0.4044085888654428,2.681671839101447,2,left
3.6689999999999996,0.11138878725559388,1.3382728277994282,-0.07074384713153288,-5.94647030362269,5.4453250430934155,-2.0542391597636755,-0.9713148614963395,0.38760345963087134,2.7010071970610987,2,left
3.67,0.12401435028696471,1.3247016645213985,-0.07030409703921114,-6.0252467988114065,5.554064630806415,-2.06718038378871,-0.9822771230025182,0.3704868502513892,2.719643425475171,2,left
3.674,0.1368969775676791,1.3106225466199453,-0.06985055300480496,-6.102876865395512,5.662182006109019,-2.079916259158121,-0.9930614312363791,0.35307012614757327,2.737550012768493,2,left
3.675,0.15002534113562158,1.296043035946372,-0.06938300653778308,-6.179279687761995,5.7695640966864685,-2.0924447399863095,-1.00365556951195,0.3353652973326616,2.7546964462167445,2,left
3.68,0.16338751121378942,1.2809715024358108,-0.06890123142449013,-6.254373698633259,5.876095618891982,-2.104763648581653,-1.0140472015437743,0.317385018959106,2.7710522437077176,2,left
3.681,0.17697097093641562,1.2654171193589652,-0.06840498297365939,-6.328076669815278,5.981659177042704,-2.116870662727817,-1.0242238807645918,0.2991425905056159,2.786586985674885,2,left
3.6830000000000003,0.19076263391769038,1.2493898567946946,-0.06789399760498524,-6.400305804143122,6.0861353669349105,-2.1287633044312755,-1.0341730598725616,0.28065195355385963,2.801270347252462,2,left
3.6839999999999997,0.204748864682251,1.2329004732789162,-0.06736799277810486,-6.470977828839366,6.189402883884263,-2.1404389301704194,-1.0438821006378503,0.2619276881031972,2.815072130698888,2,left
3.6889999999999996,0.21891550197808426,1.215960505569031,-0.0668266672239939,-6.540009090496945,6.291338635594097,-2.1518947226810337,-1.0533382839977992,0.242985007371072,2.8279622981332895,2,left
3.69,0.2332478849757692,1.1985822564579196,-0.0662697013872161,-6.607315651893783,6.39181786015163,-2.1631276843123,-1.0625288204692185,0.22383975102597123,2.8399110046270386,2,left
3.693,0.24773088232598167,1.180778780573738,-0.06569675794607417,-6.672813390842018,6.490714249448462,-2.1741346319868584,-1.071440860905675,0.2045083767992,2.850888631689991,2,left
3.694,0.2623489240110838,1.1625638681080352,-0.06510748228123336,-6.7364181012699635,6.587900078317962,-2.1849121937978326,-1.080061507626912,0.1850079504210853,2.8608658211883724,2,left
3.698,0.27708603589069997,1.1439520264259737,-0.06450150281852368,-6.798045596729974,6.683246339677893,-2.1954568072750775,-1.088377825946775,0.16535613382664588,2.869813509728571,2,left
3.699,0.29192587680085014,1.1249584595317303,-0.06387843125310294,-6.857611816520202,6.776622885962129,-2.2057647193522674,-1.0963768561252152,0.1455711715752309,2.877702963538308,2,left
3.7030000000000003,0.3068517780191043,1.1055990453893598,-0.06323786273316265,-6.91503293460276,6.86789857712034,-2.2158319880657764,-1.1040456257691114,0.12567187542814637,2.8845058138737927,2,left
3.7039999999999997,0.32184678486003626,1.0858903111293712,-0.0625793761169414,-6.970225471495171,6.956941435459313,-2.2256544860156313,-1.1113711627057699,0.10567760702785384,2.890194092978498,2,left
3.708,0.3368937001250671,1.0658494061981338,-0.06190253441414881,-7.023106409306035,7.0436188075938295,-2.2352279056181454,-1.1183405083520557,0.08560825862194497,2.8947402706161593,2,left
3.708,0.351975129103729,1.045494073528972,-0.06120688549620844,-7.073593310079679,7.127797533769061,-2.2445477661791395,-1.1249407316011544,0.06548423177476836,2.89811729119748,2,left
3.714,0.3670735258082209,1.0248426188331683,-0.06049196312829161,-7.121604437608183,7.209344124809969,-2.253609422815965,-1.1311589432479858,0.04532641400931326,2.9002986115168317,2,left
3.715,0.3821712401158744,1.0039138781307608,-0.05975728835555747,-7.167058882862501,7.288124946946433,-2.262408077255814,-1.1369823109732584,0.025156153321740343,2.9012582391119413,2,left
3.718,0.3972505654927264,0.9827271836671082,-0.05900237127350971,-7.209876693187543,7.364006414755649,-2.270938790537088,-1.1423980749050993,0.004995230510793381,2.900970771256213,2,left
3.719,0.41229378697686186,0.9613023283894703,-0.058226713223573326,-7.249979005398964,7.436855192455754,-2.279196497639837,-1.1473935637760946,-0.015134170735770178,2.899411434589899,2,left
3.7230000000000003,0.4272832291180493,0.9396595291790182,-0.057429809465365404,-7.287288182912074,7.506538403776726,-2.2871760240705443,-1.1519562116796946,-0.03520949602148591,2.8965561253657475,2,left
3.7239999999999998,0.44220130361053234,0.9178193890298937,-0.056611152372034866,-7.321727957025708,7.572923850626242,-2.294872104425744,-1.1560735753650293,-0.05520785454125177,2.892381450145858,2,left
3.725,0.45703055641094337,0.8958028583372634,-0.05577023517091835,-7.353223572476064,7.635880240759503,-2.302279402958188,-1.1597333518932382,-0.07510605504682825,2.8868647665392033,2,left
3.728,0.4717537141598668,0.8736311954402229,-0.05490655621328031,-7.381701937367552,7.695277424652897,-2.309392536168473,-1.162923396413442,-0.09488064285257827,2.87998422343025,2,left
3.728,0.4863537296963288,0.8513259265938391,-0.05401962370874212,-7.407091777579418,7.750986641771941,-2.316206097444224,-1.1656317398789415,-0.11450793742673714,2.8717188002806178,2,left
3.734,0.5008138264045505,0.8289088055899211,-0.05310896081044967,-7.429323795738461,7.802880776414082,-2.3227146837681008,-1.167846606637645,-0.13396407042048047,2.8620483453255035,2,left
3.735,0.515117541111305,0.8064017732639279,-0.052174110902113435,-7.448330834670225,7.850834623008479,-2.3289129244374087,-1.1695564318931115,-0.15322502415740546,2.850953612617979,2,left
3.735,0.529248765277056,0.7838269171006707,-0.05121464293266052,-7.464048044385621,7.894725159303174,-2.334795511349004,-1.1707498790439708,-0.17226667063975817,2.838416297897381,2,left
3.738,0.5431917842779261,0.761206431099069,-0.05023015666443588,-7.476413050127275,7.934431823265109,-2.3403572297035122,-1.1714158569080504,-0.19106481112724727,2.8244190732539662,2,left
3.739,0.5569313146116968,0.7385625760167681,-0.04922028772017129,-7.485366118144065,7.9698367880659555,-2.345592987593764,-1.1715435368361042,-0.20959521634372422,2.808945620557925,2,left
3.742,0.5704525388505363,0.7159176401146349,-0.048184712314525334,-7.4908503166994125,8.000825230956227,-2.3504978433296655,-1.1711223697185427,-0.22783366736637878,2.7919806636166995,2,left
3.7430000000000003,0.5837411381370002,0.6932939005341697,-0.047123151550930026,-7.492811671332905,8.027285594412136,-2.3550670300496,-1.1701421028870578,-0.24575599725140018,2.773509999020355,2,left
3.747,0.596783322017978,0.6707135854369056,-0.04603537517188481,-7.49119931423159,8.049109839368427,-2.3592959775557527,-1.1685927969114822,-0.26333813344928464,2.7535205256305275,2,left
3.748,0.6095658554349519,0.6481988370171422,-0.04492120467324863,-7.485965627726527,8.066193690625967,-2.3631803313874293,-1.1664648422906547,-0.28055614106213117,2.732000272664177,2,left
3.752,0.622076082724522,0.6257716754812553,-0.04378051572557138,-7.4770663819201735,8.078436874509881,-2.3667159691454938,-1.163748976034455,-0.2973862669943601,2.7089384263190603,2,left
3.753,0.6343019485243853,0.6034539640711832,-0.04261323987858849,-7.464460866439831,8.085743348840687,-2.36989901408006,-1.1604362981325325,-0.3138049850473115,2.6843253548834674,2,left
3.7569999999999997,0.6462320155240868,0.5812673751945049,-0.04141936554823615,-7.44811201630204,8.088021525267315,-2.372725845952587,-1.156518287903598,-0.32978904200713544,2.658152632268382,2,left
3.758,0.6578554790446594,0.5592333577080295,-0.040198938299500116,-7.427986531862269,8.085184483996963,-2.3751931091825282,-1.1519868202174603,-0.3453155047742709,2.630413059895794,2,left
3.762,0.6691621784734161,0.5373731053873567,-0.038952060451769466,-7.404054992813605,8.077150180942581,-2.377297718287671,-1.146834181580267,-0.36036180858163097,2.601100686872435,2,left
3.762,0.680142605613928,0.5157075266027207,-0.0376788900488478,-7.376291966187402,8.063841647294336,-2.3790368606262766,-1.1410530860716805,-0.3749058063473625,2.5702108283737375,2,left
3.767,0.6907879100333367,0.4942572152119791,-0.03637963924813654,-7.344676108298016,8.045187181506737,-2.380407996448105,-1.1346366911209553,-0.3889258192067348,2.537740082158316,2,left
3.7680000000000002,0.7010899015044415,0.47304242267548424,-0.03505457218781868,-7.309190260562823,8.021120533678191,-2.3814088562603652,-1.1275786131070953,-0.4024006882663338,2.5036863431287553,2,left
3.7710000000000004,0.7110410496590959,0.4520830313946181,-0.033704002386976434,-7.269821539117721,7.991581082284559,-2.3820374355135794,-1.119872942766473,-0.41530982762229623,2.468048815849957,2,left
3.772,0.7206344810002184,0.43139852927408756,-0.03232828972488287,-7.226561418137232,7.956514003213026,-2.382291986611295,-1.1115142603894619,-0.4276332786828137,2.4308280249317584,2,left
3.7760000000000002,0.7298639734603094,0.41100798550612233,-0.030927837036912473,-7.179405806757271,7.915870431027002,-2.3821710082465146,-1.1024976507857918,-0.4393517658335726,2.3920258231780007,2,left
3.7769999999999997,0.7387239487337105,0.3909300275725591,-0.02950308636058187,-7.128355119487446,7.869607612377066,-2.381673232066649,-1.092818717996484,-0.4504467534831707,2.3516453973996647,2,left
3.781,0.7472094626360342,0.37118281945928255,-0.02805451487091001,-7.073414339988603,7.817689051457112,-2.380797606667721,-1.082473599728338,-0.4609005045238713,2.3096912717851574,2,left
3.782,0.7553161937532877,0.35178404107702227,-0.026582630561290687,-7.014593078080164,7.760084647388868,-2.379543278917464,-1.0714589814850617,-0.47069614024131917,2.2661693087162855,2,left
3.786,0.7630404306387658,0.33275086888208516,-0.025087967749377695,-6.9519056198306,7.69677082340178,-2.377909572605895,-1.0597721103672304,-0.47981770170505283,2.2210867069139226,2,left
3.786,0.7703790578021525,0.3140999576891034,-0.02357108250772098,-6.885370970573247,7.627730647659073,-2.375895964420826,-1.0474108085113483,-0.4882502126698083,2.1744519967928606,2,left
3.792,0.7773295407132041,0.29584742366497413,-0.022032548128498333,-6.815012890678501,7.552953945564425,-2.3735020572447345,-1.0343734861347051,-0.49597974390753785,2.1262750329657236,2,left
3.793,0.7838899100087534,0.27800882848777825,-0.020472950726001964,-6.740859923902361,7.472437403367369,-2.3707275507682724,-1.020659154142483,-0.5029934783472323,2.076566984155775,2,left
3.7939999999999996,0.7900587450496531,0.2605991646474365,-0.01889288506175344,-6.662945418120223,7.386184662869055,-2.3675722094146443,-1.00626743623669,-0.5092797754240262,2.0253403213579912,2,left
3.7960000000000003,0.79583515694023,0.24363284186217973,-0.017292950659139533,-6.581307538243869,7.2942064070135375,-2.3640358275679723,-0.9911985804562478,-0.5148282324961475,1.9726088054077864,2,left
3.7969999999999997,0.8012187711058738,0.22712367458991461,-0.015673748266703057,-6.495989271108721,7.196520436133304,-2.3601181920976786,-0.9754534700839232,-0.5196297417271214,1.9183874747879284,2,left
3.802,0.8062097095114829,0.21108487062076114,-0.014035876722386136,-6.407038422116571,7.093151734600655,-2.355819042269539,-0.9590336338687951,-0.5236765418021803,1.8626926339158458,2,left
3.803,0.8108085725841658,0.1955290207395865,-0.012379930255619521,-6.314507603453293,6.984132527616992,-2.351138027631566,-0.9419412555193115,-0.5269622643866178,1.8055418418247668,2,left
3.804,0.8150164208855295,0.18046808944568618,-0.010706496245050962,-6.218454213771328,6.869502327849983,-2.3460746653592635,-0.9241791824217058,-0.5294819753398645,1.7469539010829547,2,left
3.805,0.8188347565735743,0.16591340671778157,-0.009016153433192108,-6.11894040926126,6.749307971609193,-2.3406282990422973,-0.9057509335366088,-0.5312322106968969,1.6869488467910834,2,left
3.806,0.8222655047054761,0.15187566082029824,-0.007309470583725675,-6.016033065981566,6.623603644237616,-2.3347980603949288,-0.8866607064247602,-0.532211007426407,1.6255479354936182,2,left
3.81,0.82531099445427,0.13836489215698222,-0.005587005549577751,-5.909803733224676,6.492450894386167,-2.328582834473988,-0.866913383350801,-0.5324179289729655,1.5627736338359324,2,left
3.812,0.8279739403334707,0.125390488184778,-0.003849304702081488,-5.8003285776425795,6.355918636825322,-2.3219812284884487,-0.8465145364122177,-0.5318540855881994,1.4986496067948307,2,left
3.815,0.8302574235371223,0.11296117940417025,-0.0020969026589790656,-5.687688317836518,6.214083143432941,-2.3149915441838633,-0.8254704316386069,-0.5305221494537982,1.4332007053061355,2,left
3.8160000000000003,0.8321648735078973,0.10108503644220099,-0.00033032224498208515,-5.571968149105758,6.067028021981622,-2.3076117537837972,-0.8037880320045424,-0.5284263645969435,1.3664529531090601,2,left
3.82,0.8337000498436309,0.08976946823988878,0.0014499253774339059,-5.453257658041123,5.91484418233357,-2.2998394794692913,-0.7814749992974604,-0.5255725515965483,1.2984335326232024,2,left
3.82,0.8348670246447087,0.07902122134750227,0.003243340459837887,-5.331650726639873,5.757629789635662,-2.2916719763762705,-0.7585396947801212,-0.5219681070764892,1.2291707696702028,2,left
3.825,0.8356701653934079,0.06884638032170413,0.005049434342039354,-5.2072454256097185,5.5954902040924965,-2.283106119089695,-0.7349911785853772,-0.5176219979798236,1.1586941168483778,2,left
3.826,0.8361141184433375,0.05925036920938142,0.006867729072870646,-5.080143896521112,5.428537906880425,-2.274138391612119,-0.7108392077791669,-0.5125447506158077,1.0870341353649844,2,left
3.83,0.8362037931826737,0.05023795409465988,0.0086977569849464,-4.950452222458714,5.256892411751174,-2.2647648807831833,-0.6860942330258647,-0.5067484344693839,1.0142224751272078,2,left
3.8310000000000004,0.835944346917952,0.04181324668012686,0.01053906021457397,-4.818280286814856,5.0806801618595046,-2.2549812731254377,-0.6607673937883621,-0.5002466407606704,0.9402918528894776,2,left
3.8360000000000003,0.8353411705046442,0.03397970887179762,0.012391190143830633,-4.683741619860097,4.900034411335569,-2.24478285509071,-0.6348705119935181,-0.49305445573989753,0.8652760282513202,2,left
3.8369999999999997,0.8343998747272579,0.02674015833773763,0.014253706731672377,-4.54695323271855,4.715095091109136,-2.234164516680091,-0.6084160840919177,-0.4851884287011657,0.7892097772966489,2,left
3.839,0.8331262774080883,0.02009677500999716,0.016126177697878823,-4.408035438368524,4.526008658479766,-2.2231207584094212,-0.5814172714392087,-0.4766665346963811,0.7121288636621819,2,left
3.84,0.8315263912031655,0.014051108498585076,0.018008177529998927,-4.267111659282242,4.33292792991428,-2.211645701590971,-0.5538878889246457,-0.4675081319287437,0.6340700068195636,2,left
3.846,0.8296064120290094,0.008604086385090682,0.01989928629875333,-4.124308221311934,4.1360118965405785,-2.1997331019007893,-0.5258423917708746,-0.4577339138032282,0.5550708473527465,2,left
3.847,0.8273727080565454,0.0037560233621584823,0.021799088287083095,-3.9797541334234956,3.9354255217949143,-2.1873763661999956,-0.4972958604274281,-0.4473658556096195,0.47516990900927986,2,left
3.8489999999999998,0.8248318092078885,-0.0004933688155303049,0.02370717045536106,-3.83358085287315,3.731339520668323,-2.174568572577029,-0.46826398347887693,-0.43642715581183705,0.3944065573013458,2,left
3.85,0.8219903970935512,-0.0041449706013118644,0.02562312077663319,-3.6859220354171627,3.523930119986856,-2.161302493576621,-0.4387630384871023,-0.42494217191551725,0.31282095442968044,2,left
3.855,0.8188552953287717,-0.007200243176697567,0.027546526482438848,-3.5369132701396135,3.3133787991497687,-2.1475706225799795,-0.40880987068571817,-0.41293635088411795,0.2304540103009321,2,left
3.8560000000000003,0.8154334601679978,-0.009661216247804366,0.02947697226306847,-3.3866917984786045,3.0998720107397397,-2.1333652032993737,-0.3784218694432766,-0.40043615407217487,0.14734732940652995,2,left
3.86,0.811731971398338,-0.011530475143071808,0.03141403846517914,-3.23539621702701,2.883600880409706,-2.1186782623489933,-0.34761694247295816,-0.38746897677589015,0.06354315348291895,2,left
3.861,0.807758023438768,-0.012811147236550765,0.03335729932359187,-3.083166163679999,2.664760885441832,-2.103501644852622,-0.3164134880772263,-0.37406306316534066,-0.02091569935852757,2,left
3.863,0.8035189166006185,-0.013506887719509073,0.03530632125423521,-2.9301419866980885,2.4435515113656923,-2.087827053047294,-0.2848303662764061,-0.36024741855924985,-0.10598589695846813,2,left
3.864,0.7990220484692283,-0.013621864743043366,0.03726066122565789,-2.7764643962513906,2.220175886014792,-2.071646087840726,-0.25288686998102583,-0.3460517216675304,-0.1916236540512789,2,left
3.865,0.7942749053626448,-0.013160743958594803,0.03921986521982714,-2.622274098008041,1.994840390393191,-2.054950293278911,-0.22060269705454147,-0.33150623875994367,-0.27778478975189774,2,left
3.8710000000000004,0.789285053816445,-0.01212867248983279,0.041183466787792715,-2.467711409036729,1.7677542464324216,-2.0377312038093907,-0.18799792355024433,-0.31664174051997096,-0.3644247809072756,2,left
3.872,0.7840601320420296,-0.010531262372964124,0.043150985702288404,-2.3129158598374535,1.539129085288818,-2.019980393877093,-0.15509297809304304,-0.30148942167630083,-0.45149881140421455,2,left
3.872,0.7786078413104244,-0.00837457350176437,0.0451219267093972,-2.158025792696072,1.3091785062628387,-2.0016895287632352,-0.1219086173134198,-0.28608082337021273,-0.5389618176810143,2,left
3.8739999999999997,0.7729359372194835,-0.005665096115934551,0.04709577838240629,-2.00317797010324,1.0781176399930703,-1.9828504152291069,-0.08846590223993976,-0.27044775821622313,-0.626768530691724,2,left
3.8739999999999997,0.7670522208065456,-0.002409732883570231,0.04907201207700347,-1.8485072034315728,0.8461627259970407,-1.9634550508722017,-0.0547861755558312,-0.2546222380125333,-0.7148735145730442,2,left
3.8819999999999997,0.760964529476919,0.0013842193546138653,0.05105008097772962,-1.6941460056816613,0.6135307081901007,-1.9434956717255236,-0.020891039624351987,-0.23863640405708256,-0.8032312022650371,2,left
3.8819999999999997,0.7546807277371659,0.00570908809990741,0.05302941921794376,-1.5402242685616032,0.38043884843429243,-1.9229647979764999,0.013197664813083598,-0.22252246002436546,-0.8917959283377951,2,left
3.883,0.7482086977479735,0.01055684388614368,0.05500944105463915,-1.3868689634560127,0.14710435745132475,-1.9018552777497615,0.047457879362724144,-0.20631260735762114,-0.9805219592770682,2,left
3.884,0.741556329737063,0.015919119066298927,0.05698954008308565,-1.2342038658413492,-0.0862559575681632,-1.8801603288964406,0.08186734822557111,-0.19003898313053974,-1.0693635214825845,2,left
3.888,0.7347315123343406,0.02178722662245407,0.058969088479109415,-1.0823493027056592,-0.31942602932819486,-1.857873578730988,0.11640363806361975,-0.17373360033226504,-1.1582748272333836,2,left
3.888,0.7277421229091315,0.028152178934385954,0.060947436255700566,-0.9314219225324545,-0.552190851433746,-1.8349891016548536,0.1510441575836236,-0.15742829052919544,-1.2472100988749537,2,left
3.8939999999999997,0.7205960180025955,0.03500470644871264,0.06292391051568909,-0.7815344874104131,-0.7843367847096483,-1.8115014546046966,0.1857661769371834,-0.14115464885690265,-1.3361235914832912,2,left
3.895,0.7133010239561052,0.04233527619574913,0.06489781467646827,-0.6327956868329212,-1.0156518495014786,-1.787405710261081,0.22054684703632504,-0.12494398129539568,-1.4249696142612005,2,left
3.898,0.70586492783813,0.05013411010496385,0.06686842763978366,-0.48530997275412313,-1.245926004626646,-1.7626974879519122,0.25536321888403135,-0.10882725418095708,-1.5137025509222277,2,left
3.898,0.6982954687687449,0.05839120307207134,0.06883500288012523,-0.3391774154711267,-1.4749514136421134,-1.737372982183123,0.2901922630194245,-0.09283504590786945,-1.602276879317549,2,left
3.903,0.690600329732034,0.0670963407325823,0.07079676742809418,-0.19449357990530255,-1.7025226990928055,-1.7114289887273846,0.3250108891774663,-0.07699750077352964,-1.6906471905609473,2,left
3.904,0.6827871299507552,0.07623911689953017,0.07275292073033146,-0.05134942185920489,-1.9284371854017772,-1.6848629281998508,0.3597959662631442,-0.06134428492071745,-1.7787682079066904,2,left
3.909,0.6748634178745826,0.08580895062705277,0.07470263337512383,0.09016879617047985,-2.152495131059622,-1.6576728670481806,0.39452434274014814,-0.045904544331142674,-1.8665948056346595,2,left
3.911,0.6668366648072386,0.09579510286538476,0.07664504568079752,0.22997957003939828,-2.3744999507664404,-1.6298575358822986,0.4291728675340125,-0.030706864824837032,-1.9540820281964932,2,left
3.9139999999999997,0.6587142591744471,0.1061866926754286,0.07857926615051554,0.36800620027243913,-2.594258428174929,-1.6014163450675796,0.463718411549603,-0.015779234020486407,-2.0411851098757983,2,left
3.9139999999999997,0.6505035014164096,0.11697271297140505,0.08050436980149205,0.5041768200574541,-2.811580919877824,-1.5723493975033354,0.49813788990266217,-0.0011490052124106225,-2.1278594952146377,2,left
3.918,0.6422115994751773,0.12814204575783733,0.0824193963801591,0.6384244053172651,-3.0262815512770507,-1.5426574985067065,0.5324082849649008,0.013157136879407798,-2.2140608604575225,2,left
3.9189999999999996,0.6338456648387406,0.13968347682287863,0.08432334848040694,0.7706867672563156,-3.2381784049654634,-1.5123421627202454,0.5665066703218252,0.027113208529070093,-2.2997451362630357,2,left
3.923,0.625412709099563,0.15158570984425754,0.08621518959162612,0.9009065277730051,-3.4470937022451027,-1.4814056179597006,0.6004102357421296,0.040693957636254226,-2.3848685319319864,2,left
3.924,0.6169196409836641,0.16383737985758676,0.08809384211543295,1.0290310781232284,-3.652853978398342,-1.4498508059167015,0.6340963132570524,0.053874892610496106,-2.469387561399631,2,left
3.928,0.6083732638058451,0.17642706603271374,0.08995818540077628,1.1550125212149536,-3.855290252320271,-1.417681379629261,0.6675424043927981,0.06663230954800499,-2.553259071137868,2,left
3.929,0.5997802733082509,0.1893433037085449,0.09180705385211241,1.2788075979078082,-4.0542381911120975,-1.384901697631234,0.7007262083245325,0.07894331773822362,-2.6364402696109437,2,left
3.929,0.5911472558426688,0.2025745956512318,0.09363923516468113,1.40037759768564,-4.249538270226302,-1.3515168146900876,0.7336256502265787,0.09078586353357099,-2.718888757025112,2,left
3.932,0.5824806868581643,0.21610942251300128,0.09545346874408038,1.519688254063872,-4.441035929744728,-1.3175324690405799,0.7662189088187203,0.1021387526131317,-2.8005625536100944,2,left
3.9330000000000003,0.5737869296538793,0.2299362524701829,0.09724844438091479,1.6367096250871938,-4.6285817273608,-1.282955066020191,0.7984844423817975,0.11298167067123428,-2.8814201251689306,2,left
3.937,0.5650722343561481,0.24404355001805472,0.09902280126549749,1.7514159594731067,-4.812031488397743,-1.247791658105969,0.83040101300822,0.12329520256314291,-2.9614204055320923,2,left
3.9389999999999996,0.5563427370825391,0.25841978390901826,0.10077512742733467,1.8637855499820872,-4.991246452039657,-1.2120499218285326,0.8619477091261794,0.13306084994014056,-3.040522816050238,2,left
3.94,0.5476044592614824,0.2730534342371674,0.10250395966870286,1.9738005774456997,-5.166093410881488,-1.1757381328972945,0.8931039663902012,0.1422610474051107,-3.118687282357811,2,left
3.9419999999999997,0.538863307082116,0.28793299868652733,0.10420778404469656,2.0814469499090813,-5.336444839748084,-1.1388651413470825,0.9238495870296829,0.1508791772182057,-3.1958742486371956,2,left
3.943,0.530125071053751,0.303046997968264,0.10588503693200123,2.1867141403057837,-5.502179010864462,-1.1014403480368813,0.954164757745997,0.15889958258061834,-3.2720446896106083,2,left
3.951,0.5213954256576333,0.31838398047946426,0.10753410671859202,2.2895950242190715,-5.663180094506368,-1.0634736829697538,0.9840300662476197,0.16630757952285005,-3.3471601204841672,2,left
3.952,0.5126799290755297,0.3339325262278596,0.1091533361302154,2.390085718245239,-5.819338245391382,-1.024975585423595,1.0134265165115672,0.17308946742220016,-3.421182605065802,2,left
3.9530000000000003,0.5039840229801305,0.349681250081202,0.11074102519115188,2.4881854192613333,-5.970549675286471,-0.9859569857852247,1.0423355428581842,0.17923253817248458,-3.4940747622757304,2,left
3.9539999999999997,0.49531303237186924,0.3656188044128998,0.11229543480226852,2.5838962448928315,-6.116716712294223,-0.9464292889787791,1.0707390229250382,0.18472508402723584,-3.565799771265223,2,left
3.957,0.4866721654472697,0.38173388122553464,0.1138147909102172,2.677223075469943,-6.2577478472661605,-0.906404359377824,1.09861928962433,0.18955640413583968,-3.636321375356197,2,left
3.958,0.47806651348701773,0.3980152138406742,0.11529728923692947,2.7681733977543654,-6.3935577677773265,-0.8658945070891303,1.1259591421668274,0.19371680979023032,-3.7056038850109845,2,left
3.9619999999999997,0.46950105075775445,0.4144515782463596,0.11674110053618261,2.856757150711448,-6.524067380081814,-0.824912475494579,1.1527418562338807,0.19719762839789998,-3.7736121800382305,2,left
3.963,0.46098063442996173,0.431031794192073,0.11814437634142022,2.942986573595891,-6.649203819454219,-0.783471429936247,1.1789511933775754,0.19999120619508093,-3.840311711237433,2,left
3.967,0.4525100045248841,0.4477447261142859,0.11950525516463549,3.0268760566122643,-6.768900449306997,-0.7415849474283207,1.204571409727524,0.20209090971203295,-3.9056685016810864,2,left
3.968,0.4440937839141841,0.4645792839644166,0.12082186909893124,3.1084419944048665,-6.8830968494584726,-0.6992670072781411,1.2295872640812062,0.20349112600041924,-3.9696491478297173,2,left
3.972,0.4357364784047183,0.48152442399789264,0.1220923507665756,3.187702642624658,-6.991738793910843,-0.6565319824973563,1.2539840254531107,0.20418726163078196,-4.032220820671356,2,left
3.9739999999999998,0.42744247694614756,0.49856914957075465,0.12331484054172308,3.2646779778142974,-7.094778218481916,-0.6133946318828876,1.2777474801562503,0.20417574046613687,-4.093351267073118,2,left
3.9760000000000004,0.41921605200026074,0.5157025119793865,0.124487493966838,3.33938956084564,-7.192173178618506,-0.5698700926461655,1.300863938487879,0.20345400021569976,-4.153008811528624,2,left
3.977,0.41106136010873584,0.5329136113693594,0.12560848927716453,3.411860404137432,-7.283887797703481,-0.5259738734679072,1.3233202410894682,0.2020204877707366,-4.211162358480951,2,left
3.9810000000000003,0.4029824426930837,0.5501915977317802,0.12667603494731478,3.4821148428743816,-7.369892206152403,-0.48172184785454236,1.345103765049177,0.19987465332249918,-4.267781395396643,2,left
3.983,0.3949832271180242,0.5675256720007514,0.12768837717507517,3.5501784104422787,-7.45016247157943,-0.43713024767128744,1.3662024298131978,0.19701694326016905,-4.3228359967621035,2,left
3.986,0.38706752804656475,0.5849050872630832,0.12864380721811433,3.6160777182874115,-7.524680520295937,-0.39221565672580055,1.3866047029704585,0.19344879184469096,-4.376296829169367,2,left
3.987,0.37923904910978185,0.6023191500904476,0.1295406685003704,3.6798403404021456,-7.593434050388825,-0.346995004275328,1.4062996059732353,0.18917261165233198,-4.428135157653822,2,left
3.991,0.37150138490524554,0.6197572220054707,0.13037736340824704,3.7414947026322625,-7.656416436609113,-0.3014855583292768,1.4252767198542604,0.18419178277975995,-4.478322853441999,2,left
3.9930000000000003,0.3638580233250761,0.6372087210974364,0.13115235970276504,3.801069976995423,-7.713626627284824,-0.2557049186182242,1.443526190998913,0.17851064080039616,-4.526832403262921,2,left
3.9960000000000004,0.35631234820021995,0.6546631238090059,0.1318641964821857,3.8585959811939907,-7.765069033455689,-0.20967100909949238,1.461038737012218,0.17213446346991876,-4.573636920331378,2,left
3.997,0.3488676422356307,0.6721099669214435,0.13251148964163614,3.914103083499396,-7.810753410410581,-0.16340206986859185,1.477805652634148,0.16506945622753738,-4.618710156904217,2,left
3.998,0.34152709020363325,0.6895388497715823,0.13309293679268844,3.967622113179244,-7.850694731792042,-0.11691664834505476,1.4938188155031529,0.15732273662902949,-4.662026517941344,2,left
4.001,0.3342937823574834,0.7069394367369987,0.13360732162244646,4.019184276632496,-7.8849130564157095,-0.07023358960045543,1.5090706914815548,0.14890231789630132,-4.703561075195741,2,left
4.003,0.3271707180213918,0.7243014600254262,0.13405351768364213,4.068821079392238,-7.913433387935905,-0.023372025695738975,1.5235543393384776,0.13981709171549292,-4.7432895812543325,2,left
4.006,0.32016080930906554,0.7416147228030149,0.1344304916150293,4.116564254076821,-7.936285527629912,0.023648636057899863,1.5372634147352948,0.13007681032230947,-4.781188483411059,2,left
4.007,0.3132668849234404,0.7588691026965605,0.13473730579689483,4.162445693999285,-7.953503921345709,0.0708087257622072,1.5501921735405666,0.1196920678605624,-4.817234937450917,2,left
4.007,0.30649169399473003,0.7760545557061276,0.13497312044992857,4.206497391482083,-7.965127503061179,0.11808832393759021,1.562335474516061,0.10867428098784138,-4.851406821459043,2,left
4.011,0.2998379099181685,0.7931611205625715,0.13513719518802603,4.248751379553453,-7.971199538275237,0.16546727405157752,1.5736887814132234,0.09703566870035928,-4.883682749763656,2,left
4.012,0.2933081341550887,0.8101789235574275,0.13522889003806363,4.289239676061652,-7.971767469646452,0.21292519398933696,1.5842481645172357,0.0847892313471615,-4.914042087116385,2,left
4.018,0.2869048999632952,0.8270981838628036,0.13524766594112492,4.327994229895408,-7.966882765859053,0.2604414863155811,1.5940103016735254,0.07194872880207526,-4.942464963208075,2,left
4.019,0.2806306760265719,0.84390921934917,0.13519308474835018,4.365046869358998,-7.956600773891624,0.3079953474161828,1.6029724788293431,0.05852865775999206,-4.968932287612775,2,left
4.02,0.27448786995735763,0.860602452900225,0.13506480872101745,4.400429252818339,-7.940980574690197,0.35556577565579006,1.6111325901207287,0.044544228122332274,-4.993425765247052,2,left
4.021,0.26847883165027425,0.8771684192167656,0.13486259954026728,4.434172821729483,-7.920084842231862,0.40313157868789756,1.6184891375329078,0.03001133843483553,-5.015927912426261,2,left
4.025,0.2626058564686167,0.8935977720957382,0.13458631682772312,4.466308756156037,-7.893979705949456,0.45067138005393853,1.625041230159858,0.014946550339157583,-5.03642207359376,2,left
4.026,0.25687118825195937,0.9098812921654481,0.1342359161743849,4.49686793287721,-7.862734616472615,0.49816362520800894,1.6307885830864846,-0.0006329380018656865,-5.054892438793392,2,left
4.03,0.251277022138833,0.9260098950527332,0.1338114466723131,4.525880886183496,-7.82642221462529,0.5455865871038217,1.6357315159145362,-0.016709319547000636,-5.071324061949841,2,left
4.03,0.2458255072018899,0.9419746399537292,0.13331304794213775,4.553377771452378,-7.7851182036048945,0.5929183714804135,1.6398709509510834,-0.03326420713068466,-5.085702880015715,2,left
4.0360000000000005,0.240518748894608,0.9577667385774014,0.13274094664964925,4.579388331591903,-7.738901224253469,0.6401369219829901,1.6432084110760699,-0.05027866337309876,-5.098015733038357,2,left
4.037,0.23535881130974073,0.9733775644296148,0.13209545250790883,4.603941866435543,-7.687852733316714,0.6872200252550974,1.6457460173031417,-0.06773323179238751,-5.108250385193587,2,left
4.039,0.23034771925005035,0.9887986624032908,0.13137695376820985,4.627067205167395,-7.632056884572415,0.7341453161380399,1.6474864860456444,-0.08560796916654333,-5.116395546827632,2,left
4.04,0.22548746011058776,1.0040217586351816,0.13058591221328408,4.648792681852513,-7.571600412695656,0.7808902831131477,1.648433126097381,-0.10388247919379122,-5.122440897542602,2,left
4.045,0.22077998556964412,1.019038770581641,0.1297228576788054,4.669146114142951,-7.506572519714354,0.8274322741220991,1.6485898353354334,-0.12253594750157337,-5.126377110354888,2,left
4.046,0.21622721308387582,1.033841817256126,0.1287883821435725,4.688154785226028,-7.437064763895001,0.8737485029000566,1.647961097150043,-0.14154717805543898,-5.1281958769498415,2,left
4.0489999999999995,0.21183102718183708,1.0484232295617077,0.12778313344338776,4.70584542907729,-7.363170950885172,0.9198160559558498,1.646551976604287,-0.1608946310202923,-5.127889934050115,2,left
4.05,0.20759328054812787,1.0627755606427525,0.12670780867920267,4.722244219076671,-7.284987026926151,0.9656119003328621,1.6443681163240083,-0.18055646212753965,-5.125453090908916,2,left
4.055,0.20351579488804986,1.076891596171144,0.12556314740843275,4.7373767600425465,-7.202610973936215,1.0111128922836243,1.6414157321162004,-0.20051056360270345,-5.120880257933415,2,left
4.0569999999999995,0.1996003615621242,1.0907643644751364,0.12434992472834568,4.7512680837345425,-7.116142706252487,1.0562957869904053,1.637701608311817,-0.2207346067090359,-5.11416747643739,2,left
4.059,0.19584874198214866,1.1043871464138322,0.12306894437817473,4.763942647872271,-7.025683968807001,1.1011372494633105,1.6332330928267411,-0.24120608596356846,-5.105311949516119,2,left
4.06,0.19226266776388853,1.1177534848969646,0.12172103199894312,4.775424338713508,-6.931338236500521,1.1456138667465476,1.6280180919324483,-0.2619023650828712,-5.09431207403036,2,left
4.064,0.18884384063250126,1.1308571939498724,0.12030702869237765,4.78573647723178,-6.83321061452594,1.1897021615626129,1.622065064726263,-0.28280072463336164,-5.081167473647432,2,left
4.065,0.1855939320742159,1.1436923672332695,0.11882778500421955,4.794901828929823,-6.731407739381625,1.2333786075231583,1.615383017291702,-0.30387841094566076,-5.065879032717759,2,left
4.065,0.18251458272472856,1.1562533859451616,0.1172841554226241,4.80294261732194,-6.626037680303903,1.276619646034264,1.607981496542219,-0.3251126851042432,-5.048448930464774,2,left
4.069,0.17960740148432958,1.1685349260393216,0.11567699344864807,4.809880541114938,-6.517209840837016,1.3194017050227163,1.5998705837423166,-0.3464808704081587,-5.028880674796441,2,left
4.07,0.1768739643502278,1.1805319646785473,0.11400714728181131,4.81573679511402,-6.405034860248327,1.361701219608713,1.5910608876951278,-0.367960397115168,-5.007179135203958,2,left
4.074,0.17431581295269613,1.1922397858174614,0.11227545616406362,4.820532094876772,-6.289624514486319,1.4034946548491642,1.5815635375785384,-0.3895288440309814,-4.983350574501404,2,left
4.075,0.17193445277068317,1.2036539847991392,0.1104827474246634,4.824286705135232,-6.171091616368985,1.4447585306744384,1.5713901754071273,-0.4111639769217271,-4.957402679317414,2,left
4.0760000000000005,0.16973135098785525,1.214770471854552,0.108629834263537,4.8270204719381615,-6.049549914805549,1.485469449071825,1.5605529480946378,-0.43284378381130395,-4.929344589276553,2,left
4.079,0.16770793393943065,1.2255854744111432,0.10671751430709822,4.828752858138942,-5.925113993469818,1.525604123226546,1.549064499089725,-0.454546507225533,-4.89918692480196,2,left
4.08,0.16586558409616564,1.236095538142562,0.10474656897102322,4.829502981268881,-5.7978991704589715,1.5651394077158673,1.536937959555779,-0.4762506734452121,-4.866941813464724,2,left
4.085,0.16420563652495201,1.2462975267106335,0.10271776367135989,4.82928965250913,-5.668021401087613,1.6040523285092914,1.524186939063717,-0.4979351188303056,-4.832622914799432,2,left
4.086,0.1627293747471595,1.2561886201550259,0.10063184893812921,4.828131415795189,-5.53559718533391,1.6423201118671371,1.5108255157647696,-0.5195790132775708,-4.796245443499269,2,left
4.091,0.1614380258923124,1.2657663118899711,0.09848956249368034,4.8260465866678075,-5.4007434803222445,1.6799202118418544,1.4968682260084567,-0.5411618808739255,-4.757826190898058,2,left
4.093,0.1603327550258049,1.2750284042850653,0.09629163235114882,4.823053290804939,-5.2635776175944615,1.7168303364256166,1.4823300533691515,-0.5626636178078036,-4.717383544640709,2,left
4.093999999999999,0.1594146585173371,1.2839730028360203,0.09403878097065224,4.819169502231494,-5.124217224789535,1.7530284724540763,1.4672264170428784,-0.5840645076006352,-4.6749375064375895,2,left
4.093999999999999,0.15868475631393525,1.2925985089634988,0.0917317304951652,4.814413081200919,-4.98278015134452,1.7884929093742499,1.4515731595742867,-0.605345233720406,-4.630509707792489,2,left
4.099,0.15814398299506702,1.300903611510412,0.08937120908073179,4.8088018117400475,-4.839384397822986,1.8232022619825157,1.4353865338720613,-0.6264868896390254,-4.58412342358805,2,left
4.1,0.15779317752295977,1.3088872770397944,0.0869579583289363,4.802353438846116,-4.694148048470866,1.8571354922366696,1.4186831894694223,-0.6474709863949384,-4.53580358340678,2,left
4.103,0.15763307165774848,1.316548739068206,0.08449274180378884,4.7950857053223,-4.5471892065936395,1.8902719302438686,1.4014801579847787,-0.6682794577220753,-4.485576780460042,2,left
4.104,0.15766427707802347,1.3238874864068941,0.08197635455337757,4.787016388235703,-4.398625932343178,1.9225912945241288,1.3837948377360705,-0.6888946628058352,-4.433471277991846,2,left
4.109,0.15788727132384964,1.3309032508268934,0.07940963346387825,4.778163334979303,-4.248576182497279,1.9540737116468152,1.365644977460856,-0.7092993867263433,-4.379517013018672,2,left
4.11,0.15830238275195138,1.3375959943129385,0.076793468178284,4.768544498917029,-4.097157751809977,1.9846997353352709,1.3470486590927564,-0.7294768386487228,-4.323745597261106,2,left
4.114,0.15890977475223758,1.3439658962159087,0.07412881223820149,4.758177974588803,-3.944488215506082,2.0144503651323897,1.3280242795434962,-0.7494106478195673,-4.266190315117674,2,left
4.114,0.1597094295169032,1.3500133406399135,0.07141669405209113,4.7470820324501855,-3.7906848724891735,2.043307064717528,1.308590531438434,-0.7690848574281923,-4.206886118525928,2,left
4.118,0.16070113168256853,1.3557389043942978,0.0686582272483004,4.735275153118995,-3.635864688828297,2.0712517799626973,1.2887663827522042,-0.788483916390597,-4.1458696185506545,2,left
4.119,0.16188445218759748,1.3611433457991875,0.06585461994610298,4.7227760610991965,-3.48014424108505,2.0982669568134615,1.2685710552898557,-0.8075926691133648,-4.08317907353394,2,left
4.123,0.16325873269603652,1.3662275945649007,0.06300718249528561,4.709603757950192,-3.323639659039469,2.1243355590774002,1.248024001957703,-0.826396343293991,-4.018854373636787,2,left
4.124,0.1648230709249056,1.3709927428875825,0.060117333306815256,4.695777554867656,-3.166466567370206,2.1494410862003757,1.2271448827669784,-0.8448805358133292,-3.9529370215971107,2,left
4.127,0.16657630716608274,1.375440037832489,0.05718660251566933,4.68131710464004,-3.0087400258419117,2.173567591108175,1.2059535395123158,-0.8630311967750217,-3.8854701095240824,2,left
4.129,0.16851701222067902,1.3795708750218578,0.054216633360149084,4.666242432942948,-2.8505744675504676,2.1966996981883806,1.1844699690660758,-0.8808346117458996,-3.816498291544136,2,left
4.133,0.17064347687303474,1.3833867936064426,0.05120918130835708,4.650573968931715,-2.6920836347748094,2.2188226214845534,1.162714295228582,-0.8982773822504238,-3.746067752109358,2,left
4.1339999999999995,0.1729537029407364,1.3868894724749368,0.04816611109288302,4.634332575090683,-2.533380511982473,2.2399221831720104,1.1407067391239538,-0.9153464046236468,-3.674226169855333,2,left
4.135,0.17544539586885852,1.3900807276431177,0.04508939190053763,4.617539576295913,-2.374577255534747,2.259984832381611,1.118467588383009,-0.9320288475880267,-3.6010226772950977,2,left
4.138999999999999,0.17811595879946632,1.392962510760662,0.04198109099757704,4.600216788046364,-2.215785119636368,2.2789976644350785,1.0960171658086457,-0.948312129389706,-3.526507817358703,2,left
4.14,0.18096248801965975,1.3955369086613258,0.03884336610795509,4.582386543816937,-2.057114378074091,2.2969484405524403,1.0733757984710048,-0.9641838955906468,-3.450733498187762,2,left
4.1419999999999995,0.18398176965103305,1.3978061438486828,0.035678456949429484,4.564071721485188,-1.898674241288176,2.313825608089191,1.0505637879264411,-0.9796319983500539,-3.373752947186528,2,left
4.143,0.18717027740304518,1.3997725757658754,0.032488676421114714,4.545295768781983,-1.7405727683208583,2.3296183213577772,1.0276013817989893,-0.9946444775560499,-3.2956206646002357,2,left
4.144,0.19052417119888784,1.4014387026667314,0.029276401949280887,4.526082727672593,-1.5829167734264906,2.3443164630472646,1.0045087467098552,-1.0092095439055406,-3.2163923764839426,2,left
4.147,0.19403929650262192,1.4028071639042679,0.02604406741885929,4.506457257361645,-1.4258117283300398,2.357910666063616,0.9813059424894428,-1.023315563976625,-3.1361249868408256,2,left
4.148,0.1977111842156192,1.4038807424790387,0.022794155983694595,4.486444655232999,-1.26936166328401,2.370392335270829,0.9580128976059915,-1.0369510473366481,-3.05487652870561,2,left
4.1530000000000005,0.20153505103938713,1.404662367714746,0.01952919391636423,4.466070874822648,-1.1136690712764805,2.3817536684216627,0.9346493857445344,-1.0501046357277173,-2.97270611394565,2,left
4.154,0.20550580020566525,1.4051551179317943,0.016251745554806463,4.4453625401332815,-0.9588348185431865,2.3919876757519027,0.9112350034695592,-1.062765094370175,-2.889673881549189,2,left
4.158,0.20961802247200753,1.405362222992756,0.012964409303322618,4.424346955979052,-0.8049580623760322,2.4010881980479564,0.8877891489045032,-1.0749213054231797,-2.805840944167541,2,left
4.159,0.21386599729386627,1.4052870666238804,0.009669814530261379,4.403052114259738,-0.6521361760212587,2.40904992318273,0.8643310013610056,-1.0865622636401548,-2.7212693326752477,2,left
4.163,0.21824369411132827,1.4049331884689409,0.006370619092939189,4.381506696104868,-0.5004646802226851,2.415868401149175,0.8408795018506957,-1.097677074255452,-2.6360219385098334,2,left
4.164,0.2227447737206756,1.4043042858852526,0.003069507138678568,4.359740069827493,-0.35003718096818087,2.4215400576176367,0.8174533344122066,-1.1082549531371269,-2.550162453550443,2,left
4.17,0.22736258973430756,1.4034042155304234,-0.000230813208584972,4.337782284626502,-0.20094531300056315,2.426062206039863,0.7940709081860629,-1.1182852292392456,-2.4637553072925624,2,left
4.172,0.23209019016619703,1.4022369948041953,-0.0035276126640505913,4.315664059975646,-0.05327868865740674,2.4294330583192583,0.7707503401701158,-1.127757349385628,-2.376865601074058,2,left
4.173,0.23692031921095436,1.4008068032035694,-0.006818144453345322,4.2934167706368,0.09287514839217367,2.431651734063666,0.7475094385882662,-1.1366608854153921,-2.2895590391060185,2,left
4.173,0.2418454193075642,1.3991179836296777,-0.010099649138903181,4.271072427234461,0.23743076494187698,2.432718268433669,0.7243656868053447,-1.1449855437190917,-2.2019018560603247,2,left
4.176,0.24685763358835106,1.3971750436641839,-0.013369360835843605,4.248663652328005,0.3803048759977232,2.4326336185960926,0.7013362277211913,-1.1527211771926362,-2.1139607409644716,2,left
4.177,0.25194880880473586,1.3949826568252404,-0.016624514974827156,4.226223651917855,0.5214163789023922,2.4313996687890738,0.6784378485772096,-1.1598577996345465,-2.025802757152976,2,left
4.181,0.2571104987908305,1.3925456638271414,-0.019862357675554713,4.203786182321451,0.6606863842494839,2.4290192340017724,0.6556869661089452,-1.1663856026104393,-1.937495258023702,2,left
4.1819999999999995,0.26233396847843415,1.389869073900974,-0.023080156680319916,4.181385512354713,0.7980382439979641,2.4254960622684836,0.6330996119785672,-1.1722949748069447,-1.8491057983466153,2,left
4.187,0.26761019842939626,1.386958066272186,-0.026275213670712755,4.159056380754603,0.9333975771920026,2.4208348355736087,0.6106914184215082,-1.1775765238955307,-1.7607020408718534,2,left
4.188,0.2729298898256922,1.3838179919200575,-0.029444877675990126,4.136833948778416,1.0666922936861232,2.4150411693606597,0.5884776040419375,-1.1822211009249746,-1.6723516579835798,2,left
4.192,0.27828346986906133,1.38045437575443,-0.03258655920478903,4.114753747915509,1.197852616270081,2.4081216106351797,0.566472959692218,-1.1862198272594302,-1.5841222281458431,2,left
4.1930000000000005,0.28366109759695524,1.3768729193312552,-0.03569774470546682,4.092851622647404,1.3268111015821633,2.4000836346482055,0.5446918343720024,-1.189564124077248,-1.4960811268866314,2,left
4.196000000000001,0.2890526702206202,1.3730795041848463,-0.038776010983778225,4.071163668192505,1.4535026601936831,2.3909356401436437,0.5231481210831888,-1.1922457444438694,-1.408295412066454,2,left
4.197,0.2944478302269632,1.3690801957761165,-0.04181903927354301,4.049726163172071,1.5778645762413104,2.3806869431496955,0.5018552425775519,-1.194256807970264,-1.3208317031781425,2,left
4.2010000000000005,0.29983597362909703,1.3648812479496892,-0.044824628752421755,4.028575497134606,1.699836526977561,2.3693477692912577,0.4808261369661825,-1.195589837994005,-1.2337560546680766,2,left
4.2010000000000005,0.30520625984202887,1.360489107691054,-0.04779070939239676,4.007748092876443,1.8193606026032643,2.3569292445970405,0.4600732433189023,-1.1962378008556922,-1.147133824484698,2,left
4.202,0.31054762367472827,1.3559104198939602,-0.050715354096101395,3.987280323497003,1.936381326739132,2.343443384771983,0.43960848766759525,-1.19619414618904,-1.0610295412479516,2,left
4.206,0.31584878993964804,1.3511520317302306,-0.05359679006737208,3.9672084241280734,2.0508456778867017,2.328903082902418,0.41944326998650583,-1.1954528467785248,-0.9755067746493294,2,left
4.207,0.32109829123454225,1.3462209960100082,-0.05643340929221885,3.947568398277323,2.1627031122218936,2.3133220955583336,0.3995884525649937,-1.1940084368989952,-0.8906280124785708,2,left
4.212,0.3262844894586143,1.341124572717208,-0.05922377789938974,3.9283959188438207,2.2719055879400503,2.2967150272788843,0.3800543499040087,-1.1918560487021292,-0.8064545454877049,2,left
4.2139999999999995,0.33139560150115527,1.3358702278588415,-0.06196664410136702,3.909726224446765,2.378407590778068,2.2790973135486574,0.3608507201100529,-1.1889914465751057,-0.7230463600898697,2,left
4.2139999999999995,0.3364197293442114,1.3304656289141215,-0.06466094443090417,3.891594012758091,2.4821661592770745,2.2604852025930198,0.34198675772961384,-1.1854110594673237,-0.6404620386492038,2,left
4.215,0.3413448946463976,1.3249186363840764,-0.06730580803391815,3.874033333113283,2.5831409077555625,2.240895736442319,0.3234710879679745,-1.1811120111789821,-0.5587586671201352,2,left
4.216,0.34615907772788407,1.319237291116079,-0.06990055878598683,3.857077480093852,2.681294045541062,2.2203467315874255,0.3053117622372528,-1.1760921486032803,-0.47799174979658154,2,left
4.22,0.35085026069537867,1.3134297972364437,-0.07244471498714238,3.840758888728244,2.7765903920552297,2.1988567593224175,0.28751625497949723,-1.1703500679119505,-0.3982151309339429,2,left
4.221,0.3554064741963077,1.3075045007152497,-0.07493798642983118,3.8251090313772864,2.868997387925157,2.176445125743047,0.27009146171166615,-1.1638851386717652,-0.31948092300929437,2,left
4.225,0.3598158470156239,1.301469863801261,-0.07738026875197482,3.81015831625553,2.9584851024027863,2.153131851341987,0.2530436982403398,-1.156697525877595,-0.24183944138787294,2,left
4.227,0.36406665751358464,1.2953344357977266,-0.07977163514413657,3.7959359875416734,3.0450262373661316,2.1289376501391803,0.2363787009950581,-1.1487882098855218,-0.16533914516679307,2,left
4.23,0.36814738581609574,1.2891068209038794,-0.08211232562582965,3.7824700270331695,3.128596128167705,2.1038839082829344,0.22010162843024073,-1.1401590042274374,-0.09002658396991799,2,left
4.231,0.3720467657209869,1.2827956440703665,-0.08440273421616074,3.7697870573021404,3.209172741587147,2.077992662054844,0.20421706344672894,-1.1308125712864767,-0.015946350470947293,2,left
4.235,0.37575383542735935,1.2764095159251476,-0.08664339439801394,3.757912246311801,3.2867366711366346,2.0512865752090828,0.18872901678508494,-1.1207524358105718,0.05685896157494398,2,left
4.237,0.3792579863629256,1.2699569977832648,-0.0888349633112196,3.746869213454756,3.3612711299590847,2.0237889155741375,0.17364093134390032,-1.1099829962393424,0.12834879400717145,2,left
4.24,0.38254900953026144,1.2634465676009172,-0.0909782051057667,3.7366799369768047,3.432761941550592,1.995523530842652,0.15895568737748916,-1.0985095338174813,0.19848465585623368,2,left
4.24,0.38561713890717797,1.2568865875429494,-0.09307397385376891,3.7273646627521737,3.501197528529877,1.9665148234727163,0.14467560852848063,-1.086338219465741,0.26723015006969375,2,left
4.247,0.38845309152899177,1.2502852736539543,-0.09512319638286224,3.7189418143785105,3.566568899668842,1.936787724621659,0.13080246865197295,-1.0734761183785981,0.3345509955729383,2,left
4.248,0.3910481039644027,1.243650667979267,-0.09712685537443852,3.711427904562416,3.6288696353895715,1.9063676670311904,0.11733749938906722,-1.0599311923156507,0.40041504486611723,2,left
4.25,0.39339396498190543,1.2369906133779904,-0.09908597307625787,3.704837447768785,3.688095871924369,1.8752805567806252,0.10428139844876186,-1.0457122995517916,0.46479229735467736,2,left
4.25,0.3954830442973004,1.2303127311969075,-0.10100159600205154,3.6991828741097974,3.744246284326597,1.8435527438228327,0.09163433855835662,-1.0308291924492328,0.527654908606817,2,left
4.255,0.39730831739943495,1.223624401913512,-0.10287478100215401,3.6944744444520086,3.797322068511301,1.8112109912155858,0.07939597704368621,-1.0152925126124854,0.5889771957270049,2,left
4.256,0.3988633865700037,1.2169327487945543,-0.10470658305274855,3.690720166722628,3.8473269224957396,1.77828244295906,0.06756546600167754,-0.9991137835854698,0.6487356390304438,2,left
4.2589999999999995,0.4001424983337422,1.2102446245530303,-0.10649804500845401,3.687925713398768,3.8942670270011375,1.744794590348396,0.05614146302889788,-0.9823054010480233,0.7069088801990092,2,left
4.26,0.4011405576740194,1.2035666009287465,-0.10825018940695919,3.6860943401661523,3.9381510255681413,1.7107752367484705,0.04512214247093484,-0.9648806204672001,0.7634777170947765,2,left
4.263999999999999,0.40185313939741374,1.1969049610711724,-0.10996401223946356,3.6852268057365145,3.9789900043296407,1.6762524606963458,0.03450520715861911,-0.9468535421569072,0.8184250954027611,2,left
4.265,0.40227649701860135,1.1902656945691148,-0.1116404784443402,3.685321292815657,4.016797471575821,1.6412545772352511,0.024287900598268214,-0.9282390936976251,0.8717360972699436,2,left
4.269,0.40240756947756506,1.1836544949498946,-0.11328051878102466,3.6863733302169233,4.0515893372375364,1.6058100973824305,0.014467019584761782,-0.9090530097097236,0.9233979270936638,2,left
4.27,0.40224398591684646,1.17707675946664,-0.11488502772836566,3.6883757161175774,4.083383892405355,1.5699476856317434,0.005038927209770789,-0.8893118091898566,0.9733998945608571,2,left
4.271,0.4017840686591156,1.1705375910019142,-0.1164548621157,3.691318442458356,4.112201788992918,1.5336961153905355,-0.004000433757148127,-0.8690327710100957,1.0217333949504,2,left
4.274,0.40102683445764636,1.164041801907115,-0.11799084026659103,3.6951886204892017,4.138066019644596,1.4970842222490275,-0.012655527133387743,-0.8482339083955162,1.0683918866591475,2,left
4.275,0.39997199405595396,1.1575939195450806,-0.1194937414596308,3.6999704074669,4.161001897978841,1.4601408549792514,-0.020931209254078233,-0.8269339429766625,1.1133708659544346,2,left
4.279,0.39861995007944384,1.1511981932364865,-0.12096430550778672,3.7056449346998312,4.1810370391716285,1.4228948242541506,-0.02883271459197749,-0.8051522786199127,1.1566678390355327,2,left
4.28,0.39697179327774534,1.1448586022845009,-0.12240323227209818,3.712190238071509,4.1982013404838705,1.3853748495498515,-0.0363656410908667,-0.7829089750195743,1.1982822915286997,2,left
4.281000000000001,0.3950292971354384,1.1385788647779225,-0.12381118096213356,3.7195811938581365,4.21252696062248,1.347609505545367,-0.04353593523623631,-0.7602247209905609,1.2382156555450303,2,left
4.285,0.39279491087020496,1.132362446897061,-0.12518876910698912,3.7277894635917916,4.224048296424376,1.3096271698065485,-0.05034987688597333,-0.7371208073991243,1.2764712744254885,2,left
4.2860000000000005,0.3902717508387406,1.1262125724299548,-0.1265365710933364,3.736783450789511,4.232801955736569,1.2714559730668877,-0.05681406388270285,-0.7136190996677841,1.313054365292669,2,left
4.29,0.38746359036743233,1.1201322321873977,-0.12785511618070225,3.746528270690051,4.23882672606304,1.233123752564866,-0.06293539646839565,-0.6897420097893372,1.347971979524015,2,left
4.292,0.3843748480166303,1.11412419303444,-0.129144885936158,3.756985733208611,4.242163538933187,1.1946580084234877,-0.06872106152083075,-0.6655124677836204,1.3812329612564014,2,left
4.294,0.38101057428094576,1.108191006331698,-0.1304063110737395,3.7681143391352765,4.242855430017054,1.1560858629623987,-0.07417851663049772,-0.6409538925295627,1.41284790402719,2,left
4.295,0.37737643673088916,1.1023350156756622,-0.13163976772970926,3.7798692896050947,4.240947495004752,1.1174340228325355,-0.07931547403553901,-0.6160901619039828,1.4428291056520883,2,left
4.298,0.37347870361777474,1.0965583639248548,-0.132845573254854,3.792202508869736,4.236486841259744,1.0787287438628586,-0.08413988443136924,-0.5909455821575775,1.4711905214353829,2,left
4.2989999999999995,0.3693242259951824,1.0908629995851626,-0.13402398165909485,3.805062680402615,4.229522535248072,1.0399957985084203,-0.08865992067066572,-0.5655448564576021,1.4979477158033951,2,left
4.303999999999999,0.3649204184521371,1.085250682692414,-0.1351751788945785,3.81839529637113,4.220105545738166,1.0012604457887886,-0.09288396136850446,-0.5399130525258683,1.5231178124473161,2,left
4.305,0.36027523859476507,1.079722990367142,-0.13629927820156465,3.832142720511352,4.20828868275851,0.962547403605691,-0.09682057442651862,-0.5140755692998797,1.546719443056931,2,left
4.308,0.35539716544122124,1.0742813222252352,-0.13739631576017558,3.8462442644419794,4.194126532293267,0.9238808233286635,-0.1004785004890821,-0.48805810254418863,1.5687726947221365,2,left
4.309,0.3502951769006874,1.0689269058135464,-0.1384662468884144,3.8606362774557375,4.177675386688937,0.885284266537483,-0.10386663634367155,-0.4618866093383954,1.5892990560745948,2,left
4.315,0.3449787264906976,1.06366080221001,-0.1395089430034037,3.875252249827591,4.15899317073821,0.8467806838102222,-0.10699401827673409,-0.4355872713676226,1.608321362237372,2,left
4.316,0.3394577194129733,1.0584839118937646,-0.14052418952113097,3.890022929680138,4.138139363400452,0.8083923954458971,-0.10986980539558856,-0.4091864569407773,1.6258637386459602,2,left
4.3180000000000005,0.33374248806439744,1.0533969809597323,-0.14151168481587986,3.9048764534473768,4.115174915111689,0.7701410740108828,-0.11250326292611267,-0.3827106816614756,1.641951543799697,2,left
4.319,0.3278437670167406,1.048400607725232,-0.14247104030268243,3.9197384899787098,4.090162160630552,0.7320477285985313,-0.11490374549521994,-0.35618656767613294,1.6566113109982825,2,left
4.325,0.3217726674661292,1.0434952497501644,-0.1434017816542953,3.9345323983254334,4.063164727360398,0.6941326906917605,-0.11708068040640797,-0.329640801423438,1.6698706891138417,2,left
4.3260000000000005,0.31554065113759233,1.0386812312642584,-0.14430335112561485,3.949179399252239,4.034247439081785,0.6564156015187749,-0.11904355091596315,-0.30310008980920644,1.6817583824448068,2,left
4.329,0.30915950363276695,1.033958750964783,-0.14517511093375757,3.963598760516254,4.003476215023566,0.6189154007925262,-0.12080187951673818,-0.27659111473047737,1.6923040896937904,2,left
4.329,0.30264130722712995,1.029327890118041,-0.14601634762546808,3.977707995955954,3.9709179641952024,0.5816503167250408,-0.12236521123577669,-0.2501404858726502,1.7015384421076034,2,left
4.333,0.2959984131511909,1.0247886208707557,-0.14682627734751655,3.991423078431836,3.936640474897348,0.5446378572082993,-0.12374309695144402,-0.22377469170347528,1.709492940813632,2,left
4.333,0.2892434134200969,1.020340814655934,-0.14760405191507575,4.004658666660119,3.9007122993224677,0.5078948020539836,-0.12494507673513605,-0.1975200485878026,1.7161998933829343,2,left
4.338,0.28238911230106895,1.0159842505639665,-0.14834876554839246,4.017328345979804,3.8632026331520994,0.4714371961850736,-0.12598066322207774,-0.1714026479471592,1.7216923496466532,2,left
4.3389999999999995,0.2754484975242959,1.0117186235453757,-0.14905946212755766,4.029344883092318,3.8241811900524283,0.43528034367300317,-0.12685932501519018,-0.1454483013884713,1.7260040367886629,2,left
4.34,0.2684347113468701,1.0075435523186833,-0.14973514280951852,4.040620494811588,3.7837180709651266,0.39943880251485814,-0.1275904701366179,-0.11968248382084302,1.729169293768697,2,left
4.343999999999999,0.2613610215660671,1.003458586876611,-0.15037477386685122,4.0510671308607265,3.7418836280858376,0.36392638004591593,-0.12818342959662218,-0.09413027505109671,1.7312230053012254,2,left
4.343999999999999,0.2542407925515406,0.9994632155122205,-0.15097729463787138,4.060596770749691,3.698748323418368,0.32875612888368766,-0.12864744124916047,-0.06881630119776269,1.7322005359261,2,left
4.348,0.24708745634207446,0.9955568713129808,-0.1515416255025594,4.069121734327157,3.6543825820211997,0.2939403433423342,-0.12899163415863973,-0.04376467773514459,1.732137664878209,2,left
4.349,0.2399144838389031,0.9917389380889691,-0.15206667580888197,4.076555003402796,3.6088566412224856,0.2594905564662817,-0.1292250136463428,-0.018998955508301232,1.7310705222856755,2,left
4.35,0.23273535611418836,0.9880087557165877,-0.15255135168131886,4.082810547883039,3.562240399170283,0.22541753820907035,-0.12935644708459068,0.005457929788045858,1.7290355269089017,2,left
4.352,0.22556353583410774,0.9843656248987471,-0.1529945636535682,4.08780364766582,3.514603267244729,0.1917312954934995,-0.12939465045076717,0.02958370464431575,1.7260693254552653,2,left
4.353,0.2184124387756851,0.9808088113678783,-0.15339523407384026,4.091451203731373,3.4660140296920257,0.1584410746811696,-0.12934817564189574,0.05335680135567828,1.7222087334664782,2,left
4.357,0.21129540539660122,0.9773375495852575,-0.15375230423702613,4.093672035813222,3.4165407117426776,0.1255553666043758,-0.12922539855016435,0.0767563982966812,1.7174906777728391,2,left
4.359,0.2042256723979194,0.9739510460123402,-0.1540647412109072,4.09438716622459,3.3662504563099778,0.09308191410540398,-0.12903450789952714,0.0997624569201547,1.7119521405059424,2,left
4.362,0.1972163442061203,0.9706484820426045,-0.15433154434052435,4.093520089850533,3.3152094091293036,0.0610277219876142,-0.12878349484326698,0.12235575554864231,1.705630104658827,2,left
4.363,0.1902803642993749,0.9674290166854042,-0.15455175143032088,4.0909970303120105,3.2634826121962512,0.029399069283856112,-0.12848014332218388,0.14451792002553585,1.6985615011800985,2,left
4.369,0.18343048631682013,0.9642917890878319,-0.1547244446179718,4.086747182303775,3.2111339053592665,-0.0017984762510562307,-0.12813202118287836,0.16623145129196323,1.6907831575861845,2,left
4.37,0.1766792449182823,0.9612359209680188,-0.15484875596839,4.080702940103439,3.1582258359203004,-0.032560041515879594,-0.12774647205542525,0.18747974995429414,1.6823317480736486,2,left
4.372,0.17003892640223642,0.9582605190161179,-0.15492387282852949,4.072800112244315,3.1048195760950166,-0.0628814293973356,-0.12733060798958273,0.20824713790589194,1.6732437451113313,2,left
4.372,0.16352153913711306,0.9553646773002769,-0.15494904298866252,4.062978122339669,3.050974848182311,-0.09275909815297533,-0.12689130284855252,0.22851887706545307,1.6635553724900547,2,left
4.377,0.15713878390911187,0.9525474796961306,-0.15492357969199277,4.051180196040895,2.9967498572912796,-0.1221901389308752,-0.12643518645919885,0.248281185292941,1.6533025598056905,2,left
4.377,0.1509020243316031,0.9498080023417124,-0.15484686652307167,4.037353534106778,2.9422012314723434,-0.15117225151326166,-0.12596863951754642,0.26752124954274215,1.64252089834956,2,left
4.382,0.14482225749218233,0.9471453161080214,-0.15471836218972668,4.021449471555495,2.8873839690979746,-0.17970371836988924,-0.12549778924830948,0.2862272363122493,1.6312455983784129,2,left
4.383,0.13891008503163083,0.9445584890707207,-0.15453760519709364,4.003423622865359,2.8323513933373645,-0.20778337710571418,-0.12502850581715574,0.3043882994426168,1.6195114477346078,2,left
4.387,0.13317568485507325,0.9420465889700331,-0.15430421839818054,3.9832360131844817,2.7771551135684613,-0.2354105913861181,-0.12456639949437773,0.32199458532693404,1.6073527717855984,2,left
4.388,0.1276287836718993,0.9396086856514031,-0.15401791339342755,3.960851195503565,2.7218449935700053,-0.26258522042164234,-0.12411681856863188,0.33903723557953036,1.5948033946504074,2,left
4.3919999999999995,0.12227863055063898,0.9372438534862514,-0.15367849474233533,3.936238353739951,2.6664691263355857,-0.28930758709289695,-0.12368484800940927,0.35550838721856276,1.5818966016794527,2,left
4.393,0.11713397166143646,0.934951173777874,-0.15328586394445018,3.9093713916748714,2.6110738153512587,-0.3155784447950098,-0.12327530887692172,0.3714011704124449,1.5686651031528727,2,left
4.396,0.11220302636544931,0.9327297371604631,-0.15284002314549588,3.8802290076795054,2.5557035621779423,-0.341398943079682,-0.12289275847812316,0.38670970383906017,1.5551409991613696,2,left
4.397,0.10749346479946882,0.930578645999043,-0.15234107852729262,3.8487947551591093,2.500401060179605,-0.366770592171617,-0.12254149126763529,0.40142908770506064,1.5413557456325646,2,left
4.402,0.10301238709505994,0.9284970167952211,-0.15178924334694394,3.815057088637962,2.445207194238209,-0.3916952264347956,-0.12222554049241129,0.41555539447089485,1.5273401214649205,2,left
4.4030000000000005,0.09876630436276759,0.9264839825990222,-0.15118484060008203,3.779009395401394,2.3901610462964378,-0.4161749668627751,-0.12194868057904729,0.4290856573255321,1.5131241967304516,2,left
4.406000000000001,0.09476112156086043,0.9245386954225518,-0.15052830529175595,3.7406500126045663,2.3352999065694218,-0.4402121826659027,-0.1217144302531362,0.4420178564746101,1.498737301934246,2,left
4.406000000000001,0.09100212235050999,0.9226603286481572,-0.14982018630442728,3.699982229751061,2.280659290266993,-0.46380945202704943,-0.12152605633212946,0.45435090341128803,1.4842079984559617,2,left
4.407,0.08749395601688727,0.920848079421906,-0.14906114785520647,3.6570142764377325,2.2262729596684196,-0.48696952209619354,-0.12138657804683388,0.46608462353043867,1.4695640505459264,2,left
4.412,0.08424062652275321,0.919101171021377,-0.14825197053456943,3.611759295255625,2.172172951392086,-0.5096952682929116,-0.12129877169876359,0.47721973755235264,1.4548323993857786,2,left
4.413,0.08124548376609426,0.9174188551839966,-0.14739355191681944,3.5642352997301443,2.1183896087032306,-0.5319896529845713,-0.12126517550872658,0.4877578421131522,1.440039139585376,2,left
4.416,0.07851121712181619,0.9158004143794651,-0.14648690672887987,3.5144651173543178,2.064951618651866,-0.5538556836539059,-0.12128809459861727,0.4977013896843318,1.4252094982393209,2,left
4.417,0.07603985134170908,0.9142451640092967,-0.14553316655994167,3.462476318648577,2.0118860535753034,-0.5752963709040977,-0.12136960609656243,0.5070536678748682,1.4103678165284002,2,left
4.418,0.07383274486807086,0.9127524545187157,-0.14453357909168615,3.4083011347690984,1.9592184160352701,-0.5963146870725222,-0.12151156436532903,0.5158187781461783,1.395537533823499,2,left
4.42,0.07189059059833487,0.9113216734092631,-0.14348950682564532,3.3519763670664755,1.9069726860020646,-0.6169135264587684,-0.1217156063540642,0.5240016139684978,1.3807411742494349,2,left
4.421,0.07021341912649787,0.9099522471425803,-0.14240242527852806,3.293543291103949,1.8551713693577965,-0.6370956679356313,-0.12198315707360566,0.5316078384455541,1.3660003356661297,2,left
4.426,0.06880060447274836,0.908643642928242,-0.14127392061266916,3.2330475560430534,1.8038355472572312,-0.6568637402863021,-0.12231543519577369,0.5386438614327272,1.351335681024564,2,left
4.427,0.06765087228608366,0.9073953703937385,-0.1401056866741818,3.1705390794121913,1.7529849261444979,-0.6762201903740765,-0.12271345877723411,0.5451168161722142,1.3367669320550528,2,left
4.43,0.06676231046743121,0.9062069831421407,-0.1388995214249887,3.1060719370903778,1.7026378882768916,-0.6951672542025649,-0.1231780511087034,0.5510345354670643,1.322312865245543,2,left
4.431,0.06613238211924684,0.9050780802098461,-0.13765732277037304,3.0397042483324683,1.6528115426083383,-0.7137069309231971,-0.12370984669045279,0.5564055274143113,1.3079913100678453,2,left
4.437,0.06575794068783848,0.904008307441354,-0.13638108379796196,2.971498055656419,1.603521775886487,-0.7318409598456347,-0.12430929733525622,0.5612389507158158,1.2938191494099913,2,left
4.438,0.06563524713259178,0.9029973587995184,-0.13507288745691956,2.9015191994075082,1.5547833038188248,-0.7495708005055218,-0.12497667840011861,0.5655445895838352,1.2798123221732278,2,left
4.44,0.06575998893500326,0.9020449776283992,-0.1337349007157716,2.8298371868089944,1.5066097221647152,-0.7668976158428409,-0.12571209514831283,0.5693328282567713,1.2659858279925458,2,left
4.441,0.06612730074900879,0.9011509578834888,-0.1323693682413841,2.7565250553034146,1.4590135576117966,-0.7838222585429685,-0.1265154892434482,0.5726146251390009,1.2523537340400663,2,left
4.447,0.06673178649010383,0.9003151453419991,-0.13097860564092878,2.6816592299836453,1.4120063182967546,-0.8003452605913676,-0.12738664537748767,0.5754014865771807,1.2389291838710745,2,left
4.448,0.06756754266259742,0.8995374388027195,-0.12956499230699894,2.6053193749079555,1.365598543832106,-0.8164668260916944,-0.12832519803482678,0.5777054402839344,1.225724408273013,2,left
4.45,0.06862818273100713,0.8988177912797165,-0.12813096390707335,2.527588238088614,1.319799854702292,-0.8321868273959391,-0.1293306383947411,0.5795390084183714,1.2127507380783051,2,left
4.45,0.06990686235121524,0.8981562111888148,-0.12667900456280715,2.448551489939147,1.2746190008940554,-0.847504804594068,-0.13040232137470464,0.5809151803314717,1.2000186189024642,2,left
4.455,0.07139630528687997,0.8975527635220476,-0.12521163876972996,2.3682975549611287,1.2300639096278154,-0.8624199684094804,-0.1315394728172741,0.5818473849829818,1.1875376277695828,2,left
4.456,0.0730888298454644,0.8970075710018739,-0.1237314231118678,2.2869174364473794,1.1861417320584844,-0.8769312065454377,-0.13274119682342578,0.5823494630351157,1.1753164915879544,2,left
4.459,0.07497637567690082,0.8965208152024123,-0.12224093782811474,2.204504533974719,1.1428588888159539,-0.8910370935264664,-0.13400648323542252,0.5824356386270453,1.1633631074392683,2,left
4.46,0.0770505307874278,0.8960927376198892,-0.12074277828676802,2.1211544534559166,1.1002211142572709,-0.9047359040775843,-0.13533421527247502,0.5821204908328865,1.15168456464555,2,left
4.4639999999999995,0.07930255863199365,0.8957236406696693,-0.11923954642088719,2.0369648095172552,1.0582334993043399,-0.9180256300830277,-0.1367231773226479,0.5814189248046547,1.140287168578746,2,left
4.465,0.08172342516122337,0.8954138885824442,-0.11773384217275407,1.9520350199651737,1.0169005327428249,-0.9309040011650038,-0.138172062894643,0.5803461426004675,1.129176466178636,2,left
4.468999999999999,0.0843038257143024,0.8951639081681375,-0.11622825499422951,1.8664660921027427,0.9762261408597727,-0.9433685089218121,-0.13967948273327108,0.5789176136971235,1.118357273145538,2,left
4.471,0.08703421166792323,0.8949741894141315,-0.11472535545107669,1.7803604006543434,0.9362137252993508,-0.9554164348635117,-0.14124397310259995,0.5771490451850727,1.1078337027750709,2,left
4.475,0.08990481677225022,0.8948452858847051,-0.11322768697963692,1.6938214570547807,0.8968661990179679,-0.9670448820821242,-0.14286400423344153,0.5750563516611026,1.0976091963745047,2,left
4.476,0.09290568312539302,0.8947778148912618,-0.11173775783990307,1.6069536698572382,0.8581860202219397,-0.978250810692172,-0.14453798889452923,0.5726556249249027,1.0876865550582313,2,left
4.476,0.09602668675588742,0.8947724574082663,-0.11025803330185355,1.5198620960129352,0.8201752241727589,-0.9890310770761574,-0.1462642909794363,0.5699631037500409,1.0780679724636464,2,left
4.48,0.09925756279447209,0.8948299577159262,-0.1087909281007208,1.4326521827741105,0.7828354527469403,-0.9993824769683837,-0.1480412339639644,0.5669951440908143,1.0687550677867614,2,left
4.482,0.10258793022062582,0.8949511227554977,-0.10733879920620953,1.3454294999710104,0.7461679816393283,-1.009301792409297,-0.14986710912636764,0.5637681899936954,1.059748918680557,2,left
4.484,0.10600731617052277,0.8951368211874614,-0.10590393896116268,1.258299462787497,0.7101737451605314,-1.0187858424940803,-0.15174018349039103,0.5602987453159047,1.051050093817057,2,left
4.485,0.1095051797961436,0.8953879821476929,-0.10448856864414141,1.1713670470324693,0.6748533588803559,-1.0278315373017932,-0.15365870748872895,0.5566033462609922,1.0426586850578066,2,left
4.485,0.11307093567006836,0.8957055937012807,-0.10309483249750066,1.0847365022754825,0.6402071409097465,-1.0364359334249778,-0.15562092235214436,0.5526985347221902,1.034574339206882,2,left
4.4910000000000005,0.1166939767346147,0.8960907009982669,-0.10172479224820073,0.9985110700881331,0.6062351329149546,-1.0445962889821994,-0.15762506722962658,0.5486008324236108,1.0267962893214446,2,left
4.492,0.12036369679691804,0.896544404141573,-0.10038042213914422,0.9127927127604305,0.57293712166031,-1.052310116530933,-0.15966938604509465,0.5443267158487037,1.0193233855557304,2,left
4.494,0.12406951257373695,0.8970678557833608,-0.09906360448090906,0.8276818544910026,0.5403126613392053,-1.0595752332620743,-0.16175213409627962,0.5398925919447947,1.0121541255152497,2,left
4.495,0.12780088529009873,0.8976622584696278,-0.09777612572475321,0.7432771351782347,0.5083610966555545,-1.0663898083922758,-0.1638715844015396,0.5353147745919679,1.0052866840988512,2,left
4.498,0.1315473418331159,0.8983288617541901,-0.09651967305069009,0.6596751765663107,0.47708158656006855,-1.0727524077762631,-0.16602603380047629,0.5306094618240492,0.998718942807178,2,left
4.499,0.1352984954571257,0.8990689591046709,-0.09529583146043705,0.5769703605018706,0.446473128547626,-1.0786620357599974,-0.16821380881433268,0.5257927137889871,0.9924485184969182,2,left
4.504,0.13904406602984204,0.8998838846259988,-0.09410608136112807,0.4952546190590172,0.41653458342394767,-1.0841181742942585,-0.17043327127225655,0.5208804314355157,0.9864727915611144,2,left
4.505,0.1427738998021977,0.9007750096304179,-0.09295179661951397,0.4146172362927117,0.3872647004517161,-1.0891208193269253,-0.17268282370961577,0.5158883359126178,0.9807889335166632,2,left
4.5089999999999995,0.14647798867823328,0.9017437390848848,-0.09183424305898417,0.33514466138316523,0.3586621427882072,-1.0936705144909262,-0.17496091454464635,0.5108319486679842,0.9753939339809824,2,left
4.5089999999999995,0.15014648895680152,0.9027915079664138,-0.09075457736638781,0.2569203329366723,0.3307255131284259,-1.0977683821035369,-0.17726604303980598,0.5057265722313905,0.9702846270206757,2,left
4.513999999999999,0.15376973951394124,0.9039197775552057,-0.08971384637430234,0.180024514211422,0.3034533794696585,-1.1014161514913954,-0.17959676405429204,0.5005872716686869,0.9654577168558591,2,left
4.515,0.15733827939270864,0.9051300316950194,-0.08871298668561556,0.10453413904016305,0.276844300915271,-1.1046161846543079,-0.18195169259426502,0.4954288566919057,0.9609098029046432,2,left
4.518,0.1608428647657477,0.9064237730488219,-0.08775282460779997,0.03052266822517863,0.2508968534374963,-1.107371499279623,-0.18432950816739668,0.49026586441085285,0.9566374041530882,2,left
4.519,0.16427448523646024,0.9078025193749784,-0.08683407636225136,-0.04194004381516557,0.22560965552086046,-1.1096857891176548,-0.18672895894843494,0.4851125427114528,0.9526369828367559,2,left
4.524,0.1676243794481024,0.9092677998465027,-0.08595734853107602,-0.11278787236500477,0.20098139360980574,-1.1115634417273565,-0.18914886576254827,0.47998283424605787,0.9489049674207886,2,left
4.525,0.1708840499740172,0.9108211514331764,-0.0851231387035808,-0.18195853590715524,0.1770108472859663,-1.1130095536001683,-0.1915881258932773,0.4748903610209217,0.9454377748662317,2,left
4.5280000000000005,0.1740452774647067,0.91246411536209,-0.08433183628908997,-0.24939370000491473,0.15369691410245065,-1.1140299426686948,-0.19404571672198437,0.4698484095660634,0.9422318321711014,2,left
4.529,0.17710013402992353,0.9141982336665266,-0.0835837234688879,-0.3150390717728758,0.13103863400437776,-1.1146311582056208,-0.19652069920575013,0.464869916672813,0.9392835971754682,2,left
4.532,0.18004099583738425,0.9160250458277561,-0.08287897626578417,-0.37884448513533564,0.10903521326680357,-1.114820488117029,-0.1990122212007229,0.4599674556844404,0.9365895786205883,2,left
4.533,0.18286055491358036,0.9179460855092081,-0.08221766571629385,-0.4407639770659085,0.08768604788306097,-1.1146059636330672,-0.20151952063797787,0.45515322332540936,0.9341463554528657,2,left
4.538,0.18555183013658114,0.919962877376842,-0.081599759137804,-0.5007558549968141,0.06699074633842052,-1.1139963613977046,-0.20404192855899522,0.4504390270549833,0.9319505953641676,2,left
4.539,0.1881081774160102,0.9220769339940299,-0.08102512148743116,-0.5587827555810396,0.046949151705860476,-1.1130012029581418,-0.2065788720179122,0.4458362729311244,0.9299990725607471,2,left
4.543,0.1905232990610898,0.9242897527745515,-0.08049351680883018,-0.6148116949851636,0.02756136300261503,-1.1116307516532775,-0.209129876857751,0.44135595397088223,0.9282886847537469,2,left
4.544,0.19279125234265646,0.9266028129733255,-0.08000460976276837,-0.6688141108851007,0.008827755748048236,-1.1098960068994974,-0.21169457036302425,0.437008638998615,0.926816469360444,2,left
4.544,0.19490645725793235,0.9290175726931488,-0.07955796724118251,-0.7207658963313941,-0.009250998334720383,-1.107808695870951,-0.21427268376694503,0.4328044619980113,0.9255796188834768,2,left
4.548,0.19686370350718613,0.93153546588805,-0.07915306007029695,-0.770647425644949,-0.026673912529133526,-1.1053812625704047,-0.2168640545479209,0.4287531120279827,0.9245754953952653,2,left
4.5489999999999995,0.198658156690842,0.9341578993454783,-0.0787892648123579,-0.8184435724982895,-0.04343966730127244,-1.1026268542857096,-0.21946862842583337,0.4248638237871853,0.9238016440328978,2,left
4.553,0.2002853637359123,0.9368862496271355,-0.07846586567701272,-0.8641437203064807,-0.05954659348708965,-1.0995593054518427,-0.22208646099286047,0.4211453688880298,0.923255805432058,2,left
4.553999999999999,0.20174125756169303,0.9397218599465238,-0.07818205655217084,-0.9077417649206198,-0.07499265650163384,-1.096193119067135,-0.2247177189572267,0.41760604785773053,0.9229359270699535,2,left
4.553999999999999,0.20302216099539303,0.9426660369640264,-0.07793694316066595,-0.9492361093852765,-0.08977544152039474,-1.0925434460447003,-0.22736268100252013,0.4142536828600999,0.9228401735104954,2,left
4.558,0.20412478994881705,0.9457200474826756,-0.07772954534566656,-0.9886296503899507,-0.10389213954832531,-1.0886260630088105,-0.23002173827009684,0.41109561112742377,0.9229669355501542,2,left
4.559,0.20504625586815095,0.9488851150256453,-0.0775587994868368,-1.0259297561638898,-0.1173395343228762,-1.0844573489154774,-0.2326953944721321,0.4081386790922677,0.923314838263573,2,left
4.562,0.20578406747036898,0.9521624162744889,-0.07742356105171637,-1.0611482357831128,-0.13011399005429075,-1.080054260642349,-0.23538426564291784,0.4053892372095987,0.9238827479486543,2,left
4.563,0.20633613178108198,0.9555530773501348,-0.07732260729262466,-1.0943012999777626,-0.1422114400371717,-1.075434307562628,-0.23808907953604574,0.4028531354601659,0.9246697779714853,2,left
4.5680000000000005,0.20670075448881192,0.9590581699255059,-0.07725464010567093,-1.1254095135469677,-0.15362737617194216,-1.0706155250910734,-0.2408106746751587,0.40053571952665856,0.9256752935120969,2,left
4.569,0.20687663962934322,0.9626787071665479,-0.07721828907021472,-1.1544977394824187,-0.1643568394328903,-1.0656164471894751,-0.24354999906599575,0.3984418276347555,0.9268989152126871,2,left
4.572,0.20686288861129482,0.9664156395059851,-0.07721211468273108,-1.1815950748959467,-0.17439441131754038,-1.0604560778183665,-0.24630810857750313,0.3965757880517926,0.9283405217305687,2,left
4.573,0.2066589985903711,0.970269850259812,-0.0772346117922614,-1.206734778840521,-0.18373420631013426,-1.0551538613211735,-0.24908616499983185,0.3949414172364007,0.9300002511987262,2,left
4.578,0.20626486019453688,0.9742421510996847,-0.07728421324007595,-1.2299541921082904,-0.192369865390035,-1.0497296517264787,-0.2518854337870932,0.393542018633109,0.9318785015975004,2,left
4.58,0.20568075459584356,0.9783332773953847,-0.07735929370499511,-1.2512946490835866,-0.20029455061387497,-1.0442036809536195,-0.254707281492798,0.3923803821065605,0.9339759300415399,2,left
4.582,0.20490734991781612,0.9825438834407498,-0.07745817375656706,-1.2708013817231862,-0.20750094079826542,-1.03859652590643,-0.25755317290596297,0.39145878401065237,0.9362934509867897,2,left
4.583,0.2039456969620492,0.9868745375743563,-0.07757912411904166,-1.288523415730626,-0.21398122832786073,-1.0329290744395894,-0.2604246678959292,0.3907789878885868,0.9388322333629137,2,left
4.586,0.20279722423624785,0.9913257172034,-0.07772037014770401,-1.3045134589859733,-0.2197271171115271,-1.0272224901817437,-0.2633234179740013,0.3903422458004997,0.941593696637177,2,left
4.587,0.20146373226967515,0.9958978037356279,-0.07788009651414902,-1.3188277822871939,-0.22472982170730105,-1.021498176199341,-0.2662511625800868,0.39014930027602407,0.944579505816451,2,left
4.592,0.19994738721048178,1.0005910774198952,-0.07805645208921987,-1.331526092454143,-0.2289800676347357,-1.015777737484943,-0.2692097251025887,0.3902003868898382,0.9477915653946355,2,left
4.593,0.19825071371108918,1.0054057120921864,-0.0782475550039342,-1.3426713978412355,-0.23246809289112255,-1.0100829422536675,-0.2722010086398812,0.39049523745894493,0.9512320122534338,2,left
4.5969999999999995,0.1963765871203463,1.010341769821896,-0.07845149786153514,-1.3523298663000436,-0.23518365068594022,-1.004435682031358,-0.27522699151178387,0.3910330838611283,0.954903207525064,2,left
4.598,0.19432822501272162,1.0153991954527408,-0.0786663530683219,-1.36057067562844,-0.23711601340571895,-0.9988579305181038,-0.2782897225295373,0.39181266247473434,0.9588077274261376,2,left
4.602,0.19210917809392472,1.0205778110337291,-0.07889017824697968,-1.3674658565384414,-0.23825397781931856,-0.9933717012107888,-0.2813913160328784,0.39283221924062095,0.9629483530725956,2,left
4.603,0.1897233205274182,1.0258773101389833,-0.07912102169282657,-1.3730901281706525,-0.2385858715313984,-0.9879990037684984,-0.28453394670291116,0.3940895153478192,0.96732805928625,2,left
4.607,0.18717483972690277,1.0312972520805355,-0.07935692782952529,-1.3775207261791356,-0.23809956068960578,-0.9827617991048079,-0.2877198441595769,0.39558183354514215,0.9719500024041576,2,left
4.6080000000000005,0.18446822565786924,1.036837056023207,-0.07959594261734568,-1.380837223406678,-0.2367824589487272,-0.9776819531912374,-0.2909512873526388,0.3973059850816644,0.9768175071027263,2,left
4.611000000000001,0.18160825968871436,1.0424959950142976,-0.07983611886694521,-1.3831213431667764,-0.23462153769272986,-0.9727811895564878,-0.2942305987552128,0.3992583172796797,0.9819340522491401,2,left
4.612,0.17860000302867268,1.0482731899440736,-0.08007552141602556,-1.3844567651452429,-0.2316033375132687,-0.9680810404664596,-0.2975601383704431,0.4014347217382074,0.987303255805676,2,left
4.613,0.17544878478412387,1.0541676034561884,-0.08031223213375514,-1.38492892393113,-0.22771398094084758,-0.9636027967705082,-0.30094229756925595,0.4038306431347484,0.9929288588746145,2,left
4.6160000000000005,0.17216018965787824,1.0601780338285736,-0.080544354725145,-1.3846248001837211,-0.22293918642239768,-0.9593674563999032,-0.30437949279022947,0.406441088537771,0.998814709082731,2,left
4.617,0.16874004531454484,1.0663031088445536,-0.08077001931009482,-1.3836327044396053,-0.21726428353657315,-0.9553956715050357,-0.3078741591399672,0.4092606371120141,1.0049647435665106,2,left
4.621,0.16519440944192532,1.072541279673198,-0.08098738675020235,-1.3820420537806892,-0.21067422943491776,-0.9517076942839935,-0.31142874392530906,0.41228345013036316,1.0113829717585336,2,left
4.621,0.16152955654520063,1.0788908147787406,-0.08119465269763265,-1.3799431426783306,-0.20315362649130345,-0.948323321883021,-0.3150457001359049,0.41550328126253894,1.018073458065665,2,left
4.622,0.15775196451090112,1.0853497938802361,-0.08139005134746662,-1.377426911300595,-0.1946867411336772,-0.9452618413391,-0.31872747988863503,0.4189134871424789,1.0250403044690062,2,left
4.625,0.15386830097846743,1.0919161019837476,-0.08157185888353816,-1.3745847156644744,-0.18525752382631464,-0.9425419758628946,-0.3224765278440954,0.4225070382230815,1.032287633064059,2,left
4.627,0.14988540956630234,1.09858742351115,-0.08173839661353546,-1.3715081029169005,-0.17484963017131325,-0.9401818334339823,-0.3262952746055422,0.4262765299275487,1.0398195685603264,2,left
4.631,0.1458102960117812,1.1053612365516385,-0.08188803379120359,-1.3682885930533792,-0.16344644310111667,-0.9381988580922552,-0.33018613011087894,0.4302141941071081,1.047640220760378,2,left
4.631,0.14165011429318264,1.112234807262553,-0.0820191901216472,-1.3650174672855961,-0.15103109613430463,-0.9366097839831571,-0.3341514770284609,0.4343119108154219,1.0557536670392031,2,left
4.636,0.1374121528046994,1.1192051844451265,-0.08213033794132973,-1.3617855630493445,-0.13758649766471445,-0.9354305921500135,-0.338193664167692,0.4385612204104957,1.0641639348455005,2,left
4.637,0.1331038206550697,1.126269194319583,-0.08222000406147566,-1.3586830756437311,-0.12309535625109914,-0.934676470067796,-0.3423149999155969,0.4429533359953797,1.0728749842473826,2,left
4.64,0.1287326341583399,1.1334234355223525,-0.08228677126469186,-1.355799366492452,-0.10754020687161912,-0.9343617739137869,-0.34651774571076494,0.4474791562094178,1.0818906905458052,2,left
4.64,0.12430620358521086,1.140664274345176,-0.08232927944832875,-1.3532227780180506,-0.09090343810450766,-0.9344999935717918,-0.35080410956628283,0.45212927838223127,1.0912148269798967,2,left
4.648,0.11983222024597971,1.147987840232082,-0.08234622641290519,-1.3510404551204391,-0.07316732019324354,-0.9351037203677651,-0.35517623965350054,0.45689401206303487,1.100851047549216,2,left
4.649,0.11531844397857959,1.1553900215469257,-0.08233636830017171,-1.3493381732515872,-0.05431403395150688,-0.9361846175359716,-0.359636217958708,0.461763392938268,1.110802869978849,2,left
