time,gFx,gFy,gFz,ax,ay,az,wx,wy,wz,subject_number,foot
0.948,-0.06391839999701858,0.934241715856129,0.0526336985970452,-2.0391043950965777,-1.9212122022060714,1.1444142645342055,0.9358852371457329,-0.08449645311389177,1.9008564279715783,2,right
0.9520000000000001,-0.05954517052794396,0.9367354114690394,0.051557879870048375,-2.062813210740372,-1.9116087706806713,1.1544673841786794,0.9390651431721533,-0.08823126473820203,1.9324477778896332,2,right
0.953,-0.055158105961198294,0.939180139915392,0.05047659051217081,-2.0860400806807307,-1.9008560233939655,1.164415335284055,0.9419278160241507,-0.09184127985041059,1.9634106128417248,2,right
0.956,-0.05075753122929279,0.9415746583393998,0.04939000831953782,-2.1087803687171447,-1.8889674833671422,1.1742535593666132,0.9444737262430657,-0.09532166305600018,1.9937259999634973,2,right
0.956,-0.04634379376835931,0.9439178351988683,0.048298328727251275,-2.131029481644252,-1.8759578409915378,1.1839774421092597,0.9467035813570696,-0.09866774112719995,2.0233752984697815,2,right
0.96,-0.041917266798765895,0.9462086519206353,0.04720176488670715,-2.1527828812029886,-1.861842939708189,1.1935823165813648,0.9486183219066558,-0.10187500499028919,2.0523401689650886,2,right
0.96,-0.03747835263718662,0.948446204354906,0.04610054768736686,-2.1740360942627435,-1.8466397599500304,1.2030634665676772,0.9502191172099687,-0.10493911078391921,2.080602582581526,2,right
0.965,-0.03302748600622464,0.9506297040208771,0.044994925718082564,-2.194784721298427,-1.830366401309402,1.2124161300342315,0.9515073608743747,-0.1078558799980561,2.1081448300292758,2,right
0.966,-0.028565137310191273,0.9527584791357196,0.043885165168229406,-2.2150244432249293,-1.8130420628903554,1.221635502758834,0.9524846660597824,-0.11062129870274862,2.1349495306428,2,right
0.97,-0.02409181584894367,0.9548319754179175,0.042771549672640775,-2.2347510266500175,-1.794687021802117,1.230716742153351,0.9531528604983079,-0.11323151587551454,2.1609996415039316,2,right
0.97,-0.0196080729449977,0.9568497566556724,0.041654380104362156,-2.253960327605271,-1.775322609747009,1.2396549713046616,0.9535139812739948,-0.11568284083571602,2.1862784667209247,2,right
0.975,-0.015114504961918749,0.958811505032325,0.04053397431725176,-2.2726482938131825,-1.754971187653099,1.2484452832607438,0.9535702693653972,-0.11797173979385969,2.2107696669404437,2,right
0.976,-0.010611756194740214,0.9607170212020225,0.03941066684005929,-2.2908109655470867,-1.7336561182988934,1.2570827455879747,0.953324163952952,-0.12009483152331232,2.2344572691672786,2,right
0.98,-0.0061005216162400774,0.962566224109259,0.03828480852603231,-2.3084444751390976,-1.7114017368744996,1.26556240522531,0.952778296492181,-0.12204888216146637,2.257325676964377,2,right
0.981,-0.0015815494652750167,0.9643591505465354,0.03715676616523703,-2.3255450451897213,-1.688233319420835,1.273879293660586,0.9519354845528896,-0.12383079914692337,2.2793596811035104,2,right
0.985,0.002944356335514862,0.9660959544461051,0.03602692206780436,-2.3421089855313193,-1.6641770490857113,1.282028432453745,0.9507987254236614,-0.12543762429878735,2.3005444707345974,2,right
0.986,0.007476333943833524,0.967776905903544,0.034895673624572146,-2.3581326889960694,-1.6392599801329122,1.290004839131334,0.9493711894800876,-0.12686652604367518,2.3208656451393375,2,right
0.99,0.012013461552005132,0.969402389931901,0.03376343284921835,-2.3736126260375414,-1.6135099996377646,1.2978035334761564,0.947656213314315,-0.12811479079555638,2.340309226132423,2,right
0.991,0.01655475553753998,0.9709729049466513,0.03263062590522514,-2.3885453382534596,-1.586955786800156,1.3054195442354795,0.945657292630769,-0.1291798135183615,2.358861671144064,2,right
0.992,0.021099168816718847,0.9724890609842174,0.031497692621350874,-2.402927430855684,-1.5596267698034796,1.3128479162706985,0.9433780749526519,-0.13005908762743504,2.376509886879579,2,right
0.997,0.025645589409173386,0.9739515776584647,0.03036508599927094,-2.4167555641318685,-1.53155308014559,1.3200837181708525,0.9408223522560298,-0.13075019461335438,2.393241243205415,2,right
0.997,0.03019283921967001,0.9753612818595028,0.02923327171712733,-2.430026443941683,-1.502765504365556,1.3271220503518557,0.9379940536880813,-0.13125079389775743,2.4090435867728983,2,right
0.998,0.03473967303898201,0.9767191051991976,0.028102727633099272,-2.4427368113151724,-1.4732954331606098,1.3339580536470468,0.9348972384847023,-0.13155861330364158,2.4239052540239268,2,right
1.0,0.03928477776306951,0.9780260812089774,0.026973943292479607,-2.454883431350516,-1.4431748082497893,1.340586918315431,0.9315360891288251,-0.13167144029409025,2.437815083464045,2,right
1.0,0.04382677183050734,0.9792833422964635,0.025847419440226938,-2.466463081843192,-1.4124360679943329,1.3470038932518362,0.927914904749452,-0.13158711400619022,2.4507624272211856,2,right
1.004,0.04836420487911394,0.9804921164676144,0.024723667540311755,-2.477472542208215,-1.381112093147164,1.3532042951039531,0.924038094752515,-0.1313035180810187,2.462737161932739,2,right
1.005,0.05289555762114932,0.9816537238214599,0.023603209303848623,-2.487908583124216,-1.3492361537376996,1.3591835170793065,0.9199101726739168,-0.13081857429002025,2.473729699000887,2,right
1.0090000000000001,0.05741924193349194,0.9827695728257013,0.02248657622884361,-2.497767957090174,-1.3168418574408234,1.3649370373661809,0.9155357502443584,-0.13013023695752612,2.4837309942533796,2,right
1.01,0.0619336011575348,0.9838411563826925,0.021374309154883187,-2.50704738995268,-1.2839630994129614,1.370460427170573,0.9109195316548261,-0.12923648817859723,2.4927325570441297,2,right
1.014,0.06643691060334411,0.9848700476958044,0.020266957837020576,-2.5157435734337086,-1.2506340135037584,1.3757493583863372,0.9060663080108905,-0.1281353338307932,2.5007264588251834,2,right
1.015,0.0709273782517574,0.9858578959458077,0.01916508054437435,-2.5238531586872073,-1.2168889247503683,1.3807996109150422,0.9009809519632599,-0.12682480037788546,2.5077053412187835,2,right
1.0170000000000001,0.0754031456455354,0.9868064217856816,0.01806924368858068,-2.531372750911155,-1.1827623030599779,1.385607079651399,0.895668412501338,-0.12530293246294283,2.5136624236153624,2,right
1.022,0.07986228895818985,0.9877174126603778,0.016980021484364005,-2.538298905040071,-1.1482887179848973,1.3901677811494408,0.8901337098958546,-0.12356779128762208,2.5185915103204217,2,right
1.022,0.08430282022831441,0.9885927179567866,0.015897995641485783,-2.5446281225412535,-1.1135027944933469,1.3944778599839562,0.8843819307759696,-0.12161745377389414,2.522486997270321,2,right
1.0270000000000001,0.08872268874738692,0.9894342439895596,0.014823755086553965,-2.55035684933635,-1.0784391696379785,1.3985335948209796,0.878418223325601,-0.11945001250383014,2.525343878334085,2,right
1.028,0.09311978258903555,0.9902439488299813,0.013757895714105921,-2.555481474868146,-1.0431324500231745,1.402331404210429,0.8722477925830887,-0.11706357643245839,2.527157751215371,2,right
1.031,0.09749193026801274,0.9910238369861752,0.012701020167928914,-2.5599983323307476,-1.007617169971267,1.405867852113266,0.8658758958276792,-0.11445627236808556,2.5279248229657822,2,right
1.032,0.10183690251807159,0.991775953943442,0.011653737655283387,-2.563903700079606,-0.9719277502870225,1.4091396531748237,0.8593078380357136,-0.11162624721385114,2.527641915117717,2,right
1.036,0.10615241417901801,0.9925023805745214,0.01061666379715825,-2.567193804236097,-0.9360984575190414,1.4121436777552017,0.8525489673888015,-0.10857167096365605,2.526306468441964,2,right
1.037,0.11043612618358502,0.9932052274310668,0.00959042051564843,-2.5698648224996274,-0.9001633636161191,1.4148769567268806,0.8456046708156891,-0.1052907404449709,2.523916547332235,2,right
1.042,0.11468564763453092,0.9938866289284057,0.008575635954908822,-2.5719128891784733,-0.864156305876117,1.417336686048951,0.8384803695489645,-0.1017816838003903,2.520470843815822,2,right
1.043,0.1188985379622561,0.9945487374353192,0.0075729444253902186,-2.5733341014487983,-0.8281108470844891,1.419520231126578,0.8311815146771943,-0.09804276569915413,2.5159686811865316,2,right
1.047,0.12307230915339736,0.9951937172799328,0.006582986354571986,-2.574124526849516,-0.7920602357393044,1.4214251309635493,0.8237135826725545,-0.094072293269207,2.5104100172530317,2,right
1.048,0.1272044280405721,0.9958237386826568,0.00560640822469657,-2.574280212018867,-0.7560373662593992,1.4230491021149632,0.8160820708735033,-0.08986862273971144,2.503795447192714,2,right
1.053,0.13129231864229357,0.9964409716271999,0.00464386247980973,-2.5737971926767913,-0.7200747390721817,1.4243900424463292,0.8082924929015372,-0.08543016678327009,2.496126205998132,2,right
1.054,0.135333364540448,0.9970475796803503,0.0036960073888952383,-2.5726715048553555,-0.6842044204775953,1.4254460347045466,0.800350373990589,-0.08075540254644759,2.48740417050005,2,right
1.055,0.13932491128118757,0.9976457137707637,0.0027635068574971364,-2.5708991973776727,-0.6484580021848287,1.4262153499054189,0.7922612462071585,-0.07584288035651239,2.4776318609481054,2,right
1.056,0.1432642687843407,0.9982375059377798,0.0018470301852902755,-2.56847634558392,-0.6128665604185276,1.426696450541555,0.7840306435388086,-0.07069123309164499,2.466812442127058,2,right
1.061,0.1471487137474748,0.9988250630637464,0.0009472517697368979,-2.565399066301212,-0.5774606144915333,1.426887993613688,0.7756640968400865,-0.06529918618879567,2.454949723994684,2,right
1.063,0.15097549203396515,0.9994104606050997,6.485075593484175e-05,-2.5616635340522245,-0.5422700847415229,1.4267888334876173,0.7671671286838271,-0.05966556820077167,2.442048161879932,2,right
1.064,0.15474182103804532,0.9999957363371716,-0.0007994893688787517,-2.557265998495612,-0.5073242497293731,1.42639802457815,0.7585452482721545,-0.05378932170198894,2.428112856376986,2,right
1.0659999999999998,0.15844489202048576,1.0005828841283122,-0.0016450812394787407,-2.5522028030893575,-0.47265170259760014,1.425714823860594,0.7498039466204339,-0.04766951427971248,2.4131495531234313,2,right
1.067,0.16208187240622382,1.0011738477623704,-0.0024712341388939472,-2.5464704049468865,-0.4382803065617693,1.4247386932104693,0.7409486921677227,-0.04130534940883674,2.397164642592189,2,right
1.068,0.16564990803480611,1.0017705148312044,-0.003277254587955524,-2.540065395756651,-0.40423714987808684,1.423469301576053,0.7319849268601512,-0.0346961771190179,2.3801651599238762,2,right
1.07,0.16914612535818824,1.0023747107180674,-0.004062446996562056,-2.5329845234590342,-0.3705485012964814,1.4219065269961277,0.7229180626939905,-0.02784150442419164,2.36215878476774,2,right
1.071,0.1725676335837609,1.002988192692285,-0.0048261143739116745,-2.5252247142752933,-0.33723976737896466,1.4200504584792608,0.7137534786929871,-0.020741005496192455,2.3431538410852557,2,right
1.075,0.17591152675998611,1.0036126441388329,-0.0055675590963344835,-2.5167830947785235,-0.3043354526943828,1.4179013977553003,0.7044965182942197,-0.013394531563487138,2.3231592968675714,2,right
1.0759999999999998,0.17917488580099555,1.0042496689501006,-0.00628608373554051,-2.507657013869661,-0.2718591232363765,1.4154598609003386,0.6951524871164462,-0.005802120515329983,2.30218476371509,2,right
1.08,0.18235478044884157,1.0049007861075263,-0.006980991956697748,-2.4978440646167797,-0.23983337304283858,1.412726579830768,0.6857266510846247,0.0020359938090584147,2.280240496224612,2,right
1.08,0.18544827117650114,1.005567424478581,-0.007651589502962582,-2.4873421059334273,-0.20827979392239435,1.4097025036602535,0.6762242348840265,0.010119372667393111,2.257337391126623,2,right
1.085,0.1884524110372673,1.0062509178519317,-0.008297185288158562,-2.476149284069781,-0.17721894819465805,1.4063887999126148,0.6666504207171091,0.018447363819118004,2.2334869861124864,2,right
1.0859999999999999,0.191364247464947,1.0069525002313826,-0.008917092620295474,-2.464264053888427,-0.1466703443523101,1.402786855582765,0.6570103473360835,0.02701909331060613,2.2087014582885374,2,right
1.091,0.194180824025856,1.0076733014073964,-0.009510630575489563,-2.45168519989459,-0.11665241555439425,1.3988982780370207,0.6473091093238893,0.035833457663987045,2.182993622191292,2,right
1.092,0.19689918212093213,1.0084143428235108,-0.010077125536333692,-2.438411856988655,-0.08718250086164767,1.3947248957432676,0.6375517565960841,0.04488911649352351,2.1563769272952973,2,right
1.095,0.19951636263619948,1.0091765337532077,-0.010615912903714561,-2.4244435309068364,-0.05827682912614523,1.3902687588206377,0.6277432940959663,0.05418448557415938,2.1288654549424373,2,right
1.095,0.20202940754255413,1.0099606677999087,-0.011126338987990937,-2.409780118313858,-0.029950505449061995,1.385532139397532,0.617888681655073,0.06371773038755713,2.1004739146188776,2,right
1.1,0.2044353614513181,1.0107674197292131,-0.011607763083080019,-2.3944219265095104,-0.0022175001219295796,1.380517531766002,0.6079928339910321,0.0734867601716361,2.0712176395032147,2,right
1.1,0.20673127313986528,1.0115973426398432,-0.012059559723674161,-2.3783696927089584,0.0249093600316193,1.3752276523196967,0.5980606208146039,0.08348922250031067,2.04111258120683,2,right
1.104,0.2089141970700676,1.0124508654783533,-0.012481121120961792,-2.361624602854676,0.05141839799496202,1.3696654392617704,0.5880968670176123,0.09372249842081011,2.0101753036249135,2,right
1.104,0.21098119492837977,1.0133282909012498,-0.012871859765863474,-2.3441883099158862,0.0772990906580949,1.3638340520683527,0.5781063529133481,0.10418369817663933,1.978422975814158,2,right
1.109,0.21292933721805915,1.0142297934858358,-0.013231211181670826,-2.326062951629404,0.10254207075564273,1.3577368706923918,0.5680938145009224,0.11486965754490876,1.9458733638106618,2,right
1.11,0.2147557049317518,1.0151554182879248,-0.013558636801483814,-2.307251167633773,0.12713912671939978,1.3513774944918977,0.5580639437249563,0.1257769348174248,1.9125448212992158,2,right
1.114,0.2164573913286773,1.0161050797411217,-0.013853626941318734,-2.287756115946614,0.1510832005197304,1.3447597408658414,0.5480213887019175,0.13690180845558655,1.878456279042788,2,right
1.114,0.2180315038366847,1.0170785608892405,-0.014115703837563871,-2.2675814887331223,0.17436838356832796,1.3378876435802005,0.5379707538843521,0.14824027544977877,1.8436272329787409,2,right
1.12,0.21947516609608161,1.0180755129407992,-0.014344424716286427,-2.2467315273116784,0.19698991075297748,1.3307654507658921,0.5279166001342058,0.15978805041458732,1.8080777308860811,2,right
1.12,0.22078552015948605,1.0190954551327323,-0.014539384860521922,-2.225211036340574,0.2189441526730945,1.3233976225695914,0.5178634446763968,0.17154056545178686,1.7718283575258529,2,right
1.125,0.2219597288599604,1.0201377748900646,-0.01470022064071649,-2.203025397127908,0.2402286061429218,1.3157888284377024,0.5078157609037759,0.183492970813664,1.7349002181546656,2,right
1.126,0.22299497835826534,1.0212017282696415,-0.014826612473679548,-2.1801805800047718,0.2608418830273617,1.3079439440130303,0.4977779780046023,0.19564013639984001,1.697314920309274,2,right
1.129,0.22388848087936103,1.022286440679474,-0.014918287676595662,-2.1566831556999,0.2807836974735077,1.299868047623,0.4877544803926096,0.20797665410299462,1.6590945538116104,2,right
1.13,0.22463747764803182,1.0233909078705665,-0.014975023185751356,-2.1325403056520806,0.3000548515990162,1.291566416337571,0.4777496069644826,0.22049684092771846,1.6202616692091505,2,right
1.13,0.2252392420331239,1.0245139972040407,-0.014996648115234382,-2.107759831194701,0.31865721969653504,1.2830445215743285,0.4677676502901062,0.23319474264213447,1.5808392553449855,2,right
1.133,0.22569108290904832,1.025654449202427,-0.014983046136257455,-2.082350161568275,0.33659373100414774,1.2743080242413005,0.4578128558857194,0.24606413763072366,1.540850717017593,2,right
1.1340000000000001,0.22599034824166822,1.0268108793995683,-0.014934157661410645,-2.0563203608315783,0.3538683510532181,1.2653627694761356,0.44788942167542894,0.25909854070906585,1.5003198534210929,2,right
1.135,0.22613442890406396,1.027981780507579,-0.014849981823234827,-2.02968013395013,0.37048606153713265,1.2562147811633295,0.43800149766609237,0.2722912068268623,1.4592708375737125,2,right
1.139,0.22612076272756637,1.0291655249232183,-0.01473057824428502,-2.0024398324556034,0.38645283860587637,1.2468702564793064,0.4281531858159285,0.2856351346778465,1.4177281966731232,2,right
1.139,0.22594683879501218,1.0303603676025974,-0.014576068602048816,-1.9746104599513101,0.4017756295261294,1.2373355606458292,0.4183485400683551,0.2991230702540135,1.3757167932622651,2,right
1.1440000000000001,0.22561020198504655,1.0315644493412028,-0.014386637993514473,-1.9462036775272264,0.4164623277106544,1.2276172219479402,0.40859156652265943,0.3127475103820516,1.3332618070877895,2,right
1.1440000000000001,0.225108457778075,1.032775800501788,-0.014162536103188942,-1.9172318090296525,0.4305217461555292,1.2177219270033464,0.3988862237132169,0.3265007062802939,1.2903887175318303,2,right
1.148,0.22443927733654728,1.0339923452339066,-0.013904078178799533,-1.887707846105585,0.44396358932926006,1.2076565162558703,0.38923642296910105,0.34037466717492165,1.2471232864964747,2,right
1.149,0.22360040287496227,1.0352119062268856,-0.013611645820944832,-1.857645452940225,0.4567984235559846,1.197427979665066,0.3796460288260648,0.3543611640145413,1.2034915416190246,2,right
1.153,0.2225896533385573,1.0364322100346586,-0.013285687593942835,-1.8270589706044182,0.4690376459331753,1.1870434525635847,0.3701188594630201,0.3684517333226275,1.1595197596949378,2,right
1.1540000000000001,0.22140493041354076,1.0376508930067905,-0.01292671946441521,-1.7959634209272446,0.48069345182248013,1.1765102116533932,0.3606586871353021,0.3826376812276706,1.1152344501842222,2,right
1.158,0.22004422489495257,1.0388655078554705,-0.012535325073981824,-1.7643745098074273,0.49177880095059634,1.165835671111475,0.35126923857717673,0.39691008771119046,1.0706623386759906,2,right
1.158,0.21850562344105437,1.0400735308833189,-0.012112155853726004,-1.7323086298757264,0.5023073821553641,1.1550273787751961,0.34195419534623045,0.4112598111140749,1.0258303501849166,2,right
1.1640000000000001,0.21678731574664847,1.0412723698909603,-0.01165793098874597,-1.6997828624190205,0.5122935768105915,1.1440930123770956,0.3327171940824733,0.42567749294197726,0.9807655921524303,2,right
1.1640000000000001,0.21488760217122657,1.0424593727764018,-0.011173437239039782,-1.6668149784753663,0.5217524209614857,1.1330403757984515,0.3235618266551897,0.4401535630107541,0.9354953370246657,2,right
1.169,0.21280490185894962,1.043631836831019,-0.010659528618602414,-1.633423439007956,0.5306995662009664,1.1218773953105854,0.31449164017078585,0.4546782449731445,0.8900470042784298,2,right
1.17,0.21053776138471916,1.044787018729695,-0.010117125930623786,-1.599627394064573,0.5391512393155831,1.1106121157725168,0.3055101368151057,0.46924156226809094,0.8444481417657916,2,right
1.1740000000000002,0.20808486395451203,1.0459221452049425,-0.009547216155350995,-1.565446680827877,0.5471242007282415,1.0992526967532286,0.29662077350392174,0.48383334453426363,0.7987264062473025,2,right
1.1740000000000002,0.20544503918012985,1.0470344243856928,-0.008950851687677069,-1.5309018204606366,0.5546357017634772,1.0878074085464948,0.28782696131555296,0.4984432345294951,0.752909542983344,2,right
1.178,0.20261727343979355,1.0481210577688416,-0.00832914942095663,-1.4960140136488622,0.5617034407595912,1.0762846280459248,0.27913206467981483,0.5130606955979379,0.7070253642526717,2,right
1.179,0.19960072082713454,1.0491792527733865,-0.00768328967088897,-1.4608051347446933,0.5683455180505903,1.0646928344476116,0.27053940029777257,0.5276750197268416,0.6611017266668666,2,right
1.183,0.196394714682043,1.0502062358032622,-0.007014514929785921,-1.42529772440985,0.5745803898395476,1.0530406047475196,0.26205223576704256,0.542275336234898,0.6151665071491355,2,right
1.1840000000000002,0.19299877968703832,1.051199265719022,-0.0063241284373845635,-1.3895149806594664,0.5804268209837266,1.0413366090005307,0.25367378788767053,0.5568506211341216,0.569247577445706,2,right
1.187,0.18941264450240988,1.0521556475950047,-0.0056134925497889595,-1.3534807482052142,0.5859038367105888,1.029589605307867,0.2454072206239101,0.5713897072072268,0.5233727770379523,2,right
1.188,0.1856362549041642,1.0530727466211356,-0.004884026887309818,-1.3172195059957597,0.5910306732826374,1.0178084344994331,0.2372556426975259,0.5858812948424194,0.4775698843233492,2,right
1.193,0.18166978738298323,1.0539480019982252,-0.004137206250563113,-1.2807563528518133,0.5958267276279321,1.0060020144774762,0.22922210478856014,0.60031396366745,0.43186658593340344,2,right
1.194,0.17751366315970107,1.0547789406731487,-0.003374558313377955,-1.244116991092308,0.6003115059520515,0.9941793341878362,0.22130959631982108,0.6146761850246731,0.3862904440568353,2,right
1.197,0.17316856257125982,1.0555631907690066,-0.002597661125432795,-1.2073277080475897,0.6045045713462723,0.9823494471849619,0.21352104181567416,0.6289563353054319,0.34086886171700415,2,right
1.199,0.1686354397802639,1.0562984945900469,-0.0018081404764852091,-1.1704153553549268,0.6084254904057848,0.9705214647567945,0.20585929689601015,0.6431427100455132,0.29562904635541964,2,right
1.199,0.16391553775899795,1.0569827211170526,-0.0010076671822967244,-1.1334073259311412,0.6120937788708708,0.9587045485755752,0.1983271440925336,0.6572235384736641,0.2505979727981638,2,right
1.203,0.15901040348533801,1.0576138779383473,-0.00019795436073401855,-1.0963315285167332,0.6155288463031326,0.9469079028406128,0.19092728874482462,0.6711869980885191,0.2058023470850542,2,right
1.204,0.1539219032540038,1.0581901225724555,0.0006192452144854722,-1.0592163596855173,0.6187499398080768,0.9351407658790519,0.18366235516403667,0.6850212289554232,0.16126857223933772,2,right
1.204,0.14865223795974813,1.0587097731380128,0.0014421415784710836,-1.0220906732824147,0.621776086869387,0.923412401182017,0.1765348831265454,0.6987143476238833,0.11702271633168701,2,right
1.208,0.14320395817453385,1.059171318327472,0.002268909762118968,-0.9849837475963282,0.6246260376333083,0.9117320879100778,0.1695473246902873,0.7122544606824525,0.0730904827903836,2,right
1.209,0.13757997882822035,1.0595734266445467,0.003097691639438934,-0.9479252511949876,0.6273182074737268,0.9001091110037908,0.16270204131292315,0.7256296779907631,0.029497182829810058,2,right
1.212,0.13178359327898134,1.059914954860612,0.003926597421224553,-0.9109452086930959,0.6298706209417286,0.8885527510916886,0.1560013012513567,0.738828125628019,-0.013732290129799988,2,right
1.212,0.12581848649535796,1.060194955624814,0.0047537068364080365,-0.8740739673806904,0.6323008579291494,0.8770722743317211,0.1494472772225397,0.7518379585968218,-0.05657348417750502,2,right
1.219,0.1196887469887422,1.0604126841330637,0.005577070105131067,-0.8373421650186988,0.6346260023824065,0.8656769222205936,0.143042044305904,0.7646473733207226,-0.09900241088687037,2,right
1.22,0.11339887706860388,1.0605676037346856,0.006394708866036621,-0.8007806987644179,0.6368625936287335,0.8543759013491254,0.1367875780681757,0.7772446199733969,-0.14099556567538857,2,right
1.222,0.10695380094832868,1.0606593903385855,0.0072046172527973785,-0.7644206951210613,0.6390265803218363,0.8431783730706677,0.1306857528917478,0.789618014676785,-0.18252994667112496,2,right
1.2229999999999999,0.10035887020392177,1.060687935476533,0.008004763309346487,-0.7282934808059202,0.6411332770136856,0.8320934430498654,0.12473834048821533,0.8017559516049748,-0.22358307220842505,2,right
1.226,0.09361986609017826,1.0606533478937417,0.008793090895788731,-0.6924305544321747,0.6431973233589063,0.8211301506593188,0.11894700857910935,0.8136469150299868,-0.26413299707326887,2,right
1.227,0.08674299826514019,1.060555953567805,0.009567522184691063,-0.656863558899968,0.6452326459580114,0.8102974581919947,0.11331331972630478,0.8252794913449852,-0.30415832761754164,2,right
1.2309999999999999,0.07973489957540075,1.0603962941008904,0.01032596079908515,-0.6216242543930302,0.6472524228455663,0.7996042398575653,0.10783873029502042,0.8366423810997571,-0.34363823586010783,2,right
1.232,0.0726026167074714,1.0601751234770418,0.011066295611086003,-0.5867444918778942,0.649269050629241,0.7890592705311967,0.10252458953277747,0.8477244110825939,-0.38255247269113163,2,right
1.237,0.0653535966908657,1.0598934032179421,0.011786405203988782,-0.5522561870035971,0.6512941142856263,0.7786712142236892,0.0973721387481357,0.8585145464819723,-0.42088138029458116,2,right
1.238,0.05799566941751779,1.0595522960027834,0.012484162993576842,-0.5181912943007031,0.6533383596186424,0.768448612242269,0.09238251057348283,0.869001903160648,-0.4586059039022881,2,right
1.2409999999999999,0.05053702649733287,1.0591531578405122,0.013157442999689703,-0.4845817815795165,0.6554116683863593,0.758399871011754,0.08755672829661415,0.8791757600739771,-0.4957076029913109,2,right
1.242,0.042986196889287585,1.058697528895751,0.013804126255105052,-0.45145960442847716,0.6575230361020683,0.7485332495262755,0.08289570524630292,0.8890255718634387,-0.5321686620346681,2,right
1.246,0.03535201982676968,1.0581871230746909,0.014422107834132747,-0.4188566807149491,0.6596805525154995,0.7388568464022024,0.07840024421752985,0.8985409816554625,-0.5679719009137764,2,right
1.247,0.027643615593854698,1.0576238164785638,0.015009304473135563,-0.38680486499191835,0.66189138478016,0.72937858650342,0.07407103692251062,0.9077118340947656,-0.6031007850991367,2,right
1.252,0.019870354710080185,1.057009634835268,0.015563662733372072,-0.3553359227155197,0.6641617633128754,0.7201062071106378,0.06990866345413313,0.9165281886404724,-0.637539435703975,2,right
1.253,0.012041826054865605,1.056346740028286,0.0160831676210996,-0.3244815041797993,0.6664969703517492,0.7110472436069425,0.06591359174889182,0.9249803331523285,-0.6712726395136552,2,right
1.256,0.004167804420549181,1.055637415858059,0.01656585153612578,-0.29427311807670664,0.6689013312189035,0.7022090146523892,0.062086177036883565,0.9330587977933386,-0.7042858590917461,2,right
1.2570000000000001,-0.0037417820664672947,1.0548840531930603,0.01700980337841888,-0.2647421045909814,0.6713782082945351,0.6935986068210049,0.058426661266908854,0.9407543692741265,-0.736565243061642,2,right
1.261,-0.011676884269327023,1.0540891346911196,0.017413177611970816,-0.23591960794136743,0.6739299977090046,0.6852228586741987,0.05493517249520211,0.9480581054632855,-0.7680976366606134,2,right
1.262,-0.019627363776478647,1.0532552192901392,0.017774203068464806,-0.20783654828143958,0.6765581287598728,0.6770883442452045,0.05161172422679668,0.9549613503868996,-0.7988705926610941,2,right
1.265,-0.02758302377754666,1.0523849266738232,0.01809119127059866,-0.18052359287527658,0.679263066061005,0.6692013559098338,0.04845621470337928,0.9614557496188283,-0.8288723827109861,2,right
1.266,-0.03553363887912531,1.051480921902283,0.018362544071446656,-0.15401112646524684,0.6820443144310777,0.6615678866194933,0.04546842615380864,0.9675332659597206,-0.8580920089379994,2,right
1.2670000000000001,-0.043468983738366294,1.0505459003627213,0.018586760439709905,-0.12832922075129807,0.6849004265290367,0.6541936114731108,0.042648024063262416,0.9731861951170727,-0.8865192152925598,2,right
1.27,-0.05137886045967386,1.0495825731707298,0.01876244224628103,-0.10350760290335383,0.6878290132442773,0.647083868605326,0.039994556539296164,0.9784071809949799,-0.91414449789699,2,right
1.271,-0.05925312474950458,1.048593653154812,0.018888298911978272,-0.0795756230247119,0.6908267568415304,0.6402436394051044,0.037507453831742144,0.9831892303035282,-0.9409591138710348,2,right
1.271,-0.06708171086330353,1.0475818415595166,0.018963150787480516,-0.05656222045669705,0.6938894268206349,0.6336775282600549,0.03518602802454963,0.9875257263810513,-0.9669550884698378,2,right
1.275,-0.07485465541132055,1.0465498155827833,0.018985931179370173,-0.03449588876323804,0.6970118983795517,0.6273897423471619,0.03302947289631008,0.9914104422237386,-0.9921252205727858,2,right
1.276,-0.08256212012233398,1.045500216839304,0.018955686999212223,-0.013404639206564954,0.7001881733291575,0.6213840721718012,0.031036863942320983,0.9948375527363154,-1.0164630866002378,2,right
1.28,-0.09019441370445427,1.0444356408335507,0.01887157807971823,0.006684037442110245,0.703411403348559,0.6156638733773117,0.029207158551517835,0.9978016462162402,-1.0399630429327986,2,right
1.281,-0.09774201298167824,1.0433586275204088,0.018732875270800052,0.025743210856295298,0.7066739155418611,0.6102320500235213,0.027539196332076948,1.000297735082567,-1.0626202269054354,2,right
1.285,-0.10519558350615461,1.0422716530102478,0.018538957492407426,0.04374655293883734,0.7099672402975,0.6050910393530562,0.026031699579962698,1.0023212658593053,-1.0844305564463366,2,right
1.286,-0.1125459998427055,1.041177122440539,0.01828930796782676,0.060668381495112236,0.7132821414593804,0.6002427980290055,0.02468327388516039,1.003868128421782,-1.1053907284280144,2,right
1.29,-0.11978436569475417,1.0400773639979546,0.01798350988348609,0.07648370584947871,0.7166086488191727,0.5956887898283464,0.023492408870800473,1.0049346645131678,-1.12549821579573,2,right
1.29,-0.12690203399114192,1.0389746240398237,0.017621241720102158,0.09116827445666086,0.7199360929392113,0.5914299747763601,0.022457479060840346,1.0055176755369684,-1.1447512635358885,2,right
1.296,-0.13389062698609497,1.0378710632340156,0.017202272479983672,0.10469862455661696,0.7232531423154945,0.5874667997081181,0.02157674487242689,1.0056144296299208,-1.1631488835446113,2,right
1.297,-0.14074205634643086,1.0367687536125465,0.0167264570025919,0.11705213391827586,0.7265478428903209,0.5837991902439568,0.020848353729515236,1.0052226680183505,-1.1806908484542467,2,right
1.301,-0.14744854311785127,1.0356696764184166,0.016193731521479945,0.12820707471427495,0.7298076599240941,0.5804265441667065,0.020270341294766837,1.004340610659655,-1.1973776844731236,2,right
1.301,-0.15400263738423475,1.0345757206192312,0.01560410957623539,0.1381426695655203,0.7330195222358015,0.5773477261892908,0.019840632817192817,1.0029669611691918,-1.2132106632914028,2,right
1.304,-0.16039723737019093,1.0334886819652034,0.014957678357647398,0.1468391497910104,0.7361698688216037,0.5745610641021579,0.019557044593445885,1.0011009110314373,-1.2281917931034154,2,right
1.305,-0.16662560769590679,1.0324102624829679,0.014254595537116577,0.15427781589492412,0.7392446978608705,0.5720643462908531,0.019417285541095834,0.9987421430928837,-1.2423238087944313,2,right
1.3090000000000002,-0.17268139647706957,1.0313420703187992,0.013495086614756494,0.1604411003194725,0.742229618118863,0.5698548206148836,0.019418958882649502,0.9958908343327237,-1.2556101613373472,2,right
1.31,-0.17855865096924062,1.0302856198706378,0.01267944281247398,0.16531263248845673,0.745109902755079,0.567929194639867,0.019559563939495594,0.9925476579059622,-1.2680550064423317,2,right
1.314,-0.18425183148190802,1.0292423321725244,0.01180801953219183,0.16887730616286395,0.7478705455460678,0.5662836372157847,0.01983649803536772,0.9887137844521781,-1.2796631925000377,2,right
1.315,-0.18975582332826482,1.0282135355153001,0.01088123538825429,0.17112134912617116,0.750496319531253,0.5649137813949833,0.020247058509325025,0.9843908826617491,-1.2904402478565569,2,right
1.319,-0.19506594662716223,1.0272004663037166,0.009899571801631833,0.1720323952133191,0.7529718380900092,0.5638147286843881,0.020788444838648765,0.9795811190899371,-1.3003923674558777,2,right
1.319,-0.20017796382903813,1.0262042701626148,0.008863573110767187,0.17159955869356694,0.7552816184578888,0.5629810546271891,0.02145776087244456,0.9742871572078209,-1.3095263988832047,2,right
1.324,-0.20508808489539093,1.0252260033136997,0.0077738471150579705,0.169813511013648,0.7574101476895067,0.5624068157100531,0.022252017177123724,0.9685121556776687,-1.3178498278401154,2,right
1.324,-0.20979297011874812,1.0242666342495237,0.006631065932085183,0.16666655990381976,0.7593419510751661,0.562085557592697,0.02316813349531266,0.9622597658389324,-1.3253707630801557,2,right
1.329,-0.21428973062216639,1.0233270457314922,0.00543596702912641,0.16215273084554493,0.7610616630178229,0.5620103246574094,0.024202941320106672,0.9555341283896666,-1.3320979208311312,2,right
1.329,-0.21857592662005504,1.0224080371320128,0.004189354288961413,0.15626785089565645,0.7625541003764713,0.5621736708768613,0.025353186586943282,0.9483398692467879,-1.3380406087280239,2,right
1.334,-0.22264956355245674,1.0215103271274422,0.0028920989881526006,0.14900963485795293,0.7638043382814702,0.5625676719992652,0.026615532484086032,0.9406820945756137,-1.3432087092814735,2,right
1.335,-0.22650908621666233,1.0206345567336517,0.0015451405965979433,0.1403777737892485,0.7647977884267133,0.5631839390506512,0.027986562374881375,0.9325663850197018,-1.3476126629210736,2,right
1.335,-0.23015337101445865,1.0197812926650063,0.00014948734158654818,0.13037402582296675,0.7655202798429003,0.5640136331547144,0.02946278281057775,0.9239987892361768,-1.3512634506803305,2,right
1.339,-0.23358171643194073,1.0189510309865555,-0.001293783490618937,0.11900230928942705,0.7659581421554694,0.5650474816713426,0.03104062660464853,0.914985816882341,-1.354172576604497,2,right
1.34,-0.23679383188935943,1.0181442010118573,-0.0027835255204964413,0.10626879810803022,0.7660982913300157,0.5662757956555811,0.032716455948041914,0.9055344311561064,-1.3563520499437138,2,right
1.34,-0.23978982512597233,1.0173611693794091,-0.004318523497263129,0.09218201918625964,0.7659283177505399,0.5676884886183919,0.03448656555978768,0.8956520409159884,-1.3578143671618716,2,right
1.3430000000000002,-0.24257018829126423,1.0166022442315892,-0.005897493758724361,0.07675295037471827,0.7654365756915686,0.5692750964661438,0.036347185875851805,0.8853464923631703,-1.3585724937728931,2,right
1.344,-0.24513578289845916,1.0158676794243493,-0.007519084913989207,0.059995115396327896,0.7646122718340399,0.5710247983073039,0.038294486281045204,0.8746260602585049,-1.358639846010728,2,right
1.348,-0.2474878237913295,1.0151576786999652,-0.009181878743588832,0.04192467098216336,0.7634455496904701,0.57292643771032,0.04032457838906349,0.8634994386460799,-1.358030272337286,2,right
1.349,-0.2496278623029583,1.014472399748284,-0.010884391320920369,0.02256048262431514,0.7619275675874848,0.574968544102191,0.04243351937599458,0.8519757310537616,-1.3567580347905117,2,right
1.3530000000000002,-0.25155776882459235,1.0138119580728382,-0.012625074367625486,0.0019241874795493726,0.7600505692631339,0.5771393541867151,0.04461731537287982,0.8400644401399355,-1.3548377901728337,2,right
1.354,-0.253279715023117,1.013176430578774,-0.014402316864083227,-0.019959755864459673,0.75780794691892,0.5794268333668513,0.04687192492315215,0.8277754567545021,-1.352284571078256,2,right
1.358,-0.25479615594153915,1.0125658588089343,-0.016214446942671084,-0.043064030815906276,0.755194296722165,0.581818697177034,0.04919326251100099,0.8151190483810443,-1.3491137667544786,2,right
1.359,-0.2561098121969462,1.0119802517672483,-0.018059734093537207,-0.06735843945786889,0.7522054667533076,0.5843024327316532,0.051577202166928744,0.8021058469259671,-1.345341103794557,2,right
1.3630000000000002,-0.2572236524617411,1.0114195882835888,-0.019936391708956728,-0.09280989254237257,0.7488385973916751,0.5868653201962423,0.05401958115696686,0.7887468358193302,-1.3409826266508025,2,right
1.364,-0.25814087638189775,1.0108838188926257,-0.021842579983647355,-0.11938241286580567,0.7450921541322173,0.5894944542882208,0.05651620376221134,0.7750533363910391,-1.3360546779618447,2,right
1.369,-0.2588648980551804,1.0103728672208285,-0.023776409178298548,-0.1470371520954108,0.740965952824606,0.5921767658142971,0.059062845155516935,0.7610369934850321,-1.3305738786820576,2,right
1.37,-0.2593993301658771,1.0098866308982362,-0.025735943244582397,-0.1757324211198878,0.7364611773250263,0.5948990432518678,0.0616552553823575,0.7467097602731141,-1.3245571080008591,2,right
1.374,-0.2597479688521305,1.0094249820323475,-0.027719203801286656,-0.20542373400036068,0.7315803895498966,0.5976479543819371,0.06428916345301536,0.7320838822291216,-1.3180214830377674,2,right
1.375,-0.25991477936715207,1.0089877672995866,-0.029724174442478494,-0.2360638656010638,0.726327531919667,0.6004100679812341,0.06696028155340647,0.7171718802231803,-1.310984338297502,2,right
1.3780000000000001,-0.2599038825840966,1.0085748077251755,-0.03174880535082164,-0.2676029229820848,0.7207079221797592,0.6031718755813195,0.06966430938197947,0.7019865326949252,-1.3034632048678825,2,right
1.3780000000000001,-0.2597195423826435,1.008185898234324,-0.0337910181821411,-0.2999884306393585,0.7147282405846366,0.6059198133025485,0.07239693862024585,0.6865408568636896,-1.2954757893417896,2,right
1.382,-0.25936615394052615,1.0078208070652026,-0.03584871118017863,-0.33316542967982427,0.7083965094299248,0.6086402837707985,0.07515385754460538,0.6708480889328581,-1.2870399524430085,2,right
1.383,-0.25884823293408016,1.0074792751354613,-0.03791976447356345,-0.3670765910222385,0.7017220649164545,0.6113196781248627,0.0779307557872256,0.6549216632447825,-1.2781736873343856,2,right
1.3869999999999998,-0.25817040562911214,1.0071610154472255,-0.04000204550112527,-0.40166234271655704,0.6947155213290649,0.6139443981223769,0.08072332925381599,0.6387751903419222,-1.2688950975853948,2,right
1.3880000000000001,-0.2573373998199357,1.0068657126011245,-0.04209341450785237,-0.4368610114770748,0.6873887275119994,0.6165008783520651,0.08352728520620768,0.6224224338891546,-1.2592223747749125,2,right
1.392,-0.2563540365535529,1.0065930224717412,-0.04419173005348073,-0.4726089785266104,0.6797547156217406,0.6189756085599707,0.08633834751770643,0.6058772864115325,-1.2491737757037769,2,right
1.393,-0.25522522255935476,1.0063425720785502,-0.046294854478269185,-0.5088408498509592,0.671827642137185,0.6213551560971852,0.08915226210923222,0.5891537438011338,-1.2387675991905092,2,right
1.3980000000000001,-0.25395594329215887,1.006113959669335,-0.0484006592729379,-0.5454896409645951,0.6636227211061357,0.6236261884963893,0.09196480257429104,0.5722658785460581,-1.2280221624224532,2,right
1.399,-0.2525512564862372,1.0059067550171936,-0.050507030301312046,-0.5824869762901722,0.6551561496062125,0.6257754961842856,0.09477177600084537,0.5552278116340673,-1.2169557768335062,2,right
1.402,-0.25101628611021987,1.0057204999178946,-0.05261187282856214,-0.6197633032557702,0.6464450253974414,0.6277900153367317,0.09756902898927455,0.5380536831363291,-1.205586723508507,2,right
1.403,-0.24935621661323432,1.0055547088644674,-0.05471311631768081,-0.6572481212150153,0.6375072567429871,0.629656850883069,0.10035245382119796,0.5207576217435921,-1.193933228263013,2,right
1.403,-0.247576287364058,1.0054088698726538,-0.056808718968453825,-0.6948702252962121,0.6283614643737434,0.6313632996657914,0.10311799465396979,0.5033537140079078,-1.1820134368155983,2,right
1.4080000000000001,-0.24568178719516776,1.0052824454305547,-0.05889667198026211,-0.7325579648202138,0.6190268757860052,0.6328968737457671,0.10586165357121183,0.4858559743099681,-1.1698453906185675,2,right
1.4080000000000001,-0.24367804896375814,1.0051748735455635,-0.060975003521957796,-0.7702395135913304,0.6095232131318593,0.634245323765056,0.10857949636412657,0.4682783163044328,-1.1574470037625364,2,right
1.409,-0.2415704440418208,1.0050855688636626,-0.06304178239456842,-0.8078431451611195,0.5998705778892341,0.6353966621389686,0.1112676579982278,0.4506345261140948,-1.1448360411002303,2,right
1.412,-0.23936437665015312,1.0050139238396012,-0.06509512137837854,-0.8452975038290693,0.5900893365690708,0.6363391857707704,0.11392234776447936,0.4329382372761132,-1.1320300975845061,2,right
1.412,-0.23706527794882215,1.0049593099382468,-0.06713318026250906,-0.8825318644801877,0.58020001064553,0.637061498059652,0.1165398541226414,0.41520290738984883,-1.1190465787850221,2,right
1.4180000000000001,-0.23467859979560712,1.0049210788500662,-0.06915416856146876,-0.9194763785641392,0.5702231719668204,0.637552530111953,0.11911654924453818,0.3974417964156462,-1.1059026825473657,2,right
1.4180000000000001,-0.23220980809613945,1.0048985637108065,-0.07115634793008457,-0.9560623058561676,0.5601793438328052,0.637801561142777,0.1216488932648659,0.37966794657375313,-1.0926153817578852,2,right
1.422,-0.22966437569325934,1.0048910803254851,-0.07313803429455676,-0.992222232106619,0.5500889077110215,0.6377982380700442,0.12413343824705167,0.3618941637924589,-1.0792014081769687,2,right
1.422,-0.22704777477217286,1.0048979284059212,-0.07509759972116001,-1.0278902726850492,0.5399720155624959,0.6375325943023745,0.1265668318715587,0.3441330006544552,-1.0656772373030448,2,right
1.426,-0.2243654687890828,1.0049183928369658,-0.07703347404533274,-1.0630022623238715,0.5298485077485466,0.6369950677214906,0.12894582085390469,0.3263967407903878,-1.0520590742291707,2,right
1.4269999999999998,-0.22162290396051174,1.0049517449884349,-0.07894414628381093,-1.0974959310652805,0.5197378364896301,0.6361765178591102,0.13126725409952372,0.30869738466856783,-1.0383628404537097,2,right
1.431,-0.21882550037455523,1.0049972440868107,-0.08082816585112916,-1.1313110665137793,0.509658994847209,0.6350682422675464,0.13352808560245516,0.29104663672984465,-1.0246041616062807,2,right
1.432,-0.21597864280236986,1.00505413865332,-0.08268414359817992,-1.1643896624950432,0.49963045119960336,0.6336619920824489,0.1357253770946869,0.27345589381671537,-1.010798356049891,2,right
1.436,-0.2130876712997961,1.005121668005779,-0.08451075268462764,-1.1966760542200805,0.48967008918281985,0.6319499867753181,0.1378563004528154,0.25593623484585043,-0.996960424319945,2,right
1.4369999999999998,-0.2101578716974139,1.005199063814039,-0.08630672929090108,-1.2281170400517094,0.4797951530674449,0.6299249280925907,0.13991813986851095,0.23849841167335417,-0.9831050393606326,2,right
1.4409999999999998,-0.20719446608351133,1.0052855516945678,-0.08807087317166369,-1.2586619899682552,0.470022198542831,0.6275800131772376,0.14190829378909386,0.2211528411022504,-0.9692465375190701,2,right
1.442,-0.20420260338789264,1.0053803528279726,-0.08980204805152234,-1.288262940817105,0.4603670488799997,0.6249089468679436,0.14382427663433808,0.20390959798188682,-0.9553989102574744,2,right
1.446,-0.20118735017498743,1.0054826855829555,-0.09149918186426202,-1.31687467844833,0.4508447564449292,0.6219059531700353,0.14566372029541902,0.18677840934918696,-0.9415757965435961,2,right
1.4469999999999998,-0.19815368175343934,1.0055917671309105,-0.09316126683870589,-1.344454806816023,0.44146956953418615,0.618565785891406,0.14742437542171802,0.1697686495619417,-0.9277904758796311,2,right
1.452,-0.19510647370607212,1.0057068150362019,-0.09478735943712314,-1.3709638041322845,0.4322549045051954,0.6148837384357544,0.1491041125009817,0.15288933637462612,-0.9140558619298598,2,right
1.453,-0.1920504939364272,1.0058270488072074,-0.09637658015462654,-1.396365066155967,0.4232133231738254,0.6108556527444976,0.15070092273811667,0.13614912790754888,-0.9003844967073312,2,right
1.4569999999999999,-0.18899039531503756,1.00595169139351,-0.09792811318936402,-1.4206249366953163,0.414356515452384,0.6064779273777529,0.15221291873767165,0.11955632046048854,-0.8867885452800208,2,right
1.4580000000000002,-0.18593070899202288,1.0060799706164036,-0.09944120599443546,-1.4437127254005857,0.4056952872015825,0.6017475247238021,0.1536383349948292,0.10311884712234613,-0.8732797909570288,2,right
1.4609999999999999,-0.18287583842396,1.0062111205225845,-0.10091516872450082,-1.4656007129195272,0.39723955327051713,0.596661977325459,0.15497552819948962,0.08684427712874149,-0.8598696309155751,2,right
1.462,-0.17983005414334594,1.0063443826537415,-0.10234937359243859,-1.4862641434853747,0.38899833569924924,0.5912193933107571,0.1562229773577868,0.07073981591990369,-0.846569072229757,2,right
1.465,-0.17679748927998554,1.0064790072275145,-0.1037432541527654,-1.505681205003597,0.3809797670591235,0.5854184609143638,0.1573792837351276,0.0548123058516516,-0.8333887282622865,2,right
1.466,-0.17378213582626828,1.0066142542276695,-0.10509630452837156,-1.523832996700236,0.37319109890655244,0.5792584520751067,0.15844317062459248,0.03906822751272734,-0.8203388153807093,2,right
1.47,-0.1707878416228258,1.0067493944036006,-0.10640807859569709,-1.5407034843911487,0.36563871532661074,0.5727392250939751,0.1594134829442784,0.02351370160223373,-0.8074291499599171,2,right
1.4709999999999999,-0.16781830802816802,1.0068837101817292,-0.10767818914138315,-1.5562794434278897,0.35832815154341896,0.5658612263359293,0.16028918666690273,0.008154491321434225,-0.7946691456331129,2,right
1.4709999999999999,-0.16487708822699368,1.0070164964935717,-0.10890630700172194,-1.5705503893723476,0.35126411757495574,0.5586254909578221,0.16106936808548944,-0.007003994760690367,-0.7820678107651748,2,right
1.476,-0.16196758613024384,1.0071470615266664,-0.11009216019505139,-1.5835084966652444,0.3444505268191003,0.5510336426474091,0.16175323292252833,-0.021956699385140773,-0.7696337461798429,2,right
1.4769999999999999,-0.15909305582771358,1.0072747274044176,-0.11123553305554075,-1.5951485066332776,0.3378905290008273,0.543087892375909,0.16234010529663437,-0.036698912798817485,-0.7573751432753089,2,right
1.4769999999999999,-0.15625660156440593,1.0073988307992803,-0.11233626537421532,-1.605467628126024,0.3315865460875504,0.5347910361988801,0.16282942656429764,-0.05122626841999688,-0.7452997827203217,2,right
1.4809999999999999,-0.1534611782132763,1.0075187234822778,-0.11339425155018197,-1.6144654351533376,0.3255403093227588,0.526146452157667,0.16322075405020067,-0.06553473794716273,-0.7334150338663248,2,right
1.482,-0.15070959220847963,1.007633772811343,-0.11440943975194219,-1.6221437648068118,0.3197528959863876,0.5171580963141492,0.16351375967239307,-0.07962062592587496,-0.7217278549089148,2,right
1.485,-0.14800450289451283,1.0077433621601686,-0.11538183108525693,-1.6285066167950057,0.31422476531473026,0.5078304979171808,0.1637082284644956,-0.09348056381079044,-0.7102447937753626,2,right
1.486,-0.14534842424388025,1.0078468912874972,-0.11631147876031928,-1.6335600548349658,0.30895579347101065,0.4981687536795983,0.16380405699605727,-0.1071115035639323,-0.6989719897040705,2,right
1.4909999999999999,-0.14274372689711762,1.0079437766448833,-0.11719848724632542,-1.6373121099221002,0.30394530754999083,0.48817852113998766,0.1638012516919072,-0.12051071082966545,-0.6879151754824033,2,right
1.492,-0.1401926404812801,1.0080334516197298,-0.11804301139594399,-1.639772685496709,0.29919211860073336,0.47786601108242355,0.16369992705105885,-0.1336757577261876,-0.6770796803099225,2,right
1.495,-0.1376972561656716,1.0081153667103562,-0.11884525551767174,-1.6409534645216954,0.29469455365237973,0.46723797898643876,0.1635003037654424,-0.146604515292688,-0.6664704332546487,2,right
1.495,-0.13525952941650043,1.0081889896315621,-0.11960547237149007,-1.6408678184822638,0.2904504867285493,0.4563017154785376,0.16320270673845746,-0.1592951456306612,-0.6560919672706025,2,right
1.5,-0.1328812829151148,1.0082538053520036,-0.12032396206241057,-1.6395307183146945,0.2864573688367001,0.4450650357556423,0.16280756300305546,-0.1717460937771904,-0.6459484237455057,2,right
1.501,-0.1305642096073873,1.0083093160668282,-0.12100107080982317,-1.63695864726762,0.28271225691952667,0.43353626794995737,0.1623153995387788,-0.18395607934733804,-0.6360435575481762,2,right
1.505,-0.12830987585433432,1.008355041109591,-0.12163718957969585,-1.6331695156955848,0.27921184175619773,0.42172424040385054,0.1617268409869029,-0.1959240879820963,-0.6263807425458107,2,right
1.506,-0.1261197246564052,1.008390516807349,-0.122232752578046,-1.6281825777810854,0.2759524748019554,0.4096382678224901,0.1610426072625474,-0.2076493626376637,-0.6169629775620227,2,right
1.51,-0.1239950789271785,1.0084152962828037,-0.12278823561266103,-1.6220183501777394,0.2729301939553114,0.39728813627113635,0.16026351106234343,-0.21913139475112106,-0.60779289274719,2,right
1.511,-0.12193714479662109,1.008428949207523,-0.12330415433349239,-1.6146985325637406,0.2701407482427752,0.38468408698317635,0.15939045526596807,-0.23036991531688622,-0.5988727563333587,2,right
1.514,-0.1199470149277101,1.0084310615109056,-0.12378106236101173,-1.6062459300913192,0.2675796214117433,0.37183679894420196,0.15842443022958222,-0.24136488590763056,-0.5902044817466561,2,right
1.515,-0.11802567183168083,1.0084212350514594,-0.12421954930849369,-1.5966843777145412,0.26524205442285814,0.3587573702166757,0.15736651096893542,-0.252116489672641,-0.5817896350508717,2,right
1.521,-0.11617399116752088,1.0083990872600537,-0.12462023870170574,-1.5860386663744734,0.263123066833813,0.34545729796899804,0.15621785422963205,-0.2626251223459125,-0.5736294426965881,2,right
1.521,-0.11439274501165995,1.0083642507670025,-0.12498378580070289,-1.5743344710174807,0.2612174770672359,0.3319484571720944,0.15497969544178558,-0.27289138329555757,-0.5657247995509609,2,right
1.524,-0.11268260508345952,1.008316373024247,-0.12531087533441834,-1.5615982804192419,0.25951992155592646,0.31824307792597223,0.15365334555602467,-0.2829160666454199,-0.558076277183979,2,right
1.525,-0.1110441459112643,1.0082551159308406,-0.1256022191677591,-1.5478573287839563,0.2580248727593467,0.3043537213780662,0.1522401877575539,-0.2927001524990822,-0.550684132387764,2,right
1.531,-0.10947784792435297,1.0081801554661336,-0.125858553930387,-1.5331395290851744,0.25672665604588085,0.29029325419459107,0.15074167405471506,-0.30224479829576145,-0.5435483159062007,2,right
1.5319999999999998,-0.10798410045890096,1.0080911813320823,-0.12608063864376182,-1.5174734081117267,0.25561946543597475,0.2760748215455565,0.14915932173824145,-0.31155133032689264,-0.5366684813529292,2,right
1.534,-0.1065632046695914,1.0079878966053466,-0.12626925238539802,-1.5008880431793348,0.2546973782018487,0.26171181856357245,0.14749470970714923,-0.3206212354415101,-0.5300439942964634,2,right
1.535,-0.1052153763412174,1.0078700174014243,-0.12642519202553695,-1.483413000465684,0.25395436832004087,0.24721786023607942,0.14574947465696367,-0.329456152967849,-0.5236739414919325,2,right
1.54,-0.10394074859631283,1.0077372725549567,-0.12654927006361322,-1.465078274924017,0.2533843187735888,0.23260674969018857,0.1439253071257385,-0.3380578668779049,-0.517557140239683,2,right
1.541,-0.10273937449604546,1.007589403320475,-0.12664231258273473,-1.44591423172767,0.2529810327011862,0.21789244482889927,0.14202394739861066,-0.3464282982147712,-0.5116921478513766,2,right
1.541,-0.10161122953271351,1.0074261630964607,-0.1267051573316172,-1.4259515491954102,0.25273824339116796,0.20308902327708606,0.14004718129900673,-0.354569497770704,-0.5060772712032873,2,right
1.544,-0.1005562140136899,1.0072473171733536,-0.12673865193626138,-1.4052211631644018,0.2526496231345664,0.18821064565572923,0.1379968359440801,-0.362483638947039,-0.5007105763542418,2,right
1.544,-0.09957415533867744,1.0070526425032238,-0.12674365223898917,-1.3837542128724043,0.25270879103143307,0.17327151750465145,0.13587477556934124,-0.37017301069522907,-0.49558989820470795,2,right
1.545,-0.0986648101738386,1.0068419274864375,-0.12672102076044278,-1.3615819885833882,0.25290931998812877,0.1582858507175226,0.13368289749962156,-0.3776400104688039,-0.49071285017591276,2,right
1.5490000000000002,-0.09782786652835541,1.006614971770212,-0.1266716252802684,-1.3387358812857106,0.2532447432231999,0.14326782565476556,0.13142312829361155,-0.3848871371715581,-0.4860768338915775,2,right
1.55,-0.09706294574379018,1.0063715860550617,-0.1265963375335516,-1.3152473346927225,0.25370856052041135,0.12823155479773451,0.12909742006140168,-0.3919169841178225,-0.48167904884722107,2,right
1.5530000000000002,-0.09636960441378328,1.0061115919072503,-0.12649603202223214,-1.291147799598765,0.2542942443248638,0.11319104826365019,0.12670774694873382,-0.3987322320262751,-0.47751650205301543,2,right
1.554,-0.09574733625755573,1.005834821578863,-0.12637158494321196,-1.2664686905444253,0.25499524569904,0.0981601811985965,0.12425610178147561,-0.40533564206811606,-0.4735860176368699,2,right
1.56,-0.09519557397406841,1.005541117841591,-0.12622387323575188,-1.2412413447236414,0.25580500014009744,0.0831526630054135,0.12174449286364078,-0.41173004898980764,-0.46988424639510323,2,right
1.56,-0.09471369110494618,1.0052303338440556,-0.12605377374796042,-1.2154969830634927,0.2567169332600765,0.06818200836330922,0.11917494092209485,-0.41791835432996344,-0.46640767527873955,2,right
1.565,-0.09430100393196061,1.0049023330040108,-0.1258621625163413,-1.1892666734058492,0.2577244663310233,0.053261509996040256,0.11654947619090777,-0.4239035197493625,-0.4631526368041291,2,right
1.5659999999999998,-0.09395677342759866,1.0045569889461148,-0.12564991414613555,-1.1625812957184722,0.25882102169733995,0.038404213145577695,0.11387013562814255,-0.4296885604924642,-0.4601153183772527,2,right
1.568,-0.09368020726697289,1.004194185494382,-0.1254179012756512,-1.1354715092616776,0.26000002805796674,0.023622891708280157,0.11113896025770252,-0.4352765389982073,-0.4572917715217139,2,right
1.569,-0.0934704618999762,1.0038138167265587,-0.12516699410663396,-1.1079677216352775,0.26125492562127733,0.008930025990739493,0.10835799262869965,-0.4406705586772949,-0.4546779210010604,2,right
1.575,-0.09332664467659017,1.0034157870951612,-0.12489805998546487,-1.0801000596292045,0.26257917113582263,-0.005662217957354389,0.10552927438465086,-0.4458737578725884,-0.45226957382670113,2,right
1.5759999999999998,-0.09324781601536708,1.0030000116171263,-0.12461196302383282,-1.0518983418000047,0.2639662428002962,-0.020142007475765545,0.10265484393466115,-0.45088930401867217,-0.45006242814329755,2,right
1.578,-0.09323299160344323,1.002566416132091,-0.12430956374964355,-1.023392052694254,0.265409645056312,-0.03449786093386329,0.09973673421860885,-0.4557203880160892,-0.4480520819841125,2,right
1.579,-0.09328114461440057,1.0021149376285468,-0.12399171877915328,-0.9946103186389047,0.26690291326778476,-0.048718663920266955,0.09677697055821108,-0.46037021883520407,-0.4462340418893887,2,right
1.5830000000000002,-0.09339120792785764,1.0016455246364018,-0.12365928050027848,-0.9655818850176131,0.2684396182908835,-0.06279368402355592,0.0937775685857166,-0.4648420183641067,-0.4446037313814062,2,right
1.585,-0.09356207633267406,1.0011581376829972,-0.12331309675553603,-0.9363350949512145,0.2700133709386909,-0.0767125842452616,0.09074053224184725,-0.4691390165144432,-0.4431564992904345,2,right
1.588,-0.09379260869426671,1.0006527498077753,-0.1229540105135362,-0.9068978692997288,0.2716178263448447,-0.0904654350859707,0.08766785183448969,-0.473264446598538,-0.4418876279263468,2,right
1.589,-0.09408163006586973,1.0001293471304178,-0.12258285952236075,-0.8772976879025669,0.27324668823056114,-0.10404272534495139,0.08456150214952562,-0.47722154099066094,-0.4407923410912021,2,right
1.5930000000000002,-0.09442793372474582,0.9995879294696157,-0.1222004759446957,-0.8475615719729789,0.2748937130795486,-0.11743537167326631,0.0814234406050796,-0.48101352708479,-0.4398658119286285,2,right
1.594,-0.0948302831180339,0.9990285110135345,-0.1218076859789763,-0.8177160675622371,0.2765527142254067,-0.1306347269198601,0.07825560544036228,-0.4846436235607285,-0.43910317060635196,2,right
1.599,-0.09528741370788804,0.9984511210455035,-0.12140530947101462,-0.7877872300085803,0.27821756585617696,-0.14363258730960587,0.07505991393018917,-0.4881150369699498,-0.438499511828713,2,right
1.599,-0.09579803470977685,0.9978558047277116,-0.1209941595186531,-0.757800609285552,0.2798822069407617,-0.15642119849176547,0.07183826061616444,-0.49143095865207254,-0.4380499021764999,2,right
1.6030000000000002,-0.09636083071965591,0.9972426239431357,-0.12057504207031493,-0.7277812361640504,0.28154064508196663,-0.16899326049676416,0.0685925155454336,-0.49459456199239915,-0.4377493872718973,2,right
1.6030000000000002,-0.09697446322554229,0.9966116581935692,-0.12014875551622535,-0.6977536091021675,0.2831869603009338,-0.18134193163860243,0.06532452250782866,-0.49760900003049763,-0.43759299876680363,2,right
1.607,-0.09763757199934466,0.9959630055497518,-0.11971609026795099,-0.6677416817767271,0.28481530875773636,-0.1934608313996273,0.06203609726215501,-0.5004774034293601,-0.4375757611532177,2,right
1.608,-0.09834877636695366,0.9952967836487484,-0.11927782832049885,-0.6377688511703388,0.2864199264128851,-0.2053440423337648,0.058729025746007156,-0.5032028788076515,-0.43769269839461683,2,right
1.609,-0.0991066763573517,0.994613130734775,-0.11883474279364704,-0.6078579461277558,0.28799513263446463,-0.21698611102367413,0.055405062281975184,-0.5057885074042338,-0.4379388403766543,2,right
1.6119999999999999,-0.09990985373413865,0.9939122067415609,-0.11838759745344292,-0.578031216295372,0.289535333755564,-0.22838204812662521,0.05206592782641321,-0.508237343984506,-0.43830922917408727,2,right
1.6130000000000002,-0.10075687291602486,0.9931941944155562,-0.11793714621847791,-0.5483103213578039,0.2910350265865992,-0.23952732754322514,0.0487133083254257,-0.5105524158647906,-0.43879892513021956,2,right
1.614,-0.10164628179638788,0.9924593004799959,-0.11748413265859124,-0.5187163205118787,0.29248880188464377,-0.25041788474402094,0.045348853224140825,-0.512736721963494,-0.4394030127465268,2,right
1.617,-0.1025766124743147,0.9917077568401936,-0.11702928949576641,-0.48926966224959206,0.2938913477697989,-0.261050114296267,0.04197417414192789,-0.5147932318466013,-0.44011660638230443,2,right
1.618,-0.10354638190930443,0.9909398218294871,-0.11657333811664654,-0.4599901747577055,0.2952374530569453,-0.271420866646768,0.038590843707638586,-0.516724884767582,-0.44093485576553326,2,right
1.6219999999999999,-0.10455409250990826,0.9901557814922948,-0.11611698810300866,-0.43089705737301437,0.29652201045910287,-0.28152744422394455,0.03520039454521065,-0.5185345887079869,-0.4418529513166879,2,right
1.6219999999999999,-0.10559823266484267,0.9893559508962182,-0.11566093678174687,-0.40200887340174224,0.29774001963046226,-0.2913675969135603,0.03180431839994254,-0.5202252194246512,-0.4428661292875267,2,right
1.626,-0.10667727722346587,0.98854067546034,-0.11520586879113429,-0.37334354437619033,0.2988865900385625,-0.30093951694745835,0.02840406539572313,-0.52179961950906,-0.44396967671720405,2,right
1.6269999999999998,-0.10778968793027309,0.9877103322833771,-0.11475245565824858,-0.34491834569130697,0.2999569436668971,-0.3102418332359285,0.02500104341347971,-0.5232605974640792,-0.44515893620833136,2,right
1.632,-0.10893391381638869,0.9868653314542822,-0.11430135538429939,-0.316749903538227,0.3009464175514376,-0.31927360517197,0.021596617581091482,-0.524610926802916,-0.4464293105258884,2,right
1.632,-0.11010839155187006,0.9860061173294604,-0.11385321203677225,-0.28885419305247034,0.3018504661543573,-0.32803431593494387,0.01819210986500348,-0.5258533451748384,-0.4477762670221448,2,right
1.6369999999999998,-0.11131154576638777,0.9851331697641789,-0.113408655347294,-0.2612465375951776,0.30266466357802096,-0.33652386532033685,0.014788798753767922,-0.5269905535218544,-0.4491953418909974,2,right
1.6380000000000001,-0.1125417893506098,0.9842470052895287,-0.11296830031326087,-0.2339416090864969,0.30338470562207215,-0.3447425621215807,0.011387919023735834,-0.5280252152702389,-0.45068214425536407,2,right
1.642,-0.11379752375364545,0.983348178229537,-0.11253274680096485,-0.20695342931101807,0.30400641168620646,-0.3526911160890945,0.007990661577121446,-0.5289599555604808,-0.45223236009149353,2,right
1.643,-0.1150771392916497,0.9824372817558541,-0.11210257914849364,-0.18029537211597602,0.30452572652095977,-0.3603706294909378,0.004598173342665205,-0.529797360518924,-0.4538417559942586,2,right
1.646,-0.11637901547918492,0.9815149488797982,-0.1116783657686306,-0.1539801664238137,0.3049387218285716,-0.36778258829868843,0.0012115572291281863,-0.5305399765740814,-0.45550618278769367,2,right
1.6469999999999998,-0.11770152138905818,0.9805818533821191,-0.11126065875493962,-0.12801989998160423,0.30524159771570086,-0.3749288530213784,-0.0021681278781390846,-0.5311903098203096,-0.45722157898522214,2,right
1.652,-0.11904301603970534,0.9796387106788823,-0.11084999349667252,-0.10242602377077746,0.3054306839994763,-0.3818116492095552,-0.005539867087296715,-0.5317508254312588,-0.45898397410418695,2,right
1.653,-0.12040184880370107,0.9786862786185567,-0.1104468883094237,-0.07720935700158069,0.30550244136806165,-0.3884335576507629,-0.008902689446511004,-0.5322239471252341,-0.4607894918394581,2,right
1.656,-0.12177635982782284,0.977725358203068,-0.11005184408811684,-0.052380092617721384,0.3054534623965957,-0.3947975042769787,-0.01225566787655222,-0.5326120566843436,-0.462634353101036,2,right
1.656,-0.12316488045472125,0.9767567942259792,-0.1096653439864235,-0.02794780323769072,0.3052804724190445,-0.4009067498037821,-0.01559791909917862,-0.5329174935290477,-0.46451487892070437,2,right
1.661,-0.12456573363804917,0.9757814758236719,-0.10928785312381319,-0.003921447460349029,0.3049803302561637,-0.40676487912028575,-0.018928603570965215,-0.533142554349474,-0.46642749323291277,2,right
1.662,-0.12597723434479635,0.9748003369386086,-0.10891981832098208,0.019690623536533888,0.3045500287994235,-0.4123757904481177,-0.022246925432207545,-0.5332894927946185,-0.4683687255351795,2,right
1.666,-0.1273976899391373,0.9738143566964651,-0.10856166786707083,0.04288065917495179,0.3039866954503919,-0.41774368428701264,-0.025552132480500134,-0.533360519220314,-0.4703352134334099,2,right
1.666,-0.12882540054160135,0.9728245597012228,-0.10821381132648464,0.06564150250155175,0.303287592414709,-0.4228730521638489,-0.02884351617855599,-0.5333578004966186,-0.47232370507761706,2,right
1.671,-0.13025865935573472,0.9718320162539571,-0.10787663939689933,0.08796658312655513,0.30245011684940776,-0.4277686652012597,-0.03212041170579827,-0.5332834598750501,-0.47433106149361387,2,right
1.672,-0.13169575295172103,0.9708378425013173,-0.10755052383006541,0.10984991014331297,0.3014718008619595,-0.43243556252124826,-0.03538219806321747,-0.5331395769158758,-0.4763542588163192,2,right
1.676,-0.13313496149438703,0.9698432005184884,-0.10723581742188971,0.1312860650938677,0.30035031135902834,-0.4368790394985529,-0.038628298240948065,-0.5329281874754541,-0.4783903904303838,2,right
1.6769999999999998,-0.13457455890310838,0.9688492983301215,-0.10693285407037346,0.15227019504464215,0.29908344974252404,-0.44110463587783616,-0.04185817945439044,-0.5326512837536979,-0.48043666902320853,2,right
1.6769999999999998,-0.13601281293339443,0.9678573898723022,-0.10664194889350448,0.17279800583510918,0.29766915145013834,-0.4451181237681169,-0.045071353436728516,-0.5323108144029178,-0.48249042855204105,2,right
1.68,-0.13744798517367143,0.9668687748980842,-0.10636339839613178,0.19286575556101182,0.2961054853371373,-0.4489254955272208,-0.04826737674337074,-0.5319086847016216,-0.484549126120692,2,right
1.681,-0.13887833095481564,0.965884798827661,-0.10609748067366878,0.21247024835240633,0.2943906528957666,-0.45253295154840245,-0.05144585100586334,-0.531446756798039,-0.4866103437580094,2,right
1.681,-0.14030209917404654,0.9649068525431804,-0.1058444556398951,0.23160882848955236,0.29252298732060417,-0.45594688796427135,-0.054606423090709115,-0.5309268500265764,-0.4886717900937023,2,right
1.685,-0.14171753203919316,0.963936372128557,-0.10560456526778259,0.25027937481865686,0.2905009524897782,-0.45917388430051886,-0.057748785150753615,-0.5303507412977178,-0.49073130193330405,2,right
1.686,-0.1431228647427981,0.962974838555507,-0.10537803383655892,0.2684802952846972,0.2883231420431515,-0.46222069114368625,-0.06087267457468245,-0.5297201655603289,-0.4927868457375026,2,right
1.6909999999999998,-0.14451632507706294,0.9620237773174427,-0.10516506818192548,0.2862105213175151,0.28598827880014677,-0.4650942179046146,-0.06397787384370862,-0.5290368163348734,-0.4948365190117576,2,right
1.692,-0.14589613300163748,0.961084758012597,-0.10496585794638442,0.30346950188572613,0.2834952146974322,-0.46780152074072395,-0.06706421030447628,-0.5283023463158903,-0.49687855161211447,2,right
1.6980000000000002,-0.14726050017773487,0.9601593938765995,-0.10478057582270472,0.320257197175093,0.2808429313146225,-0.4703497906674359,-0.07013155586715479,-0.5275183680419248,-0.49891130697311686,2,right
1.699,-0.14860762948347475,0.9592493412631028,-0.10460937777857718,0.33657407192635713,0.27803054099368635,-0.47274634187059994,-0.0731798266376429,-0.5266864546309529,-0.5009332832637028,2,right
1.7,-0.14993571452692428,0.9583562990700468,-0.10445240324900452,0.35242108848210885,0.2750572885448963,-0.4749986002277169,-0.07620898249274911,-0.5258081405791944,-0.5029431144769456,2,right
1.7,-0.15124293917670065,0.9574820081089064,-0.10430977528644131,0.367799699590923,0.271922553531701,-0.477114092045295,-0.07921902660715979,-0.5248849226210638,-0.5049395714594773,2,right
1.706,-0.15252747713618864,0.9566282504142009,-0.10418160066391889,0.38271184101563727,0.2686258531264374,-0.4791004330192396,-0.08221000494095161,-0.5239182606478724,-0.5069215628863991,2,right
1.706,-0.15378749159477823,0.9557968484904792,-0.10406796992896336,0.3971599239912997,0.26516684552834113,-0.4809653174247634,-0.08518200569635043,-0.5229095786827647,-0.5088881361874514,2,right
1.7109999999999999,-0.15502113499457526,0.9549896644942243,-0.1039689574040364,0.4111468275769686,0.26154533393484863,-0.4827165075419099,-0.08813515875238372,-0.5218602659092366,-0.5108384784301742,2,right
1.7109999999999999,-0.15622654895145763,0.9542085993484453,-0.10388462112419464,0.4246758909442086,0.25776127105671975,-0.48436182332241395,-0.09106963508601904,-0.5207716777504637,-0.5127719171657512,2,right
1.714,-0.15740186436559456,0.9534555917871143,-0.10381500269893791,0.4377509056437944,0.2538147641670432,-0.4859091323032722,-0.09398564618832662,-0.5196451369965432,-0.5146879212431859,2,right
1.715,-0.1585452017495932,0.9527326173247918,-0.10376012708629627,0.45037610789080995,0.2497060806737218,-0.4873663397720721,-0.09688344348414996,-0.5184819349766395,-0.5165861015974084,2,right
1.7209999999999999,-0.15965467179237328,0.9520416871446166,-0.10372000227358118,0.4625561709070174,0.2454356542045664,-0.488741379188822,-0.09976331776371479,-0.5172833327729086,-0.5184662120168686,2,right
1.722,-0.16072837616516775,0.9513848468956512,-0.10369461886882923,0.47429619735806516,0.24100409119366242,-0.4900422028687449,-0.10262559863455427,-0.5160505624729674,-0.520328149896118,2,right
1.724,-0.16176440856581947,0.9507641753882383,-0.10368394961593665,0.48560171192181417,0.23641217795720654,-0.4912767729302396,-0.10547065400207509,-0.51478482845757,-0.5221719569788323,2,right
1.725,-0.1627608559907371,0.9501817831746314,-0.1036879488510369,0.4964786540227835,0.23166088824654685,-0.4924530525119753,-0.10829888958703877,-0.5134873087200494,-0.5239978200966771,2,right
1.732,-0.1637158002206453,0.9496398110031211,-0.10370655191684965,0.5069333707664528,0.22675139126569807,-0.49357899726287496,-0.11111074848818124,-0.5121591562139869,-0.5258060719093626,2,right
1.732,-0.16462731950673154,0.9491404281366279,-0.1037396745468378,0.5169726101059136,0.22168506014014175,-0.49466254710855023,-0.11390671079814467,-0.5108015002254735,-0.5275971916511887,2,right
1.734,-0.16549349044777617,0.948685830529472,-0.10378721222350233,0.5266035142721267,0.2164634808232656,-0.49571161829758476,-0.11668729328084747,-0.5094154477662417,-0.5293718058893226,2,right
1.734,-0.16631239005392132,0.9482782388577389,-0.10384903950689565,0.535833613497838,0.21108846142634052,-0.49673409573091704,-0.11945304911837101,-0.5080020849838509,-0.5311306892990073,2,right
1.739,-0.16708209799537546,0.9479198963994633,-0.10392500932364082,0.5446708200640035,0.20556204195748506,-0.49773782557745333,-0.12220456773539642,-0.5065624785850322,-0.5328747654608452,2,right
1.74,-0.1678006990335459,0.9476130667610014,-0.10401495220709478,0.5531234226964112,0.1998865044546209,-0.49873060817894066,-0.12494247470918028,-0.50509767726821,-0.5346051076852594,2,right
1.744,-0.16846628562951046,0.9473600314454388,-0.10411867548710496,0.5612000813390291,0.19406438349698243,-0.4997201912470542,-0.12766743177301595,-0.5036087131611446,-0.5363229398691843,2,right
1.745,-0.16907696072220016,0.947163087258038,-0.10423596243919608,0.568909822329485,0.18809847707930996,-0.5007142633555999,-0.1303801369166559,-0.5020966032585168,-0.5380296373855942,2,right
1.746,-0.1696308406672173,0.9470245435438229,-0.10436657141099592,0.5762620340009813,0.1819918578324273,-0.5017204477307002,-0.13308132456498004,-0.5005623508489707,-0.539726727984391,2,right
1.749,-0.17012605832598304,0.9469467192540467,-0.10451023494500938,0.5832664627338628,0.1757478845734845,-0.5027462963418232,-0.13577176577628514,-0.4990069469116562,-0.5414158926434764,2,right
1.75,-0.1705607662911647,0.9469319398406216,-0.10466665891444292,0.5899332094690336,0.16937021416024112,-0.5037992842936256,-0.13845226837938399,-0.4974313714570077,-0.5430989662867546,2,right
1.75,-0.17093314022886438,0.9469825339791895,-0.10483552168547086,0.5962727266445229,0.1628628135809001,-0.5048868045041217,-0.14112367699082126,-0.4958365947916695,-0.5447779383078267,2,right
1.754,-0.17124138231508088,0.9471008301219249,-0.1050164733140181,0.6022958154257354,0.15622997213417444,-0.5060161626286434,-0.14378687289335515,-0.4942235786968248,-0.5464549528777882,2,right
1.754,-0.1714837247431327,0.9472891528811701,-0.10520913477844125,0.6080136230490863,0.1494763135114238,-0.5071945721746399,-0.1464427737789765,-0.49259327751435833,-0.5481323090375587,2,right
1.7590000000000001,-0.17165843327748187,0.9475498192457424,-0.10541309724653235,0.6134376401476493,0.1426068076347884,-0.5084291497669631,-0.14909233336414163,-0.49094663913627434,-0.5498124605795731,2,right
1.76,-0.17176381083022052,0.9478851346333986,-0.10562792137917756,0.6185796980163006,0.1356267821813209,-0.5097269105494984,-0.15173654088487148,-0.489284605892737,-0.5514980157236564,2,right
1.7630000000000001,-0.17179820104194773,0.9482973887848084,-0.10585313668020085,0.6234519658228375,0.1285419337652325,-0.5110947637236436,-0.1543764204793488,-0.48760811533405257,-0.5531917365919067,2,right
1.764,-0.17175999185625102,0.9487888515064665,-0.10608824090651522,0.6280669477806756,0.12135833875853103,-0.512539508227197,-0.157013030465627,-0.48591810090186516,-0.5548965384874167,2,right
1.7690000000000001,-0.17164761908256052,0.9493617682726394,-0.10633269955280719,0.6324374802979277,0.1140824637300112,-0.5140678285573972,-0.15964746252204912,-0.4842154924847927,-0.556615488981685,2,right
1.77,-0.17145956994409692,0.9500183556991231,-0.10658594542205227,0.6365767291168826,0.10672117548225742,-0.5156862907420597,-0.16228084077796262,-0.48250121685369,-0.5583518068155853,2,right
1.774,-0.17119438660672817,0.9507607969031411,-0.1068473782884063,0.6404981864571733,0.09928175066603638,-0.517401338462975,-0.16491432082230698,-0.48077619797168547,-0.5601088606188002,2,right
1.775,-0.17085066968271287,0.9515912367636885,-0.10711636465395073,0.644215668175215,0.0917718849511928,-0.5192192893359714,-0.16754908863764398,-0.47904135717410207,-0.5618901674526644,2,right
1.7790000000000001,-0.17042708170208104,0.9525117770952799,-0.10739223759772856,0.647743310951836,0.08419970173291676,-0.521146331352308,-0.17018635946719876,-0.4772976132133404,-0.5636993911814115,2,right
1.7790000000000001,-0.16992235054465266,0.9535244717463294,-0.10767429671454404,0.6510955695193935,0.0765737603520278,-0.5231885194863364,-0.17282737662247907,-0.4755458821637698,-0.5655403406768797,2,right
1.7830000000000001,-0.1693352728273946,0.9546313216324924,-0.10796180813973237,0.6542872139390872,0.06890306380771957,-0.5253517724746672,-0.17547341023904445,-0.4737870771816463,-0.5674169678618026,2,right
1.784,-0.16866471724397092,0.9558342697157135,-0.10825400465418634,0.6573333269386332,0.06119706594103042,-0.5276418697723919,-0.17812575598800443,-0.4720221081150498,-0.5693333655968896,2,right
1.788,-0.16790962785531638,0.9571351959412664,-0.10855008586403443,0.6602493013199623,0.05346567806715217,-0.5300644486922378,-0.18078573375083482,-0.4702518809588103,-0.5712937654169933,2,right
1.788,-0.16706902733207607,0.9585359121474563,-0.10884921845342906,0.6630508374461417,0.04571927503456147,-0.5326250017328839,-0.18345468626511713,-0.4684772971493722,-0.5733025351217639,2,right
1.7930000000000001,-0.1661420201515386,0.9600381569650868,-0.10915053651550656,0.6657539408163062,0.03796870068885795,-0.5353288741030277,-0.18613397774882248,-0.4666992526945287,-0.5753641762263051,2,right
1.794,-0.16512779575172096,0.9616435907254398,-0.10945314197162767,0.6683749197370078,0.030225272719121187,-0.538181261448175,-0.18882499251078488,-0.46491863713294285,-0.577483321277472,2,right
1.7990000000000002,-0.1640256316422313,0.9633537903958362,-0.10975610508836961,0.6709303830980669,0.022500786864556525,-0.54118720778752,-0.19152913355503426,-0.4631363323183587,-0.579664731041592,2,right
1.8,-0.1628348964666542,0.9651702445605411,-0.1100584650943546,0.6734372382607262,0.014807520459188837,-0.5443516036686937,-0.19424782118668824,-0.46135321102339816,-0.5819132915695413,2,right
1.8030000000000002,-0.16155505300741213,0.9670943484618713,-0.11035923088853074,0.6759126890656717,0.007158235292384799,-0.5476791845485867,-0.19698249162713685,-0.45957013535782787,-0.5842340111452744,2,right
1.804,-0.16018566112323415,0.9691273991122211,-0.11065738182435421,0.6783742339682973,-0.0004338202369602036,-0.5511745294088916,-0.19973459564629162,-0.45778795499618025,-0.5866320171240843,2,right
1.808,-0.1587263806122366,0.971270590483282,-0.1109518685538934,0.6808396643084547,-0.007954909694643821,-0.5548420596154651,-0.2025055972197117,-0.45600750520960626,-0.5891125526670635,2,right
1.8090000000000002,-0.15717697400035435,0.9735250087760245,-0.11124161391968597,0.683327062721834,-0.015390807935732893,-0.55868603803108,-0.2052969722184666,-0.4542296046968407,-0.5916809733784435,2,right
1.8130000000000002,-0.15553730926350492,0.9758916277755671,-0.11152551388588948,0.6858548017000875,-0.022726801201274384,-0.5627105683916169,-0.20811020713589218,-0.45245505321371315,-0.5943427438474833,2,right
1.8130000000000002,-0.15380736249800134,0.9783713042975174,-0.11180243850232889,0.6884415423068168,-0.02994768800871654,-0.5669195949562421,-0.21094679783668813,-0.45068462902339973,-0.5971034340706699,2,right
1.814,-0.15198722055473216,0.9809647737340053,-0.11207123289612611,0.6911062330566088,-0.03703778085736994,-0.5713169024426202,-0.21380824828009146,-0.4489190862305838,-0.5999687156831806,2,right
1.818,-0.15007708365163713,0.9836726457078027,-0.11233071828598358,0.693868108964422,-0.04398090876994998,-0.5759061162587358,-0.2166960691501609,-0.44715915208545837,-0.602944357902681,2,right
1.818,-0.1480772679797032,0.9864953998426761,-0.11257969301355011,0.6967466907457466,-0.05076042069142696,-0.5806907030279239,-0.21961177634503648,-0.44540552432075786,-0.6060362231149625,2,right
1.819,-0.145988208317541,0.9894333816578857,-0.11281693358535344,0.6997617840129436,-0.05735918976861399,-0.5856739713267854,-0.22255688931088252,-0.44365886854405795,-0.6092502620782874,2,right
1.8219999999999998,-0.14381046066506223,0.992486798594598,-0.11304119571831302,0.7029334780700098,-0.06375961853814548,-0.5908590724167532,-0.22553292922506127,-0.44191981568484145,-0.6125925087497712,2,right
1.8230000000000002,-0.14154470490050483,0.9956557161816678,-0.11325121537987713,0.7062821437731094,-0.06994364505260901,-0.5962490006731646,-0.22854141703691574,-0.44018895949129305,-0.6160690747427012,2,right
1.827,-0.13919174746143198,0.9989400543459452,-0.11344570980834522,0.709828430059848,-0.07589274997149219,-0.6018465934937436,-0.2315838713746263,-0.4384668540718068,-0.6196861434240332,2,right
1.828,-0.13675252404943297,1.002339583867032,-0.11362337849301041,0.7135932589941539,-0.08158796463838906,-0.6076545306084223,-0.23466180632669303,-0.43675401147621173,-0.6234499636616824,2,right
1.8319999999999999,-0.13422810235811478,1.005853922970831,-0.11378290409390414,0.7175978193093813,-0.087009880162708,-0.6136753327904989,-0.2377767291066901,-0.43505089931174534,-0.6273668432316105,2,right
1.8319999999999999,-0.13161968482442704,1.0094825340537599,-0.11392295329045034,0.7218635584598675,-0.09213865752292995,-0.6199113599852174,-0.24093013761003548,-0.4333579383888277,-0.6314431418951121,2,right
1.8359999999999999,-0.12892861140541848,1.0132247205312348,-0.11404217756306055,0.7264121731918074,-0.09695403870773629,-0.6263648088724596,-0.2441235178716214,-0.4316755003917174,-0.6356852641571248,2,right
1.837,-0.1261563623853621,1.017079623808915,-0.11413921392243927,0.7312655986449926,-0.10143535891053924,-0.6330377098808507,-0.24735834143325675,-0.43000390556915713,-0.6400996517168324,2,right
1.8419999999999999,-0.12330456121805332,1.021046220380633,-0.11421268560253459,0.7364459959977186,-0.10556155979210471,-0.6399319236711972,-0.2506360626299841,-0.42834342044014645,-0.6446927756222821,2,right
1.8430000000000002,-0.12037497740285506,1.0251233190596498,-0.11426120272781065,0.7419757386679735,-0.10931120382505656,-0.6470491371078001,-0.253958115804448,-0.4266942555100103,-0.649471128141218,2,right
1.849,-0.11736952938199642,1.0293095583487788,-0.11428336296079168,0.7478773970848981,-0.11266248973309023,-0.6543908587368187,-0.25732591245861003,-0.4250565629919596,-0.6544412143608245,2,right
1.849,-0.11429028743434586,1.033603403952482,-0.11427775213535055,0.7541737220454475,-0.11559326903670347,-0.6619584137914925,-0.26074083835223044,-0.4234304345293765,-0.6596095435295896,2,right
1.8519999999999999,-0.11113947653011787,1.0380031464331758,-0.11424294488388169,0.7608876266721889,-0.11808106371616858,-0.6697529387446695,-0.2642042505576623,-0.421815898914085,-0.6649826201550293,2,right
1.8530000000000002,-0.10791947910377896,1.0425068990147228,-0.11417750526852745,0.7680421669892386,-0.1201030850013258,-0.6777753754297366,-0.26771747448063615,-0.4202129197959044,-0.6705669348715635,2,right
1.857,-0.1046328377002816,1.04711259553715,-0.11407998742523624,0.7756605211344739,-0.1216362532965691,-0.6860264647516934,-0.27128180085684844,-0.4186213933788129,-0.676368955093406,2,right
1.858,-0.10128225745230099,1.051817988567531,-0.11394893622533439,0.7837659672273589,-0.12265721924812183,-0.6945067400107612,-0.27489848273430534,-0.41704114609908305,-0.6823951154679172,2,right
1.8630000000000002,-0.09787060835143616,1.0566206476723714,-0.11378288795555623,0.7923818599129849,-0.12314238595936117,-0.7032165198615782,-0.2785687324515179,-0.41547193228078544,-0.6886518081454758,2,right
1.864,-0.09440092728266358,1.0615179578565057,-0.11358037101720081,0.8015316056042628,-0.12306793235854553,-0.7121559009316824,-0.28229371862179087,-0.4139134317640862,-0.6951453728825511,2,right
1.8659999999999999,-0.09087641979762928,1.0665071181731811,-0.11333990664973158,0.8112386364456023,-0.12240983772182724,-0.7213247501236464,-0.2860745631339961,-0.41236524750179904,-0.7018820869953014,2,right
1.8659999999999999,-0.08730046160729454,1.0715851405104635,-0.11306000969147714,0.8215263830228788,-0.1211439073528927,-0.7307226966258846,-0.28991233818037915,-0.4108269031196843,-0.7088681551816863,2,right
1.8719999999999999,-0.08367659977631238,1.0767488485598848,-0.11273918939494194,0.832418245846023,-0.11924579941896439,-0.7403491236578128,-0.29380806332209974,-0.4092978404360147,-0.7161096992307588,2,right
1.8719999999999999,-0.08000855359920943,1.081994876973085,-0.11237595031413095,0.8439375656321714,-0.11669105294122237,-0.7502031599756981,-0.2977627026033716,-0.4077774169359617,-0.723612747638506,2,right
1.876,-0.07630021513303517,1.087319670710408,-0.1119687932788992,0.8561075924189805,-0.11345511693595572,-0.7602836711661982,-0.30177716172522806,-0.4062649031963796,-0.731383225150319,2,right
1.8769999999999998,-0.0725556493565372,1.0927194845833812,-0.11151621646914112,0.8689514535394433,-0.109513380700939,-0.7705892507552401,-0.3058522852901068,-0.4047594802565949,-0.7394269422509088,2,right
1.881,-0.06877909392653046,1.0981903829935022,-0.11101671659886404,0.8824921204913516,-0.10484120523964113,-0.7811182111605435,-0.30998885412542054,-0.4032602369376149,-0.747749584616721,2,right
1.882,-0.06497495850858472,1.1037282398736057,-0.11046879021652342,0.896752374736416,-0.0994139558139184,-0.7918685745167466,-0.3141875826784732,-0.40176616714609964,-0.7563567025141084,2,right
1.882,-0.061147823667821476,1.1093287388424433,-0.10987093512667635,0.9117547724659888,-0.09320703561381427,-0.8028380634027343,-0.31844911644648927,-0.40027616726050874,-0.7652537000686827,2,right
1.886,-0.05730243931320017,1.114987373585406,-0.10922165194326686,0.9275216083723369,-0.08619592053099154,-0.8140240915014116,-0.32277402938972516,-0.39878903373075975,-0.7744458242995094,2,right
1.886,-0.05344372269428155,1.120699448475982,-0.10851944579391384,0.9440748784664809,-0.07835619502015252,-0.825423754222801,-0.32716282129178553,-0.39730346098883856,-0.7839381538451837,2,right
1.8869999999999998,-0.049576755952128786,1.1264600794553985,-0.1077628281970197,0.9614362419905433,-0.06966358902559498,-0.8370338193249768,-0.331615915060213,-0.3958180397067728,-0.7937355873682825,2,right
1.89,-0.04570678322477415,1.1322641951896866,-0.10695031912597208,0.9796269824987389,-0.06009401592289625,-0.8488507175830098,-0.33613365397658074,-0.3943312554044763,-0.8038428316580961,2,right
1.891,-0.041839207303453134,1.1381065385212774,-0.10608044926567681,0.9986679682265794,-0.04962361137861799,-0.860870533583775,-0.34071629890869687,-0.3928414874031941,-0.8142643894589181,2,right
1.896,-0.037979585830510504,1.1439816682275372,-0.10515176246187982,1.0185796118941848,-0.03822877300362954,-0.8730889967401138,-0.34536402549771317,-0.39134700812027623,-0.8250045470520514,2,right
1.8969999999999998,-0.03413362702536349,1.1498839610956832,-0.10416281836264216,1.0393818300679736,-0.025886200697973732,-0.8855014726034002,-0.3500769213331183,-0.389845982701007,-0.8360673616205722,2,right
1.9,-0.03030718492366191,1.1558076143252345,-0.10311219525635139,1.0610940021642705,-0.012572937627331925,-0.8981029545270773,-0.35485498312877944,-0.3883364689832054,-0.8474566484268019,2,right
1.901,-0.02650625411897396,1.1617466482745678,-0.10199849312371678,1.08373492915687,0.001733588206665036,-0.9108880557192605,-0.3596981139133848,-0.38681641779029996,-0.8591759678333487,2,right
1.905,-0.022736964004714685,1.1676949095736184,-0.10082033693584812,1.10732279204836,0.01705552183778645,-0.9238510017200536,-0.36460612024882505,-0.3852836735485622,-0.8712286121995069,2,right
1.906,-0.019005572521797538,1.173646074627537,-0.09957638023787775,1.1318751101676159,0.03341453868650592,-0.9369856233397696,-0.36957870949024113,-0.3837359752241567,-0.8836175926857416,2,right
1.91,-0.01531845942028323,1.1795936535360378,-0.09826530905384447,1.1574086993585488,0.05083180143240667,-0.9502853500947696,-0.3746154871016497,-0.38217095757563735,-0.8963456259999306,2,right
1.91,-0.011682119040868463,1.185530994451081,-0.09688584613434116,1.1839396301279053,0.06932791645175039,-0.9637432041781456,-0.3797159540412452,-0.38058615271748153,-0.909415121119995,2,right
1.915,-0.008103152617448846,1.1914512883909005,-0.09543675554982299,1.2114831858226864,0.08892288986725047,-0.9773517950029676,-0.38487950423066314,-0.37897899199021073,-0.9228281660285143,2,right
1.916,-0.0045882600983920855,1.1973475745201525,-0.09391684762071623,1.2400538209105765,0.10963608326012905,-0.9911033143562841,-0.3901054221226727,-0.3773468081325967,-0.9365865144958953,2,right
1.92,-0.0011442314833206568,1.2032127458959998,-0.09232498417638586,1.269665119439622,0.13148616909763527,-1.0049895322025213,-0.39539288038194853,-0.37568683775139483,-0.9506915729496448,2,right
1.92,0.0022220623253740466,1.2090395556728804,-0.09066008414134122,1.300329753756328,0.1544910859323577,-1.0190017931753597,-0.4007409376937561,-0.37399622408398225,-0.9651443874682817,2,right
1.9240000000000002,0.005503679151210643,1.2148206237574932,-0.08892112944690557,1.3320594435642692,0.17866799343287462,-1.0331310137975724,-0.40614853671555845,-0.3722720200492053,-0.9799456309394157,2,right
1.925,0.00869361563822432,1.2205484439093124,-0.08710717125647122,1.3648649154083095,0.20403322730855028,-1.0473676804687004,-0.4116145021867343,-0.37051119158166185,-0.9950955904225157,2,right
1.93,0.01178481778694857,1.2262153912871436,-0.08521733647872795,1.398755862672549,0.23060225419460104,-1.0617018482607965,-0.417137539211768,-0.3687106212445562,-1.0105941547578863,2,right
1.931,0.014770191899480204,1.231813730445061,-0.08325083453297599,1.433740906183172,0.2583896265669205,-1.0761231405628071,-0.42271623173244216,-0.36686711211616563,-1.0264408024643752,2,right
1.935,0.017642615897472402,1.237335623780142,-0.08120696432387123,1.469827555510457,0.28740893775956383,-1.0906207496144715,-0.4283490412047347,-0.36497739194485385,-1.0426345899693326,2,right
1.936,0.020394950975898624,1.242773140430813,-0.07908512137482739,1.5070221710673266,0.3176727771612495,-1.1051834379708907,-0.4340343054962813,-0.3630381175674523,-1.0591741402153438,2,right
1.94,0.023020053556207884,1.2481182656189782,-0.07688480505938922,1.545329927104958,0.34919268567073225,-1.119799540939173,-0.43977023802042764,-0.36104587958570644,-1.0760576316892567,2,right
1.9409999999999998,0.02551078750394044,1.2533629104220105,-0.074605625864215,1.5847547757091331,0.38197911149444025,-1.1344569700287799,-0.44555492712304806,-0.3589972072953503,-1.093282787920022,2,right
1.944,0.02786003657721565,1.2584989219542704,-0.0722473126182722,1.6252994119041912,0.4160413663733402,-1.149143217457381,-0.4513863357384603,-0.3568885738622319,-1.110846867492856,2,right
1.944,0.03006071707433318,1.2635180939338506,-0.06980971962470324,1.666965239974641,0.45138758232960197,-1.1638453617541824,-0.45726230133090945,-0.3547164017397581,-1.1287466546282199,2,right
1.95,0.03210579065179467,1.2684121776084498,-0.06729283363005699,1.7097523411176923,0.48802466902726865,-1.1785500745028046,-0.463180536138234,-0.3524770683217668,-1.1469784503750995,2,right
1.95,0.03398827728823381,1.2731728930138866,-0.06469678056307424,1.7536594425431864,0.5259582718448026,-1.1932436282658745,-0.4691386277344629,-0.3501669118247602,-1.165538064469029,2,right
1.952,0.03570126837519189,1.2777919405403406,-0.062021831976743026,1.7986838881406213,0.5651927307610609,-1.207911905733538,-0.4751340399215422,-0.3477822373887323,-1.1844208078921574,2,right
1.955,0.03723793992263065,1.282261012786924,-0.05926841113546118,1.8448216108021922,0.6057310401396645,-1.2225404101153563,-0.481164113927142,-0.34531932336302873,-1.2036214861030248,2,right
1.956,0.038591565873919355,1.2865718066948575,-0.056437098703616274,1.892067106324054,0.6475748093989578,-1.2371142766812786,-0.48722606982553324,-0.34277442770279365,-1.2231343927775995,2,right
1.956,0.039755531528303405,1.2907160359580045,-0.053528638006170325,1.9404134085053109,0.6907242243758094,-1.2516182851525677,-0.4933170080652607,-0.3401437943787436,-1.2429533038334788,2,right
1.959,0.040723347066595805,1.2946854437104216,-0.05054393983710036,1.989852064897511,0.7351780090937599,-1.2660368725297022,-0.49943391102080853,-0.33742365972538396,-1.2630714715806433,2,right
1.959,0.04148866117060311,1.298471815485625,-0.04748408678867935,2.040373112830528,0.7809333877512599,-1.2803541460578647,-0.5055736445456203,-0.3346102586932295,-1.283481618970109,2,right
1.964,0.042045274722922424,1.3020669924390238,-0.04435033707165383,2.09196505564977,0.8279860469321648,-1.294553896235152,-0.5117329595372886,-0.33169983099294265,-1.3041759339832786,2,right
1.965,0.042387154571975255,1.3054628848264604,-0.04114412779577878,2.144614839272738,0.8763300981458872,-1.3086196098821532,-0.5179084935324813,-0.3286886271235675,-1.3251460642197705,2,right
1.969,0.0425084473449963,1.3086514857353655,-0.037867077679407314,2.198307829210027,0.9259580408286396,-1.3225344833139847,-0.5240967723492327,-0.32557291427676976,-1.3463831117423433,2,right
1.97,0.042403493287783166,1.3116248850678185,-0.03452098915678242,2.253027788198969,0.9768607259409265,-1.3362814356555408,-0.5302942117942897,-0.32234898210871293,-1.3678776282383451,2,right
1.974,0.042066840105240144,1.3143752837751805,-0.031107849854895005,2.3087568546011235,1.0290273203001479,-1.3498431223403313,-0.5364971194532437,-0.3190131483709133,-1.3896196105579108,2,right
1.974,0.041493256772134696,1.3168950083413768,-0.027629833416228648,2.365475521717831,1.082445271790861,-1.3632019488328397,-0.5427016965812186,-0.31556176439111444,-1.4115984966898945,2,right
1.9780000000000002,0.04067774727940609,1.3191765255074177,-0.024089299644164366,2.4231626181809833,1.1371002755989104,-1.3763400846138616,-0.5489040401119101,-0.3119912203949113,-1.4338031622372653,2,right
1.979,0.03961556427809292,1.3212124572240387,-0.0204887939429583,2.4817952895790687,1.192976241619255,-1.3892394774677386,-0.5551001448027895,-0.3082979506585343,-1.4562219174544029,2,right
1.983,0.03830222257967593,1.3229955958117228,-0.01683104601914903,2.541348981481379,1.2500552631909236,-1.4018818681098302,-0.561285905534284,-0.3044784384828702,-1.4788425049094052,2,right
1.983,0.03673351246642264,1.3245189192977331,-0.0131189678117409,2.6017974240260515,1.3083175873160657,-1.4142488051919246,-0.5674571197807456,-0.30052922097845364,-1.501652097835173,2,right
1.9880000000000002,0.034905512757430465,1.325775606889936,-0.009355650624859853,2.6631126182403286,1.3677415865235822,-1.4263216607226068,-0.5736094902709982,-0.2964468936508148,-1.5246372992336503,2,right
1.989,0.032814603567138605,1.326759054539281,-0.005544361445328582,2.725264824264058,1.4283037325412622,-1.4380816459388608,-0.5797386278562243,-0.29222811477520044,-1.5477841417981708,2,right
1.993,0.030457478685680613,1.3274628905372432,-0.0016885384369726643,2.7882225516500303,1.4899785719437544,-1.4495098276643963,-0.5858400546029107,-0.28786960954931734,-1.5710780887194142,2,right
1.994,0.02783115750637909,1.327880991089904,0.0022082143859048276,2.8519525519172277,1.55273870394703,-1.4605871451893377,-0.5919092071285165,-0.2833681740123632,-1.5945040354409652,2,right
1.9980000000000002,0.024932996425194254,1.3280074958056916,0.006142133291761515,2.916419813535467,1.6165547605232586,-1.4712944277050188,-0.5979414401974623,-0.2787206787182188,-1.6180463124309437,2,right
1.999,0.021760699638656265,1.3278368230303617,0.010109301746172453,2.981587559522219,1.68139538901322,-1.4816124123266736,-0.6039320305949585,-0.27392407215027337,-1.6416886890365905,2,right
2.003,0.018312329269405087,1.327363684962334,0.014105658069803281,3.0474172478346135,1.7472272374164763,-1.4915217627358035,-0.6098761812960963,-0.2689753838649449,-1.6654143784890676,2,right
2.003,0.014586314752538163,1.3265831024833976,0.018127003788734206,3.11386857474175,1.814014942542563,-1.5010030884729364,-0.6157690259475236,-0.26387172735053827,-1.689206044126073,2,right
2.009,0.010581461423079502,1.3254904196417288,0.022169012612444607,3.1808994813644347,1.8817211212094027,-1.5100369649103829,-0.6216056336789004,-0.25861030258765516,-1.7130458069001508,2,right
2.01,0.006296958255138034,1.3240813177250053,0.026227239966493784,3.248466163571374,1.9503063646779775,-1.5186039539334073,-0.6273810142612034,-0.2531883982969331,-1.7369152542408162,2,right
2.012,0.0017323847152515728,1.3223518288613052,0.030297133006214828,3.3165230854226238,2.0197292365150408,-1.5266846253570143,-0.633090123628794,-0.24760339385944652,-1.760795450338804,2,right
2.0140000000000002,-0.003112283295415269,1.320298349083056,0.03437404104427937,3.3850229963527707,2.089946274078294,-1.5342595791042568,-0.6387278697820086,-0.24185276089464888,-1.784666947920887,2,right
2.016,-0.008236668424541222,1.3179176507845043,0.038453226338521204,3.4539169522878366,2.1609119938209593,-1.5413094681706387,-0.6442891190743901,-0.23593406450149737,-1.808509801553545,2,right
2.017,-0.01363998778580483,1.3152068945019886,0.042529875204946686,3.5231543408913293,2.232578900615089,-1.5478150223977818,-0.6497687028261875,-0.22984496427404397,-1.8323035823625473,2,right
2.02,-0.019321049818257476,1.3121636399523005,0.04659910943600212,3.592682911136104,2.3048975012952275,-1.5537570730780752,-0.6551614240934005,-0.22358321539330264,-1.8560273937832523,2,right
2.02,-0.02527825210336842,1.3087858562686456,0.05065599800271141,3.6624488073998434,2.3778163226261944,-1.5591165784105205,-0.6604620643591265,-0.21714667020283093,-1.8796598878050914,2,right
2.021,-0.031509580163843864,1.305071931368729,0.05469556899736717,3.732396608216994,2.4512819338412712,-1.5638746498309435,-0.6656653899760288,-0.21053328056886392,-1.9031792813248103,2,right
2.025,-0.0380126072730601,1.3010206803853301,0.058712821747748854,3.8024693694910305,2.5252389736015366,-1.568012579260746,-0.6707661583006486,-0.2037411011343413,-1.9265633724950826,2,right
2.025,-0.04478449530328434,1.2966313530972007,0.06270273902134049,3.8726086713780177,2.5996301806934587,-1.5715118673574282,-0.6757591235223133,-0.1967682934695547,-1.9497895571060873,2,right
2.03,-0.05182199663771144,1.2919036403106947,0.06666029922901176,3.942754667723159,2.674396427485998,-1.5743542528709957,-0.6806390422015777,-0.18961313110041325,-1.9728348450675675,2,right
2.031,-0.05912145716697586,1.2868376791512373,0.07058048851745743,4.012846137262163,2.7494767554673056,-1.5765217431859675,-0.685400678532841,-0.18227400539481048,-1.9956758770584986,2,right
2.035,-0.06667882038310853,1.281434057232607,0.07445831262080391,4.082820536393059,2.8248084127176942,-1.5779966460861485,-0.6900388093454718,-0.17474943228705841,-2.0182889414110394,2,right
2.035,-0.074489632573211,1.275693815687588,0.07828880834366947,4.152614053653876,2.9003268934740487,-1.5787616027548137,-0.6945482288574468,-0.1670380598198306,-2.0406499912949183,2,right
2.039,-0.08254904910492314,1.2696184510642043,0.08206705457001329,4.222161666107413,2.97596598000123,-1.5787996220164968,-0.698923753195174,-0.1591386764825269,-2.0627346622678173,2,right
2.041,-0.09085184178753226,1.2632099161129855,0.08578818272138737,4.291397197833974,3.0516577869867363,-1.5780941158245791,-0.7031602246928094,-0.15105022032444151,-2.084518290256669,2,right
2.044,-0.09939240728512969,1.2564706195089046,0.08944738661242974,4.360253380732434,3.1273328086754315,-1.5766289359968422,-0.7072525159840138,-0.1427717888205791,-2.1059759300340466,2,right
2.045,-0.10816477655113689,1.249403424563648,0.09303993166504433,4.428661917829271,3.202919968961475,-1.5743884121990552,-0.7111955338987066,-0.13430264946742318,-2.127082374253038,2,right
2.05,-0.11716262524823007,1.2420116469883873,0.09656116345255952,4.496553549294332,3.278346674654756,-1.5713573911745398,-0.7149842231769755,-0.12564225108541963,-2.14781217310313,2,right
2.051,-0.1263792851152447,1.2342990517654173,0.10000651556723368,4.5638581213609815,3.353538872139065,-1.5675212772154627,-0.7186135700118886,-0.11679023580439138,-2.168139654648691,2,right
2.055,-0.13580775624015248,1.2262698491811501,0.10337151685023549,4.630504658347,3.428421107638994,-1.562866073869397,-0.722078605432524,-0.10774645170755423,-2.188038945910628,2,right
2.055,-0.14544072018773496,1.2179286900639847,0.10665179809189523,4.696421437971128,3.502916591312084,-1.5573784268724018,-0.7253744085380911,-0.09851096610925335,-2.2074839947507163,2,right
2.06,-0.15527055390333697,1.2092806602583608,0.10984309839425571,4.761536070158429,3.576947265382062,-1.5510456682975813,-0.728496109593558,-0.08908407944099091,-2.226448592616939,2,right
2.061,-0.16528934426994268,1.2003312743519918,0.11294127146785608,4.825775579525804,3.650433876528122,-1.5438558619057114,-0.7314388929967283,-0.07946633971976465,-2.2449063982069495,2,right
2.064,-0.17548890315215562,1.1910864686596436,0.11594229215911285,4.889066491736841,3.7232960527440886,-1.535797849682149,-0.7341980001262259,-0.06965855757218692,-2.262830962105454,2,right
2.065,-0.1858607827459084,1.1815525934562099,0.11884226342002059,4.951334923912902,3.795452384879959,-1.5268612995418005,-0.7367687320793459,-0.05966182178730455,-2.2801957524499494,2,right
2.07,-0.19639629108228984,1.1717364044455474,0.12163742375573544,5.012506679284838,3.8668205130767617,-1.5170367541814795,-0.7391464523082117,-0.04947751537049193,-2.29697418167777,2,right
2.07,-0.20708650759343916,1.1616450534492453,0.1243241550123333,5.0725073462669945,3.93731721830387,-1.5063156810564724,-0.741326589162159,-0.03910733207024455,-2.3131396344058874,2,right
2.076,-0.21792229870670718,1.1512860783003935,0.12689899027630294,5.131262402132218,4.0068585192058706,-1.4946905234556258,-0.7433046383437173,-0.02855329334915811,-2.3286654964932914,2,right
2.077,-0.22889433346851817,1.1406673919341903,0.1293586216483519,5.188697321463435,4.075359774463844,-1.4821547526467145,-0.745076165285014,-0.01781776576983998,-2.343525185334085,2,right
2.0780000000000003,-0.23999309920891324,1.1297972706841732,0.13169990768091772,5.244737689554021,4.142735790873378,-1.4687029210612697,-0.7466368074508496,-0.006903478765966636,-2.3576921814276863,2,right
2.079,-0.2512089172487611,1.1186843418185364,0.13391988030491622,5.29930932092557,4.208900937338925,-1.4543307164854644,-0.7479822765741221,0.004186457231826738,-2.3711400612706774,2,right
2.083,-0.262531958633296,1.1073375703775072,0.1360157511217271,5.352338383127906,4.2737692649810795,-1.439035017221026,-0.7491083608286747,0.015448532346058962,-2.3838425316129284,2,right
2.084,-0.2739522598593116,1.0957662453896226,0.1379849170049541,5.403751525982175,4.337254633550181,-1.4228139481775286,-0.7500109269463892,0.026878818537927986,-2.395773465078167,2,right
2.084,-0.28545973856124424,1.0839799655427635,0.1398249650232339,5.453476016423613,4.399270844336086,-1.405666937854765,-0.7506859222964352,0.03847295082847738,-2.406906936944721,2,right
2.089,-0.2970442091374051,1.0719886243664851,0.14153367673596412,5.5014398789011985,4.459731779586961,-1.3875947760808949,-0.7511293769650508,0.05022610890869398,-2.4172172625157655,2,right
2.09,-0.3086953983218115,1.0598023949606492,0.1431090319271131,5.54757204031183,4.518551547579162,-1.3685996719175715,-0.7513374058852988,0.062132999732623616,-2.4266790343037954,2,right
2.09,-0.320402960728889,1.047431714294484,0.14454921184181763,5.591802476686988,4.575644630915901,-1.348685310327312,-0.7513062110538741,0.0741878415477468,-2.435267158454157,2,right
2.093,-0.33215649441894024,1.0348872671016385,0.14585260198404285,5.6340623578698645,4.630926034761163,-1.3278569057438883,-0.7510320838502882,0.08638434956474461,-2.4429568901943415,2,right
2.094,-0.34394555655285663,1.0221799694065488,0.14701779452120722,5.674284187390611,4.684311432577404,-1.3061212511356974,-0.7505114074613615,0.09871572332891076,-2.4497238682957065,2,right
2.099,-0.35575967921465224,1.009320951727088,0.14804359032092176,5.712401936496707,4.735717308490744,-1.2834867619627262,-0.749740659410927,0.11117463582782654,-2.455544148572236,2,right
2.099,-0.36758838546883466,0.9963215420005123,0.1489290006187371,5.748351172264743,4.785061096268936,-1.259963514876918,-0.7487164141939515,0.1237532243703213,-2.460394236438381,2,right
2.103,-0.3794212056866204,0.9831932482752392,0.14967324829505305,5.782069179909006,4.83226131506528,-1.235563281103523,-0.7474353460135656,0.13644308327212765,-2.464251118545363,2,right
2.104,-0.39124769412954324,0.969947741205585,0.15027576873333878,5.813495079396244,4.877237702076,-1.2102995544384318,-0.7458942316187882,0.14923525838400517,-2.46709229351262,2,right
2.108,-0.4030574457332366,0.9565968363842408,0.15073621024101413,5.842569936469735,4.9199113422526395,-1.1841875737939365,-0.7440899532399902,0.16212024349845008,-2.4688958017682707,2,right
2.109,-0.41484011300005375,0.9431524765491677,0.15105443403239585,5.869236868179398,4.960204795204907,-1.1572443402228592,-0.7420195016184142,0.1750879786714254,-2.4696402545096277,2,right
2.113,-0.4265854228929569,0.9296267137063344,0.15123051378988742,5.893441143008104,4.998042219423011,-1.129488628348502,-0.7396799791253127,0.18812785049583994,-2.469304861791877,2,right
2.114,-0.4382831936215966,0.9160316912160472,0.15126473482685968,5.91513027567758,5.033349493941891,-1.1009409921254412,-0.7370686029655171,0.20122869436377003,-2.4678694597500623,2,right
2.119,-0.44992335121674126,0.9023796258983466,0.15115759287430489,5.934254116710392,5.066054337562956,-1.0716237648538078,-0.7341827084594845,0.21437879875465318,-2.4653145369564586,2,right
2.12,-0.4614959457955329,0.8886827902207958,0.15090979251087006,5.950764936817433,5.096086425741849,-1.0415610533673618,-0.7310197523970932,0.22756591158689024,-2.4616212599123375,2,right
2.124,-0.47299116742555014,0.8749534946380304,0.15052224525511762,5.96461750617312,5.1233775052435195,-1.0107787263133998,-0.7275773164556809,0.24077724867046593,-2.456771497669954,2,right
2.125,-0.4843993614998626,0.8612040701562195,0.14999606733484788,5.975769168633116,5.147861506658403,-0.9793043964403272,-0.7238531106740291,0.25399950429833806,-2.450747845577374,2,right
2.128,-0.4957110435381863,0.8474468511974977,0.14933257713694725,5.984179910941938,5.169474654865835,-0.9471673968065887,-0.719844976973202,0.26721886401445094,-2.443533648135498,2,right
2.128,-0.5069169133319494,0.8336941588384688,0.14853329232503515,5.989812426970135,5.18815557752295,-0.9143987508225866,-0.7155508927143465,0.280421019596297,-2.435113020953304,2,right
2.1319999999999997,-0.5180078683551163,0.8199582844910084,0.14759992659601998,5.992632177012983,5.2038454116492865,-0.8810311360352321,-0.7109689742827483,0.2935911862899811,-2.42547087178398,2,right
2.134,-0.5289750163688107,0.8062514740823453,0.14653438603275623,5.992607442174785,5.216487908369015,-0.8470988415628771,-0.7060974806866295,0.30671412233573175,-2.4145929206211756,2,right
2.137,-0.5398096871559941,0.7925859127762362,0.14533876500012557,5.989709373854895,5.226029535864377,-0.8126377190865605,-0.7009348171583416,0.31977415082175453,-2.4024657188311584,2,right
2.138,-0.5505034433317267,0.7789737102597566,0.14401534152982287,5.983912038343476,5.23241958058524,-0.7776851273017864,-0.6954795387447927,0.3327551839042288,-2.389076667293141,2,right
2.142,-0.5610480901835481,0.7654268866017817,0.14256657214664953,5.975192456526873,5.235610246751006,-0.7422798697334326,-0.6897303538731099,0.3456407494311124,-2.3744140335165027,2,right
2.1430000000000002,-0.571435684505064,0.7519573586705328,0.1409950861034929,5.963530638694206,5.2355567541721575,-0.7064621258148733,-0.6836861278767004,0.3584140200072383,-2.358466967700041,2,right
2.148,-0.5816585423947076,0.7385769270801862,0.13930367901077234,5.948909614428502,5.2322174344097,-0.6702733751309895,-0.6773458864660402,0.37105784453795837,-2.3412255176947596,2,right
2.149,-0.5917092460005628,0.7252972636223762,0.13749530586914535,5.931315457557255,5.225553825281563,-0.6337563147234427,-0.6707088191276701,0.3835547822883144,-2.3226806428280535,2,right
2.153,-0.6015806492008531,0.7121298991296517,0.1355730735412869,5.910737306128877,5.2155307637157335,-0.5969547693554083,-0.663774282434034,0.39588713949439513,-2.302824226543453,2,right
2.154,-0.611265882219448,0.6990862117166354,0.1335402327241465,5.887167377373024,5.202116476940426,-0.559913594631899,-0.6565418032494676,0.40803700850661884,-2.2816490878297246,2,right
2.155,-0.6207583551869469,0.6861774153493814,0.13140016949670652,5.860600977594204,5.185282671992086,-0.5226785728708698,-0.6490110818344104,0.4199863091615441,-2.259148991526073,2,right
2.157,-0.6300517606693702,0.6734145486994625,0.1291563965154477,5.831036506939557,5.1650046235123535,-0.4852963016194775,-0.6411819948807737,0.4317168315694447,-2.235318657796511,2,right
2.158,-0.6391400751975334,0.660808464244049,0.12681254392077415,5.798475459010876,5.141261259716673,-0.447814074899308,-0.6330545985281589,0.4432102792216438,-2.210153771179366,2,right
2.1590000000000003,-0.6480175598388971,0.6483698175774542,0.12437235001076195,5.762922415471262,5.114035246013782,-0.4102797582144304,-0.6246291313921443,0.4544483116037446,-2.183650989497394,2,right
2.162,-0.6566787598575345,0.6361090569037221,0.121839651728885,5.724385036128369,5.083313065036862,-0.3727416600668073,-0.6159060176032927,0.4654125860091538,-2.1558079527000706,2,right
2.162,-0.6651185035091289,0.6240364126834732,0.11921837500112797,5.682874045156478,5.049085091443603,-0.3352484036739102,-0.606885869837056,0.47608479852933294,-2.126623291589116,2,right
2.167,-0.6733319000205628,0.6121618874106761,0.11651252495607547,5.638403213922155,5.011345660226038,-0.29784880163263333,-0.5975694923103724,0.4864467242530234,-2.0960966363510964,2,right
2.168,-0.6813143368052511,0.6004952454922564,0.11372617607170532,5.590989340529535,4.970093127969498,-0.260591734562502,-0.5879578837198993,0.4964802567059016,-2.064228624817126,2,right
2.171,-0.6890614759615105,0.5890460031907848,0.11086346230648149,5.54065222600379,4.925329926883645,-0.223526033810692,-0.5780522400959707,0.5061674465612847,-2.0310209103658203,2,right
2.1719999999999997,-0.6965692500953292,0.5778234185718583,0.10792856727559103,5.487414646985091,4.877062611497143,-0.18670036811152657,-0.5678539575455184,0.5154905396516128,-1.996476169381815,2,right
2.176,-0.7038338575115791,0.5668364813866886,0.10492571451519021,5.431302324796881,4.825301897897476,-0.15016313409352725,-0.5573646348563478,0.5244320143094962,-1.960598108178298,2,right
2.178,-0.710851756836647,0.5560939028289692,0.10185915785276688,5.372343890743913,4.770062695387331,-0.11396235052764273,-0.5465860759343135,0.5329746180661136,-1.9233914692881722,2,right
2.181,-0.7176196611677231,0.5456041051346175,0.09873317190191738,5.310570847487157,4.71136413041891,-0.0781455562109698,-0.5355202920441045,0.5411014037337115,-1.8848620370246105,2,right
2.182,-0.7241345318787057,0.5353752110349435,0.0955520427325125,5.246017526334448,4.64922956265751,-0.042759711381107915,-0.5241695038235064,0.5487957648978491,-1.8450166422079493,2,right
2.187,-0.7303935722387087,0.525415033116572,0.09232005880319022,5.1787210402775905,4.58368659301572,-0.007851102557254847,-0.512536143040183,0.5560414708438965,-1.8038631659520494,2,right
2.188,-0.7363942210089764,0.5157310631763604,0.08904150225069046,5.108721232598504,4.5147670634896695,0.026534749294747736,-0.5006228540591925,0.5628227009410954,-1.761410542399452,2,right
2.191,-0.7421341461753475,0.5063304616833338,0.08572064060672385,5.036060620859066,4.442507048618879,0.06035317737497315,-0.4884324949886356,0.5691240785062497,-1.7176687602908793,2,right
2.1919999999999997,-0.7476112389510599,0.4972200474740634,0.08236171897907178,4.960784336081401,4.366946838381505,0.09356045453975816,-0.4759681384700224,0.5749307041678289,-1.6726488632508836,2,right
2.1959999999999997,-0.7528236081584764,0.4884062878173732,0.07896895271005086,4.8829400569176284,4.288130912327066,0.1261138757685262,-0.46323307207913905,0.5802281887499318,-1.626362948667704,2,right
2.1959999999999997,-0.757769575075988,0.47989528899232803,0.07554652051575139,4.802577938600429,4.206107904739145,0.15797183770414258,-0.45023079830240303,0.5850026856941785,-1.5788241650416996,2,right
2.2,-0.7624476688188471,0.47169278753011884,0.07209855810339855,4.719750536458271,4.120930560611114,0.18909391536210532,-0.4369650340529057,0.5892409230361833,-1.5300467076730526,2,right
2.201,-0.7668566223064038,0.46380414227237193,0.06862915225215689,4.6345127237718,4.03265568220856,0.21944093610199936,-0.4234397096895661,0.5929302349517946,-1.4800458125558051,2,right
2.205,-0.7709953688495378,0.4562343273906927,0.06514233532452396,4.546921603740623,3.941344065982892,0.24897505095264633,-0.40965896750205183,0.5960585928867915,-1.4288377483416925,2,right
2.206,-0.7748630393698464,0.44898792649183356,0.061642080157866326,4.457036415322685,3.84706042959157,0.27765980338027135,-0.395627159623366,0.5986146362821823,-1.3764398062336822,2,right
2.211,-0.7784589602388343,0.44206912790122366,0.058132295274134715,4.364918432701484,3.7498733287714856,0.3054601955867839,-0.3813488453312554,0.6005877029056801,-1.322870287665614,2,right
2.211,-0.7817826517057587,0.435481721180092,0.054616820340788956,4.270630858129623,3.6498550638033294,0.33234275242293815,-0.3668287876988603,0.6019678587983167,-1.2681484896208697,2,right
2.215,-0.7848338268706662,0.42922909489435923,0.05109942181555708,4.174238707890627,3.5470815752962337,0.3582755829987007,-0.3520719495543057,0.6027459278435139,-1.21229468743959,2,right
2.2159999999999997,-0.7876123911555015,0.42331423562179143,0.04758378871094667,4.07580869111452,3.441632329013659,0.38322844007061735,-0.3370834887082272,0.6029135209642607,-1.1553301149605848,2,right
2.22,-0.790118442230276,0.4177397281606918,0.044073528422332676,3.975409081176444,3.333590189453357,0.40717277728333534,-0.32186875242936236,0.6024630649205202,-1.0972769419222048,2,right
2.221,-0.7923522703616073,0.4125077568908491,0.04057216257688361,3.873109579401555,3.223041281886346,0.430081804339716,-0.306433271256823,0.6013878305181637,-1.0381582489502768,2,right
2.221,-0.7943143591628179,0.4076201082340538,0.03708312287781142,3.7689811707935723,3.1100748425521427,0.45193054017115797,-0.2907827524334937,0.5996819597525964,-0.9779980011908065,2,right
2.226,-0.7960053867310735,0.40307817415951197,0.0336097469354037,3.6630959717992617,2.9947830570062997,0.47269586412222303,-0.27492307335351573,0.5973404912493674,-0.9168210220491153,2,right
2.227,-0.7974262271557632,0.39888295667489015,0.030155274088926518,3.555527071618376,2.8772608881402584,0.4923565648875082,-0.2588602753070185,0.5943593835213603,-0.8546529680869234,2,right
2.227,-0.7985779523771438,0.395035073240463,0.026722841230433437,3.44634837126819,2.7576058981427014,0.5108933864439424,-0.2426005576081485,0.5907355358467342,-0.7915203053931269,2,right
2.231,-0.7994618343632004,0.39153476303920254,0.023315478647589885,3.3356344261094617,2.6359180701960674,0.5282890699453996,-0.22615027208268004,0.5864668067290602,-0.7274502873339981,2,right
2.231,-0.8000793475495255,0.38838189402202894,0.019936105914772618,3.2234602960330716,2.5122996341643304,0.544528390816529,-0.20951591786907778,0.5815520299310822,-0.6624709335042723,2,right
2.234,-0.8004321714541827,0.3855759706296577,0.016587527880691417,3.1099014047971205,2.386854897765925,0.5595981907712032,-0.19270413648631426,0.5759910280716887,-0.5966110096978195,2,right
2.235,-0.8005221933456237,0.38311614208082057,0.013272430821917107,2.995033408497137,2.2596900831886946,0.573487404750887,-0.1757217071211998,0.5697846237738262,-0.5299000087139027,2,right
2.239,-0.8003515108129762,0.3810012111121016,0.009993378849483377,2.878932072847308,2.130913168791962,0.5861870828295517,-0.15857554208745264,0.5629346483492402,-0.4623681318124178,2,right
2.24,-0.7999224340692955,0.3792296430537832,0.006752810664050271,2.7616731589466728,2.0006337355355828,0.5976904071284009,-0.1412726824082278,0.5554439480040659,-0.3940462706289797,2,right
2.244,-0.7992374878138347,0.3777995751284226,0.00355303674900086,2.6433323172004513,1.8689628177709052,0.6079927037802904,-0.12382029347333447,0.547316387547446,-0.3249659893582776,2,right
2.245,-0.7982994124894106,0.3767088258659603,0.00039623707177032815,2.5239849890631563,1.736012758023926,0.6170914499803075,-0.10622566072189991,0.5385568515835019,-0.2551595070117639,2,right
2.249,-0.7971111647921384,0.3759549045422137,-0.0027155406593847384,2.4037063162667818,1.601897065396632,0.6249862761555494,-0.088496185300789,0.5291712431651487,-0.18465967955347495,2,right
2.25,-0.7956759173178408,0.37553502056513954,-0.005780382153905559,2.282571057194283,1.4667302772085031,0.6316789632836869,-0.07063937964865927,0.5191664798864171,-0.113499981715604,2,right
2.256,-0.7939970572567192,0.3754460927512641,-0.008796507093372008,2.160653510055647,1.3306278234964992,0.6371734353864539,-0.05266286295512259,0.5085504873881279,-0.041714488293360726,2,right
2.2569999999999997,-0.7920781840710341,0.3756847584505117,-0.011762269066637911,2.0380274425211904,1.1937058939884961,0.6414757472207454,-0.03457435644409753,0.4973321902499761,0.03066214528333643,2,right
2.259,-0.7899231061078843,0.37624738249108,-0.01467615487261518,1.9147660274642557,1.0560813071621211,0.6445940671865585,-0.016381678430071073,0.4855215002402967,0.10359470330568568,2,right
2.26,-0.7875358361119262,0.3771300659266296,-0.01753678318084311,1.7909417844632256,0.9178713809982517,0.6465386554675736,0.0019072609043555404,0.4731293018930369,0.17704743127549064,2,right
2.2640000000000002,-0.7849205856132163,0.37832865457522624,-0.020342902545409703,1.6666265267107427,0.7791938050360903,0.6473218374167524,0.020284465061583348,0.46016743537972765,0.2509840587361551,2,right
2.265,-0.7820817581749949,0.3798387473440208,-0.023093388776400447,1.5418913129761962,0.6401665133347073,0.6469579721959345,0.03874185716504031,0.44664867664254965,0.32536782365462297,2,right
2.27,-0.7790239414969722,0.38165570433694856,-0.025787241685564226,1.4168064042659076,0.5009075579442676,0.6454634166750436,0.05727128633063611,0.43258671475292,0.40016149856519523,2,right
2.271,-0.7757518983835379,0.38377465474601113,-0.028423581238062958,1.2914412248240552,0.3615349824888089,0.6428564845931848,0.07586453452642247,0.41799612645839007,0.4753274186875449,2,right
2.274,-0.7722705566046183,0.3861905045322128,-0.031001643156851506,1.1658643271161486,0.22216669546143925,0.6391574009806236,0.09451332397346457,0.40289234787904915,0.5508275122325342,2,right
2.275,-0.7685849976989527,0.3888979439115565,-0.0335207740370107,1.0401433604358727,0.08292034283215301,0.6343882518373911,0.11320932514113606,0.38729164331306865,0.6266233331106161,2,right
2.279,-0.7647004447924566,0.3918914546730806,-0.035980426032838145,0.9143450427753054,-0.056086820431860425,0.6285729290610717,0.13194416539023338,0.3712110711095057,0.7026760962586691,2,right
2.28,-0.7606222495250097,0.39516531736667543,-0.03838015118291072,0.7885351355979058,-0.1947380603335296,0.6217370706131912,0.15070943831746403,0.3546684465650111,0.7789467158020741,2,right
2.283,-0.7563558781962136,0.39871361840691255,-0.04071959544148984,0.6627784211532567,-0.33291729570060113,0.6139079959105617,0.16949671385500004,0.3376823017996625,0.8553958462696911,2,right
2.2840000000000003,-0.7519068972540259,0.4025302571448609,-0.04299849249032286,0.5371386819723132,-0.4705092323268058,0.605114636424927,0.1882975491788981,0.32027184256576546,0.9319839270801312,2,right
2.289,-0.7472809582565929,0.40660895296141963,-0.045216657410422884,0.411678682181882,-0.607399499797549,0.595387461471333,0.20710350044566422,0.3024569020181643,1.008671230388348,2,right
2.29,-0.7424837824298653,0.41094325243142554,-0.04737398029203312,0.2864601502772038,-0.7434747913968291,0.5847583991627937,0.2259061352032438,0.2842578918534526,1.085417911732108,2,right
2.291,-0.7375211449224783,0.4155265365993218,-0.04947041985137304,0.16154376299184112,-0.8786230074904023,0.5732607525060569,0.24469704501124961,0.26569575190847355,1.162184061748335,2,right
2.293,-0.7323988588449145,0.4203520284000009,-0.05150599711573085,0.036989129904595096,-1.0127334027781991,0.5609291106105961,0.26346785763219466,0.24679189968745996,1.2389297565796324,2,right
2.294,-0.7271227591849206,0.42541280025528805,-0.05348078924031619,-0.08714522151474868,-1.1456967375546134,0.5477992550983215,0.28221024832854763,0.22756818090594175,1.315615105241436,2,right
2.294,-0.721698686696297,0.43070178187395963,-0.05539492351982969,-0.21080186041122015,-1.2774054318523913,0.5339080623887982,0.30091595011190264,0.20804682145428796,1.3922002933902613,2,right
2.298,-0.7161324718471098,0.43621176827832686,-0.057248571645771046,-0.3339244660388287,-1.407753719074449,0.5192934035939808,0.3195767629635566,0.1882503808026489,1.4686456235834395,2,right
2.299,-0.7104299189038269,0.4419354280744883,-0.05904194424481518,-0.456457839371748,-1.5366377944544303,0.5039940443439671,0.3381845620803187,0.1682017067921212,1.5449115522505494,2,right
2.303,-0.7045967902365089,0.44786531197704554,-0.06077528572252748,-0.5783479122667647,-1.6639559549434404,0.48804954627330444,0.3567313051992708,0.14792389175610549,1.6209587235964686,2,right
2.3040000000000003,-0.6986387909439448,0.4539938615916328,-0.062448869427779885,-0.6995417541622231,-1.7896087293849101,0.47150017083368956,0.3752090390550682,0.12744022991503506,1.6967480006555677,2,right
2.31,-0.6925615539013353,0.46031341845074436,-0.06406299314399007,-0.8199875766039642,-1.913498999095576,0.4543867855071554,0.3936099050232194,0.1067741759869319,1.7722404937160527,2,right
2.311,-0.6863706253291879,0.4668162332910874,-0.06561797490654822,-0.9396347359483028,-2.0355321092181113,0.43675077237402554,0.4119261440026073,0.08594930495558623,1.8473975863328371,2,right
2.313,-0.6800714509756742,0.4734944755535884,-0.06711414914177341,-1.0584337345900876,-2.155615971206168,0.4186339389881832,0.4301501005903163,0.06498927293756697,1.9221809591465782,2,right
2.315,-0.673669362996304,0.4803402430797671,-0.06855186311860707,-1.1763362210617456,-2.2736611567975262,0.4000784315105811,0.4482742266016099,0.04391777908874529,1.996552611725667,2,right
2.319,-0.6671695676047988,0.48734557197113154,-0.06993147370045455,-1.2932949893469177,-2.389580983825724,0.38112665005041946,0.46629108398765984,0.022758528490558004,2.070474882646997,2,right
2.32,-0.6605771335578412,0.49450244657230197,-0.07125334438410694,-1.4092639777498592,-2.503291594214945,0.36182116616203724,0.48419334720336193,0.0015351959558493969,2.1439104680302594,2,right
2.323,-0.6538969815233922,0.5018028095333522,-0.07251784261640376,-1.5241982676592054,-2.614712024497083,0.34220464244430343,0.5019738050772908,-0.019728609306190394,2.2168224387393325,2,right
2.323,-0.6471338743693804,0.5092385719013042,-0.0737253373853155,-1.6380540825419951,-2.7237642691838175,0.3223197541881563,0.5196253622355327,-0.04100937822672429,2.289174256463049,2,right
2.329,-0.6402924084015832,0.5168016231860747,-0.07487619708669452,-1.7507887875010055,-2.8303733373201854,0.3022091130169235,0.5371410401308111,-0.06228373567652263,2.3609297888862204,2,right
2.33,-0.6333770055793376,0.5244838413479828,-0.0759707876661667,-1.862360889725473,-2.934467302539552,0.281915192463161,0.5545139777279676,-0.08352847358880752,2.432053324160293,2,right
2.333,-0.6263919067421987,0.5322771026678418,-0.07700947102404007,-1.9727300401621943,-3.0359773469331133,0.2614802554249796,0.5717374318964915,-0.10472058346677096,2.5025095848814107,2,right
2.333,-0.6193411658836848,0.5401732914849878,-0.07799260365258497,-2.0818570367307676,-3.1348377990400222,0.24094628344417732,0.5888047775604013,-0.12583728833683225,2.5722637417819385,2,right
2.3369999999999997,-0.6122286455073017,0.548164309813903,-0.07892053546021473,-2.1897038294034106,-3.2309861662570265,0.22035490774797,0.6057095076553702,-0.1468560742086154,2.6412814273396905,2,right
2.3369999999999997,-0.6050580130970545,0.5562420868678373,-0.07979360873640488,-2.2962335274663244,-3.3243631619590954,0.19974734199570643,0.6224452329425622,-0.16775472110247702,2.709528749507189,2,right
2.342,-0.5978327387306727,0.5643985885262488,-0.08061215722573953,-2.4014104092760213,-3.4149127276148907,0.17916431667166835,0.6390056817281912,-0.18851133370519885,2.7769723057612694,2,right
2.343,-0.5905560938575414,0.5726258267845037,-0.08137650530133989,-2.5051999348203458,-3.502582050173169,0.15864601506489157,0.6553846995373567,-0.20910437171417845,2.843579197671221,2,right
2.3480000000000003,-0.5832311512547197,0.5809158692216139,-0.08208696724680464,-2.6075687613901497,-3.5873215749882426,0.13823201077689523,0.6715762487902157,-0.22951267993010688,2.9093170461814513,2,right
2.3480000000000003,-0.5758607861640196,0.5892608485160943,-0.08274384666533509,-2.708484762663688,-3.669085014544501,0.11796120669827635,0.6875744085280534,-0.24971551815771534,2.974154007802353,2,right
2.352,-0.5684476786007199,0.5976529720317427,-0.08334743603556757,-2.8079170515018252,-3.7478293532317486,0.09787177539531126,0.7033733742362909,-0.26969259097370396,3.0380587919006437,2,right
2.353,-0.5609943168111949,0.6060845314840421,-0.08389801643084177,-2.9058360067480558,-3.8235148484146873,0.07800110084800385,0.7189674578109332,-0.2894240774204347,3.101000679277957,2,right
