time,gFx,gFy,gFz,ax,ay,az,wx,wy,wz,subject_number,foot
3.2260000000000004,0.09565003239643867,1.090548417077076,-0.016034101515520552,0.9483439983692507,1.322344765096303,1.3177731373476231,0.27888119205080386,-0.8371898636732439,0.6799186596536863,1,left
3.2289999999999996,0.09793006708319013,1.088139766640988,-0.019430401685094273,0.9201203836518246,1.3437188447023738,1.3138534952734386,0.2750496495606475,-0.8339235172106652,0.7096263073997234,1,left
3.23,0.1001754832251732,1.0857244683328173,-0.022800408894710782,0.8922211851182547,1.36433231506369,1.3095378651822518,0.2712858961957976,-0.8302261003396441,0.7385199729190924,1,left
3.235,0.10238394522135379,1.0833061699024464,-0.026140369829153257,0.8646781410776092,1.3841607497368345,1.3048178853479995,0.26759028082277186,-0.8260958429510381,0.7665929710970338,1,left
3.236,0.10455331130972093,1.0808884008851218,-0.02944661282913967,0.8375225982499629,1.4031799341792375,1.2996852720243113,0.26396308010255526,-0.8215314687206733,0.7938395584327154,1,left
3.239,0.10668163730507253,1.0784745662910118,-0.032715560816835625,0.8107854329922343,1.4213659393972509,1.2941318509071393,0.2604044956721055,-0.8165322091397089,0.8202549241365235,1,left
3.24,0.10876717966990072,1.0760679413155552,-0.03594374286804333,0.7844969694713662,1.4386952000548723,1.2881495900498678,0.2569146510616857,-0.8110978172688486,0.84583518005348,1,left
3.2439999999999998,0.11080839804478769,1.073671667033871,-0.039127804468005026,0.7586868947069064,1.4551445970977026,1.2817306342161368,0.2534935883376056,-0.8052285812032813,0.8705773494910445,1,left
3.245,0.11280395729630668,1.0712887470386698,-0.04226451653248039,0.7333841704062428,1.4706915449443299,1.274867340654411,0.2501412644601488,-0.7989253372339937,0.894479355027179,1,left
3.2489999999999997,0.11475272906445591,1.0689220449778214,-0.04535078328835247,0.7086169415170386,1.4853140832948732,1.267552316277095,0.2468575473611676,-0.7921894826669234,0.9175400053679162,1,left
3.25,0.11665379273123422,1.0665742829434737,-0.04838364910065896,0.6844124414227858,1.4989909736038902,1.2597784562257315,0.24364221181856172,-0.7850229881456113,0.9397589813000812,1,left
3.25,0.11850643570117962,1.064248040661859,-0.05136030431450966,0.660796893708846,1.5117018002622664,1.2515389838025552,0.2404949353356194,-0.7774284091155296,0.9611368207442686,1,left
3.2560000000000002,0.12031015286335317,1.0619457554262723,-0.054278090155007105,0.6377954104278903,1.5234270765300444,1.2428274917473718,0.23741529430593392,-0.7694088959524453,0.9816749028895766,1,left
3.2569999999999997,0.12206464507145945,1.0596697226981082,-0.05713450270135064,0.6154318867952612,1.5341483552594417,1.233637984837414,0.23440276067226715,-0.7609682023905245,1.0013754314103673,1,left
3.259,0.12376981645549892,1.0574220972808828,-0.059927195928228295,0.5937288924649837,1.543848344223341,1.2239649237255101,0.2314566991573615,-0.7521106920908756,1.0202414168010479,1,left
3.259,0.1254257703952738,1.0552048949669335,-0.06265398379480117,0.5727075606315022,1.5525110247557747,1.2138032696256302,0.22857636507236015,-0.742841343304589,1.0382766578836375,1,left
3.26,0.12703280403721,1.0530199945680812,-0.06531284136286772,0.5523874781706851,1.5601217704173627,1.2031485289046533,0.22576090269417956,-0.7331657516060354,1.0554857225447247,1,left
3.263,0.12859140129223526,1.0508691402535042,-0.06790190493568089,0.5327865811281272,1.566667461289791,1.1919967963329074,0.22300934420336943,-0.7230901306709855,1.0718739277560163,1,left
3.264,0.13010222430133214,1.0487539441201132,-0.07041947122067292,0.513921058772143,1.5721365906063842,1.1803447960495381,0.2203206091741838,-0.7126213110729367,1.0874473189303009,1,left
3.2680000000000002,0.13156610340714764,1.0466758889239578,-0.0728639955357518,0.495805267464216,1.5765193624134797,1.168189919846191,0.21769350460877315,-0.7017667370698653,1.102212648662273,1,left
3.2689999999999997,0.13298402572993684,1.0446363309177127,-0.07523408910574425,0.47845165450914484,1.579807780060202,1.1555302626759816,0.21512672550759093,-0.6905344613524731,1.1161773549013148,1,left
3.273,0.13435712250270082,1.0426365027647577,-0.07752851553083345,0.4618706919307228,1.5819957255323205,1.1423646553542786,0.21261885596828764,-0.678933137723871,1.1293495386009804,1,left
3.273,0.13568665536143182,1.0406775165243511,-0.07974618654235352,0.4460708201209351,1.5830790296427697,1.1286926944163738,0.2101683708055427,-0.6669720116795345,1.141737940887624,1,left
3.278,0.13697400180799885,1.0387603667194958,-0.08188615718260318,0.43105840131284445,1.5830555330882627,1.11451476909567,0.2077736376844577,-0.6546609088552819,1.1533519197882989,1,left
3.278,0.13822064006712725,1.0368859335081835,-0.08394762054986414,0.41683768282955025,1.581925138378278,1.0998320853845662,0.20543291976030262,-0.6420102213099684,1.16420142655579,1,left
3.283,0.1394281335503536,1.0350549859803413,-0.08592990223983568,0.4034107700638462,1.5796898526395204,1.0846466871387623,0.20314437881757277,-0.6290308916085556,1.1742969816263908,1,left
3.284,0.1405981151245172,1.0332681855977417,-0.08783245459594476,0.3907776091454585,1.576353821295794,1.0689614741842597,0.20090607890147244,-0.6157343946702127,1.1836496502438048,1,left
3.2889999999999997,0.14173227136425592,1.0315260897832546,-0.08965485085941785,0.3789359792550187,1.5719233526200433,1.0527802173848793,0.1987159904350979,-0.6021327173451301,1.192271017780365,1,left
3.2889999999999997,0.14283232695103854,1.0298291556505679,-0.09139677929115447,0.3678814945461957,1.5664069331521489,1.0361075706266831,0.1965719948157406,-0.5882383356827846,1.200173164784598,1,left
3.293,0.14390002936997176,1.0281777438480564,-0.09305803732482085,0.35760761563969345,1.5598152339729061,1.0189490796742444,0.1944718894838762,-0.5740641898534857,1.2073686417820197,1,left
3.2939999999999996,0.14493713405123185,1.0265721224739162,-0.09463852580328184,0.3481056706550855,1.552161107821481,1.0013111878522964,0.19241339345854366,-0.5596236566841535,1.2138704438539651,1,left
3.298,0.14594539010244031,1.0250124710069777,-0.09613824334559527,0.3393648857487167,1.543459577040518,0.9832012385048714,0.1903941533329502,-0.5449305197684431,1.2196919850171712,1,left
3.299,0.14692652677847648,1.0234988841901658,-0.09755728088783523,0.33137242512813797,1.5337278123299893,0.9646274741826537,0.18841174972426428,-0.5299989371105248,1.2248470724248166,1,left
3.302,0.14788224083465074,1.022031375801919,-0.09889581643694602,0.32411344051575586,1.522985102287833,0.9455990325078951,0.18646370417167824,-0.5148434062610667,1.2293498804077228,1,left
3.303,0.1488141849059241,1.0206098822548968,-0.10015411007155585,0.31757113003655824,1.511252813712415,0.9261259386648818,0.18454748647693417,-0.49947872690324036,1.233214924372471,1,left
3.3080000000000003,0.14972395704568323,1.0192342659703404,-0.1013324992171279,0.31172680650692464,1.4985543426389074,0.9062190944626192,0.1826605224816132,-0.4839199608458858,1.236457034571274,1,left
3.3089999999999997,0.15061309153932778,1.0179043184904415,-0.10243139421478005,0.30655997510363153,1.4849150560787583,0.8858902639150904,0.18080020227558638,-0.4681823893803308,1.2390913297565682,1,left
3.313,0.15148305107954455,1.0166197633094893,-0.1034512741939649,0.30204842039421803,1.4703622244286079,0.8651520552831691,0.17896388883111683,-0.45228146795675767,1.2411331907314656,1,left
3.3139999999999996,0.1523352203537518,1.0153802584247953,-0.10439268325210875,0.29816830271187894,1.4549249445122237,0.8440178995210286,0.17714892705718674,-0.4362327781354545,1.2425982338054071,1,left
3.3169999999999997,0.15317090105562128,1.014185398626588,-0.1052562269421771,0.29489426385999407,1.4386340532163289,0.822502025068674,0.17535265325566898,-0.4200519768654833,1.24350228417611,1,left
3.318,0.1539913083014191,1.0130347175578167,-0.10604256907088183,0.2921995421332826,1.4215220316785835,0.8006194289310481,0.17357240489587888,-0.4037547436313715,1.243861349324636,1,left
3.319,0.15479756841355505,1.0119276895783915,-0.10675242881246262,0.29005609664438103,1.4036228999834366,0.7783858439830332,0.17180553050682856,-0.38735672688739153,1.2436915926301504,1,left
3.322,0.155590718019723,1.0108637314701325,-0.10738657814296637,0.2884347409463811,1.3849721023191182,0.7558177024385689,0.17004939942140695,-0.3708734916871548,1.2430093074767714,1,left
3.324,0.1563717043957041,1.0098422040251593,-0.10794583959507227,0.28730528594352717,1.3656063825466884,0.7329320954210572,0.16830141117190797,-0.3543204699273685,1.2418308920558994,1,left
3.327,0.15714138695745744,1.0088624135666815,-0.1084310843210993,0.28663669208385223,1.3455636501298,0.7097467285712197,0.16655900445364163,-0.3377129137449365,1.240172824944508,1,left
3.3280000000000003,0.15790053979314977,1.0079236134486653,-0.10884323043449597,0.2863972308290297,1.3248828363716734,0.6862798736276121,0.16481966563854736,-0.32106585211779287,1.2380516414709586,1,left
3.3280000000000003,0.15864985512054006,1.0070250055704477,-0.10918324158750371,0.2865546550903836,1.3036037411850157,0.6625503160228394,0.16308093683378225,-0.30439405062194913,1.2354839108649855,1,left
3.333,0.15938994756076505,1.006165741929933,-0.10945212574245974,0.28707637678259196,1.2817668720250757,0.638577299081412,0.1613404234802738,-0.28771197429707823,1.2324862141871307,1,left
3.3339999999999996,0.16012135913350273,1.0053449262283254,-0.10965093410280616,0.28792964687813477,1.2594132791457244,0.6143804663831328,0.15959580148623476,-0.27103375357284476,1.2290751230315626,1,left
3.3369999999999997,0.16084456488417948,1.004561615532285,-0.1097807601761377,0.2890817318079471,1.2365843927431421,0.5899798043989066,0.1578448238906402,-0.2543731532081184,1.2252671789949454,1,left
3.338,0.16155997904025574,1.0038148219962688,-0.10984273893990802,0.2905000815935146,1.2133218661436798,0.5653955869614095,0.15608532705166187,-0.23774354419517862,1.2210788739027776,1,left
3.342,0.16226796157530404,1.003103514646662,-0.10983804607527145,0.29215248786631604,1.189667426659458,0.5406483221536558,0.1543152363550428,-0.2211578785810278,1.2165266307834393,1,left
3.343,0.1629688250546811,1.0024266212280497,-0.10976789723120121,0.29400723147010605,1.1656627343274923,0.5157587016541615,0.15253257143737792,-0.2046286671579795,1.2116267855790444,1,left
3.346,0.16366284164448278,1.0017830301109674,-0.10963354727938045,0.29603321965004314,1.141349248465605,0.4907475524681224,0.15073545091924134,-0.18816795997577865,1.2063955695810982,1,left
3.347,0.1643502501780435,1.0011715922611983,-0.10943628951934094,0.29820011283334236,1.1167681019772622,0.4656357909735612,0.148922096643071,-0.17178732962763327,1.2008490925779227,1,left
3.3510000000000004,0.16503126318822697,1.0005911232730624,-0.10917745479404278,0.300478441006713,1.0919599833364677,0.4404443792109863,0.14709083741068574,-0.15549785726270013,1.1950033266998048,1,left
3.352,0.16570607382867225,1.0000404054713103,-0.10885841048066636,0.3028397096963368,1.0669650261829542,0.41519428334475694,0.14524011221526817,-0.1393101212777621,1.1888740909468773,1,left
3.3560000000000003,0.16637486262158557,0.9995181900873094,-0.10848055933175127,0.3052564955565474,1.0418227064571424,0.3899064342240607,0.1433684729626003,-0.12323418864106361,1.1824770363838315,1,left
3.3569999999999998,0.16703780398098314,0.9990231995162877,-0.10804533815771887,0.3077025315736959,1.0165717470036928,0.3646016899711798,0.14147458667628812,-0.10727960880153196,1.1758276319847007,1,left
3.361,0.16769507246673643,0.9985541296641735,-0.10755421635927682,0.31015278189192574,0.9912500295719259,0.3393008005245555,0.13955723718165536,-0.09145541013690281,1.1689411511101462,1,left
3.361,0.16834684872721814,0.998109652393313,-0.10700869433199646,0.31258350626774317,0.9658945141409695,0.31402437406404843,0.13761532626292663,-0.07577009889458891,1.1618326585988952,1,left
3.367,0.16899332508977097,0.9976884180739534,-0.10641030177228863,0.31497231416035715,0.9405411654971759,0.2887928452457476,0.13564787428825675,-0.06023166057947796,1.1545169984542665,1,left
3.367,0.16963471076100634,0.9972890582426405,-0.1057605959133414,0.3172982084647753,0.9152248869911451,0.26362644517368955,0.1336540202970961,-0.04484756374321942,1.1470087821060317,1,left
3.3710000000000004,0.17027123660264087,0.9969101883610881,-0.10506115971311104,0.31954161889459126,0.889979461401592,0.23854517303591774,0.131633021544311,-0.029624766129957618,1.1393223772272238,1,left
3.3710000000000004,0.17090315945180368,0.9965504106616293,-0.104313600008585,0.3216844250212803,0.8648374988332987,0.2135687693324438,0.1295842524954054,-0.014569723133889559,1.1314718970849065,1,left
3.3760000000000003,0.17153076595825267,0.9962083170595435,-0.10351954564563533,0.32370996897664334,0.8398303915764985,0.1887166906228567,0.1275072032671145,0.0003116014755320231,1.1234711904033687,1,left
3.377,0.17215437591655264,0.9958824921086388,-0.10268064559333709,0.325603057824804,0.8149882758552385,0.16400808572157075,0.12540147750756325,0.015013722604467499,1.115333831717692,1,left
3.383,0.1727743450794507,0.9955715159743523,-0.1017985670541858,0.3273499556098792,0.7903400003925622,0.13946177326900325,0.1232667897101027,0.02953161870486733,1.107073112195169,1,left
3.384,0.17339106744764154,0.9952739673982565,-0.10087499358458502,0.32893836508510965,0.7659131017207387,0.11509622060733085,0.121102961954857,0.04386071450669548,1.0987020309016187,1,left
3.385,0.1740049770374267,0.9949884266292353,-0.0999116232416726,0.3303573991288582,0.7417337861652333,0.09092952388988264,0.11890992008424325,0.05799686169159865,1.0902332864960065,1,left
3.386,0.17461654912983227,0.9947134783000351,-0.09891016677206296,0.33159754185246826,0.7178269184316757,0.06697938935369531,0.11668768938020586,0.07193631777276731,1.081679269370196,1,left
3.387,0.175226301004479,0.9944477142328692,-0.09787234585342887,0.3326505994045221,0.6942160167257044,0.04326311568527362,0.11443638992163421,0.08567572377976779,1.0730520543111455,1,left
3.391,0.17583479216130732,0.9941897361622625,-0.09679989139067956,0.33350964047555504,0.6709232543362867,0.019797577410169683,0.11215623186191095,0.09921208153244614,1.0643633937963564,1,left
3.392,0.17644262403432978,0.9939381583663692,-0.0956945418585157,0.3341689265067702,0.6479694676138797,-0.0034007907623838994,0.10984751080489263,0.1125427311015653,1.0556247119993554,1,left
3.395,0.17705043920435307,0.9936916102009513,-0.09455804167564143,0.33462383183998107,0.6253741701874072,-0.026316008698185803,0.10751060334672985,0.12566532871868874,1.046847099520984,1,left
3.3960000000000004,0.1776589201207361,0.9934487385338047,-0.09339213959435515,0.33487075521654386,0.603155572823672,-0.04893256470932466,0.10514596278928978,0.1385778252113657,1.0380413088283187,1,left
3.397,0.17826878734412568,0.9932082100803897,-0.09219858709126028,0.33490702614042606,0.5813306075395392,-0.0712354284591608,0.10275411501854911,0.15127844500190904,1.0292177503761382,1,left
3.4,0.1788807973244759,0.9929687136429762,-0.09097913674791731,0.33473081079106176,0.5599149541369911,-0.09321006277291745,0.10033565454124563,0.16376566570745857,1.0203864893857468,1,left
3.4010000000000002,0.17949573973358943,0.9927289622557919,-0.08973554061401108,0.33434102099996044,0.538923067773495,-0.11484243427338824,0.09789124067299622,0.17603819837842,1.0115572432558806,1,left
3.405,0.18011443437693367,0.9924876952369778,-0.08846954855147132,0.333737227696475,0.5183682069755128,-0.1361190228476269,0.09542159387101147,0.18809496841176224,1.002739379580367,1,left
3.405,0.18073772771389057,0.9922436801446874,-0.08718290656440046,0.33291957905643815,0.4982624619454093,-0.15702682999802092,0.09292749220446081,0.19993509717504257,0.9939419147471924,1,left
3.411,0.18136648902045893,0.9919957146309741,-0.08587735512245222,0.33188872335254593,0.47861678310148487,-0.17755338613986393,0.09040976795546747,0.2115578843764126,0.9851735130936322,1,left
3.412,0.18200160623356537,0.9917426281845835,-0.08455462748352172,0.3306457365047546,0.45944100979211017,-0.1976867569065208,0.0878693043436405,0.22296279121523968,0.9764424865921313,1,left
3.4160000000000004,0.18264398151871722,0.9914832837529878,-0.08321644801873837,0.32919205432834286,0.44074389912622686,-0.21741554852222122,0.08530703236698046,0.23414942434735547,0.9677567950416817,1,left
3.417,0.1832945266016716,0.9912165792354529,-0.08186453054152189,0.3275294094766809,0.4225331548638,-0.23672891230142357,0.08272392775192815,0.24511752069831938,0.9591240467395253,1,left
3.42,0.18395415790124625,0.9909414488427926,-0.08050057664141239,0.3256597730751381,0.40481545631115295,-0.25561654833256137,0.08012100800526026,0.2558669331574598,0.9505514996081174,1,left
3.4210000000000003,0.18462379149599734,0.9906568643248819,-0.07912627402045412,0.3235853010419575,0.38759648716749084,-0.27406870840282604,0.07749932956047319,0.2663976171848283,0.9420460627524142,1,left
3.424,0.18530433795393392,0.9903618360723115,-0.07774329482605347,0.3213082850913242,0.37088096427031125,-0.29207619821944475,0.0748599850112369,0.2767096183625757,0.9336142984227036,1,left
3.426,0.18599669705247412,0.9900554141027108,-0.07635329397094284,0.3188311084132621,0.35467266618881654,-0.3096303789816919,0.07220410042444336,0.2868030609216289,0.9252624243583644,1,left
3.43,0.18670175241506265,0.9897366889454774,-0.07495790742908844,0.3161562060244042,0.33897446161587286,-0.3267231683566224,0.06953283272532057,0.29667813727392145,0.9169963164881352,1,left
3.43,0.18742036609135426,0.9894047924414777,-0.07355875049902977,0.31328602978309983,0.32378833751050456,-0.3433470409102396,0.06684736714703267,0.3063350985798012,0.9088215119626852,1,left
3.4339999999999997,0.18815337311070787,0.9890588984765428,-0.07215741603550035,0.31022301806174885,0.3091154269443678,-0.3594950280445075,0.06414891473713874,0.31577424637961127,0.9007432124955056,1,left
3.435,0.1889015760442298,0.9886982236684757,-0.07075547266230038,0.3069695700686827,0.29495603660711067,-0.3751607174892956,0.06143870991323913,0.3249959253178137,0.8927662879883863,1,left
3.4410000000000003,0.1896657396169371,0.9883220280262898,-0.06935446298694495,0.30352802481135294,0.2813096739269977,-0.39033825239699604,0.058718008060097186,0.33400051698739747,0.884895280418008,1,left
3.4410000000000003,0.19044658541610085,0.9879296155976272,-0.06795590183712014,0.29990064469203287,0.2681750737646468,-0.4050223300861897,0.05598808316048722,0.34278843492168926,0.8771344079604516,1,left
3.445,0.1912447867426232,0.9875203351165367,-0.06656127453237012,0.29608960372669146,0.25555022463920224,-0.4192082004793494,0.05325022545198566,0.35136012076005735,0.8694875693307182,1,left
3.446,0.19206096364893635,0.9870935806603792,-0.06517203519691851,0.2920969803771571,0.24343239444773834,-0.4328916642781726,0.0505057391018923,0.35971604161337917,0.8619583483146599,1,left
3.45,0.1928956782005349,0.9866487923223313,-0.0637896051170738,0.2879247549861562,0.23181815564015726,-0.44606907091871495,0.04775593989244207,0.367856688654517,0.8545500184710325,1,left
3.451,0.19374942999055295,0.9861854569040672,-0.06241537115176607,0.2835748118042825,0.22070340981330736,-0.4587373163470686,0.04500215290844499,0.3757825769584286,0.8472655479817124,1,left
3.4560000000000004,0.19462265192876269,0.9857031086310203,-0.06105068421357957,0.27904894559743126,0.2100834116895033,-0.47089384065488693,0.042245710219473036,0.38349424661591713,0.8401076046284532,1,left
3.458,0.19551570631892545,0.9852013298907345,-0.05969685784323555,0.2743488728227173,0.19995279244607456,-0.48253662561260247,0.03948794855143078,0.39099226511607105,0.8330785608802855,1,left
3.458,0.19642888123282445,0.9846797519936861,-0.05835516689903125,0.26947624736038456,0.1903055823640022,-0.4936641921367262,0.0367302069560034,0.3982772308501428,0.8261804991029033,1,left
3.4589999999999996,0.1973623871868946,0.984138055954687,-0.05702684637616977,0.26443268078870913,0.18113523276512444,-0.5042755977261467,0.03397382451107019,0.40534977733396915,0.8194152169501394,1,left
3.46,0.19831635412907545,0.9835759732906519,-0.05571309036412388,0.2592197671883967,0.17243463720879512,-0.5143704339008712,0.03122013809883574,0.41221057760373775,0.8127842330248912,1,left
3.463,0.1992908287480884,0.9829932868273528,-0.054415051146122655,0.25383911235602374,0.16419615193867973,-0.5239488236608784,0.02847048029476335,0.41886034838097647,0.8062887928703439,1,left
3.464,0.20028577212080284,0.9823898315051478,-0.053133838442526816,0.24829236677329386,0.15641161566380424,-0.5330114189097863,0.025726177375796643,0.4252998538570631,0.7999298753043246,1,left
3.465,0.20130105771272494,0.9817654951729682,-0.05187051879758007,0.2425812607202778,0.14907236892503223,-0.5415593976578915,0.022988547442695198,0.43152990908863065,0.7937081990831177,1,left
3.469,0.20233646974356578,0.9811202193605416,-0.05062611510717,0.23670763938804065,0.14216927339153426,-0.5495944607461689,0.02025889864858808,0.4375513830229717,0.787624229876086,1,left
3.47,0.20339170192744385,0.9804540000187535,-0.049401606284710096,0.23067349637786627,0.1356927313410544,-0.5571188279028253,0.017538527525864423,0.4433652011719433,0.7816781875328289,1,left
3.4730000000000003,0.2044663565950684,0.979766888217168,-0.04819792706332494,0.22448100493193357,0.12963270541334498,-0.5641352330711886,0.014828717403539393,0.44897234795227176,0.7758700536250072,1,left
3.4739999999999998,0.20555994420102974,0.9790589907884063,-0.04701596793494928,0.21813254677211835,0.12397873863533077,-0.570646919017722,0.012130736907256823,0.454373868709556,0.7701995792453569,1,left
3.4789999999999996,0.20667188321344634,0.9783304709118341,-0.04585657522886699,0.21163073852959077,0.11871997469937519,-0.5766576312417868,0.009445838534116327,0.45957087144267494,0.7646662930468108,1,left
3.48,0.20780150037743278,0.9775815486320216,-0.04472055133098294,0.20497845574742393,0.11384517847721783,-0.5821716112073152,0.0067752572945430824,0.4645645282447078,0.7592695095050419,1,left
3.484,0.20894803133921808,0.9768125013093724,-0.043608655041296025,0.19817885443798286,0.10934275675331692,-0.5871935889151081,0.004120209413452405,0.46935607647588706,0.7540083373881378,1,left
3.484,0.21011062161558203,0.9760236640007403,-0.042521602063874425,0.19123539017642072,0.10520077916246595,-0.5917287748330355,0.0014818910829987719,0.4739468196835169,0.7488816884175088,1,left
3.489,0.211288327894518,0.9752154297668659,-0.04146006562139856,0.18415183471117985,0.10140699931765526,-0.595782851199988,-0.0011385227407599522,0.4783381282832041,0.7438882861045253,1,left
3.489,0.21248011965606417,0.9743882499017363,-0.040424677181639494,0.1769322900719712,0.09794887611521877,-0.5993619627180167,-0.0037398795049077616,0.4825314400151705,0.7390266747477665,1,left
3.492,0.21368488110444014,0.9735426340773047,-0.03941602727519623,0.16958120015529382,0.09481359520534065,-0.6024727066457066,-0.006321050198001872,0.4865282601888365,0.7342952285761511,1,left
3.4930000000000003,0.21490141340265245,0.9726791503962786,-0.03843466637701675,0.16210335976715384,0.09198809061699638,-0.6051221223044373,-0.008880930467215475,0.49033016172829436,0.7296921610236028,1,left
3.4989999999999997,0.216128437198025,0.9717984253472278,-0.03748110582348528,0.1545039211022528,0.08945906652736625,-0.6073176800078309,-0.011418441721762462,0.49393878503072075,0.7252155341212799,1,left
3.4989999999999997,0.21736459542189995,0.9709011436603756,-0.03655581874143306,0.14678839763853804,0.08721301916668651,-0.6090672694233379,-0.013932532230016732,0.4973558376492141,0.7208632679937733,1,left
3.502,0.21860845634088244,0.9699880480672013,-0.03565924097097951,0.13896266542564412,0.08523625885039256,-0.6103791873735868,-0.016422178217677656,0.5005830938109819,0.7166331504460459,1,left
3.503,0.21985851683238983,0.9690599389706583,-0.034791771968185635,0.1310329617454062,0.08351493213125975,-0.6112621250838233,-0.01888638497426898,0.5036223937812476,0.7125228466282483,1,left
3.508,0.22111320585422745,0.9681176740355874,-0.03395377567647319,0.1230058811222936,0.08203504406506021,-0.611725154880482,-0.02132418797519129,0.506475643082699,0.7085299087659024,1,left
3.509,0.2223708880762777,0.9671621677111244,-0.03314558135849386,0.11488836866129526,0.08078248058402707,-0.611777716344679,-0.02373465402647801,0.5091448115797506,0.7046517859432974,1,left
3.513,0.22362986764285256,0.9661943906978137,-0.03236748438301713,0.10668771069049171,0.07974303097315096,-0.6114296019231802,-0.026116882439331846,0.5116319324363567,0.7008858339282834,1,left
3.514,0.22488839203747607,0.9652153693710673,-0.031619746964012825,0.09841152268526876,0.0789024104450272,-0.6106909419981964,-0.028470006241442806,0.513939100955577,0.6972293250269892,1,left
3.517,0.22614465602734493,0.9642261851702641,-0.03090259884992593,0.0900677344508691,0.07824628280962462,-0.6095721894161789,-0.030793193432010504,0.5160684733085643,0.6936794579573135,1,left
3.5180000000000002,0.22739680567052636,0.9632279739600005,-0.030216237960213155,0.08166457253974001,0.07776028323595935,-0.6080841034746339,-0.033085648287312405,0.5180222651601263,0.6902333677303693,1,left
3.522,0.22864294237278013,0.962221925366963,-0.02956083096692199,0.07321053987991885,0.07743004110322776,-0.6062377333648596,-0.03534661272357608,0.5198027501974919,0.6868881355293694,1,left
3.523,0.22988112698270274,0.9612092820925658,-0.028936513823503193,0.0647143925905047,0.07724120293948276,-0.6040444010674133,-0.03757536772037143,0.5214122585700662,0.6836407985741912,1,left
3.5239999999999996,0.2311093839158778,0.9601913391983999,-0.02834339224766511,0.05618511396009425,0.07717945544642622,-0.6015156836960582,-0.039771234790369266,0.522853175255756,0.6804883599523693,1,left
3.5269999999999997,0.2323257053012612,0.9591694433597625,-0.02778154216516716,0.04763188556391483,0.07723054860933816,-0.5986633952849096,-0.04193357745011606,0.5241279383838975,0.6774277983835386,1,left
3.528,0.23352805514382535,0.9581449920823111,-0.027251010117225388,0.03906405549526645,0.07738031889156916,-0.595499568012505,-0.04406180262910079,0.5252390375526312,0.6744560778768374,1,left
3.533,0.23471437349588975,0.9571194328769694,-0.02675181362996099,0.03049110375114428,0.07761471250357138,-0.5920364328754354,-0.0461553619715768,0.5261890121697811,0.6715701572488476,1,left
3.534,0.23588258062821718,0.9560942623879699,-0.02628394154309742,0.021922605133612664,0.07791980868768443,-0.588286399922623,-0.04821375301661178,0.5269804498308692,0.6687669994839278,1,left
3.535,0.2370305811919317,0.9550710254691473,-0.025847354296507686,0.013368190607643967,0.07828184287182596,-0.5842620383393202,-0.050236520259022116,0.5276159847391249,0.6660435809268359,1,left
3.537,0.23815626836032544,0.9540513142048535,-0.025441984176077417,0.0048375083778893265,0.07868722949639706,-0.5799760567684209,-0.05222325609720488,0.5280982961702224,0.6633969002993471,1,left
3.5380000000000003,0.23925752793314975,0.9530367668740746,-0.025067735524380255,-0.00365981437490704,0.07912258436799913,-0.575441284156475,-0.05417360167377958,0.5284301069840276,0.6608239875328057,1,left
3.5410000000000004,0.24033224237771034,0.9520290668594735,-0.02472448492513185,-0.012114208736281516,0.07957474648207309,-0.5706706512321275,-0.056087247614849796,0.5286141821851825,0.6583219124087822,1,left
3.542,0.2413782947747683,0.9510299415064887,-0.024412081370675933,-0.020516200239344647,0.08003079930577996,-0.5656771726245713,-0.057963934673591136,0.5286533275339226,0.6558877930002251,1,left
3.5460000000000003,0.24239357263337297,0.9500411609403817,-0.024130346419959908,-0.028856444009384526,0.08047809152234506,-0.5604739296090171,-0.05980345428376781,0.5285503882080829,0.6535188039057105,1,left
3.5469999999999997,0.24337597153688983,0.9490645368513476,-0.023879074354654313,-0.03712575889604688,0.0809042572381371,-0.5550740534655005,-0.06160564902867459,0.52830824751683,0.6512121842695944,1,left
3.551,0.24432339858380014,0.9481019212595926,-0.023658032343905965,-0.04531516061720834,0.0812972356537648,-0.5494907094367119,-0.06337041303089491,0.5279298256662375,0.6489652455810709,1,left
3.552,0.24523377559210602,0.9471552052728,-0.023466960629667213,-0.05341589393848254,0.08164529020044962,-0.5437370812699288,-0.0650976922681593,0.5274180785764143,0.6467753792453237,1,left
3.557,0.2461050420441391,0.9462263178468648,-0.02330557274196052,-0.061419463912095094,0.08193702714287271,-0.5378263563275678,-0.06678748482048101,0.5267759967494996,0.6446400639201377,1,left
3.5580000000000003,0.24693515775748134,0.9453172245571881,-0.02317355574899973,-0.06931766619863476,0.08216141364959978,-0.5317717112503425,-0.06843984105363857,0.5260066041874403,0.6425568726115128,1,left
3.5610000000000004,0.24772210527604066,0.9444299263832264,-0.023070570543526136,-0.07710261649493362,0.08230779533205929,-0.5255862981565304,-0.07005486374396717,0.525112957358089,0.6405234795219813,1,left
3.562,0.24846389198093402,0.9435664585050499,-0.02299625216300992,-0.08476677909105071,0.08236591325288807,-0.5192832313603944,-0.07163270814931343,0.5240981442077859,0.63853766664549,1,left
3.568,0.2491585519230957,0.9427288891078076,-0.022950210135701723,-0.09230299457903177,0.08232592040426626,-0.5128755745923966,-0.07317358203090028,0.5229652832182169,0.6365973301028596,1,left
3.569,0.24980414738170342,0.9419193181874292,-0.02293202883889746,-0.0997045067357927,0.08217839765663983,-0.5063763287034603,-0.07467774563074227,0.5217175225049917,0.634700486211972,1,left
3.571,0.250398770157623,0.9411398763489568,-0.02294126785409777,-0.10696498860212861,0.0819143691779766,-0.49979841983520445,-0.07614551160914394,0.5203580389550305,0.6328452772869787,1,left
3.571,0.25094054261766074,0.9403927235885188,-0.02297746230702056,-0.11407856777948336,0.08152531732342043,-0.4931546880377695,-0.07757724494670881,0.5188900373995129,0.6310299771609509,1,left
3.576,0.2514276185111976,0.9396800480505854,-0.023040123186775684,-0.12103985096572853,0.08100319699490038,-0.4864578763165916,-0.07897336281518041,0.5173167498188107,0.6292529964265173,1,left
3.577,0.25185818358645873,0.9390040647527567,-0.023128737645897124,-0.1278439477507968,0.08034044946991845,-0.47972062008925714,-0.08033433442133284,0.5156414345755068,0.6275128873891586,1,left
3.5810000000000004,0.25223045603990213,0.9383670142708355,-0.02324276929000316,-0.13448649369259338,0.07953001569838025,-0.4729554370333787,-0.08166068082802455,0.51386737567129,0.6258083487279384,1,left
3.582,0.2525426868373786,0.9377711613774368,-0.023381658471613626,-0.14096367269317292,0.0785653490659531,-0.4661747173062825,-0.0829529747564273,0.5119978820232117,0.6241382298585648,1,left
3.585,0.252793159948909,0.9372187936277134,-0.023544822606350175,-0.14727223869471864,0.07744042762203188,-0.4593907141171784,-0.08421184037334076,0.5100362867545006,0.6225015349937778,1,left
3.5860000000000003,0.25298019254130216,0.9367122198854003,-0.02373165653072973,-0.15340953671439816,0.07614976576997082,-0.45261553463240606,-0.0854379530674046,0.5079859464948452,0.620897426896166,1,left
3.591,0.25310213517446617,0.9362537687811479,-0.02394153291826503,-0.1593735232366961,0.07468842541679682,-0.4458611311943033,-0.08663203921674555,0.5058502406852741,0.6193252303208028,1,left
3.592,0.25315737204512445,0.9358457870941584,-0.02417380276484312,-0.1651627859813402,0.07305202657916084,-0.43913929283423536,-0.08779487594462114,0.5036325708849697,0.6177844351561399,1,left
3.593,0.253144321314735,0.9354906380481257,-0.024427795947957028,-0.17077656306444824,0.07123675744180903,-0.4324616370603456,-0.08892729084894388,0.5013363600815391,0.6162746992914068,1,left
3.595,0.25306143555205135,0.935190699512071,-0.024702821860037416,-0.1762147615700246,0.06923938386436634,-0.42583960190065206,-0.09003016168559685,0.4989650520084869,0.6147958512498061,1,left
3.596,0.25290720231814345,0.9349483620952959,-0.02499817011329137,-0.18147797554843664,0.06705725833172312,-0.41928443818220246,-0.09110441599124317,0.4965221104709351,0.613347892615937,1,left
3.602,0.2526801449178127,0.9347660271251328,-0.025313111310218503,-0.18656750345799736,0.06468832834280316,-0.4128072020271306,-0.09215103064182766,0.4940110186759631,0.6119310002662511,1,left
3.603,0.2523788233329945,0.934646104497456,-0.02564689787160671,-0.19148536504079686,0.06213114423389533,-0.4064187475515654,-0.09317103134876539,0.4914352785612561,0.6105455284004808,1,left
3.603,0.25200183534483944,0.9345910103918673,-0.025998764915021705,-0.19623431750101905,0.05938486644182907,-0.4001297197782906,-0.09416549209590508,0.48879841011505243,0.6091920103698846,1,left
3.605,0.25154781784478775,0.9346031648450912,-0.026367931180640305,-0.20081787063315257,0.05644927222907015,-0.3939505478188373,-0.09513553452027607,0.486103950680183,0.6078711602982368,1,left
3.6060000000000003,0.25101544832997036,0.9346849891774409,-0.026753600003885408,-0.2052403004246079,0.05332476190190131,-0.3878914384056977,-0.09608232723955162,0.4833554542348105,0.6065838744915842,1,left
3.613,0.25040344657350216,0.9348389032690066,-0.027154960333923787,-0.20950666077917487,0.05001236454268209,-0.38196236983088205,-0.09700708512908765,0.48055649064230344,0.6053312326328824,1,left
3.614,0.24971057645699032,0.9350673226848532,-0.027571187795306026,-0.21362279322761013,0.04651374325930978,-0.3761730863027942,-0.097911068551326,0.47771064486250886,0.6041144987577189,1,left
3.615,0.2489356479536844,0.9353726556509656,-0.02800144578886341,-0.21759533461358951,0.04283119994483313,-0.3705330927089929,-0.09879558254028506,0.4748215161165384,0.6029351220074296,1,left
3.615,0.24807751925753646,0.935757299883176,-0.02844488662759968,-0.22143172276729367,0.038967679537706905,-0.3650516497678262,-0.09966197594379651,0.47189271699703317,0.6017947371560083,1,left
3.62,0.24713509906336875,0.936223639268634,-0.02890065270322367,-0.22514020017846542,0.03492677377264161,-0.3597377695523305,-0.10051164052608844,0.4689278725157399,0.6006951649073221,1,left
3.6210000000000004,0.24610734901119943,0.9367740403942665,-0.029367877679543034,-0.22872981568036788,0.030712724411475704,-0.3546002113702092,-0.10134601003325847,0.4659306190801082,0.5996384119592447,1,left
3.625,0.24499328631001163,0.937410848912138,-0.029845687710620294,-0.23221042415568138,0.026330425942979276,-0.34964747798416523,-0.10216655922412869,0.4629046033905007,0.5986266708314368,1,left
3.6260000000000003,0.24379198655265144,0.9381363857304142,-0.030333202682884416,-0.23559268427501195,0.021785427739989878,-0.34488781215734166,-0.1029748028689267,0.4598534812495084,0.597662319453619,1,left
3.63,0.24250258672645006,0.9389529430212525,-0.030829537478040604,-0.23888805427834495,0.017083935661785104,-0.3403291935091276,-0.10377229471819245,0.4567809162747679,0.5967479205113067,1,left
3.63,0.24112428841634523,0.93986278004294,-0.0313338032463978,-0.24210878580946577,0.012232813089114813,-0.33597933566712174,-0.10456062644427169,0.4536905785065958,0.595886220546104,1,left
3.635,0.23965636118950376,0.940868118781993,-0.0318451086715981,-0.24526791581308852,0.007239581378849773,-0.3318456837015957,-0.10534142655772107,0.4505861429016829,0.5950801488077945,1,left
3.636,0.23809814614223143,0.9419711394290039,-0.03236256120262715,-0.24837925650418585,0.0021124197247553256,-0.3279354118293788,-0.10611635930091916,0.44747128770402966,0.5943328158556043,1,left
3.639,0.23644905958195694,0.9431739757066955,-0.03288526822953243,-0.2514573834187998,-0.0031398355895296422,-0.3242554213746848,-0.10688712352115205,0.4443496926842531,0.5936475119061718,1,left
3.64,0.2347085968110939,0.9444787100689631,-0.0334123381848851,-0.2545176215554396,-0.008507692559635056,-0.3208123389750199,-0.1076554515254196,0.44122503723835493,0.5930277049259141,1,left
3.6460000000000004,0.2328763359767297,0.9458873687876147,-0.03394288156117204,-0.2575760296160353,-0.013981005466433261,-0.31761251502095456,-0.10842310791919248,0.4381009983370097,0.5924770384656488,1,left
3.647,0.23095194194983396,0.9474019169421611,-0.03447601184013258,-0.26064938235532303,-0.019548977533911764,-0.3146620223192025,-0.10919188843133804,0.4349812483164149,0.5919993292355119,1,left
3.6489999999999996,0.22893517019918175,0.9490242533285195,-0.035010846329582304,-0.2637551510474875,-0.025200164254343675,-0.31196665496912745,-0.10996361872742554,0.4318694525017339,0.591598564418398,1,left
3.6489999999999996,0.2268258706290425,0.9507562053030926,-0.035546506898589986,-0.2669114820788847,-0.03092247739645596,-0.3095319274435007,-0.11074015321362038,0.4287692666541655,0.5912788987203492,1,left
3.655,0.22462399135666708,0.95259952357742,-0.03608212059950242,-0.27013717367571016,-0.03670318971256613,-0.3073630738650445,-0.11152337383337955,0.4256843342326842,0.5910446511565296,1,left
3.656,0.22232958241454998,0.9545558769757972,-0.03661682016910048,-0.27345165077557454,-0.042528940360895696,-0.30546504747103054,-0.11231518885916925,0.4226182834615226,0.5909003015716424,1,left
3.66,0.21994279937070244,0.9566268471655179,-0.03714974440962435,-0.2768749380520947,-0.04838574105947169,-0.3038425202589506,-0.11311753168143943,0.41957472419449465,0.5908504868938813,1,left
3.661,0.21746390686519873,0.9588139233669457,-0.03768003845853923,-0.2804276311018078,-0.054258982988193795,-0.30249988280703943,-0.11393235959614915,0.4165572445715004,0.5908999971217653,1,left
3.662,0.2148932820621186,0.9611184970482533,-0.03820685395858095,-0.28413086580297375,-0.06013344445577293,-0.30144124426420754,-0.11476165258735767,0.413569407483564,0.5910537710435341,1,left
3.6639999999999997,0.21223141801422682,0.9635418566087505,-0.038729349136145896,-0.2880062858561445,-0.06599329934833477,-0.3006704325047318,-0.11560741209278219,0.4106147469005577,0.5913168916891722,1,left
3.665,0.2094789269359898,0.9660851820561908,-0.03924668879021584,-0.29207600851675136,-0.07182212637652764,-0.3001909944438561,-0.11647165973545585,0.4076967641367971,0.5916945815154853,1,left
3.6689999999999996,0.20663654337975784,0.9687495396854046,-0.03975804418941049,-0.2963625885303955,-0.07760291913797653,-0.3000061965112691,-0.11735643600946398,0.4048189241088195,0.592192197324882,1,left
3.67,0.20370512730874749,0.9715358767660378,-0.04026259287402131,-0.30088898031681877,-0.08331809700386489,-0.30011902528060214,-0.11826379891642914,0.40198465160201763,0.5928152249187106,1,left
3.6710000000000003,0.20068566705881472,0.9744450162466316,-0.040759518364120464,-0.3056784986230696,-0.08894951679825182,-0.3005321882556787,-0.11919582255427175,0.3991973275419481,0.5935692734862595,1,left
3.675,0.1975792821819871,0.9774776514827977,-0.04124800978199893,-0.3107547781801684,-0.09447848516644286,-0.30124811481824093,-0.1201545956607922,0.39646028526205185,0.5944600697308627,1,left
3.675,0.19438722617050802,0.9806343410000645,-0.04172726140397306,-0.31614173307224436,-0.09988577148845881,-0.3022689573444875,-0.12114222011468576,0.39377680675965493,0.5954934517349137,1,left
3.679,0.1911108890693251,0.9839155033068337,-0.042196472159849216,-0.32186351635389493,-0.10515162123348906,-0.30359659249686505,-0.12216080939667201,0.3911501189322472,0.596675362565964,1,left
3.68,0.18775179999498431,0.9873214117782734,-0.04265484509541681,-0.3279444801391764,-0.11025576972307115,-0.3052326226952758,-0.12321248701349785,0.3885833897861843,0.5980118436264797,1,left
3.6839999999999997,0.18431162958874023,0.9908521896354845,-0.04310158680654438,-0.3344091362125503,-0.11517745631047074,-0.3071783777709888,-0.12429938488765568,0.38607972461011075,0.5995090277502373,1,left
3.6839999999999997,0.18079219244050937,0.9945078050437017,-0.043535906848622095,-0.34128211717827467,-0.11989543899134576,-0.309434916807071,-0.12542364171574746,0.3836421621055655,0.6011731320487658,1,left
3.69,0.1771954495251503,0.9982880663483118,-0.0439570171233882,-0.34858813816576184,-0.1243880094603129,-0.312003030170042,-0.12658740129852045,0.3812736704674021,0.6030104505116898,1,left
3.6910000000000003,0.17352351068969618,1.0021926174605915,-0.0443641312432272,-0.3563519591095269,-0.12863300862750957,-0.3148832417383428,-0.1277928108457017,0.37897714340683863,0.6050273463652854,1,left
3.693,0.16977863721836622,1.0062209333993222,-0.04475646386970165,-0.364598347623525,-0.1326078426086577,-0.31807581133410484,-0.12904201925886558,0.3767553961101412,0.6072302441940455,1,left
3.694,0.16596324448390276,1.0103723159905795,-0.04513323002122342,-0.3733520424909188,-0.13628949920148795,-0.32158073736559634,-0.1303371753956818,0.37461116112614296,0.609625621830544,1,left
3.698,0.16207990467324093,1.0146458897249573,-0.0454936443475896,-0.382637717791632,-0.13965456486067004,-0.3253977596886212,-0.13168042631901203,0.37254708417600707,0.6122200020194096,1,left
3.698,0.15813134955644625,1.0190405977689685,-0.045836920376373005,-0.39247994769143296,-0.14267924218261868,-0.32952636269604174,-0.13307391553444778,0.3705657198788577,0.6150199438617482,1,left
3.7030000000000003,0.15412047325222242,1.0235551981265418,-0.046162269744300106,-0.4029031719177482,-0.1453393679107008,-0.33396577864549326,-0.13451978122001496,0.368669527387125,0.6180320340469118,1,left
3.7039999999999997,0.150050334930811,1.028188259948005,-0.04646890143217816,-0.41393166194893427,-0.14761043147045996,-0.3387149912362553,-0.1360201544519089,0.36686086592567907,0.6212628778790793,1,left
3.708,0.14592416138503328,1.0329381599868355,-0.04675602102295693,-0.4255894879453332,-0.1494675940434948,-0.3437727394471374,-0.13757715743026713,0.3651419902290669,0.6247190901067086,1,left
3.7089999999999996,0.14174534939353775,1.0378030792079125,-0.04702282999925844,-0.4379004864521095,-0.15088570818758051,-0.3491375216481308,-0.13919290170913817,0.3635150458714101,0.6284072855635254,1,left
3.713,0.13751746779815366,1.042780999555084,-0.04726852509130405,-0.4508882289056009,-0.15183933800950433,-0.354807599999467,-0.14086948643496136,0.3619820644837729,0.6323340696303459,1,left
3.713,0.1332442592189627,1.047869700890268,-0.04749229768131368,-0.4645759909767239,-0.15230277989589552,-0.36078100515260897,-0.14260899659803483,0.3605449588540664,0.636506028527674,1,left
3.717,0.12892964133517698,1.0530667581194948,-0.04769333326687003,-0.4789867227868515,-0.1522500838060694,-0.3670555412685832,-0.14441350130161756,0.35920551790481986,0.640929719449686,1,left
3.718,0.1245777076665673,1.0583695385222835,-0.04787081098322014,-0.49414302003352367,-0.15165507512956922,-0.3736287913699365,-0.1462850520534871,0.35796540154441947,0.645611660550894,1,left
3.7239999999999998,0.12019272779890304,1.06377519930042,-0.0480239031836025,-0.510067096065361,-0.1504913771096817,-0.38049812304347336,-0.14822568108495393,0.35682613538769015,0.6505583207974895,1,left
3.7260000000000004,0.11577914700831311,1.069280685361234,-0.04815177507760973,-0.5267807549476284,-0.1487324338327179,-0.3876606945117934,-0.15023739970252084,0.3557891053419753,0.6557761096960882,1,left
3.728,0.11134158525321866,1.0748827273487178,-0.04825358442993522,-0.5443053655620376,-0.14635153378129384,-0.39511346109250645,-0.1523221966775686,0.3548555520551568,0.6612713669133407,1,left
3.7289999999999996,0.10688483551513683,1.0805778399336359,-0.048328481324529285,-0.5626618367865791,-0.14332183394821046,-0.40285318206485343,-0.15448203667642807,0.3540265652304327,0.6670503517967541,1,left
3.7289999999999996,0.10241386147772392,1.0863623203722066,-0.04837560799982226,-0.5818705938034461,-0.13961638450582237,-0.4108764279643021,-0.1567188587173127,0.3533030778534074,0.6731192327884595,1,left
3.733,0.0979337945374341,1.0922322473425994,-0.04839409875876165,-0.6019515555854361,-0.13520815402399783,-0.41917958832652,-0.15903457461182893,0.3526858604501437,0.6794840766895508,1,left
3.734,0.09344993014306495,1.0981834800685946,-0.048383079955389104,-0.6229241136136099,-0.13007005522790877,-0.4277588799029529,-0.16143106733290621,0.3521755155355676,0.6861508377140471,1,left
3.737,0.08896772346712098,1.1042116577392387,-0.04834167005878225,-0.6448071118327063,-0.12417497130016376,-0.4366103553478823,-0.16391018926730133,0.3517724723714772,0.6931253462917535,1,left
3.738,0.08449278441615142,1.110312199232872,-0.04826897979504969,-0.6676188276096983,-0.11749578280586152,-0.44572991226181147,-0.1664737603400231,0.35147698208091527,0.7004132976150476,1,left
3.738,0.08003087198796636,1.1164803031541612,-0.04816411236903806,-0.6913769530249132,-0.11000539545399346,-0.45511330226832986,-0.16912356601434783,0.3512891131255288,0.7080202399448772,1,left
3.742,0.07558788798553961,1.122710948192031,-0.048026163770123406,-0.7160985755841384,-0.10167676898253224,-0.46475613968655555,-0.17186135517455095,0.3512087471447582,0.7159515626960195,1,left
3.7439999999999998,0.07116987010459118,1.1289988938037483,-0.0478542231711899,-0.7418001576864145,-0.09248294737620813,-0.4746539094778572,-0.17468883789872344,0.35123557515600773,0.7242124843225485,1,left
3.747,0.06678298442094727,1.1353386812277457,-0.047647373435386185,-0.7684975146234635,-0.08239709048669586,-0.4848019743548067,-0.1776076831292892,0.3513690941152566,0.7328080400253751,1,left
3.748,0.062433517310146076,1.1417246348264598,-0.04740469174804056,-0.7962057911330771,-0.07139250704644486,-0.49519558105688677,-0.1806195162490913,0.35160860383787984,0.7417430693046564,1,left
3.753,0.05812786683561781,1.148150863759652,-0.04712525038938919,-0.8249394365803353,-0.05944268904968346,-0.5058298658213783,-0.18372591657117374,0.3519532042797548,0.7510222033808157,1,left
3.753,0.053872533644788244,1.1546112639871726,-0.04680811766091539,-0.8547121788433819,-0.046521347471565576,-0.516699859078571,-0.18692841475064748,0.35240179317903464,0.7606498525088766,1,left
3.7569999999999997,0.04967411141448854,1.1610995205982824,-0.04645235897866808,-0.8855369969833858,-0.03260244929378952,-0.5278004894011417,-0.19022849012729606,0.35295306405927596,0.770630193211789,1,left
3.758,0.045539276887988006,1.1676091104639204,-0.0460570381498969,-0.9174260927812634,-0.017660255802303796,-0.5391265867382428,-0.1936275680078478,0.3536055045949073,0.780967155459414,1,left
3.762,0.041474779546596056,1.1741333052095033,-0.0456212188497447,-0.9503908612267173,-0.0016693621199242042,-0.5506728849655136,-0.19712701689711815,0.3543573953403249,0.7916644098208315,1,left
3.763,0.03748743095898819,1.1806651745084555,-0.04514396631114409,-0.9844418600481702,0.015395262066178542,-0.5624340237828939,-0.20072814568750505,0.3552068088241962,0.8027253546186552,1,left
3.767,0.03358409385029192,1.187197589700183,-0.04462434923686193,-1.0195887783752275,0.03355823062510027,-0.5744045499927655,-0.2044322008166054,0.3561516090108408,0.8141531031150516,1,left
3.7680000000000002,0.029771670930594234,1.1937232277407004,-0.04406144194090769,-1.0558404046283898,0.052843697996925384,-0.5865789181915793,-0.2082403634030078,0.3571894511308458,0.8259504707602054,1,left
3.773,0.026057093519706195,1.2002345754990438,-0.043454326727174974,-1.0932045937338557,0.07327531515062459,-0.5989514909087419,-0.2121537463706096,0.35831778188335034,0.8381199625350125,1,left
3.7739999999999996,0.02244731000239796,1.2067239344168985,-0.04280209651403292,-1.1316882337644008,0.09487618453735774,-0.61151653822714,-0.21617339157210202,0.35953384001270844,0.8506637604208334,1,left
3.778,0.01894927414624903,1.2131834255522609,-0.042103857711741154,-1.1712972121104939,0.1176688140946347,-0.6242682369202617,-0.22030026692256496,0.3608346572625068,0.8635837110302053,1,left
3.778,0.015569933312358362,1.2196049950303138,-0.0413587333532987,-1.2120363812889994,0.1416750703600786,-0.6372006691414468,-0.22453526355441591,0.36221705971017215,0.876881313433475,1,left
3.781,0.01231621658681599,1.2259804199255695,-0.04056586647098456,-1.2539095245000325,0.16691613075689346,-0.6503078207013506,-0.22887919300526285,0.36367766948565594,0.8905577072173951,1,left
3.782,0.009195022858331103,1.2323013145990773,-0.0397244237054909,-1.2969193210457655,0.19341243511656048,-0.663583578970238,-0.23333278445051808,0.3652129068779252,0.9046136608127991,1,left
3.786,0.006213208865553064,1.2385591375135612,-0.03883359913355296,-1.341067311728224,0.22118363650777198,-0.6770217304422491,-0.23789668199294103,0.3668189928332251,0.9190495601295594,1,left
3.787,0.0033775772367526553,1.2447451985473434,-0.03789261829916094,-1.3863538643463702,0.25024855144415836,-0.6906159579992742,-0.24257144202159026,0.36849195184930095,0.9338653975381185,1,left
3.7910000000000004,0.0006948645445973592,1.2508506668246873,-0.036900742429600515,-1.4327781394160324,0.2806251095469665,-0.7043598379125647,-0.24735753065297986,0.37022761526998066,0.9490607612379729,1,left
3.792,-0.001828270599961042,1.2568665790766447,-0.0358572728126646,-1.4803380562395043,0.31233030274251006,-0.718246836620669,-0.25225532126755307,0.3720216249847248,0.9646348250545821,1,left
3.7960000000000003,-0.004185259388264446,1.2627838485436664,-0.03476155530802114,-1.5290302594549148,0.3453801340779254,-0.7322703073227316,-0.25726509215490284,0.37386943753793983,0.9805863387072602,1,left
3.7969999999999997,-0.0063696345602859365,1.2685932744292452,-0.03361298496306632,-1.5788500861987196,0.3797895662425341,-0.746423486426626,-0.26238702428148947,0.3757663286530318,0.9969136185917032,1,left
3.798,-0.008375042027122649,1.2742855519122471,-0.0324110107005179,-1.6297915340179419,0.41557246988592655,-0.7606994898918,-0.2676211991905854,0.3777073981690999,1.0136145391103943,1,left
3.801,-0.010195252341901323,1.2798512827244144,-0.03115514004349342,-1.6818472296720295,0.4527415718277424,-0.775091309507102,-0.27296759702279627,0.37968757535209957,1.0306865245277335,1,left
3.802,-0.011824171996464577,1.28528098629931,-0.02984494384513398,-1.7350083989674316,0.4913084032580269,-0.7895918091442359,-0.2784260946067642,0.381701624477244,1.0481265412243597,1,left
3.806,-0.013255854526020098,1.2905651114990937,-0.02848006099019723,-1.7892648377712244,0.5312832480309857,-0.8041937210278373,-0.28399646354828,0.38374415054331545,1.065931090168731,1,left
3.807,-0.014484511404713902,1.2956940489247941,-0.027060203032329064,-1.8446048843533083,0.5726750911589388,-0.8188896420635012,-0.289678368268054,0.385809605015894,1.084096199482567,1,left
3.807,-0.015504522714122148,1.3006581438145213,-0.025585158727322255,-1.9010153931959537,0.6154915676095415,-0.8336720302588979,-0.29547136397778356,0.3878922915618092,1.1026174170812717,1,left
3.812,-0.016310447568141047,1.3054477095333685,-0.024054798425727244,-1.9584817103430507,0.6597389114746443,-0.8485332012408816,-0.30137489460617767,0.3899863717734262,1.1214898034289842,1,left
3.813,-0.01689703428090607,1.3100530416584688,-0.022469078296281562,-2.016987650239288,0.7054219055135036,-0.8634653248132359,-0.30738829069126034,0.39208587088868774,1.1407079244604301,1,left
3.8160000000000003,-0.01725923026530333,1.3144644326611639,-0.02082804435689735,-2.076515473942983,0.7525438310384114,-0.8784604214674219,-0.3135107672555935,0.3941846835128819,1.160265844722766,1,left
3.8169999999999997,-0.017392191647441296,1.318672187184019,-0.01913183628782168,-2.137045868668897,0.8011064181536511,-0.893510358791444,-0.31974142168137737,0.3962765793481387,1.1801571207916264,1,left
3.822,-0.017291292579931828,1.322666637904499,-0.017380690996268,-2.198557928745574,0.8511097964325393,-0.9086068477806896,-0.3260792316027009,0.3983552089366736,1.2003747950165637,1,left
3.822,-0.01695213423655759,1.326438161971373,-0.01557494589939166,-2.261029138144261,0.9025524461601776,-0.9237414390872949,-0.3325230528325293,0.40041410942379374,1.2209113896520571,1,left
3.825,-0.016370553473310907,1.3299771979941715,-0.013715041893536074,-2.3244353547532466,0.955431150281423,-0.9389055192512562,-0.33907161734232477,0.4024467103466633,1.241758901431212,1,left
3.826,-0.015542631144435668,1.3332742635593642,-0.011801525980202704,-2.38875079657428,1.0097409471977181,-0.9540903069566351,-0.3457235313125056,0.4044463394547848,1.262908796640219,1,left
3.83,-0.014464700064975012,1.3363199732394921,-0.009835053522874693,-2.45394803002048,1.0654750845605574,-0.9692868493563177,-0.3524772732722514,0.40640622856809694,1.2843520067525482,1,left
3.8310000000000004,-0.013133352613113868,1.3391050570538925,-0.007816390113826076,-2.51999796049783,1.1226249742134842,-0.9844860185088711,-0.3593311923474645,0.4083195194785134,1.3060789246827502,1,left
3.8339999999999996,-0.011545447967586978,1.3416203793326391,-0.005746413034908594,-2.586869825454962,1.1811801484386202,-0.9996785079710985,-0.3662835066359931,0.41017926990063364,1.3280794017206037,1,left
3.835,-0.009698118978058393,1.3438569579288044,-0.0036261122985441147,-2.6545311900884534,1.2411282176678207,-1.0148548295899307,-0.37333230172951354,0.41197845947723993,1.3503427452071886,1,left
3.84,-0.00758877866890977,1.3458059837172662,-0.0014565912539013317,-2.7229479458933254,1.302454829822609,-1.0300053105372962,-0.38047552940175944,0.4137099958450624,1.3728577170152783,1,left
3.841,-0.005215126379271477,1.3474588403109153,0.0007609332591965206,-2.7920843122507684,1.3651436314510736,-1.0451200906315923,-0.38771100648306345,0.41536672076613973,1.39561253289723,1,left
3.847,-0.0025751535449228436,1.348807123918226,0.003025131225884881,-2.8619028412473986,1.4291762308339162,-1.0601891199893367,-0.39503641394145744,0.41694141632992887,1.4185948627643055,1,left
3.8480000000000003,0.000332850870519047,1.3498426632606306,0.00533456025403162,-2.9323644259225117,1.4945321632357884,-1.0752021570504986,-0.4024492961908479,0.4184268112311219,1.4417918319620768,1,left
3.8489999999999998,0.003510295289394985,1.3505575394648788,0.007687666859524401,-3.0034283121418643,1.561188858481965,-1.09014876702091,-0.40994706064704534,0.41981558712791484,1.4651900236072573,1,left
3.85,0.006958280778219905,1.3509441058453349,0.010082788236784216,-3.075052114298467,1.6291216110442588,-1.1050183207750246,-0.41752697755268753,0.42110038508523584,1.488775482051953,1,left
3.8560000000000003,0.010677596656091309,1.35099500749372,0.012518154504397937,-3.1471918350427157,1.6983035528238792,-1.1197999942621295,-0.4251861800923464,0.4222738121071842,1.512533717541946,1,left
3.8569999999999998,0.014668716465037026,1.3507032005980821,0.014991891407655849,-3.219801889245925,1.768705628822669,-1.1344827684589252,-0.43292166481935057,0.4233284477626536,1.536449712136196,1,left
3.86,0.01893179431922492,1.350061971418345,0.017502023452790515,-3.292835132402918,1.8402965758978114,-1.1490554299111666,-0.4407302924160939,0.4242568509078156,1.560507926955279,1,left
3.861,0.023466661653981223,1.3490649548526203,0.020046477443012425,-3.366242893680822,1.913042904798688,-1.1635065719068036,-0.44860878880982585,0.42505156650881676,1.584692310826989,1,left
3.865,0.02827282439840004,1.347706152535641,0.022623086383553974,-3.4399750138225405,1.986908885688068,-1.1778245963227796,-0.4565537466661382,0.4257051325677043,1.6089863103977686,1,left
3.866,0.03334946059703642,1.3459799504165946,0.02522959372055542,-3.513979888114621,2.061856537353213,-1.1919977161873245,-0.46456162728257405,0.4262100871542313,1.6333728817790485,1,left
3.866,0.0386954185065693,1.3438811357680183,0.02786365787686207,-3.5882045146302777,2.1378456203158103,-1.2060139589992331,-0.47262876289172073,0.4265589755569751,1.6578345037632078,1,left
3.8689999999999998,0.044309215192420655,1.341404913582228,0.030522857049819812,-3.66259454795928,2.2148336340528356,-1.2198611708452343,-0.48075135931701796,0.4267443576226379,1.682353192470533,1,left
3.87,0.05018903564891631,1.3385469223177404,0.03320469424338313,-3.7370943586371816,2.2927758185435825,-1.2335270213561393,-0.48892549880531994,0.4267588154524798,1.7069105169762686,1,left
3.8739999999999997,0.05633273246592873,1.3353032489619112,0.035906602513590055,-3.811647098352791,2.371625160294349,-1.2469990095420522,-0.49714714279409816,0.4265949616802257,1.731487615293416,1,left
3.875,0.0627378260649518,1.3316704433754527,0.03862595040789043,-3.886194770342173,2.4513324026616816,-1.2602644705466344,-0.5054121344376511,0.42624544849947926,1.7560652102607497,1,left
3.875,0.06940150552671019,1.3276455318826568,0.041360047578147235,-3.9606783031698565,2.5318460596975223,-1.2733105833602623,-0.5137162008362115,0.425702977507675,1.780623625198182,1,left
3.8789999999999996,0.07632063003043814,1.3232260300680005,0.0441061505457114,-4.035037625426984,2.6131124324087374,-1.2861243795315584,-0.5220549549782959,0.42496031037725124,1.8051427993653104,1,left
3.88,0.08349173092225243,1.3184099547320716,0.04686146859004068,-4.109211739547217,2.6950756266594387,-1.2986927529159853,-0.5304238974200306,0.424010280353023,1.8296023032937119,1,left
3.885,0.09091101442450182,1.3131958349491095,0.0496231697187434,-4.1831387941489435,2.7776775725470952,-1.3110024704991916,-0.5388184177253009,0.42284580457418147,1.8539813540634873,1,left
3.886,0.09857436498632917,1.307582722159178,0.05238838666148999,-4.2567561549830515,2.8608580454190746,-1.3230401843319353,-0.5472337956906674,0.4214598972187709,1.878258830594452,1,left
3.888,0.10647734925648472,1.3015701992206192,0.05515422282087116,-4.330000474699228,2.944554688764949,-1.3347924446126604,-0.5556652023790823,0.419845683467898,1.9024132890221932,1,left
3.889,0.11461522063269314,1.2951583883414817,0.05791775811975018,-4.40280776164302,3.0287030392217287,-1.3462457139530601,-0.5641077009865109,0.41799641428631434,1.926422978228981,1,left
3.8930000000000002,0.12298292430863009,1.2883479578005854,0.06067605471049897,-4.475113447894987,3.1132365539308413,-1.3573863828611794,-0.5725562475656206,0.4159054820153756,1.9502658555992336,1,left
3.8939999999999997,0.13157510270370046,1.281140127360221,0.06342616254828017,-4.546852456762245,3.198086640487164,-1.3682007864757904,-0.5810056916307527,0.41356643677372507,1.9739196030688737,1,left
3.898,0.14038610113129404,1.2735366722661237,0.06616512486655238,-4.617959269931396,3.283182689721693,-1.3786752225849104,-0.5894507766684137,0.4109730036603759,1.997361643537505,1,left
3.898,0.14940997355313684,1.2655399257283635,0.06888998362441257,-4.688367994490436,3.368452111560548,-1.3887959709604405,-0.5978861405775505,0.40811910075417085,2.020569157711856,1,left
3.903,0.1586404882967281,1.2571527797776731,0.07159778502504026,-4.758012430025575,3.453820374203906,-1.3985493140399585,-0.6063063160638664,0.40499885790288626,2.043519101448393,1,left
3.904,0.16807113368324347,1.2483786843933948,0.07428558522920005,-4.826826135997095,3.539211046869178,-1.407921558985731,-0.614705731012431,0.4016066362945177,2.0661882236623916,1,left
3.908,0.17769512360877215,1.2392216448037936,0.07695045638971552,-4.894742499596388,3.6245458463432163,-1.416899061149985,-0.623078708862802,0.3979370488025355,2.0885530848700937,1,left
3.909,0.18750540321586526,1.2296862168747844,0.07958949309233161,-4.961694804284083,3.709744687588625,-1.425468248974433,-0.6314194690108372,0.3939849810961343,2.1105900764298227,1,left
3.9130000000000003,0.19749465486139456,1.2197775005386653,0.08219981920763722,-5.0276162992068025,3.7947257386493183,-1.4336156503509425,-0.6397221272613133,0.3897456135057211,2.132275440547131,1,left
3.9139999999999997,0.2076553046148223,1.2095011312741257,0.08477859506767807,-5.092440269687521,3.879405480100292,-1.441327920469111,-0.6479806963553922,0.38521444363308815,2.1535852911081785,1,left
3.918,0.21797952950109842,1.1988632697255237,0.0873230248187961,-5.156100108981714,3.96369876928619,-1.4485918711753367,-0.6561890865968838,0.3803873096949069,2.1744956354045946,1,left
3.918,0.22845926563939672,1.1878705896269115,0.08983036379037992,-5.218529391488522,4.047518909592604,-1.45539450186676,-0.6643411066011418,0.37526041458735626,2.194982396812069,1,left
3.925,0.23908621734122218,1.1765302642564415,0.0922979257456169,-5.2796619476030155,4.130777724993203,-1.461723031942202,-0.6724304641903064,0.3698303506588564,2.2150214384838405,1,left
3.926,0.24985186714509008,1.1648499516775759,0.09472308991390381,-5.339431940392297,4.213385640114639,-1.4675649348309405,-0.6804507674584594,0.3640941251770366,2.2345885881190974,1,left
3.927,0.26074748670198566,1.1528377790236166,0.09710330772469676,-5.397773944274626,4.295251766059847,-1.4729079736188384,-0.6883955260300973,0.3580491864751988,2.2536596638650948,1,left
3.928,0.27176414839545693,1.1405023260597247,0.09943610916919085,-5.454623025877065,4.3762839922287124,-1.4777402382899756,-0.6962581525351473,0.35169345076267217,2.272210501410498,1,left
3.9339999999999997,0.28289273757997163,1.127852608221253,0.1017191087183836,-5.5099148272431835,4.456389084373234,-1.4820501846005445,-0.7040319643199575,0.3450253295394704,2.290216982285089,1,left
3.935,0.29412396534379687,1.114898059281263,0.1039500107326929,-5.563585651558314,4.5354727891221565,-1.485826674600327,-0.711710185395496,0.33804375733925424,2.3076550631744155,1,left
3.935,0.30544838173649336,1.1016485137488958,0.10612661431291023,-5.61557255155549,4.613439945207657,-1.4890590188156154,-0.719285948591403,0.33074821913577174,2.324500805687219,1,left
3.938,0.3168563894291533,1.0881141890630543,0.10824681756020203,-5.6658134207608155,4.690194601624008,-1.4917370201059303,-0.7267522978663034,0.3231387765315271,2.3407304058068044,1,left
3.9389999999999996,0.32833825779001363,1.0743056676328488,0.11030862123106845,-5.714247087732268,4.7656401429451885,-1.4938510192053642,-0.7341021907424928,0.31521609206205525,2.356320222460993,1,left
3.9419999999999997,0.33988413736831175,1.0602338787699395,0.11231013179615586,-5.760813413441182,4.839679422025218,-1.4953919419578119,-0.7413285008651728,0.30698145133621624,2.3712468050128517,1,left
3.9419999999999997,0.35148407479175897,1.0459100805402515,0.11424956393906548,-5.8054533919405875,4.91221490030151,-1.496351348253763,-0.7484240207040712,0.29843678294754766,2.3854869196777355,1,left
3.943,0.3631280280912488,1.0313458415366379,0.11612524255189778,-5.848109254319251,4.983148795734542,-1.4967214825848825,-0.7553814644185505,0.289584676133917,2.3990175749113805,1,left
3.947,0.37480588246626834,1.0165530225502766,0.11793560428879853,-5.888724575234101,5.0523832374969855,-1.4964953256818225,-0.7621934709069428,0.28042839616182247,2.411816045811885,1,left
3.948,0.3865074664994301,1.001543758102453,0.1196791987289886,-5.927244380046705,5.119820424872153,-1.4956666458906123,-0.7688526070604852,0.27097189741080213,2.4238598975764294,1,left
3.9530000000000003,0.398222568818599,0.9863304377896377,0.12135468918792819,-5.963615249882977,5.185362786900864,-1.4942300484921287,-0.7753513712418219,0.26121983413252753,2.4351270080515564,1,left
3.9530000000000003,0.40994095518791895,0.9709256873892852,0.12296085320803067,-5.997785422630216,5.248913140227087,-1.4921810216165907,-0.781682197007628,0.2511775688582873,2.4455955894137342,1,left
3.957,0.42165238598906585,0.955342349670484,0.1244965827574218,-6.029704889141066,5.310374844236539,-1.489515978211717,-0.7878374570944676,0.24085117842770495,2.4552442090147486,1,left
3.958,0.43334663403845314,0.9395934648562007,0.1259608841636834,-6.059325484608599,5.369651953493117,-1.4862322939705919,-0.7938094676865431,0.2302474576106871,2.4640518094242485,1,left
3.9619999999999997,0.4450135026780065,0.9236922506946694,0.1273528778099509,-6.086600975210564,5.426649367655486,-1.4823283412133372,-0.7995904929834998,0.21937392029376618,2.4719977276994705,1,left
3.963,0.4566428440772113,0.907652082114902,0.1286717976220668,-6.111487140114414,5.481272979050207,-1.4778035187149352,-0.8051727500859567,0.20823879820118793,2.479061713909815,1,left
3.968,0.46822457769047027,0.8914864704632396,0.12991699037555668,-6.133941848928088,5.5334298180714745,-1.472658277469762,-0.8105484142158997,0.19685103712029772,2.4852239489415315,1,left
3.969,0.479748708819198,0.875209042343676,0.13108791485056465,-6.153925134674816,5.583028196570996,-1.466894142381617,-0.8157096242885298,0.18522029060000686,2.4904650616052955,1,left
3.972,0.49120534722535336,0.858833518114315,0.1321841408601443,-6.171399262363347,5.629977849394743,-1.4605137298662487,-0.8206484888515847,0.1733569110903698,2.494766145066928,1,left
3.9730000000000003,0.5025847257321028,0.8423736901246918,0.1332053481686911,-6.186328793218009,5.674190074216203,-1.4535207613516008,-0.8253570924075614,0.1612719384905794,2.4981087726189197,1,left
3.977,0.5138772187320128,0.8258434008104316,0.13415132530617735,-6.198680644625954,5.715577869808413,-1.445920072659227,-0.8298275021336464,0.14897708607198992,2.5004750128077693,1,left
3.978,0.5250733605059442,0.8092565207878087,0.13502196827902635,-6.208424145851679,5.754056072889478,-1.4377176192485497,-0.8340517750135277,0.1364847237421118,2.501847443929461,1,left
3.9810000000000003,0.5361638632375286,0.792626927106936,0.13581727918233646,-6.215531089561654,5.789541493668376,-1.4289204773038873,-0.838021965394596,0.1238078586148857,2.502209167902638,1,left
3.9819999999999998,0.5471396345901868,0.7759684818270762,0.1365373647254508,-6.219975779194475,5.821953050209782,-1.4195368406424251,-0.8417301329833606,0.11096011285194382,2.501543823526238,1,left
3.987,0.5579917946992868,0.7592950110721463,0.13718243468771868,-6.221735072204481,5.851211901728238,-1.4095760134195856,-0.8451683512912006,0.097955698738998,2.4998355991254884,1,left
3.988,0.5687116924253312,0.7426202847111693,0.13775280032110263,-6.220788419199166,5.877241580913472,-1.399048398606538,-0.8483287165418343,0.08480939096096765,2.4970692445872738,1,left
3.991,0.5792909207166946,0.7259579967894417,0.1382488727125982,-6.217117898983143,5.899968125379781,-1.3879654822129177,-0.8512033570511481,0.07153649603896965,2.4932300827829277,1,left
3.992,0.5897213309414211,0.7093217468136347,0.1386711611167096,-6.210708249513643,5.919320208323379,-1.3763398132261568,-0.8537844430892412,0.05815281889184352,2.488304020373505,1,left
3.997,0.5999950460662594,0.6927250219695105,0.13902027126871894,-6.2015468947647925,5.935229268462323,-1.364184979237212,-0.8560641972337496,0.04467462648447938,2.4822775579895606,1,left
3.997,0.6101044725868,0.6761811803249759,0.13929690368968242,-6.189623967490115,5.947629639324145,-1.3515155777208763,-0.85803490522269,0.031118608524853132,2.4751377997743713,1,left
4.001,0.6200423111422695,0.6597034350445385,0.13950185198818765,-6.174932327864789,5.956458677936639,-1.3383471829373064,-0.8596889273142222,0.017501835171356027,2.466872462276426,1,left
4.002,0.629801565778251,0.6433048396160677,0.13963600115109667,-6.157467577981328,5.961656892967368,-1.32469630841988,-0.8610187101475093,0.0038417117892139683,2.4574698826892876,1,left
4.002,0.63937555184721,0.6269982740695798,0.13970032580250313,-6.137228072164433,5.963168072347384,-1.3105803650130206,-0.8620167990362032,-0.009844068818038445,2.446919026510995,1,left
4.006,0.6487579025579983,0.610796432151671,0.13969588840268637,-6.114214923062788,5.960939410404375,-1.2960176144221973,-0.8626758505140019,-0.023537575578931207,2.4352094948309793,1,left
4.006,0.6579425742008577,0.5947118094077668,0.13962383735289602,-6.0884320034676325,5.954921634520075,-1.2810271182369197,-0.8629886448890245,-0.03722068821591283,2.422331531526462,1,left
4.01,0.6669238500843447,0.5787566921164957,0.13948540496284773,-6.0598859437999595,5.945069131316153,-1.2656286823862164,-0.8629480986245663,-0.050875145075784084,2.40827603056975,1,left
4.011,0.675696343224782,0.5629431470158517,0.13928190523248288,-6.028586125200234,5.931340072362072,-1.2498427969848058,-0.8625472764739939,-0.06448258930313919,2.393034543505465,1,left
4.012,0.6842549978277587,0.5472830117599002,0.13901473140555443,-5.994544668178165,5.913696539250638,-1.233690571640133,-0.8617794033583118,-0.07802461331860457,2.376599287076149,1,left
4.016,0.6925950895973454,0.5317878860474852,0.13868535326683637,-5.957776416929868,5.892104647191399,-1.217193666855278,-0.8606378759862694,-0.09148280164106125,2.3589631509558453,1,left
4.0169999999999995,0.7007122249036989,0.5164691233688202,0.13829531416949808,-5.918298919705959,5.866534665028855,-1.2003742231804229,-0.8591162742158397,-0.10483877209290171,2.3401197055478495,1,left
4.02,0.7086023388336766,0.5013378233194304,0.1378462277913083,-5.876132405763976,5.8369611288966095,-1.1832547903305008,-0.8572083721548528,-0.11807421542718445,2.320063209799416,1,left
4.021,0.7162616921433,0.4864048244328717,0.1373397746292792,-5.831299759272975,5.803362947391834,-1.165858257919678,-0.8549081489974896,-0.1311709334153082,2.298788618982722,1,left
4.025,0.723686867128273,0.471680697485612,0.1367776982541529,-5.783826490246251,5.765723497375111,-1.1482077884435864,-0.8522097995922514,-0.1441108754335346,2.2762915923879623,1,left
4.027,0.7308747624313685,0.4571757392304455,0.13616180135894015,-5.733740702412709,5.724030710173753,-1.1303267525733842,-0.8491077447359106,-0.15687617358634195,2.2525685008709355,1,left
4.03,0.7378225868132615,0.4428999665182524,0.1354939416475096,-5.681073057898098,5.678277148092027,-1.1122386667117117,-0.8455966411868236,-0.16944917640419488,2.2276164341940015,1,left
4.031000000000001,0.744527851924458,0.42886311077138906,0.13477602761783702,-5.625856738579828,5.628460071120157,-1.0939671327598897,-0.8416713913898425,-0.18181248115286408,2.2014332080957715,1,left
4.037,0.7509883641290802,0.4150746127757829,0.13401001430035725,-5.568127403971533,5.574581493722288,-1.075535780045048,-0.8373271529038987,-0.19394896479092938,2.1740173710213773,1,left
4.038,0.7572022154475401,0.4015436177638501,0.13319789901624643,-5.507923145486152,5.516648231571988,-1.056968209355265,-0.8325593475221679,-0.205841813611548,2.145368210441631,1,left
4.04,0.763167773704729,0.38827897076740325,0.13234171722192897,-5.445284436918997,5.454671938092172,-1.038287939030287,-0.8273636700735226,-0.2174745516039673,2.1154857586858618,1,left
4.041,0.7688836719891063,0.3752892122277596,0.13144353850170234,-5.380254080985039,5.38866913064468,-1.019518353054924,-0.8217360968927887,-0.22883106756961052,2.084370798209656,1,left
4.046,0.7743487975408835,0.36258257385779585,0.13050546276010885,-5.312877151737539,5.318661206203119,-1.000682651101838,-0.8156728939460941,-0.23989564102686511,2.052024866215215,1,left
4.047,0.7795622801935216,0.35016697475768543,0.12952961665315524,-5.243200932688197,5.244674446330958,-0.9818038004701065,-0.8091706245963816,-0.25065296693795724,2.018450258538476,1,left
4.05,0.784523480495681,0.33805001779266486,0.12851815028625513,-5.1712748504420745,5.166740011275305,-0.9629044898656934,-0.8022261569929056,-0.26108817929050193,1.983650032713623,1,left
4.051,0.7892319776447911,0.3262389862462928,0.1274732341977995,-5.097150403653859,5.084893922975327,-0.9440070849697675,-0.7948366710672907,-0.27118687356548266,1.9476280101220633,1,left
4.056,0.7936875573694416,0.31474084076576836,0.12639705663968603,-5.020881087105393,4.99917703677282,-0.9251335857406805,-0.7869996651174658,-0.2809351281225297,1.9103887771294337,1,left
4.056,0.797890199903264,0.30356221661874705,0.12529182115825396,-4.942522310697976,4.909635001601125,-0.9063055853953637,-0.7787129619595151,-0.29031952453244514,1.871937685110667,1,left
4.059,0.8018400681939417,0.2927094212852524,0.12415974446803944,-4.862131313146598,4.816318208417367,-0.8875442310159003,-0.7699747146262178,-0.29932716688595534,1.8322808492596478,1,left
4.059,0.8055374964832455,0.2821884324126049,0.12300305459431644,-4.779767070157136,4.719281726631851,-0.8688701857271033,-0.7607834115897524,-0.30794570010666494,1.791425146076493,1,left
4.066,0.8089829793758675,0.27200489616391593,0.1218239892394723,-4.69549019686152,4.618585228277517,-0.8503035923910555,-0.751137881484762,-0.3161633272951449,1.7493782094220072,1,left
4.067,0.812177161489505,0.26216412599134353,0.12062479430661355,-4.609362844280066,4.514292899651486,-0.8318640387647616,-0.7410372973066691,-0.32396882613000366,1.7061484250254095,1,left
4.07,0.8151208277515659,0.25267110186412656,0.11940772249731164,-4.52144858957448,4.406473340150061,-0.8135705240673081,-0.7304811800706243,-0.33135156434786106,1.6617449233849537,1,left
4.07,0.8178148943830605,0.24353046997658384,0.11817503189707987,-4.431812319849585,4.295199448008064,-0.7954414269032367,-0.7194694019740996,-0.3383015143089203,1.6161775712825457,1,left
4.071000000000001,0.8202604005891556,0.23474654295219816,0.11692898447344865,-4.3405201092564605,4.1805482926430315,-0.7774944744892018,-0.7080021892109167,-0.34480926662832395,1.5694569626428763,1,left
4.075,0.822458500956881,0.22632330055241956,0.11567184442577387,-4.247639089144603,4.062600973294712,-0.759746713131398,-0.6960801246421294,-0.3508660428381928,1.5215944097491025,1,left
4.075,0.8244104585416034,0.2182643908982818,0.11440587633453554,-4.153237311005734,3.9414424636403496,-0.7422144799017145,-0.6837041504689347,-0.35646370705807695,1.4726019355388849,1,left
4.079,0.8261176386068688,0.2105731322148378,0.11313334306794992,-4.057383601947145,3.8171614420565767,-0.7249133754610994,-0.6708755709453935,-0.36159477667560874,1.4224922671884617,1,left
4.08,0.8275815029715935,0.20325251510553238,0.11185650342168559,-3.960147412716682,3.689850107564102,-0.7078582379994925,-0.6575960551085018,-0.3662524320519253,1.3712788309042712,1,left
4.081,0.8288036049177583,0.1963052053559062,0.11057760948682611,-3.8615986597409555,3.5596039833563626,-0.6910631183638647,-0.6438676394900629,-0.3704305252679255,1.3189757477814,1,left
4.084,0.8297855846188761,0.18973354725768488,0.10929890375503716,-3.761807565233161,3.4265217131778716,-0.6745412566293569,-0.6296927307735107,-0.3741235879260867,1.265597830584942,1,left
4.085,0.8305291650558557,0.18353956743858915,0.10802261598116791,-3.660844500866757,3.2907048576834987,-0.6583050604707812,-0.6150741083575405,-0.37732683802120703,1.2111605813071715,1,left
4.0889999999999995,0.8310361483865705,0.17772497918095723,0.1067509598372552,-3.5587798390636634,3.1522576960272963,-0.6423660855909286,-0.6000149267871118,-0.3800361858920669,1.1556801893503104,1,left
4.09,0.8313084127329425,0.17229118721092357,0.10548612940558008,-3.4556838133430756,3.0112870345478195,-0.6267350182801147,-0.5845187180111129,-0.38224823926460494,1.0991735301815826,1,left
4.093999999999999,0.8313479093504257,0.1672392929362221,0.10423029556645098,-3.351626387729782,2.867902022534818,-0.611421660080658,-0.5685893934246948,-0.3839603073958047,1.0416581643042093,1,left
4.095,0.8311566601481298,0.16257010010498293,0.10298560233752684,-3.2466771349289387,2.722213974679823,-0.5964349145105234,-0.5522312456530226,-0.38517040432606614,0.9831523363849956,1,left
4.099,0.8307367555294465,0.15828412085209018,0.1017541632167825,-3.1409051229712746,2.574336199805889,-0.5817827758012504,-0.5354489500319356,-0.38587725124641215,0.9236749743762219,1,left
4.1,0.8300903525212572,0.15438158209427122,0.10053805757130206,-3.0343788100299527,2.4243838354648206,-0.5674723196061918,-0.5182475657397667,-0.38608027798544275,0.8632456884666537,1,left
4.103,0.8292196731561481,0.15086243223042609,0.09933932710136083,-2.9271659471077482,2.2724736879836094,-0.5535096956360296,-0.5006325365333361,-0.3857796236195112,0.8018847696936352,1,left
4.104,0.8281270030698984,0.14772634810066843,0.09815997239742688,-2.81933348829083,2.1187240775355094,-0.5399001221794889,-0.48260969103991924,-0.38497613620815185,0.7396131880454491,1,left
4.1080000000000005,0.8268146902775418,0.14497274215673783,0.09700194959836227,-2.71094750826327,1.963254687805238,-0.5266478824681561,-0.4641852425557881,-0.3836713716553423,0.6764525898803883,1,left
4.109,0.8252851440930782,0.1426007697978536,0.09586716715122227,-2.602073126774439,1.8061864198121516,-0.513756322845298,-0.44536578830073226,-0.38186759169573886,0.6124252944863112,1,left
4.114,0.8235408341579035,0.14060933682866164,0.09475748266591612,-2.49277443974964,1.647641249449978,-0.501227852699598,-0.4261583080768009,-0.3795677610035793,0.5475542896018379,1,left
4.115,0.8215842895424336,0.13899710699836632,0.09367469985262653,-2.3831144567327796,1.4877420882967403,-0.48906394612574333,-0.4065701622783493,-0.37677554342051117,0.4818632257177908,1,left
4.119,0.8194180978867441,0.137762509582617,0.09262056552734911,-2.273155044348425,1.326612647243922,-0.47726514527483727,-0.38660908919934256,-0.3734952972971692,0.4153764089749964,1,left
4.119,0.8170449045503999,0.13690374697336638,0.09159676667109665,-2.162956875469413,1.1643773024896789,-0.4658310653586468,-0.3662832015827542,-0.3697320699419027,0.3481187924721432,1,left
4.124,0.8144674117480881,0.13641880224673175,0.0906049275307739,-2.052579383775109,1.0011609634370153,-0.454760401272743,-0.34560098235580516,-0.36549159116864194,0.28011596579503295,1,left
4.125,0.8116883776539662,0.13630544668380337,0.08964660675420087,-1.9420807233845738,0.8370889420343137,-0.44405093580464,-0.32457127949371756,-0.3607802659344902,0.2113941425762817,1,left
4.128,0.8087106154630443,0.13656124722404608,0.08872329455756317,-1.8315177332481822,0.6722868230924243,-0.43369954939408195,-0.30320329995361023,-0.3556051660562434,0.14198014589231198,1,left
4.129,0.8055369924034596,0.1371835738355684,0.08783640992916307,-1.7209459059807473,0.506880335109711,-0.4237022314136694,-0.28150660261914145,-0.3499740209936703,0.07190139130233884,1,left
4.1339999999999995,0.8021704286984048,0.13816960679019913,0.08698729787766048,-1.6104193608188297,0.34099522113398595,-0.414054092939054,-0.25949109019550487,-0.3438952076860318,0.0011858673319877985,1,left
4.135,0.7986138964789697,0.1395163438332206,0.08617722673677367,-1.4999908203847405,0.17475710918817267,-0.404749380978955,-0.23716699999341587,-0.33737773942699206,-0.07013788679780414,1,left
4.138999999999999,0.7948704186494513,0.14122060723810295,0.08540738554232101,-1.3897115909397044,0.008291381784799467,-0.39578149413626945,-0.2145448935397801,-0.33043125376176047,-0.14204080639786137,1,left
4.14,0.7909430677057626,0.1432790507362506,0.08467888150003472,-1.2796315458087903,-0.1582769559469499,-0.3871429996725443,-0.19163564498750227,-0.32306599939832775,-0.21449332958544487,1,left
4.141,0.786834964505782,0.1456881663119233,0.08399273756196732,-1.1697991116604824,-0.32482340999891657,-0.37882565194906853,-0.16845042847440755,-0.3152928221699222,-0.2874654281426152,1,left
4.143,0.7825492769886745,0.14844429085458086,0.08334989012678273,-1.0602612573241994,-0.49122413356431976,-0.37082041221880596,-0.14500070490151631,-0.30712315016832853,-0.3609266394929143,1,left
4.144,0.778089218839648,0.1515436126630884,0.08275118687888473,-0.9510634848296334,-0.6573560659390215,-0.36311746974433534,-0.12129820877848832,-0.2985689782130329,-0.4348460977752866,1,left
4.148,0.7734580480972751,0.15498217779521167,0.08219738478437941,-0.8422498224193117,-0.8230970744801118,-0.3557062642096652,-0.09735493560486055,-0.28964285177346266,-0.5091925625529395,1,left
4.15,0.7686590657004484,0.1587558962530657,0.08168914826350006,-0.7338628196207099,-0.9883260986489705,-0.348575509353595,-0.07318312993382016,-0.2803578503767079,-0.5839344446993663,1,left
4.15,0.7636956139703911,0.1628605479946633,0.08122704755602295,-0.6259435450665892,-1.1529232929892814,-0.34171321767918766,-0.04879527408612776,-0.2707275704854823,-0.6590398295623563,1,left
4.1530000000000005,0.7585710750216598,0.1672917887621537,0.08081155729205737,-0.5185315880874136,-1.3167701646805214,-0.3351067260536674,-0.024204077445434846,-0.26076610782070925,-0.7344764976195033,1,left
4.1530000000000005,0.7532888690953314,0.17204515571435003,0.08044305527914887,-0.4116650647668396,-1.4797497025148103,-0.3287427220549503,0.0005775337344168985,-0.25048803910208955,-0.8102119428398564,1,left
4.157,0.7478524528058731,0.17711607284536598,0.08012182151680274,-0.3053806285512491,-1.6417464963191077,-0.32260727099575426,0.025536426080146994,-0.2399084031790151,-0.8862133889674012,1,left
4.158,0.742265317290866,0.1824998561669809,0.07984803745086258,-0.1997134851716573,-1.802646847051424,-0.3166858435980632,0.05065926847845414,-0.22904268152324397,-0.9624478039430114,1,left
4.162,0.7365309862521778,0.1881917186314812,0.07962178548423657,-0.09469741157107774,-1.9623388680389957,-0.3109633442996328,0.07593254115526361,-0.21790677805384284,-1.0388819126823676,1,left
4.162,0.7306530138788816,0.19418677477295887,0.07944304876546958,0.009635221467907499,-2.1207125778235523,-0.3054241401748814,0.10134254452647562,-0.2065169982640375,-1.1154822084281049,1,left
4.168,0.7246349826447673,0.20048004504675548,0.07931171127819622,0.11325342329885296,-2.277659985075658,-0.30005209045312187,0.12687540789235663,-0.19489002761879187,-1.1922149628951164,1,left
4.169,0.7184805009750579,0.20706645984835104,0.0792275582513021,0.21612755429204386,-2.4330751660366436,-0.29483057661766293,0.15251709804814764,-0.18304290919115992,-1.2690462354285184,1,left
4.173,0.7121932007768716,0.21394086319545502,0.07919027690441507,0.3182292939196322,-2.5868543349428625,-0.28974253306983155,0.17825342788385554,-0.17099302050472615,-1.3459418813942543,1,left
4.1739999999999995,0.7057767348268907,0.22109801606156648,0.07919945753879852,0.419531606342918,-2.7388959078829065,-0.2847704783424486,0.20407006504654657,-0.15875804954877065,-1.4228675600226983,1,left
4.177,0.6992347740101316,0.22853259935567113,0.07925459498004718,0.5200087037972454,-2.8891005605340325,-0.2798965468477209,0.2299525407387731,-0.14635596993216277,-1.4997887419259008,1,left
4.177,0.6925710044066025,0.2362392165499829,0.07935509037604627,0.6196360080677663,-3.0373712802193418,-0.27510252114489536,0.2558862587270363,-0.13380501514140475,-1.5766707165093021,1,left
4.181,0.6857891242269983,0.24421239596486452,0.07950025335220755,0.7183901103470298,-3.1836134127222726,-0.2703698647133532,0.281856504634418,-0.12112365186771669,-1.6534785994988275,1,left
4.1819999999999995,0.6788928406040261,0.2524465927266224,0.07968930452540518,0.816248729762989,-3.327734704289696,-0.26567975521710385,0.30784845559170365,-0.10833055236757398,-1.730177340804262,1,left
4.19,0.6718858662518932,0.2609361904188659,0.07992137837575417,0.9131906708635772,-3.4696453392493565,-0.26101311824686646,0.33384719032146554,-0.09544456582068159,-1.806731732939691,1,left
4.192,0.6647719160109234,0.26967550245093946,0.08019552647001664,1.0091957803415004,-3.6092579736615678,-0.25635066152610303,0.3598376997296798,-0.08248468864899522,-1.8831064202215815,1,left
4.192,0.6575547032960493,0.2786587731685375,0.08051072102257154,1.1042449032803214,-3.7464877654189976,-0.25167290956748795,0.3858048980795126,-0.06947003376007861,-1.9592659089647606,1,left
4.1930000000000005,0.6502379364680484,0.2878801787336073,0.08086585877083126,1.198319839200279,-3.8812524012020218,-0.24696023876636736,0.41173363482193165,-0.056419798677820154,-2.0351745788961386,1,left
4.196000000000001,0.6428253151459363,0.29733382780296985,0.08125976513445675,1.2914032981796024,-4.0134721206905315,-0.24219291291777195,0.43760870715777306,-0.04335323252331944,-2.110796696005503,1,left
4.197,0.6353205264781044,0.3070137620365105,0.08169119862444661,1.383478857324327,-4.143069738426252,-0.23735111914350268,0.4634148734058292,-0.03028960180859765,-2.18609642705209,1,left
4.202,0.6277272413894189,0.3169139564654485,0.08215885546797191,1.4745309178568313,-4.269970663712532,-0.23241500421570918,0.4891368672514097,-0.017248155005683254,-2.261037855944927,1,left
4.203,0.6200491108233093,0.327028319748621,0.08266137441391604,1.56454466309046,-4.394102918931271,-0.2273647112632228,0.5147594129496761,-0.004248085853577852,-2.335585002214105,1,left
4.206,0.6122897620018417,0.33735069434077364,0.08319734168178076,1.6535060175547107,-4.5153971566491355,-0.22218041684669218,0.5402672415201457,0.00869150457943477,-2.409701841704131,1,left
4.206,0.6044527947292234,0.34787485659411704,0.0837652960169975,1.7414016075325172,-4.633786675877448,-0.2168423683882985,0.5656451077799979,0.021551646785859583,-2.4833523291939863,1,left
4.207,0.5965417777638995,0.3585945168140991,0.08436373382172101,1.8282187232681908,-4.749207437842199,-0.21133092194149983,0.5908778077241865,0.03431354187449576,-2.556500421881543,1,left
4.212,0.5885602452889437,0.36950331929096253,0.0849911143382555,1.9139452831015453,-4.8615980816124935,-0.20562658028586825,0.6159501955715101,0.0469585997295076,-2.629110102243248,1,left
4.2139999999999995,0.5805116935249011,0.38059484232975677,0.08564586486743561,1.9985697997806844,-4.970899939927388,-0.1997100313316436,0.640847199983941,0.05946847548571411,-2.7011453992041563,1,left
4.216,0.5723995775427212,0.3918625983046125,0.08632638600748323,2.082081349129275,-5.077057055451911,-0.19356218680043843,0.665553839305441,0.07182510402701878,-2.77257040731778,1,left
4.216,0.5642273083316888,0.4033000337676421,0.08703105690251228,2.1644695408732444,-5.180016197181123,-0.18716422105952743,0.6900552358545522,0.08401073248931575,-2.8433493040791795,1,left
4.217,0.5559982501593397,0.4149005296460074,0.08775824049206486,2.245724490766721,-5.279726875796339,-0.18049760982733717,0.7143366293422536,0.09600795080377111,-2.9134463655781526,1,left
4.221,0.5477157182433783,0.4266574015614129,0.0885062887501234,2.3258367927860784,-5.376141356265406,-0.17354416837863904,0.7383833894860256,0.10779972031593842,-2.9828259806976325,1,left
4.2219999999999995,0.5393829767502477,0.4385639003049708,0.08927354789347307,2.404797490525482,-5.469214666472946,-0.16628608896568,0.7621810278904789,0.11936940051567688,-3.0514526640605424,1,left
4.225,0.5310032371360592,0.4506132124971248,0.0900583635292399,2.4825980475860296,-5.558904601563021,-0.15870597732992192,0.7857152092642687,0.1307007739123006,-3.119291067926405,1,left
4.226,0.5225796568450106,0.46279846145725967,0.09085908570433499,2.5592303171150625,-5.645171724170445,-0.1507868882666856,0.8089717620423419,0.1417780690887973,-3.186305993236935,1,left
4.23,0.5141153383785689,0.47511270830133995,0.0916740738159998,2.6346865107224553,-5.727979360808028,-0.14251236022181216,0.8319366884818531,0.15258598196831852,-3.252462400007687,1,left
4.231,0.505613328748249,0.48754895327970416,0.09250170134228944,2.708959166997379,-5.807293594667319,-0.1338664488985292,0.8545961742993256,0.1631096953254588,-3.3177254172605672,1,left
4.236000000000001,0.49707661932434616,0.5001001373628062,0.0933403603551602,2.782041119845652,-5.8830832550806,-0.12483375985173698,0.8769365979158364,0.17333489657411397,-3.382060352689643,1,left
4.237,0.48850814609039145,0.5127591440806274,0.094188465785638,2.8539254668644323,-5.955319903881926,-0.11539948004590991,0.8989445393761676,0.1832477938629339,-3.445432702250228,1,left
4.24,0.4799107903098085,0.52551880161968,0.09504445941598444,2.924605537967605,-6.023977818895011,-0.10554940835174252,0.9206067890069891,0.19283513050857135,-3.5078081598586572,1,left
4.2410000000000005,0.47128737960988687,0.5383718851779956,0.09590681357481501,2.994074864471794,-6.089033974765608,-0.09526998495555973,0.9419103558782244,0.2020841977960709,-3.5691526273874836,1,left
4.246,0.4626406894886868,0.5513111195736005,0.0967740345083992,3.062327148849484,-6.150468021345853,-0.08454831965435863,0.9628424761307907,0.2109828461748474,-3.629432225138085,1,left
4.247,0.4539734452503599,0.5643291820980941,0.09764466539838319,3.1293562353522835,-6.208262259827754,-0.0733722190081558,0.9833906212329167,0.21951949487776737,-3.6886133029697903,1,left
4.25,0.4452883243715581,0.577418705606076,0.09851728899697977,3.195156081703891,-6.262401616812674,-0.061730212320082446,1.00354250622621,0.2276831399898782,-3.7466624522616754,1,left
4.251,0.4365879592958498,0.5905722818332768,0.09939052985687417,3.25972073205881,-6.312873616493259,-0.049611576413400735,1.0232860980215803,0.23546336099232312,-3.8035465188801307,1,left
4.256,0.42787494064526277,0.6037824649395579,0.1002630561436567,3.323044291419366,-6.359668351113784,-0.03700635917331045,1.04260962380402,0.24285032580594174,-3.8592326173221356,1,left
4.258,0.41915182082945474,0.6170417752754803,0.10113358103123042,3.385120901700034,-6.402778449864445,-0.023905401820078703,1.0615015796041058,0.24983479435798622,-3.913688146200927,1,left
4.26,0.4104211180249424,0.6303427033719833,0.10200086369198644,3.44594471962454,-6.442199046354541,-0.010300359878657418,1.0799507390929204,0.25640812069428176,-3.9668808052374063,1,left
4.26,0.40168532049033795,0.6436777141522345,0.10286370990016754,3.505509896637636,-6.477927744799,0.0038162771914422855,1.0979461626558715,0.26256225365803243,-4.018778613917187,1,left
4.265,0.3929468911786819,0.6570392513638941,0.10372097226770126,3.5638105610098676,-6.509964585042025,0.01845116774367257,1.115477206799664,0.26828973615531865,-4.069349931969648,1,left
4.265,0.38420827260434576,0.6704197422294134,0.10457155012934563,3.6208408023100493,-6.538312006531153,0.03361010110846793,1.1325335339453944,0.273583703026152,-4.118563481821733,1,left
4.269,0.37547189191936703,0.68381160231166,0.10541438909172587,3.6765946584165525,-6.562974811344338,0.04929798221432854,1.1491051226594482,0.27843787753875027,-4.166388373175505,1,left
4.27,0.36674016615191396,0.6972072405922215,0.10624848025962481,3.731066105234872,-6.583960126362102,0.06551881770802247,1.1651822783725314,0.28284656652347223,-4.212794129854693,1,left
4.275,0.35801550755793765,0.7105990647608,0.10707285915171766,3.7842490492853003,-6.601277364666197,0.08227570361746492,1.1807556446109486,0.2868046541755342,-4.257750718998619,1,left
4.275,0.34930032903787056,0.7239794867180448,0.10788660431693219,3.836137323320846,-6.614938186235652,0.09957081460235023,1.1958162146384779,0.290307594624011,-4.301228582363471,1,left
4.276,0.3405970495741388,0.7373409283007549,0.10868883566383791,3.88672468513188,-6.624956458000501,0.1174053948391415,1.2103553431819378,0.2933514034886991,-4.343198668920757,1,left
4.279,0.33190809964955065,0.7506758272415276,0.10947871252110036,3.9360048196902686,-6.631348213302965,0.13577975058856032,1.2243647577877301,0.2959326487147685,-4.3836324676240945,1,left
4.28,0.3232359266098147,0.7639766433696712,0.11025543145542696,3.9839713447820473,-6.634131610805369,0.154693244495264,1.237836569479533,0.2980484409041809,-4.422502039525775,1,left
4.285,0.3145829999369759,0.7772358650517378,0.11101822387851921,4.030617820194489,-6.633326892905845,0.1741442916575369,1.2507632826096635,0.2996964232361815,-4.459780048986245,1,left
4.285,0.3059518164045142,0.7904460158674951,0.11176635347215415,4.075937760122398,-6.628956343873665,0.19413035743933377,1.2631378039194667,0.30087476099820065,-4.4954397940296795,1,left
4.2860000000000005,0.29734490508908146,0.8035996615206802,0.11249911345327167,4.119924647739613,-6.621044248195901,0.21464795687789157,1.2749534508474145,0.3015821307332393,-4.5294552359572755,1,left
4.289,0.28876483222012916,0.8166894169840054,0.1132158236951137,4.162571950480632,-6.609616849777952,0.23569265547462973,1.286203959122037,0.3018177090084681,-4.561801028325286,1,left
4.29,0.28021420585626394,0.8297079538693346,0.11391582771901909,4.203873134970736,-6.594702312469095,0.2572590712256328,1.2968834896752184,0.30158116080842234,-4.592452545390181,1,left
4.295,0.2716956803825632,0.8426480080030485,0.11459848957191826,4.243821681254247,-6.576330682083806,0.27934087787020145,1.306986634909786,0.30087262755482264,-4.62138591011859,1,left
4.296,0.2632119608249274,0.8555023871800856,0.11526319060321091,4.282411096363955,-6.554533849918356,0.3019308094045089,1.316508424353704,0.2996927147536985,-4.648578021854916,1,left
4.3,0.25476580697648143,0.8682639790668825,0.11590932615076582,4.3196349273503465,-6.529345517719892,0.32502066592230344,1.325444329731534,0.2980424792691343,-4.674006583734596,1,left
4.301,0.2463600373274809,0.8809257592206663,0.11653630214148993,4.3554867738854,-6.500801164055288,0.3486013208460763,1.3337902694821806,0.29592341622160395,-4.697650129926102,1,left
4.303999999999999,0.23799753278469485,0.8934807991896528,0.11714353160959606,4.389960300551775,-6.468938012017229,0.3726627296135729,1.3415426127502617,0.29333744550750784,-4.719488052779728,1,left
4.305,0.22968124015955835,0.9059222746554847,0.11773043113549246,4.42304924892431,-6.433794998195234,0.3971939398859582,1.3486981828767668,0.290286897935173,-4.739500629956183,1,left
4.308,0.22141417539733987,0.9182434735761758,0.11829641720973767,4.454747449546836,-6.395412742829717,0.4221831033453555,1.355254260412973,0.28677450097123447,-4.757669051602853,1,left
4.309,0.21319942651332863,0.9304378042855912,0.1188409025299043,4.485048833903291,-6.353833521057615,0.4476174891508571,1.3612085856798786,0.28280336408997325,-4.773975447640437,1,left
4.314,0.2050401561975518,0.9424988035039745,0.11936329224315431,4.513947446478201,-6.30910123514873,0.47348349912345306,1.3665593608937083,0.2783769637168536,-4.788402915217402,1,left
4.315,0.19693960404739694,0.9544201442133353,0.11986298015433436,4.541437456997572,-6.261261387622611,0.499766684731638,1.3713052518763151,0.27349912775617624,-4.800935546384403,1,left
4.319,0.18890108838784606,0.9661956433527887,0.12033934492981851,4.567513172937221,-6.2103610551266115,0.5264517659507321,1.3754453893675833,0.26817401969144683,-4.811558456035491,1,left
4.32,0.18092800764090997,0.9778192692929603,0.12079174633995596,4.592169052381549,-6.156448862946737,0.5535226520701928,1.3789793699552007,0.2624061222457522,-4.8202578101575115,1,left
4.323,0.17302384120895606,0.9892851490546176,0.12121952159358587,4.61539971731173,-6.09957496001394,0.5809624645243872,1.381907256635429,0.25620022058814035,-4.827020854423666,1,left
4.324,0.16519214984198632,1.0005875752429907,0.1216219818232123,4.6371999673982005,-6.039790994259732,0.6087535618234505,1.3842295790167687,0.2495613850707164,-4.831835943161727,1,left
4.328,0.15743657546576123,1.0117210126744802,0.12199840877852339,4.65756479436827,-5.977150088166384,0.6368775666619625,1.385947333176671,0.24249495347989536,-4.834692568721862,1,left
4.329,0.1497608404520258,1.0226801046768648,0.12234805177998455,4.676489397015572,-5.911706814348394,0.6653153952842286,1.3870619811797027,0.23500651278399406,-4.835581391263475,1,left
4.334,0.1421687463106902,1.033459679048513,0.12267012497477121,4.693969196913989,-5.843517170993638,0.6940472891859653,1.387575450263846,0.22710188035810325,-4.834494268974879,1,left
4.336,0.13466417177681836,1.044054753666507,0.12296380492666205,4.709999854894523,-5.772638556984341,0.7230528492331403,1.387490131699865,0.21878708466595057,-4.831424288733977,1,left
4.34,0.12725107025538598,1.05446054173641,0.1232282285622028,4.724577288339474,-5.6991297465099935,0.7523110722796192,1.3868088793269486,0.21006834537725588,-4.826365797212499,1,left
4.341,0.11993346657820748,1.0646724566758308,0.12346249148848619,4.73769768934414,-5.623050862976463,0.7818003903661138,1.3855350077661084,0.2009520528978831,-4.819314432420643,1,left
4.342,0.11271545302424903,1.0746861166207153,0.12366564669160846,4.74935754379207,-5.544463352007785,0.8114987125837119,1.3836722903121097,0.19144474733453867,-4.8102671556508385,1,left
4.343,0.10560118455767632,1.0844973485416207,0.12383670361720209,4.759553651385747,-5.463429953329618,0.8413834696859941,1.3812249565081043,0.18155309714271983,-4.799222283611313,1,left
4.345,0.09859487324465613,1.0941021919588787,0.12397462762582037,4.768283146670378,-5.380014671315918,0.8714316615344039,1.378197689414593,0.17128387811607634,-4.786179520242274,1,left
4.348,0.09170078181620485,1.1034969022454741,0.12407833980789627,4.775543521084291,-5.2942827439732225,0.9016199074621384,1.3745956225877582,0.16064395360234052,-4.771139987539468,1,left
4.349,0.084923216348976,1.1126779535021178,0.12414671713907377,4.781332646065203,-5.2063006101298885,0.9319244996423615,1.3704243367754232,0.14964025660176286,-4.754106254866476,1,left
4.352,0.07826651804218054,1.1216420409864825,0.1241785929635842,4.785648797237456,-5.116135874590794,0.9623214595470079,1.3656898563280746,0.1382797739923034,-4.73508236652348,1,left
4.353,0.07173505408209312,1.1303860830810433,0.12417275781210849,4.788490679701056,-5.023857271011371,0.9927865975828524,1.3603986453156272,0.12656953289665002,-4.714073867496871,1,left
4.354,0.06533320760613519,1.138907222786518,0.12412796058147968,4.789857454429444,-4.929534622319723,1.0232955758681266,1.3545576033379585,0.11451658915946834,-4.691087827340743,1,left
4.357,0.05906536679715604,1.1472028287286342,0.12404291011530784,4.7897487657301285,-4.833238798916297,1.0538239734946315,1.3481740610156308,0.1021280179022629,-4.666132862135664,1,left
4.3580000000000005,0.052935913147074604,1.1552704956664974,0.12391627722542971,4.788164769630724,-4.735041675606891,1.0843473525070042,1.3412557751456127,0.08941090612222405,-4.6392191544643655,1,left
4.363,0.04694920893530716,1.1631080444872846,0.12374669719306701,4.785106163000122,-4.635016088625876,1.1148413222123175,1.333810923505237,0.07637234730045112,-4.61035847133834,1,left
4.365,0.041109583981696236,1.1707135216612097,0.12353277279276173,4.780574213258874,-4.533235793693895,1.14528160005185,1.3258480992860722,0.06301943798397812,-4.579564180003693,1,left
4.369,0.03542132174839508,1.178085198119641,0.12327307788525534,4.774570788615962,-4.429775425316431,1.1756440683803415,1.317376305137853,0.04935927630508426,-4.546851261548948,1,left
4.37,0.0298886448698316,1.1852215675158702,0.12296616161761713,4.76709838881347,-4.324710457117404,1.2059048271165578,1.3084049468011,0.03539896240044812,-4.512236322231915,1,left
4.372,0.0245157001897776,1.19212134383261,0.12261055325088996,4.758160176366155,-4.218117162915595,1.2360402423525592,1.298943826305571,0.021145600691801745,-4.4757376024372135,1,left
4.373,0.019306543390203983,1.1987834583107169,0.12220476761565753,4.747760008278648,-4.110072578246839,1.2660269910088477,1.2890031347102322,0.006606303988857777,-4.437374983170496,1,left
4.377,0.014265123311359268,1.2052070556896455,0.12174731117819765,4.735902468218862,-4.00065446203032,1.2958421016222725,1.278593444358993,-0.00821180062557937,-4.397169989989968,1,left
4.378,0.009395266084405196,1.2113914897718812,0.12123668867904415,4.722592899121899,-3.889941258072939,1.3254629913532099,1.2677257006250484,-0.02330156416924896,-4.355145794270409,1,left
4.382,0.00470065922309198,1.2173363183518775,0.12067141027497397,4.707837436194625,-3.7780120561015136,1.35486749929812,1.2564112131152958,-0.03865580643456824,-4.311327211689528,1,left
4.3839999999999995,0.00018483584576597635,1.2230412975853704,0.12004999907637998,4.691643040286834,-3.6649465520086713,1.3840339161930753,1.2446616463049454,-0.05426730500581867,-4.265740697821202,1,left
4.387,-0.004148840777527634,1.2285063759135884,0.11937099893378747,4.674017531590802,-3.5508250069945437,1.4129410105933098,1.2324890095711278,-0.07012878266271738,-4.218414340714936,1,left
4.388,-0.008297192136013461,1.2337316876897757,0.11863298229695525,4.654969623626827,-3.435728205282901,1.4415680516132137,1.219905646593021,-0.08623289321446713,-4.169377850335711,1,left
4.3919999999999995,-0.012257238611520333,1.2387175466727751,0.11783455794824248,4.63450895746829,-3.3197374100870793,1.4698948283105124,1.2069242240847673,-0.10257220580911654,-4.11866254473333,1,left
4.393,-0.016026212585254822,1.2434644395482999,0.11697437839716407,4.612646136155587,-3.2029343174980465,1.4979016657976323,1.193557719826242,-0.11913918776378067,-4.0663013328053745,1,left
4.397,-0.019601570264210163,1.2479730196132237,0.1160511467178023,4.589392759244252,-3.0854010079641303,1.525569438162442,1.1798194099555483,-0.1359261859619687,-4.012328693512958,1,left
4.397,-0.022981001981928952,1.2522441007188627,0.11506362262219023,4.564761457428506,-2.967219895029383,1.5528795782797062,1.1657228554859782,-0.15292540686494113,-3.9567806514036676,1,left
4.401,-0.026162440756359828,1.2562786515264728,0.11401062759643588,4.5387659271774625,-2.848473670995209,1.5798140845936641,1.1512818880090632,-0.1701288951846722,-3.8996947482913322,1,left
4.402,-0.02914406893841009,1.2600777900899736,0.1128910489812913,4.511420965317209,-2.729245249167788,1.6063555249511776,1.1365105945442868,-0.18752851126662565,-3.8411100109376672,1,left
4.407,-0.031924322857089064,1.2636427787505475,0.11170384295020383,4.482742503488027,-2.609617702351976,1.6324870375638627,1.1214233014949853,-0.20511590723116066,-3.7810669145762867,1,left
4.408,-0.03450189545278672,1.2669750193061902,0.11044803642107064,4.452747642402126,-2.4896741972507366,1.6581923291765444,1.1060345576689832,-0.2228825019229715,-3.71960734211518,1,left
4.413,-0.03687573697562522,1.2700760484051532,0.10912272802985665,4.421454685823337,-2.3694979244277596,1.683455670518242,1.0903591163215653,-0.2408194547185275,-3.6567745388494375,1,left
4.415,-0.03904505389472715,1.2729475331030868,0.10772708838306874,4.388883174186459,-2.249172023489806,1.7082618891107224,1.0744119162058465,-0.2589176382905948,-3.592613062614081,1,left
4.415,-0.041009306197965084,1.2755912665212037,0.10626035985925765,4.355053917770099,-2.1287795031443726,1.7325963595084302,1.0582080617566278,-0.27716761067231577,-3.5271687298140133,1,left
4.416,-0.042768203257904265,1.2780091635478015,0.10472185623038492,4.319989029333157,-2.0084031557876383,1.7564449910423345,1.041762802788401,-0.2955595874009978,-3.46048855868438,1,left
4.417,-0.04432169843273902,1.2802032565276826,0.10311096236448028,4.283711956121443,-1.8881254662771938,1.7797942131389293,1.0250915142292625,-0.3140834147651034,-3.3926207116420652,1,left
4.42,-0.04566998259274791,1.2821756908739506,0.10142713428934862,4.246247511147277,-1.7680285145438848,1.8026309582842532,1.0082096762698816,-0.3327285449354906,-3.323614438074125,1,left
4.421,-0.04681347679592639,1.2839287205235503,0.09966989990523316,4.207621903641408,-1.648193871697135,1.8249426427014197,0.9911328550505741,-0.3514840133251737,-3.2535200179851795,1,left
4.423,-0.04775282434669271,1.2854647031574886,0.09783886058638319,4.16786276850852,-1.5287024895297376,1.846717144847726,0.9738766838670021,-0.3703384182793719,-3.1823887064111593,1,left
4.426,-0.048488882448692414,1.2867860951223524,0.09593369382416336,4.126999194291459,-1.4096345845853069,1.867942782031063,0.9564568448460337,-0.3892799031493838,-3.1102726784012726,1,left
4.426,-0.049022713621036176,1.2878954460159062,0.09395415697630165,4.085061748565013,-1.2910695202143694,1.8886082857950597,0.9388890510427432,-0.40829614080414445,-3.037224974366943,1,left
4.431,-0.049355577018041906,1.2887953929305997,0.09190009210968947,4.042082499354065,-1.1730856913027508,1.9087027769159757,0.9211890289090086,-0.42737432063360076,-2.9632994455934902,1,left
4.4319999999999995,-0.049488919792789764,1.2894886543825832,0.08977143184830581,3.9980950314905215,-1.0557604151004298,1.9282157406576572,0.9033725010837,-0.44650113809829495,-2.8885506997074955,1,left
4.436,-0.04942436865204649,1.2899780239894558,0.08756820605755541,3.953134457401303,-0.9391698293184545,1.9471370025780474,0.8854551694540259,-0.4656627868797548,-2.813034045890117,1,left
4.437,-0.0491637217376393,1.2902663639938643,0.08529054912036414,3.9072374221394597,-0.8233887974064805,1.9654567049839753,0.8674526984372221,-0.48484495368647007,-2.7368054396241193,1,left
4.441,-0.048708940939376874,1.2903565987572019,0.08293870750379284,3.8604421025321116,-0.708490820674057,1.9831652840902596,0.849380698431436,-0.5040328157703712,-2.6599214267599818,1,left
4.442,-0.048062144711549286,1.2902517083649017,0.08051304728809439,3.8127882003161386,-0.5945479569208845,2.00025344793746,0.8312547093843686,-0.5232110412088254,-2.582439086684286,1,left
4.445,-0.047225601437117314,1.2899547224913548,0.07801406133527121,3.764316929129856,-0.4816307452435964,2.0167121551208833,0.8130901844279895,-0.5423637920072243,-2.504415974371507,1,left
4.446000000000001,-0.046201723365041705,1.289468714670449,0.07544237580519168,3.7150709952263217,-0.36980813668914764,2.032532594381701,0.7949024735274453,-0.56147473007725,-2.425910061098474,1,left
4.45,-0.04499306114092486,1.2887967971119296,0.07279875577163498,3.6650945717714727,-0.25914743042763466,2.0477061651092385,0.7767068070921201,-0.5805270261458817,-2.34697967359903,1,left
4.4510000000000005,-0.04360229896224076,1.2879421161983333,0.07008410973536394,3.614433266587936,-0.14971421512031466,2.0622244588017105,0.7585182794967038,-0.5995033716501265,-2.2676834314348784,1,left
4.456,-0.04203225041638868,1.286907848793395,0.06729949287019488,3.563134083203141,-0.041572315161732085,2.07607924153082,0.7403518324600474,-0.6183859936723398,-2.188080182357217,1,left
4.457,-0.0402858550985557,1.2856971994903124,0.06444610887313046,3.5112453750582597,0.06521625852180478,2.0892624374538027,0.7222222382295703,-0.6371566729708298,-2.108228935432538,1,left
4.46,-0.038366176149776006,1.28431339892681,0.061525310330183734,3.458816792732543,0.17059135343163215,2.101766113414602,0.704144082519,-0.6557967651602219,-2.0281887917049253,1,left
4.461,-0.036276398893613386,1.2827597032925677,0.05853859756775841,3.405899224035779,0.27449471652455326,2.1135824646739554,0.6861317471472883,-0.6742872250957889,-1.948018872166297,1,left
4.465,-0.03401983077162801,1.2810393951498174,0.05548761603812335,3.3525447268199353,0.37687003161572097,2.1247038018062496,0.668199392326654,-0.6926086345156289,-1.867778242805328,1,left
4.467,-0.03159990277353876,1.279155785673348,0.052374152370302914,3.2988064543594633,0.4776629534591689,2.1351225387990502,0.6503609385478487,-0.7107412329941992,-1.787525836505246,1,left
4.47,-0.029020172520427538,1.2771122183865633,0.0492001292793289,3.244738573148369,0.5768211388043575,2.1448311823892277,0.6326300480109333,-0.7286649522602813,-1.7073203715603218,1,left
4.471,-0.026284329086069994,1.2749120744271727,0.045967599555051177,3.1903961729608925,0.6742942747227131,2.1538223226676214,0.6150201055500786,-0.7463594539319685,-1.6272202665806723,1,left
4.474,-0.023396199537100135,1.2725587793243731,0.042678739354348086,3.1358351690215254,0.770034104493601,2.162088624982148,0.5975441990011755,-0.7638041707207207,-1.5472835515549566,1,left
4.475,-0.020359757044210083,1.270055811207015,0.03933584100816814,3.081112196129178,0.8639944513344764,2.1696228231672285,0.5802150989613467,-0.7809783511559366,-1.467567774840682,1,left
4.48,-0.01717913026869493,1.2674067102828999,0.03594130552609194,3.0262844945794933,0.9561312402551265,2.176417714125353,0.5630452378897997,-0.7978611078808251,-1.3881299058521412,1,left
4.481,-0.013858613582626248,1.2646150893429076,0.032497634932850156,2.971409787728698,1.046402518310937,2.182466153784511,0.5460466885441564,-0.8144314694762999,-1.3090262334194687,1,left
4.482,-0.010402677594626354,1.261684644986535,0.029007424513520848,2.9165461510419033,1.1347684735250114,2.1877610544531154,0.5292311419683774,-0.8306684353020845,-1.2303122608079595,1,left
4.485,-0.0068159794498749956,1.2586191692527033,0.025473354996307,2.861751872468482,1.2211914527437395,2.192295383591921,0.5126098856476587,-0.8465510320032261,-1.1520426002146205,1,left
4.486000000000001,-0.0031033723620930704,1.255422561316604,0.021898184678856555,2.807085303986994,1.3056359786850509,2.1960621640203093,0.49619378266773434,-0.8620583698625692,-1.0742708705748973,1,left
4.489,0.0007300862602324758,1.2520988388325516,0.01828474151253154,2.752604704162195,1.3880687664331268,2.199054475572123,0.47999325249497937,-0.8771696976455322,-0.9970496014986294,1,left
4.4910000000000005,0.004679128824247135,1.248652148417953,0.014635915194901386,2.6983680718620757,1.4684587395366409,2.2012654582132343,0.46401825359546195,-0.8918644554226658,-0.9204301443285118,1,left
4.4910000000000005,0.008738274389434055,1.245086774772872,0.01095464936137463,2.6444329728095313,1.5467770454062961,2.202688316626676,0.4482782678901177,-0.9061223253211463,-0.8444625903007736,1,left
4.494,0.01290182884968355,1.2414071480148416,0.00724393398856571,2.590856363391028,1.6229970688815418,2.203316326261455,0.43278228699952925,-0.9199232802485731,-0.7691956955863417,1,left
4.495,0.017163888790488708,1.2376178488964957,0.0035067981359280117,2.53769441767159,1.6970944423748646,2.2031428408347735,0.41753880023243894,-0.9332476306312355,-0.6946768129924897,1,left
4.501,0.021518349199785566,1.2337236116182848,-0.0002536968136738215,2.485002362040045,1.7690470514517285,2.2021613012792907,0.40255578427279703,-0.9460760692077701,-0.6209518301068462,1,left
4.502,0.02595891504932792,1.2297293239999723,-0.004034463202585531,2.432834319162246,1.838835035518319,2.200365246132211,0.3878406945208487,-0.9583897139178092,-0.5480651136676393,1,left
4.505,0.030479116552457393,1.2256400248791572,-0.007832392185920212,2.381243161394906,1.9064407837387898,2.1977483233648747,0.37340045804448596,-0.9701701489238589,-0.4760594599462056,1,left
4.506,0.03507232768254312,1.2214608987368836,-0.01164435761136463,2.3302803735088036,1.9718489263886643,2.1943043036500027,0.3592414680978382,-0.981399463803215,-0.40497605093006556,1,left
4.508,0.03973178735997502,1.217197267671231,-0.015467218507964366,2.279995924571604,2.035046321844841,2.190027095061434,0.3453695801648438,-0.9920602909452556,-0.33485441609727423,1,left
4.5089999999999995,0.04445062261098199,1.2128545809410565,-0.019297820116092053,2.2304381488421963,2.096022039406379,2.1849107591988166,0.33179010948633453,-1.0021358411879107,-0.2657323995752821,1,left
4.513999999999999,0.049221872973504076,1.208438402384256,-0.023132993520174613,2.181653635530256,2.154767338133938,2.1789495287273515,0.31850783002996896,-1.0116099377255308,-0.19764613248018845,1,left
4.515,0.054038515464660854,1.2039543960729553,-0.026969554046610698,2.1336871272766826,2.2112756418893946,2.172137826320281,0.30552697486317715,-1.0204670483187435,-0.13063001023502696,1,left
4.518,0.05889348951029321,1.1994083105963749,-0.030804298644313062,2.086581427212645,2.265542510750791,2.1644702849894193,0.292851237890116,-1.0286923158352097,-0.06471667466859345,1,left
4.518,0.06377972134207893,1.194805962361128,-0.03463400248527144,2.040377314457182,2.3175656089713503,2.1559417697865872,0.28048377691448856,-1.0362715871484611,6.299930070500571e-05,1,left
4.524,0.06869014746599246,1.19015321827541,-0.038455415029209745,1.9951134679156652,2.3673446696448948,2.1465474008563623,0.26842721799094404,-1.0431914404202307,0.06367991258842788,1,left
4.525,0.07361773688304599,1.1854559781477425,-0.04226525580480476,1.950826398243883,2.414881456233544,2.1362825778181205,0.25668366102865214,-1.0494392107898753,0.12610674666439134,1,left
4.5280000000000005,0.0785555117997565,1.1807201570895598,-0.046060210171467955,1.9075503878450941,2.4601797211071506,2.125143005452849,0.24525468661152797,-1.0550030144926352,0.18731796425570257,1,left
4.529,0.08349656661235108,1.1759516681665274,-0.04983692533349207,1.8653174387701092,2.5032451612374724,2.113124720667735,0.2341413640004776,-1.0598717714265808,0.247289806215234,1,left
4.533,0.08843408499854202,1.1711564054967452,-0.05359200687678658,1.8241572283932357,2.544085371183655,2.1002241207090346,0.22334426028393117,-1.0640352261861712,0.3060002847348181,1,left
4.534,0.09336135501220068,1.166340227944287,-0.05732201608746703,1.7840970727398449,2.582709793499162,2.086437992591213,0.21286345064383377,-1.0674839675783814,0.3634291730789547,1,left
4.538,0.0982717821492713,1.1615089435030947,-0.06102346829326426,1.7451618973442982,2.61912966668389,2.071763543707814,0.20269852970516905,-1.070209446635365,0.41955799201126703,1,left
4.539,0.10315890043036735,1.1566682944121947,-0.0646928324417031,1.7073742155200466,2.6533579707988064,2.0561984335870083,0.19284862393799931,-1.0722039931355927,0.4743699930823221,1,left
4.543,0.10801638161846157,1.1518239429957537,-0.06832653208897901,1.6707541139268758,2.685409370854094,2.039740806752195,0.18331240508191243,-1.073460830643352,0.527850138943754,1,left
4.543,0.11283804275501622,1.1469814581882873,-0.0719209479175806,1.6353192453234973,2.7153001580754585,2.0223893266455053,0.1740881045636719,-1.0739740900744261,0.5799850808498966,1,left
4.548,0.11761785225172729,1.1421463026922736,-0.07547242183066256,1.6010848283969743,2.7430481891469523,2.004143210569486,0.16517352887977205,-1.0737388217936639,0.6307631335043542,1,left
4.5489999999999995,0.12234993480746582,1.1373238207239849,-0.07897726259802763,1.5680636545638182,2.768672823522431,1.9850022655996804,0.1565660759027817,-1.0727510062472365,0.6801742474144234,1,left
4.5489999999999995,0.12702857541445164,1.13251922632561,-0.08243175297330611,1.536266101640997,2.7921948588915466,1.9649669254182636,0.14826275200266892,-1.0710075631262232,0.7282099789589704,1,left
4.553,0.131648222677752,1.1277375922460307,-0.08583215817181007,1.5057001542885333,2.81363646488003,1.9440382880163103,0.14026018975173224,-1.06850635904879,0.7748634584552526,1,left
4.553,0.13620349163942802,1.1229838394165466,-0.08917473556746919,1.4763714311288547,2.8330211150579223,1.9222181542097128,0.13255466591405973,-1.0652462137420478,0.8201293565528018,1,left
4.558,0.1406891663053577,1.1182627270747483,-0.09245574541506929,1.44828321845157,2.850373517323377,1.8995090669111936,0.12514211948989498,-1.0612269047065248,0.8640038492319905,1,left
4.559,0.14510020209739014,1.113578843615468,-0.09567146235595629,1.4214365104158717,2.8657195427236775,1.8759143510982945,0.11801816970960935,-1.0564491703512446,0.9064845815971474,1,left
4.559,0.1494317284591413,1.108936598262727,-0.0988181874558481,1.395830055581324,2.8790861528416007,1.8514381543724578,0.1111781339414186,-1.0509147115892399,0.947570630603563,1,left
4.563,0.15367905181953107,1.1043402136539235,-0.10189226055678137,1.371460409176364,2.8905013262313553,1.8260854877907309,0.10461704549154004,-1.044626191881958,0.9872624668444178,1,left
4.564,0.15783765907454372,1.099793719409542,-0.10489007278235281,1.3483219897524419,2.8999939850340692,1.7998622662692139,0.098329671276315,-1.0375872357188354,1.0255619155196667,1,left
4.567,0.16190322170757881,1.0953009467436536,-0.10780807908561059,1.326407138450281,2.9075939232590535,1.772775347643823,0.09231052934663633,-1.0298024255161493,1.0624721167049114,1,left
4.5680000000000005,0.16587160064267667,1.090865524162417,-0.11064281075482636,1.3057061795332914,2.9133317378495254,1.7448325696824418,0.08655390624582121,-1.0212772969170878,1.097997485034289,1,left
4.572,0.16973885189284238,1.0864908742886998,-0.11339088780785608,1.2862074816116666,2.917238762994445,1.716042784719906,0.08105387418285585,-1.0120183324728282,1.132143668907405,1,left
4.573,0.1735012330105738,1.082180211827671,-0.11604903122662526,1.267897519409187,2.919347007780764,1.6864158917958163,0.07580430800370815,-1.002032953682272,1.1649175093263555,1,left
4.578,0.17715521028110456,1.0779365426527285,-0.11861407500393402,1.2507609360132395,2.9196890972026286,1.6559628662149304,0.07079890194415829,-0.9913295113659583,1.196326998464907,1,left
4.579,0.18069746654057262,1.0737626639518676,-0.12108297798461044,1.2347806055520094,2.9182982165388403,1.624695786447443,0.0660311861483342,-0.9799172743475741,1.2263812380679364,1,left
4.582,0.1841249094600058,1.0696611653373205,-0.12345283547887731,1.21993769624621,2.9152080591046876,1.592627858284076,0.061494542937857354,-0.9678064164143968,1.2550903977753056,1,left
4.583,0.18743468011058725,1.0656344307904062,-0.12572089061068617,1.2062117337860876,2.9104527773792124,1.5597734361585145,0.057182222817206134,-0.9550080015259349,1.2824656734604154,1,left
4.587,0.19062416161160325,1.0616846412936012,-0.12788454534569474,1.19358066498775,2.9040669375039836,1.5261480415473965,0.05308736020158582,-0.9415339672380104,1.3085192456698023,1,left
4.5889999999999995,0.19369098765611326,1.0578137779966186,-0.1299413711301684,1.1820209216861375,2.8960854771445774,1.4917683783557694,0.049202988854258306,-0.927397106307512,1.3332642382462738,1,left
4.591,0.19663305070816556,1.0540236257741489,-0.1318891190640512,1.1715074848251579,2.8865436667011726,1.4566523451936577,0.04552205702092857,-0.9126110464410788,1.3567146772142535,1,left
4.593,0.19944850966694866,1.05031577705827,-0.13372572952526338,1.1620139487086474,2.8754770738499986,1.420819044447187,0.04203744224940941,-0.8971902281490359,1.378885450002204,1,left
4.596,0.2021357967966735,1.046691635864209,-0.13544934115759913,1.1535125853788954,2.86292153139278,1.384288788045534,0.03874196588339049,-0.8811498806639988,1.3997922650732482,1,left
4.5969999999999995,0.20469362372801259,1.0431524219673416,-0.13705829913373824,1.1459744090924775,2.8489131083868426,1.3470830998228682,0.035628407219722054,-0.8645059958817024,1.419451612031386,1,left
4.602,0.2071209863502624,1.0396991752246547,-0.1385511626079638,1.1393692408660603,2.833488084524167,1.3092247143723927,0.032689517319187476,-0.8472753002797855,1.4378807222670305,1,left
4.603,0.20941716843388714,1.036332760061049,-0.13992671127806594,1.1336657730676956,2.8166829277233987,1.270737572287578,0.029918032461282055,-0.8294752247684877,1.4550975302019602,1,left
4.607,0.21158174385011463,1.0330538701583467,-0.1411839509810985,1.1288316340318831,2.798534274894654,1.231646811683767,0.027306687234038028,-0.8111238724254801,1.4711206351902013,1,left
4.6080000000000005,0.2136145772865688,1.0298630333912253,-0.14232211825395732,1.1248334526793613,2.779078915832879,1.1919787558914412,0.024848227250437543,-0.7922399840653687,1.4859692641278166,1,left
4.612,0.21551582339344677,1.0267606170484354,-0.14334068379938547,1.121636923125168,2.758353780191577,1.151760897210637,0.022535421483436117,-0.7728429015927731,1.4996632348211032,1,left
4.613,0.21728592433126667,1.0237468333611401,-0.14423935481211222,1.119206869261016,2.7363959274848355,1.111021876614275,0.02036107421207936,-0.7529525290863062,1.5122229201592716,1,left
4.6160000000000005,0.2189256057265115,1.0208217453366661,-0.14501807613801904,1.1175073093004226,2.713242540061847,1.0697914592865032,0.018318036571634815,-0.7325892915592422,1.5236692131343017,1,left
4.617,0.22043587107144655,1.017985272870631,-0.14567703025953593,1.1165015202773334,2.6889309189944686,1.0281005058805828,0.016399217701097358,-0.7117740914092691,1.5340234927383405,1,left
4.617,0.22181799462234705,1.0152371990915003,-0.14621663611817176,1.1161521024911825,2.6634984828148185,0.9859809393793465,0.014597595481914126,-0.6905282629086491,1.5433075907206324,1,left
4.622,0.22307351285541785,1.0125771768832486,-0.14663754679749857,1.1164210438934286,2.6369827690364724,0.9434657074398526,0.012906226862313923,-0.668873525697389,1.5515437591015746,1,left
4.622,0.22420421454473202,1.010004735525638,-0.14694064610218097,1.117269784412597,2.609421438389508,0.9005887401025365,0.011318257762072815,-0.6468319385810757,1.5587546382932502,1,left
4.626,0.2252121295411093,1.0075192873811514,-0.14712704408433092,1.1186592802158966,2.5808522816305755,0.8573849028272728,0.00982693255279472,-0.6244258545934457,1.5649632257178239,1,left
4.627,0.22609951634174516,1.0051201345527563,-0.14719807157909068,1.1205500679030396,2.5513132284568965,0.8138899452343302,0.008425603108941096,-0.6016778776699496,1.5701928448933735,1,left
4.628,0.22686884853561695,1.0028064754451782,-0.1471552738106216,1.1229023286219582,2.5208423574575733,0.7701404466772331,0.007107737425051296,-0.5786108209371109,1.5744671149989065,1,left
4.632,0.22752280020570156,1.0005774111733818,-0.14700040312852086,1.1256759520934505,2.489477905703513,0.7261737601903027,0.0058669277948551245,-0.55524766655336,1.5778099209364385,1,left
4.632,0.2280642303851078,0.9984319517661335,-0.1467354109442497,1.1288306005374418,2.457258276903673,0.6820279559361215,0.0046968985482378645,-0.5316115270360442,1.5802453839052155,1,left
4.636,0.22849616669381387,0.9963690221164873,-0.14636243895169276,1.1323257725024691,2.424222047645161,0.6377417645273642,0.0035915133422580866,-0.5077256080083977,1.5817978325004058,1,left
4.637,0.22882178831083674,0.9943874676423959,-0.14588380972558854,1.1361208666054272,2.39040797156134,0.5933545201801111,0.002544782002640229,-0.4836131722994053,1.5824917743459181,1,left
4.64,0.22904440845948482,0.992486059637141,-0.14530201679412755,1.1401752451905487,2.3558549813354563,0.5489061035719118,0.0015508669123675365,-0.4592975053287093,1.5823518682683908,1,left
4.641,0.22916745660132198,0.9906635003055709,-0.14461971427833467,1.1444482979175745,2.320602188444976,0.5044368842774589,0.0006040889441869778,-0.4348018817079916,1.5814028970168743,1,left
4.646,0.22919446054552337,0.9889184274957016,-0.14383970618327666,1.1488995052899285,2.284688880549571,0.45998766265444535,-0.00030106706599341025,-0.4101495329896138,1.5796697405302427,1,left
