time,gFx,gFy,gFz,ax,ay,az,wx,wy,wz,subject_number,foot
0.945,0.13241243149963278,0.9881551686491262,0.08665625286449521,-0.1492444791175961,0.015659864626428155,0.07432099230928862,0.027301417611884732,-0.0622534483435579,0.06090278706837168,1,left
0.95,0.13282548082888618,0.9880966058175324,0.08648626501906635,-0.14865826563118267,0.015876408154154992,0.07385648129056092,0.027340532955189487,-0.06293823385851402,0.06112844384652421,1,left
0.95,0.13323288085123944,0.9880403324644207,0.08631668807504146,-0.14799536065009333,0.016071167798717544,0.07338415448156474,0.02737615582418098,-0.0635997290122441,0.061345545147823054,1,left
0.9540000000000001,0.13363439767379037,0.987986438021289,0.08614760103236156,-0.1472559455525615,0.016243943457231777,0.07290369723845956,0.027408244927325603,-0.06423765744369837,0.0615539729101702,1,left
0.955,0.13402981364745245,0.9879350047771499,0.08597908169593672,-0.14644028319675098,0.016394585507511026,0.0724147971134929,0.02743676108352716,-0.0648517737086078,0.06175361594027796,1,left
0.96,0.1344189275734469,0.9878861078123458,0.08581120656146111,-0.14554871773918246,0.01652299534189113,0.07191714483616607,0.027461667277773372,-0.0654418635667828,0.06194437003263585,1,left
0.96,0.13480155482640502,0.9878398149386386,0.08564405070617336,-0.14458167442701442,0.016629125748591978,0.07141043529898893,0.027482928714212963,-0.06600774418070139,0.06212613807884632,1,left
0.966,0.13517752739893305,0.98779618664301,0.08547768768559996,-0.14353965936183635,0.016712981141048067,0.07089436854641817,0.027500512866745062,-0.06654926422715043,0.06229883016790255,1,left
0.9670000000000001,0.13554669387207385,0.9877552760338225,0.08531218943747387,-0.14242325923241372,0.016774617635576767,0.07036865076554914,0.027514389527192464,-0.06706630392361494,0.06246236367795624,1,left
0.9690000000000001,0.13590891931505822,0.9877171287889283,0.08514762619396406,-0.14123314101360793,0.01681414297768925,0.06983299527710456,0.027524530851119746,-0.06755877497104049,0.06261666336009722,1,left
0.9690000000000001,0.13626408511738686,0.9876817831061986,0.08498406640378528,-0.13997005162847886,0.016831716317285077,0.06928712352523725,0.027530911401346676,-0.06802662041452433,0.06276166141464083,1,left
0.976,0.13661208875690223,0.9876492696575463,0.08482157666607822,-0.13863481757036467,0.016827547832907745,0.06873076606463606,0.02753350818919673,-0.0684698144234202,0.06289729756039283,1,left
0.977,0.13695284350812698,0.987619611547704,0.08466022167752636,-0.1372283444815211,0.01680189820517507,0.06816366354339537,0.027532300713509802,-0.06888836199227151,0.0630235190973348,1,left
0.9790000000000001,0.1372862780957401,0.9875928242789394,0.08450006419374383,-0.13575161668469385,0.01675507793943538,0.06758556768007949,0.02752727099743735,-0.0692822985639168,0.06314028096314649,1,left
0.98,0.1376123362990745,0.9875689157231045,0.08434116500628513,-0.1342056966637903,0.01668744653763804,0.06699624223338332,0.02751840362302743,-0.0696516895760407,0.0632475457839547,1,left
0.9840000000000001,0.13793097651454797,0.9875478861037303,0.08418358293691891,-0.13259172448961204,0.016599411519345363,0.06639546396275937,0.027505685763596126,-0.06999662993237284,0.06334528391967105,1,left
0.9840000000000001,0.1382421712838581,0.9875297279925825,0.08402737485006105,-0.13091091718640813,0.01649142729175212,0.06578302357835007,0.027489107213870833,-0.07031724339966647,0.06343347350425423,1,left
0.988,0.13854590679648549,0.9875144263252786,0.08387259568271357,-0.1291645680348111,0.01636399386851926,0.06515872667853186,0.02746866041787994,-0.07061368193151829,0.06351210048120455,1,left
0.9890000000000001,0.1388421823748406,0.9875019584390746,0.08371929848956217,-0.1273540458065212,0.01621765543716997,0.06452239467334471,0.02744434049455235,-0.07088612492002047,0.06358115863457171,1,left
0.993,0.1391310099493804,0.987492294134412,0.08356753449989787,-0.1254807939259134,0.016052998774738838,0.06387386569204732,0.027416145260979168,-0.07113477837616641,0.06364064961572896,1,left
0.9940000000000001,0.13941241352990405,0.9874853957612126,0.08341735318367388,-0.12354632955355344,0.015870651511309293,0.0632129954730042,0.027384075253256417,-0.07135987404094843,0.06369058296595564,1,left
0.995,0.13968642867787856,0.9874812183308923,0.08326880232560636,-0.12155224258642446,0.015671280241020158,0.06253965823407608,0.027348133744704208,-0.07156166843444789,0.0637309761339222,1,left
0.998,0.1399531019832185,0.9874797096549529,0.08312192810711246,-0.1195001945694868,0.015455588480069655,0.06185374752165058,0.027308326761044718,-0.07174044185992647,0.0637618544854879,1,left
0.998,0.14021249054837484,0.987480810510237,0.08297677519598161,-0.11739191751301649,0.015224314471194473,0.0611551770364142,0.02726466309199801,-0.07189649738529079,0.06378325130227443,1,left
1.004,0.14046466148280526,0.9874844548295182,0.08283338684396874,-0.11522921261060856,0.014978228837208188,0.06044388143355398,0.027217154298855822,-0.07203015981880449,0.06379520776637057,1,left
1.005,0.14070969141085865,0.9874905699151018,0.0826918049927984,-0.11301394885561616,0.014718132101914092,0.05971981709315608,0.02716581471778429,-0.07214177468607945,0.06379777293015287,1,left
1.006,0.14094766599550243,0.9874990766733138,0.08255207038822607,-0.11074806155913015,0.014444852125062522,0.058982962853138546,0.02711066145870779,-0.0722317072098815,0.06379100367109944,1,left
1.008,0.1411786794797887,0.9875098898684009,0.08241422269932523,-0.10843355077549903,0.014159241513757774,0.05823332069513386,0.02705171439963744,-0.07230034129313523,0.06377496463163164,1,left
1.0090000000000001,0.14140283424832126,0.987522918394371,0.08227830063746316,-0.10607247963818647,0.01386217505690201,0.05747091637558554,0.026988996176296756,-0.07234807850544943,0.06374972814399113,1,left
1.013,0.141620240412522,0.9875380655630197,0.08214434206921808,-0.1036669726031245,0.013554547200826057,0.056695799997679756,0.026922532166886205,-0.07237533707342218,0.06371537414013277,1,left
1.014,0.14183101542505122,0.9875552294066257,0.08201238412052106,-0.10121921359352792,0.013237269568443986,0.05590804652158141,0.02685235047181719,-0.07238255087492398,0.0636719900465876,1,left
1.0170000000000001,0.1420352837286318,0.9875743029942682,0.08188246327271863,-0.09873144403939176,0.012911268521079988,0.055107756210784564,0.02677848188823548,-0.07237016843749647,0.06361967066422358,1,left
1.018,0.14223317644246455,0.9875951747605306,0.08175461545224964,-0.09620596080476637,0.012577482762085854,0.0542950550123507,0.026700959879143164,-0.07233865194094626,0.0635585180328055,1,left
1.023,0.14242483108614049,0.9876177288448873,0.08162887611466597,-0.09364511399578317,0.0122368609813395,0.05347009486877214,0.026619820536917572,-0.07228847622415564,0.06348864128022977,1,left
1.024,0.14261039133754358,0.9876418454405105,0.08150528032280788,-0.09105130464228903,0.01189035953969013,0.05263305395916166,0.026535102541015036,-0.07222012779607541,0.06341015645628385,1,left
1.0270000000000001,0.14279000681916768,0.9876674011522232,0.08138386281917105,-0.08842698224583967,0.01153894019239316,0.051784136867434126,0.026446847109636906,-0.07213410385081029,0.06332318635075507,1,left
1.028,0.14296383290677322,0.9876942693631826,0.08126465809336529,-0.08577464218670036,0.011183567850558424,0.05092357467511059,0.02635509794512475,-0.07203091128665402,0.06322786029568807,1,left
1.032,0.14313203055394186,0.9877223206084929,0.08114770044556226,-0.0830968229824079,0.010825208379618395,0.05005162497634065,0.026259901172841504,-0.07191106572887873,0.06312431395156595,1,left
1.033,0.14329476612482664,0.9877514229531468,0.08103302404556555,-0.0803961033903605,0.010464826433808893,0.04916857181270492,0.026161305273285123,-0.07177509055603253,0.06301268907716545,1,left
1.035,0.14345221122536303,0.9877814423724685,0.08092066298579181,-0.07767509934682128,0.010103383325643511,0.048274725525326016,0.026059361007171235,-0.07162351592945003,0.06289313328281257,1,left
1.041,0.14360454252173646,0.9878122431347625,0.08081065132582496,-0.07493646073464842,0.009741834929354357,0.04737042252178365,0.025954121333211427,-0.07145687782563274,0.06276579976674151,1,left
1.041,0.14375194153622292,0.9878436881871296,0.0807030231264411,-0.07218286797199917,0.009381129617265895,0.04645602495529797,0.02584564131830413,-0.0712757170711097,0.06263084703423659,1,left
1.044,0.14389459441460276,0.9878756395458413,0.08059781247195118,-0.0694170284141966,0.00902220622806563,0.045531920313613757,0.025733978039845166,-0.0710805783793441,0.06248843859921397,1,left
1.045,0.14403269166291946,0.9879079586921183,0.0804950534804285,-0.06664167256089759,0.008665992065935019,0.044598520914988754,0.025619190479855978,-0.07087200938920839,0.06233874266787784,1,left
1.0490000000000002,0.1441664278523106,0.987940506972543,0.08039478030151216,-0.06385955006065754,0.008313400929506436,0.04365626330866001,0.02550133941061782,-0.07065055970450858,0.06218193180406357,1,left
1.0490000000000002,0.14429600129048972,0.9879731460010939,0.08029702710208111,-0.06107342550495204,0.007965331169617108,0.042705607577134395,0.025380487271491396,-0.07041677993399843,0.06201818257585929,1,left
1.054,0.14442161365947728,0.9880057380583102,0.08020182804139804,-0.058286074003688765,0.007622663774838648,0.04174703653762281,0.025256698036592293,-0.07017122073128546,0.06184767518307603,1,left
1.055,0.14454346962129844,0.9880381464830785,0.08010921723803838,-0.055500276534223056,0.007286260483771263,0.040781054839912304,0.025130037072983762,-0.06991443183399373,0.06167059306511648,1,left
1.06,0.14466177639468222,0.9880702360534106,0.08001922873074772,-0.052718815055879546,0.006956961923104582,0.039808187957946106,0.025000570989039815,-0.06964696110151325,0.061487122488772236,1,left
1.06,0.14477674330554707,0.9881018733537162,0.0799318964351759,-0.04994446738197831,0.0066355857704625985,0.03882898107235894,0.024868367473004718,-0.06936935355142587,0.061297452116164934,1,left
1.061,0.14488858131351753,0.9881329271270717,0.07984725409803534,-0.047180001801368894,0.0063229249410681155,0.037843997841193716,0.024733495123674357,-0.06908215039863853,0.06110177255655113,1,left
1.064,0.14499750251695795,0.9881632686114001,0.07976533524875294,-0.044428171441487606,0.006019745797282477,0.03685381905600613,0.024596023278550712,-0.06878588810837365,0.06090027591203525,1,left
1.065,0.14510371963986582,0.9881927718581455,0.07968617314631765,-0.04169170836497417,0.005726786380099081,0.03585904118054522,0.024456021846720556,-0.0684810974781104,0.0606931553307402,1,left
1.07,0.14520744550489215,0.9882213140307872,0.079609800716664,-0.03897331739191215,0.0054447546616941045,0.03486027476918153,0.024313561151794005,-0.06816830275957017,0.06048060457744494,1,left
1.071,0.14530889249719636,0.9882487756790889,0.07953625047474107,-0.03627566963979358,0.005174326818165096,0.03385814276223982,0.02416871178679747,-0.06784802082466324,0.060262817625338784,1,left
1.075,0.14540827202365192,0.9882750409848353,0.07946555442699066,-0.03360139577335268,0.004916145521617362,0.032853278655379715,0.02402154448100041,-0.0675207603753168,0.06003998826900251,1,left
1.075,0.145505793971377,0.9882999979762753,0.07939774395426223,-0.03095307896910957,0.0046708182526970735,0.03184632454452398,0.02387212997826686,-0.06718702119628674,0.0598123097580062,1,left
1.0759999999999998,0.1456016661686698,0.9883235387103783,0.07933284967915935,-0.028333247662747273,0.004438915644241653,0.030837929069661683,0.023720538926515707,-0.06684729345003419,0.059579974450498493,1,left
1.079,0.14569609385027718,0.9883455594231978,0.07927090132279442,-0.02574436826131268,0.004220969883922195,0.02982874532015269,0.023566841777867192,-0.06650205701272799,0.059343173486147635,1,left
1.08,0.14578927912833678,0.9883659606488784,0.07921192755453645,-0.023188838065529443,0.004017473213327876,0.028819428785991124,0.023411108699046432,-0.06615178085041505,0.059102096477780565,1,left
1.084,0.1458814204709286,0.9883846473081808,0.07915595583631603,-0.020668978584369738,0.0038288765514424197,0.027810635417644298,0.023253409491608736,-0.065796922434384,0.05885693122105315,1,left
1.084,0.14597271219117053,0.9884015287687624,0.07910301226200547,-0.01818702931031999,0.0036555882533336275,0.026803019817774013,0.02309381352154528,-0.06543792719473118,0.05860786342147157,1,left
1.089,0.14606334394954876,0.9884165188809155,0.07905312139364365,-0.01574514196064875,0.003497973005380038,0.025797233566309655,0.022932389657821996,-0.06507522801112389,0.058355076438072764,1,left
1.09,0.14615350027042248,0.9884295359926949,0.07900630609841615,-0.013345375177442635,0.003356350856493793,0.0247939236759765,0.02276920621939864,-0.06470924473974211,0.058098751043060164,1,left
1.092,0.1462433600719188,0.9884405029476302,0.07896258739034137,-0.01098968967928499,0.0032309963848426958,0.02379373117538597,0.02260433093026986,-0.06434038377536871,0.057839065196679286,1,left
1.093,0.1463330962076837,0.9884493470673993,0.07892198427832813,-0.008679943857566827,0.0031221379996193535,0.022797289816799966,0.02243783088206461,-0.06396903764758687,0.057576193836607774,1,left
1.0979999999999999,0.14642287501887224,0.9884560001212465,0.0788845136197071,-0.006417889810540342,0.0030299573774511617,0.021805224905688293,0.0222697725037353,-0.06359558465003429,0.05731030868112363,1,left
1.099,0.14651285589568877,0.9884603982839001,0.07885018997704613,-0.004205169808351791,0.0029545890330915053,0.020818152249207376,0.022100221537863157,-0.06322038850165541,0.057041578045306164,1,left
1.104,0.14660319085004692,0.9884624820844344,0.07881902547623833,-0.002043313182422192,0.002896120024079847,0.019836677220739042,0.02192924302310167,-0.06284379803888566,0.056770166669514795,1,left
1.104,0.14669402410320662,0.9884621963490128,0.07879102966452997,6.626636731888712e-05,0.0028545897891061895,0.018861393937640733,0.02175690128227543,-0.06246614693769568,0.05649623555938222,1,left
1.109,0.14678549169340552,0.9884594901397007,0.07876620936781523,0.002122273053699714,0.0028299901198635797,0.017892884549372934,0.021583259915647468,-0.0620877534644184,0.05621994183655044,1,left
1.109,0.1468777211087537,0.9884543166902626,0.07874456854777678,0.004123530878280341,0.0028222652662207716,0.016931718633185516,0.021408381798864024,-0.061708920254278016,0.05594143859937015,1,left
1.113,0.14697083095012375,0.9884466333397711,0.07872610816106346,0.006068985108091591,0.002831312174595735,0.015978452694562544,0.021232329085081807,-0.061329934116536367,0.055660874792776996,1,left
1.114,0.1470649306272032,0.9884364014657966,0.07871082602305922,0.007957703359042907,0.0028569808594592124,0.015033629769644476,0.02105516321077906,-0.06095106586517061,0.055378395086551374,1,left
1.117,0.14716012008869298,0.9884235864194503,0.07869871667711059,0.009788876291745864,0.0028990749079459105,0.014097779126867846,0.02087694490474817,-0.06057257017399437,0.05509413976116173,1,left
1.117,0.14725648958568496,0.9884081574645238,0.07868977126810009,0.011561817925340131,0.002957352117599,0.013171416065085048,0.020697734199764218,-0.060194685455134296,0.054808244600386066,1,left
1.123,0.1473541194663302,0.988390087722697,0.0786839774198865,0.013275965574745892,0.003031525267321232,0.012255041805451184,0.02051759044642064,-0.05981763375977419,0.05452084078990028,1,left
1.124,0.1474530800003075,0.9883693541258859,0.07868131911935099,0.014930879416601739,0.003121263021653084,0.011349143474390604,0.020336572328620156,-0.059441620700079766,0.054232054821016985,1,left
1.128,0.1475534312327858,0.9883459373757515,0.07868177661204628,0.01652624168898001,0.0032261909685447204,0.010454194174983061,0.0201547378802063,-0.05906683539121915,0.05394200839875391,1,left
1.129,0.14765522286915297,0.9883198219100452,0.07868532631368737,0.018061855529802925,0.0033458927908341495,0.009570653144137995,0.019972144502303394,-0.05869345041275539,0.05365081835376104,1,left
1.129,0.14775849419369066,0.9882909958754416,0.07869194073986403,0.01953764345871295,0.003479911571688542,0.008698965992955582,0.01978884898135683,-0.05832162179048573,0.05335859655940481,1,left
1.1320000000000001,0.14786327402679703,0.9882594511058201,0.07870158845588422,0.020953645506979982,0.003627751234309266,0.007839565027704581,0.01960490750863067,-0.05795148900303781,0.053065449858495484,1,left
1.1320000000000001,0.14796958072586636,0.9882251831034438,0.07871423404949632,0.022310016999856675,0.003788878116243517,0.006992869648879768,0.019420375702343833,-0.0575831750193322,0.05277148000591335,1,left
1.137,0.14807742223537843,0.9881881910190027,0.07872983812938655,0.023607025995621454,0.003962722678686472,0.006159286825835745,0.01923530863319769,-0.05721678637122998,0.05247678363161368,1,left
1.138,0.14818679619217667,0.9881484776264802,0.07874835735068227,0.024845050385377408,0.004148681351197529,0.005339211644529226,0.01904976085327847,-0.056852413262456644,0.05218145222529608,1,left
1.143,0.14829769009111993,0.988106049290621,0.07876974446637934,0.026024574661691995,0.004346118509424032,0.0045330279242730255,0.018863786427889814,-0.05649012971310378,0.05188557214224862,1,left
1.1440000000000001,0.148410081513985,0.9880609159268189,0.07879394840241367,0.027146186384931843,0.004554368569121119,0.0037411088911162424,0.01867743896978387,-0.0561299937386561,0.05158922462952021,1,left
1.145,0.14852393842149433,0.9880130909540548,0.07882091435449946,0.028210572413668682,0.004772738153976871,0.0029638178805162793,0.018490771675258085,-0.055772047562497234,0.05129248587157318,1,left
1.147,0.1486392195053085,0.9879625912416246,0.0788505839061673,0.029218514986304428,0.005000508280443598,0.0022015090336817977,0.018303837361583534,-0.05541631786085368,0.05099542705456618,1,left
1.148,0.14875587459439027,0.9879094370508706,0.07888289516865968,0.03017088771995744,0.0052369365171483625,0.001454527960333099,0.01811668850522954,-0.055062816039142426,0.050698114448416175,1,left
1.151,0.14887384510881385,0.9878536519738297,0.07891778294359582,0.03106865155479689,0.005481259102299014,0.0007232123556560272,0.017929377280348525,-0.05471153853869402,0.05040060950578731,1,left
1.1520000000000001,0.14899306455370162,0.987795262870895,0.07895517890784919,0.03191285065091051,0.0057326930168702436,7.892567594935318e-06,0.01774195559698409,-0.05436246717282919,0.05010296897715338,1,left
1.157,0.1491134590466925,0.9877342998091851,0.07899501181729665,0.032704608240443765,0.0059904380142471875,-0.0006911078876604342,0.017554475138464903,-0.054015569491273493,0.049805245041080005,1,left
1.158,0.14923494787472527,0.987670796002851,0.07903720772431456,0.03344512243759162,0.00625367860702678,-0.0013734718640943185,0.01736698739744637,-0.053670799171900714,0.04950748544887189,1,left
1.161,0.14935744407921758,0.9876047877564426,0.07908169020472543,0.034135662008870644,0.006521586011697424,-0.002038888180244776,0.01717954371006181,-0.05332809643880252,0.04920973368273023,1,left
1.161,0.14948085507089753,0.9875363144124537,0.07912838059173777,0.034777562105948324,0.006793320051935663,-0.0026870512715513636,0.0169921952876446,-0.05298738850568725,0.048912029126565275,1,left
1.167,0.14960508327482533,0.9874654183039075,0.0791771982151552,0.035372219963159875,0.007068031021274294,-0.0033176609026302237,0.01680499324548291,-0.052648590043617584,0.0486144072486085,1,left
1.168,0.14973002680268419,0.9873921447125307,0.07922806064425426,0.03592109056169898,0.007344861505909732,-0.003930421941387489,0.01661798862806853,-0.052311603672102344,0.04831689979496924,1,left
1.171,0.14985558014573772,0.9873165418331213,0.07928088393334283,0.036425682262329506,0.007622948168427415,-0.00452504419683236,0.016431232430301833,-0.051976320472563536,0.04801953499328064,1,left
1.172,0.149981634880421,0.9872386607447755,0.07933558286962743,0.0368875524083296,0.007901423493232581,-0.00510124232240079,0.01624477561411504,-0.05164262052320506,0.047722337765580033,1,left
1.177,0.15010808037923956,0.9871585553887151,0.07939207122303259,0.037308302900248315,0.008179417494479807,-0.005658735786549445,0.01605866911997688,-0.05131037345431482,0.047425329949568995,1,left
1.178,0.15023480452047797,0.9870762825510782,0.07945026199702876,0.03768957574392743,0.00845605938729833,-0.006197248912327535,0.015872963872742094,-0.05097943902303684,0.0471285305273991,1,left
1.181,0.1503616943898891,0.9869919018489212,0.07951006767806246,0.03803304857311902,0.00873047922311124,-0.006716510987581155,0.015687710781310312,-0.0506496677066544,0.04683195586112946,1,left
1.181,0.15048863696676007,0.9869054757185217,0.07957140047929828,0.038340430147910776,0.009001809489845294,-0.007216256447391076,0.015502960731559776,-0.05032090131342951,0.046535619934003,1,left
1.186,0.1506155197871007,0.9868170694048614,0.07963417257399635,0.03861345583005817,0.009269186677824165,-0.007696225130290423,0.015318764572022546,-0.04999297361004767,0.04623953459668875,1,left
1.187,0.15074223157896025,0.9867267509500344,0.07969829631615621,0.03885388303621369,0.00953175281213163,-0.008156162609753338,0.015135173091769103,-0.049665710964720125,0.04594370981763835,1,left
1.19,0.15086866286798725,0.9866345911779607,0.07976368444964914,0.03906348666994,0.009788656952222273,-0.008595820602389753,0.014952236989971713,-0.04933893300499914,0.04564815393670536,1,left
1.1909999999999998,0.15099470655303604,0.9865406636732136,0.0798302503090936,0.03924405453329516,0.010039056659545968,-0.009014957454224494,0.01477000683661753,-0.04901245328936342,0.045352873921177,1,left
1.195,0.15112025845099405,0.9864450447519802,0.07989790801444006,0.03939738271868432,0.010282119433938572,-0.009413338706381487,0.014588533023844144,-0.04868607999163344,0.04505787562336828,1,left
1.196,0.15124521780820818,0.9863478134230952,0.07996657265721725,0.039525270981583975,0.010517024119515075,-0.009790737741435573,0.014407865707672872,-0.04835961659689152,0.044763164038839905,1,left
1.197,0.15136948777426187,0.9862490513371887,0.08003616047246809,0.039629518094661295,0.010742962280782696,-0.010146936511635478,0.014228054741420847,-0.04803286260565199,0.044468743563852976,1,left
1.2,0.15149297583298757,0.9861488427226198,0.08010658898970191,0.03971191718373288,0.010959139549670448,-0.010481726350141884,0.014049149604781801,-0.047705614239553266,0.04417461824986644,1,left
1.2009999999999998,0.1516155941851303,0.9860472743081904,0.08017777715899779,0.03977425104593426,0.011164776944148221,-0.010794908866364339,0.013871199334071379,-0.04737766513991315,0.04388079205243529,1,left
1.206,0.15173726007649696,0.9859444352340306,0.08024964545223862,0.03981828745040343,0.011359112159082765,-0.011086296926419777,0.013694252457631673,-0.04704880705241765,0.04358726907231708,1,left
1.206,0.15185789606543298,0.9858404169528137,0.08032211594224128,0.03984577442171897,0.01154140082994987,-0.011355715719674022,0.013518356937685546,-0.046718830494686836,0.043294053787403204,1,left
1.21,0.15197743022478508,0.9857353131237648,0.08039511236361402,0.03985843551103361,0.011710917769471208,-0.011603003909410745,0.013343560118430409,-0.046387525405389,0.04300115127454102,1,left
1.2109999999999999,0.1520957962754541,0.9856292195018445,0.08046856015868034,0.03985796508358127,0.011866958174608389,-0.011828014851335935,0.013169908679863203,-0.046054681773958106,0.04270856742040379,1,left
1.2109999999999999,0.15221293365051541,0.9855222338237678,0.08054238651045498,0.039846023694009775,0.012008838796626073,-0.012030617837869803,0.01299744859683141,-0.045720090249966074,0.042416309120565876,1,left
1.215,0.15232878749104437,0.9854144556917731,0.08061652036359078,0.0398242336447385,0.012135899064295966,-0.012210699311840639,0.012826225102808038,-0.04538354273119762,0.042124384465942015,1,left
1.215,0.15244330857729527,0.9853059864561289,0.0806908924346158,0.03979417479871267,0.012247502152878235,-0.012368164007405008,0.01265628265789183,-0.045044832929471125,0.041832802915749985,1,left
1.22,0.1525564532003816,0.9851969290979092,0.08076543521412365,0.03975738067507131,0.012343035996162401,-0.012502936001647447,0.012487664920537364,-0.044703756913243846,0.04154157545615724,1,left
1.2209999999999999,0.15266818297909976,0.9850873881136463,0.08084008296375546,0.03971533483242767,0.01242191424141068,-0.012614959674521968,0.012320414722523276,-0.0443601136260343,0.04125071474377277,1,left
1.224,0.15277846462537123,0.9849774694030679,0.08091477170959219,0.039669467539678864,0.012483577147523049,-0.012704200577587562,0.012154574046670434,-0.0440137053796882,0.04096023523314671,1,left
1.225,0.15288726966177535,0.9848672801607756,0.0809894392330733,0.03962115273424248,0.012527492426697217,-0.012770646211924764,0.01199018400682585,-0.04366433832150781,0.040670153287440995,1,left
1.2329999999999999,0.15299457409534417,0.984756928772649,0.08106402506164911,0.03957170526760233,0.012553156029808898,-0.012814306715555009,0.011827284829631897,-0.04331182287425711,0.04038048727143566,1,left
1.234,0.1531003580517248,0.9846465247176324,0.08113847046266263,0.03952237843803448,0.012560092875688374,-0.012835215460619118,0.011665915837604532,-0.0429559741480471,0.04009125762603616,1,left
1.234,0.15320460537333025,0.9845361784748146,0.08121271844387982,0.03947436181037771,0.012547857524418431,-0.012833429560505809,0.011506115433048344,-0.04259661232309729,0.03980248692344862,1,left
1.235,0.1533073031855881,0.9844260014344517,0.08128671376201378,0.039428779322708975,0.012516034794726356,-0.012809030287055746,0.011347921082340558,-0.042233563002360267,0.03951419990219083,1,left
1.239,0.15340844143693783,0.984316105810474,0.08136040293679031,0.03938668767978481,0.012464240325488962,-0.012762123397901315,0.01119136930012049,-0.04186665753298676,0.0392264234811081,1,left
1.239,0.1535080124197473,0.9842066045515536,0.0814337342641068,0.039349075033112996,0.012392121081314624,-0.012692839373937143,0.011036495632925507,-0.04149573329559836,0.038939186751564596,1,left
1.244,0.1536060102799943,0.98409761124823,0.081506657820202,0.039316859947526026,0.01229935580211004,-0.012601333566851544,0.01088333464181908,-0.041120633960324615,0.03865252094698192,1,left
1.245,0.15370243052358418,0.9839892400348081,0.08157912545107826,0.03929089065413742,0.012185655396482187,-0.012487786256584383,0.010731919883561293,-0.04074120970855022,0.03836645938889836,1,left
1.25,0.15379726952714,0.9838816054861641,0.08165109074627351,0.039271944589574934,0.012050763278767617,-0.012352402618512663,0.010582283889876979,-0.04035731741930629,0.03808103740872372,1,left
1.25,0.15389052406082723,0.9837748225105061,0.08172250900032574,0.03926072822139985,0.011894455649421935,-0.012195412600101364,0.010434458144381539,-0.0399688208192279,0.03779629224436632,1,left
1.254,0.1539821908301193,0.9836690062394392,0.08179333716740751,0.039257877159639444,0.011716541718442322,-0.012017070706693776,0.010288473056729568,-0.039575590594987574,0.03751226291091031,1,left
1.255,0.15407226604284574,0.9835642719166556,0.08186353381485816,0.039263956554379746,0.0115168638714351,-0.011817655696052913,0.01014435793355649,-0.03917750446710161,0.037228990044523645,1,left
1.2590000000000001,0.15416074500733828,0.9834607347860508,0.0819330590795848,0.039279461779387764,0.01129529777787887,-0.011597470181203554,0.010002140945788572,-0.03877444722399291,0.03694651571877865,1,left
1.26,0.15424762176613538,0.9833585099792742,0.08200187462783626,0.03930481940175615,0.01105175244107182,-0.011356840141063178,0.009861849091902035,-0.03836631071518044,0.03666488323256941,1,left
1.266,0.15433288876717796,0.9832577124028107,0.08206994361549924,0.03934038843758882,0.010786170189189271,-0.0110961143382896,0.009723508156717324,-0.037952993802451394,0.03638413686881232,1,left
1.266,0.15441653657222104,0.9831584566258273,0.08213723064432694,0.03938646189377313,0.010498526606814843,-0.010815663643713442,0.009587142665575856,-0.03753440226911486,0.03610432162399356,1,left
1.2670000000000001,0.1544985536019479,0.9830608567706512,0.08220370170947695,0.03944326859591201,0.010188830406245372,-0.010515880266664947,0.009452775835031442,-0.03711044869370522,0.03582548291300642,1,left
1.2690000000000001,0.15457892591809846,0.9829650264069997,0.08226932413467566,0.039510975302519104,0.009857123237806669,-0.010197176890446956,0.00932042952349677,-0.03668105230580003,0.03554766626160125,1,left
1.2690000000000001,0.15465763704309082,0.982871078449683,0.08233406649190782,0.03958968910560952,0.00950347943835375,-0.009859985712149185,0.009190124186570362,-0.036246138847886,0.03527091700315013,1,left
1.276,0.1547346678172676,0.9827791250581986,0.08239789850235682,0.03967946011784997,0.009128005717066,-0.009504757385943538,0.009061878840495809,-0.035805640460907555,0.034995279992054415,1,left
1.276,0.15480999629354963,0.9826892775356029,0.0824607909160686,0.039780284446462935,0.0087308407775845,-0.009131959868945804,0.008935711034908245,-0.035359495599804946,0.0347207993382491,1,left
1.2790000000000001,0.15488359766868576,0.9826016462237728,0.0825227153705384,0.03989210744736458,0.008312154876746107,-0.00874207717111341,0.008811636834749661,-0.034907648979049355,0.03444751816288422,1,left
1.2790000000000001,0.1549554442498614,0.9825163403928528,0.08258364423151902,0.04001482721931583,0.007872149326457691,-0.008335608022783754,0.008689670810984635,-0.034450051546909374,0.034175478374391596,1,left
1.28,0.15502550545572422,0.9824334681236117,0.08264355042109667,0.04014829823717954,0.007411055956624226,-0.007913064495343227,0.008569826039754104,-0.03398666048716705,0.03390472046414852,1,left
1.284,0.15509374785116709,0.9823531361819603,0.08270240723874242,0.04029233498967598,0.006929136563334141,-0.007474970622654703,0.008452114109610748,-0.03351743924698547,0.03363528332095336,1,left
1.284,0.15516013521426644,0.982275449885211,0.08276018818103968,0.040446715520792535,0.006426682360092736,-0.0070218610586368965,0.008336545136485659,-0.033042357589613054,0.03336720406353175,1,left
1.288,0.15522462863146505,0.9822005129600618,0.08281686676462723,0.040611184834751894,0.005904013438401308,-0.006554279784406916,0.008223127786042029,-0.03256139167059351,0.03310051789029551,1,left
1.288,0.15528718661509067,0.9821284273930144,0.08287241635471272,0.040785458158205584,0.005361478237568514,-0.006072778866165943,0.008111869303077716,-0.032074524136133195,0.032835257945580516,1,left
1.2930000000000001,0.15534776523781302,0.9820592932749189,0.08292680999931817,0.040969224060095885,0.004799453022311229,-0.005577917262527558,0.008002775547644728,-0.03158174424226122,0.03257145520159335,1,left
1.294,0.15540631828125273,0.9819932086421101,0.0829800202678491,0.041162147429657917,0.004218341366644149,-0.005070259679946652,0.007895851037559812,-0.031083047993400538,0.0323091383553007,1,left
1.2990000000000002,0.1554627973979882,0.9819302693170806,0.08303201909161989,0.04136387231306189,0.0036185736425004057,-0.0045503754748669216,0.007791098996986538,-0.03057843829895129,0.03204833373949964,1,left
1.2990000000000002,0.15551715228669,0.9818705687520548,0.08308277760393282,0.04157402460922281,0.003000606511469512,-0.004018837601166557,0.007688521410775498,-0.030067925146470848,0.03178906524731093,1,left
1.304,0.15556933088028127,0.9818141978790311,0.08313226597879546,0.04179221462533087,0.0023649224179841744,-0.0034762216014449588,0.007588119084255453,-0.02955152579001791,0.03153135426934181,1,left
1.305,0.15561927954745752,0.9817612449695035,0.08318045326978124,0.04201803949268143,0.0017120290822339992,-0.002923104640658265,0.007489891708174531,-0.02902926495221105,0.03127521964276923,1,left
1.3090000000000002,0.15566694330809833,0.9817117955057377,0.08322730725213236,0.042251085443407346,0.0010424589910318681,-0.002360064580577933,0.007393837928496772,-0.028501175038535182,0.031020677611598612,1,left
1.3090000000000002,0.1557122660630259,0.9816659320634307,0.08327279427068024,0.04249092994873965,0.000356768884807923,-0.0017876790935148392,0.007299955420765601,-0.027967296362412592,0.030767741797358014,1,left
1.314,0.15575519083827224,0.9816237342041719,0.08331687909376655,0.04273714371944439,-0.00034446076114327443,-0.0012065248137211814,0.0072082409687520554,-0.027427677379538166,0.03051642317949173,1,left
1.314,0.1557956600429052,0.9815852783762881,0.0833595247709698,0.042989292569104165,-0.00106062626308471,-0.0006171765248539697,0.007118690547111804,-0.026882374929961962,0.030266730084722297,1,left
1.317,0.15583361573778773,0.9815506378238598,0.08340069249212438,0.043246939140932514,-0.0017911012648965654,-2.020638185702725e-05,0.007031299407781264,-0.02633145448638544,0.03001866818465419,1,left
1.317,0.155868999911923,0.9815198825047919,0.08344034144698177,0.04350964449882751,-0.002535237285786693,0.0005838168344067556,0.00694606216984934,-0.025774990407121365,0.02977224050089735,1,left
1.3230000000000002,0.15590175476381843,0.9814930790186893,0.08347842868725715,0.04377696958338792,-0.003292364281707919,0.0011943284314647246,0.0068629729126475116,-0.025213066192150968,0.02952744741699317,1,left
1.3230000000000002,0.15593182298673358,0.9814702905439899,0.08351490899442011,0.04404847653363118,-0.00406179122257924,0.0018107684901990334,0.006782025271807208,-0.0246457747406959,0.029284286696430403,1,left
1.327,0.15595914805810637,0.9814515767825819,0.08354973475762555,0.04432372987516694,-0.004842806687447175,0.002432582522200464,0.006703212538039598,-0.024073218608706565,0.029042753506043024,1,left
1.327,0.155983674534392,0.9814369939095318,0.08358285586722645,0.04460229757559319,-0.005634679479760806,0.003059222101264129,0.006626527758399084,-0.02349551026465284,0.028802840444086843,1,left
1.3319999999999999,0.15600534835211413,0.9814265945250569,0.08361421962993898,0.04488375196789387,-0.006436659264969329,0.003690145470796731,0.006551963839797948,-0.02291277234198764,0.028564537572296274,1,left
1.3330000000000002,0.15602411713408512,0.9814204276059052,0.08364377071119963,0.04516767054262799,-0.0072479772326842044,0.004324818128920497,0.006479513654370664,-0.022325137886472727,0.028327832451407013,1,left
1.3330000000000002,0.156039930498145,0.9814185384546014,0.08367145110893034,0.04545363660970944,-0.008067846785679114,0.004962713393072793,0.006409170145417233,-0.021732750595710927,0.028092710180532603,1,left
1.338,0.15605274036542927,0.9814209686460401,0.08369720016191666,0.04574123983058507,-0.008895464258029957,0.005603312945912751,0.006340926431085448,-0.021135765046719823,0.027859153442403473,1,left
1.338,0.15606250126489793,0.9814277559696191,0.08372095459542864,0.04603007662162594,-0.00973000966472388,0.006246107364357002,0.006274775902082821,-0.020534346906537517,0.02762714255737938,1,left
1.3430000000000002,0.15606917062953832,0.981438934362869,0.08374264860556438,0.046319750429552255,-0.010570647485090864,0.0068905966335759145,0.006210712310590206,-0.019928673121667816,0.027396655548252928,1,left
1.344,0.15607270907802173,0.9814545338321641,0.08376221398223305,0.046609871879717275,-0.011416527482433676,0.007536290647789516,0.006148729849130714,-0.0193189320836537,0.027167668216250492,1,left
1.347,0.15607308067481226,0.9814745803576943,0.08377958026991163,0.0469000587980792,-0.012266785562251747,0.008182709699708579,0.006088823219028834,-0.018705323768885725,0.026940154227743474,1,left
1.348,0.15607025316194248,0.9814990957819065,0.08379467496470722,0.047189936107692315,-0.013120544671472138,0.008829384960471285,0.006030987688275686,-0.018088059850905794,0.02671408521100778,1,left
1.348,0.15606419815643263,0.9815280976821321,0.08380742374465651,0.04747913560252045,-0.013976915739858828,0.009475858950528864,0.00597521913862235,-0.01746736378345509,0.026489430862373587,1,left
1.3519999999999999,0.15605489130882622,0.9815615992289173,0.08381775072878794,0.04776729561122885,-0.014834998658500149,0.01012168599493346,0.005921514101729161,-0.01684347085250392,0.02626615906111179,1,left
1.3519999999999999,0.15604231242075486,0.9815996090320617,0.0838255787609632,0.04805406058134389,-0.015693883278972698,0.010766432643878082,0.005869869784204824,-0.01621662819549072,0.026044235992407603,1,left
1.3559999999999999,0.1560264455220673,0.9816421309769628,0.08383082971624992,0.04833908062402126,-0.016552650410503533,0.01140967803233568,0.005820284081375122,-0.015587094785987582,0.025823626277775912,1,left
1.357,0.15600727891012167,0.9816891640540545,0.0838334248286924,0.04862201104980707,-0.01741037279874142,0.012051014159644852,0.005772755579626929,-0.014955141382000643,0.025604293112276837,1,left
1.361,0.15598480515516383,0.9817407021836304,0.08383328503912033,0.04890251190803829,-0.018266116081061552,0.012690046082490684,0.00572728354717917,-0.014321050436105065,0.025386198407893943,1,left
1.3619999999999999,0.15595902107612247,0.9817967340384021,0.08383033136038893,0.04918024753267094,-0.01911893971961194,0.01332639202172731,0.005683867913138279,-0.013685115965606738,0.025169302942441303,1,left
1.3659999999999999,0.1559299276905321,0.9818572428672646,0.08382448525604953,0.04945488609534803,-0.019967897914563493,0.013959683384883662,0.005642509234701617,-0.013047643380915897,0.024953566513369184,1,left
1.367,0.15589753014094762,0.9819222063242492,0.08381566902844596,0.049726099166512557,-0.02081204050002003,0.014589564706187415,0.005603208652378211,-0.012408949270311687,0.024738948095841772,1,left
1.3719999999999999,0.15586183759911387,0.9819915963057374,0.08380380621393915,0.04999356128536246,-0.02165041382503619,0.015215693505934354,0.0055659678331021045,-0.011769361139271456,0.024525406004463755,1,left
1.3719999999999999,0.155822863149481,0.9820653787977928,0.08378882198464128,0.05025694953943596,-0.022482061622179954,0.015837740071021674,0.005530788901119512,-0.011129217102534214,0.024312898058035937,1,left
1.376,0.15578062365577444,0.9821435137345773,0.08377064355659829,0.0505159431546056,-0.023306025866062792,0.01645538715845397,0.0054976743565368635,-0.010488865527064094,0.02410138174672327,1,left
1.376,0.15573513961689997,0.9822259548685754,0.08374920060400466,0.05077022309624866,-0.024121347624243734,0.017068329623619895,0.005466626981422774,-0.009848664624077262,0.023890814401021688,1,left
1.381,0.1556864350193569,0.9823126496539333,0.08372442567771542,0.05101947168234991,-0.024927067902894465,0.0176762739751258,0.005437649733362891,-0.009208981988294004,0.023681153361913277,1,left
1.382,0.15563453719277098,0.9824035391450007,0.08369625462423673,0.051263372209280095,-0.025722228489590354,0.018278937857960004,0.005410745626372481,-0.00857019408257721,0.02347235615160195,1,left
1.386,0.15557947667521674,0.9824985579123242,0.08366462699970217,0.05150160859097981,-0.026505872795567563,0.0188760494667479,0.005385917599077573,-0.00793268566611894,0.02326438064422475,1,left
1.3869999999999998,0.15552128709541183,0.9825976339776271,0.08362948647335018,0.05173386501226426,-0.027277046699758823,0.01946734689084373,0.005363168370081431,-0.007296849164338218,0.023057185235936285,1,left
1.391,0.1554600050780215,0.9827006887683835,0.08359078121682599,0.05195982559694874,-0.028034799396890103,0.02005257739298977,0.005342500280439066,-0.006663083978655852,0.022850729013766412,1,left
1.392,0.15539567017700978,0.9828076370923887,0.08354846427783921,0.05217917409147866,-0.028778184251887263,0.020631496623257684,0.005323915123168466,-0.006031795734315691,0.022644971922653682,1,left
1.395,0.15532832484155645,0.9829183871330082,0.08350249393805355,0.05239159356473059,-0.029506259662806053,0.021203867769970113,0.005307413959733207,-0.005403395464426623,0.02243987493005916,1,left
1.396,0.15525801441842588,0.9830328404657332,0.08345283405546088,0.05259676612463271,-0.030218089934460287,0.02176946064928326,0.0052929969234370685,-0.004778298728405532,0.022235400187567495,1,left
1.401,0.15518478719269038,0.9831508920965151,0.08339945439074102,0.05279437265223425,-0.030912746164881606,0.022328050735092933,0.00528066300967726,-0.004156924663008582,0.02203151118888406,1,left
1.402,0.15510869446675415,0.9832724305227734,0.08334233091546422,0.05298409255383341,-0.031589307146700496,0.022879418130907943,0.005270409853394892,-0.0035396949662067833,0.02182817292364783,1,left
1.403,0.15502979067708927,0.9833973378189397,0.08328144609940803,0.053165603531752426,-0.03224686028549135,0.023423346485315046,0.005262233495997402,-0.0029270328244727414,0.021625352026526448,1,left
1.405,0.15494813354795325,0.9835254897487397,0.08321678917614848,0.05333858137432675,-0.032884502537075234,0.02395962185263975,0.005256128147507855,-0.0023193618125987815,0.021423016921142263,1,left
1.406,0.1548637842799936,0.9836567559054663,0.08314835638866919,0.05350269976565277,-0.033501341365721964,0.024488031500386365,0.0052520859516321395,-0.001717104805479994,0.021221137958424764,1,left
1.412,0.15477680776917158,0.9837909998804192,0.0830761512171069,0.053657630115614675,-0.03409649572513846,0.02500836266501946,0.005250096759510886,-0.0011206829310074315,0.021019687548941277,1,left
1.413,0.15468727284931227,0.98392807945942,0.08300018458885651,0.053803041410686814,-0.03466909706407332,0.025520401257626738,0.005250147914454719,-0.0005305145746884193,0.02081864028867854,1,left
1.416,0.15459525255096448,0.9840678468470427,0.08292047506969862,0.05393860008598224,-0.035218290358307605,0.02602393052098102,0.005252224048037217,5.298556367494724e-05,0.020617973077704067,1,left
1.4169999999999998,0.15450082437000934,0.9842101489178922,0.08283704903462015,0.05406396991907253,-0.035743235170044116,0.026518729641869992,0.005256306887539846,0.0006294073629615798,0.020417665231128573,1,left
1.4169999999999998,0.1544040705406532,0.9843548274949044,0.08274994081725257,0.05417881194648076,-0.03624310673216366,0.02700457233441124,0.005262375074748966,0.0011983461250559518,0.020217698581791812,1,left
1.42,0.15430507830815013,0.9845017196553545,0.08265919283659445,0.05428278440444827,-0.036717097048488134,0.02748122543141595,0.005270403996110862,0.001759403372196788,0.020018057574095385,1,left
1.42,0.15420394019609948,0.9846506580645792,0.08256485569953553,0.05437554269595047,-0.03716441599764192,0.027948447532712174,0.005280365624256457,0.0023121875990049228,0.019818729348406977,1,left
1.426,0.1541007542616221,0.9848014713362198,0.08246698827758098,0.05445673938550294,-0.03758429243150964,0.028405987747440166,0.005292228370913096,0.002856314980823879,0.019619703815461603,1,left
1.426,0.15399562433012304,0.984953984416906,0.08236565775572884,0.05452602422254038,-0.03797597526547591,0.028853584545935618,0.005305956951226406,0.0033914100399840977,0.019420973720186273,1,left
1.43,0.15388866019963726,0.9851080189919311,0.08226093965146572,0.054583044193715013,-0.03833873456103456,0.029290964724916883,0.005321512259520782,0.003917106271577979,0.019222534694375456,1,left
1.43,0.15377997780240082,0.9852633939068457,0.0821529178032092,0.05462744360434693,-0.03867186260197207,0.029717842487290046,0.0053388512565324935,0.0044330467303080765,0.01902438529764558,1,left
1.435,0.15366969930966487,0.9854199255995474,0.08204168432988554,0.054658864189224624,-0.03897467496524871,0.030133918637857065,0.005357926868154785,0.004938884579944832,0.01882652704609766,1,left
1.435,0.15355795316674636,0.9855774285381702,0.08192733956525615,0.05467694525291885,-0.03924651158761802,0.03053887989618287,0.0053786878957395355,0.005434283606903267,0.01862896442811798,1,left
1.439,0.15344487404869486,0.9857357156600188,0.08180999197074486,0.05468132383973642,-0.0394867378289402,0.030932398327847048,0.00540107893800521,0.005918918699420044,0.018431704906747615,1,left
1.439,0.15333060273108728,0.9858945988053288,0.0816897580288123,0.05467163493340364,-0.039694745533057775,0.031314130895274746,0.005425040324605778,0.006392476293783312,0.0182347589080524,1,left
1.446,0.15321528587396957,0.9860538891381445,0.08156676211685882,0.05464751168653029,-0.039869954087013174,0.031683719129309396,0.005450508061420131,0.006854654789037783,0.018038139794925818,1,left
1.4469999999999998,0.15309907571943268,0.9862133975464648,0.0814411363609284,0.05460858567986611,-0.04001181147929701,0.032040788922657014,0.005477413787626184,0.007305164931556594,0.01784186382575815,1,left
1.45,0.15298212970484315,0.9863729350153511,0.08131302046876092,0.05455448721132119,-0.0401197953577233,0.032384950446297946,0.005505684744628367,0.00774373017083972,0.017645950097406164,1,left
1.45,0.15286460999407206,0.9865323129699074,0.08118256154063676,0.054484845614680026,-0.04019341408743382,0.03271579818992691,0.005535243756911501,0.008170086987866004,0.017450420471898542,1,left
1.454,0.1527466829279016,0.9866913435890503,0.08104991385336632,0.05439928960789681,-0.04023220780943796,0.03303291112744634,0.005566009224898233,0.008583985197292431,0.017255299486313172,1,left
1.455,0.15262851839321545,0.9868498400935971,0.08091523861063371,0.05429744767081554,-0.04023574949999729,0.033335853008500796,0.005597895129891042,0.008985188224759934,0.017060614245263638,1,left
1.459,0.1525102891108734,0.9870076170120168,0.08077870365450802,0.054178948452114205,-0.0402036460310652,0.03362417277700196,0.005630811051183569,0.00937347336053004,0.016866394295433216,1,left
1.459,0.15239216984546922,0.9871644904255255,0.08064048313718089,0.05404342120522648,-0.04013553923189232,0.03389740511755432,0.005664662195429472,0.00974863199064082,0.016672671481595885,1,left
1.464,0.15227433654524164,0.9873202781926924,0.08050075715576159,0.053890496252947555,-0.040031106951806866,0.03415507113065082,0.005699349438360201,0.010110469806734254,0.016479479783565166,1,left
1.465,0.15215696542491491,0.9874748001523291,0.08035971135503928,0.05371980548038285,-0.03989006412407704,0.03439667913746563,0.0057347693789460506,0.010458806995669976,0.0162868551335129,1,left
1.47,0.1520402320061223,0.987627878302667,0.08021753650383937,0.05353098285584945,-0.03971216383065912,0.03462172561502811,0.005770814406016733,0.010793478409773788,0.016094835213738917,1,left
1.4709999999999999,0.15192431012839666,0.9877793369557645,0.08007442804998191,0.05332366497929027,-0.03949719836753058,0.034829696262517,0.005807372776956111,0.011114333717386515,0.015903459238161007,1,left
1.4709999999999999,0.15180937093975905,0.9879290028677352,0.079930585657423,0.05309749165770971,-0.03924500031020258,0.035020067199367844,0.0058443287073606945,0.011421237531279693,0.01571276772653275,1,left
1.474,0.1516955818727781,0.9880767053462437,0.07978621272852433,0.05285210650708766,-0.0389554435789002,0.03519230629583905,0.005881562470149262,0.011714069511320773,0.015522802283585383,1,left
1.475,0.15158310561163893,0.9882222763371763,0.07964151591521464,0.05258715758017541,-0.03862844450279269,0.035345874636632905,0.0059189505030164905,0.01199272443887547,0.015333605392104889,1,left
1.479,0.1514720990573742,0.9883655504933944,0.07949670462381006,0.05230229801952303,-0.03826396288254886,0.035480228118117296,0.005956365523851687,0.01225711226245513,0.015145220223220866,1,left
1.48,0.1513627123004688,0.9885063652297119,0.0793519905180527,0.05199718673503254,-0.03786200305038563,0.03559481917964173,0.005993676654148545,0.012507158115221174,0.014957690463998983,1,left
1.483,0.15125508761243353,0.9886445607690056,0.0792075870233498,0.051671489105274956,-0.03742261492667032,0.035689098669387694,0.0060307495505130424,0.012742802305146959,0.014771060161793543,1,left
1.484,0.15114935846997452,0.9887799801850556,0.07906370883280385,0.05132487770223702,-0.036945895070400164,0.03576251784231921,0.006067446544376704,0.01296400027859638,0.01458537358481914,1,left
1.485,0.1510456486251086,0.9889124694484102,0.07892057141329371,0.05095703304152893,-0.03643198771262824,0.03581453047364845,0.006103626790022104,0.013170722558037412,0.014400675098402732,1,left
1.489,0.1509440712321866,0.9890418774812781,0.0787783905083381,0.05056764436438827,-0.03588108574713302,0.03584459504580299,0.00613914642102682,0.013362954654567443,0.01421700905638009,1,left
1.49,0.1508447280411127,0.9891680562267046,0.07863738163302807,0.050156410460179435,-0.035293431644374894,0.035852176952726966,0.006173858715230956,0.013540696955885775,0.01403441970710331,1,left
1.493,0.15074770866562923,0.989290860737959,0.07849775955417668,0.049723040535602545,-0.034669318262823,0.035836750679381454,0.006207614268331859,0.013703964590307118,0.013852951113528864,1,left
1.494,0.1506530899342514,0.9894101492956752,0.07835973774814997,0.049267255132401384,-0.03400908954629409,0.03579780193961603,0.0062402611762077485,0.013852787267368303,0.013672647086858721,1,left
1.4980000000000002,0.15056093532949313,0.9895257835603822,0.07822352783197077,0.048788787092873064,-0.033313141103986435,0.035734829769613265,0.006271645226069673,0.013987209095538862,0.013493551133210015,1,left
1.499,0.15047129452038768,0.9896376287663216,0.07808933896850641,0.04828738257193381,-0.03258192067141663,0.03564734857686074,0.006301610096538408,0.014107288377504568,0.013315706412792122,1,left
1.504,0.15038420299372773,0.9897455539601389,0.07795737725100468,0.04776280209443106,-0.03181592845036353,0.03553489014453766,0.006329997566739783,0.014213097383451537,0.013139155711073236,1,left
1.505,0.15029968178965414,0.9898494322854258,0.07782784507550171,0.04721482165632678,-0.03101571732582093,0.03539700559113405,0.006356647734508226,0.014304722102737205,0.012963941421422057,1,left
1.5090000000000001,0.1502177373473055,0.9899491413109164,0.07770094051161933,0.046643233868311026,-0.03018189295785953,0.03523326728505027,0.006381399243784295,0.014382261974293264,0.01279010553871375,1,left
1.5090000000000001,0.1501383614663112,0.9900445633969394,0.07757685668163912,0.04604784914033832,-0.029315113746198867,0.0350432707138528,0.006404089521287377,0.014445829596064714,0.012617689663393139,1,left
1.5130000000000001,0.15006153138917755,0.9901355860919892,0.07745578115382827,0.04542849690551229,-0.028416090665191716,0.034826636307789274,0.006424555022539783,0.01449555041374846,0.012446735015491817,1,left
1.5130000000000001,0.14998721000763013,0.9902221025490473,0.07733789535070786,0.04478502688167595,-0.027485586966827024,0.03458301121709149,0.006442631487312988,0.014531562389054462,0.012277282458099949,1,left
1.518,0.14991534619335373,0.9903040119502428,0.07722337396948828,0.044117310368997034,-0.026524417749262875,0.03431207104251973,0.006458154204560842,0.01455401564767228,0.012109372529797489,1,left
1.518,0.1498458752515039,0.9903812199297316,0.0771123844117927,0.043425241581768734,-0.025533449388308527,0.03401352151852551,0.006470958286898197,0.014563072107086194,0.01194304548555382,1,left
1.5230000000000001,0.14977871949432547,0.990453638987666,0.07700508622204748,0.04270873901257716,-0.02451359882918409,0.03368710014833193,0.006480878954676518,0.014558905084342634,0.011778341345609133,1,left
1.524,0.1497137889314984,0.9905211888900309,0.07690163053651357,0.04196774682691701,-0.023465832735798647,0.03333257779015276,0.00648775182970073,0.014541698883834801,0.011615299951855215,1,left
1.528,0.14965098207292146,0.9905837970487746,0.07680215954663097,0.04120223628626715,-0.02239116649470191,0.032949760193692106,0.006491413238623698,0.014511648365130862,0.011453961031237973,1,left
1.5290000000000001,0.14959018683861092,0.9906413988758638,0.07670680598127866,0.04041220719756774,-0.02129066307078177,0.03253848948598631,0.006491700526046527,0.014468958490834129,0.011294364265708609,1,left
1.5319999999999998,0.1495312815688162,0.99069393810556,0.07661569261332246,0.03959768938697009,-0.0201654317117,0.03209864560556932,0.0064884523773440375,0.014413843854426239,0.011136549368255151,1,left
1.5330000000000001,0.149474136124679,0.9907413670814886,0.07652893179667829,0.03875874419566025,-0.019016626497981106,0.031630147683861465,0.006481509151225597,0.014346528188007402,0.010980556164550941,1,left
1.537,0.14941861306636894,0.9907836470079333,0.0764466250408484,0.0378954659954867,-0.017845444735595344,0.031132955372599816,0.006470713221627828,0.014267243850449007,0.010826424679725785,1,left
1.538,0.14936456889378158,0.9908207481666961,0.07636886262974317,0.03700798372205255,-0.016653125187805814,0.030607070116046454,0.006455909326505605,0.014176231299624992,0.01067419522959105,1,left
1.538,0.14931185533540492,0.9908526501010115,0.07629572328986295,0.03609646242286221,-0.015440946142982087,0.030052536366628718,0.006436944917441423,0.014073738558089946,0.010523908515332,1,left
1.5419999999999998,0.14926032067105563,0.9908793417676997,0.07622727391032398,0.03516110481804301,-0.014210223315018443,0.02946944274258311,0.0064136705019622086,0.01396002068472446,0.010375605720506508,1,left
1.5419999999999998,0.14920981107179312,0.9909008216596601,0.07616356931569894,0.0342021528710925,-0.012962307572934342,0.02885792312609223,0.0063859399724610424,0.013835339261647603,0.0102293286093743,1,left
1.5519999999999998,0.14916017193800762,0.9909170979023034,0.07610465209297036,0.033219889367033434,-0.01169858249617765,0.02821815770032184,0.006353610919245135,0.013699961899926996,0.01008511962590959,1,left
1.5519999999999998,0.14911124921705812,0.9909281883280098,0.07605055247473015,0.032214639495289736,-0.010420461752097989,0.027550373923683404,0.00631654492723888,0.0135541617643977,0.009943021993035277,1,left
1.5530000000000002,0.14906289068395415,0.99093412053193,0.0760012882800357,0.031186772434529466,-0.009129386292008282,0.026854847439565663,0.006274607856262042,0.013398217117232368,0.009803079811658589,1,left
1.554,0.1490149471708212,0.9909349319105828,0.07595686491169407,0.03013670293665354,-0.007826821362207186,0.026131902919697893,0.006227670104789891,0.01323241087987434,0.00966533815909398,1,left
1.554,0.14896727373284976,0.9909306696824149,0.07591727540677543,0.029064892902581553,-0.006514253331626304,0.0253819148379343,0.0061756068570885175,0.01305703021291541,0.009529843186465173,1,left
1.557,0.14891973074024636,0.9909213908881507,0.07588250053806447,0.027971852920112502,-0.005193186364391519,0.024605308164705887,0.006118298313604579,0.012872366113470897,0.009396642214684408,1,left
1.558,0.14887218488732729,0.9909071623689496,0.07585250896651945,0.026858143693919142,-0.0038651390135473864,0.02380255896067277,0.006055629904474369,0.012678713029576344,0.009265783828613334,1,left
1.564,0.1488245101104754,0.9908880607213228,0.07582725744625445,0.025724377275363697,-0.002531640838827401,0.02297419484156876,0.005987492486002377,0.012476368491102606,0.00913731796901638,1,left
1.564,0.14877658840641153,0.9908641722282556,0.07580669108398297,0.024571218022070514,-0.0011942291246660169,0.02212079529261729,0.005913782519944472,0.01226563275665952,0.009011296021924074,1,left
1.568,0.14872831054362748,0.9908355927652183,0.07579074365500432,0.023399383257287163,0.00014555427336434832,0.021242991822457317,0.005834402235415443,0.012046808475932447,0.00888777090503049,1,left
1.568,0.14867957666465356,0.9908024276779839,0.07577933797718647,0.022209643621316864,0.0014861659521862823,0.020341467952908168,0.005749259773224922,0.011820200366871063,0.008766797150755875,1,left
1.571,0.14863029678321002,0.9907647916277216,0.07577238634256286,0.021002823111710905,0.002826063858759031,0.01941695904212296,0.005658269312429757,0.011586114907125675,0.008648430985612557,1,left
1.5719999999999998,0.14858039118472216,0.9907228083985692,0.07576979100459864,0.019779798808856434,0.00416371006537435,0.01847025193861048,0.005561351178874559,0.011344860039103075,0.008532730405519414,1,left
1.577,0.14852979074016703,0.9906766106636373,0.07577144471945041,0.018541500283543576,0.005497573426554456,0.01750218446353722,0.005458431935475682,0.011096744887991611,0.008419755246717444,1,left
1.577,0.1484784371432097,0.9906263397068025,0.07577723134069654,0.017288908683046892,0.006826132121397934,0.01651364471865537,0.005349444453987048,0.01084207949208369,0.00830956725194659,1,left
1.5819999999999999,0.14842628307970068,0.9905721450992215,0.07578702646687967,0.016023055492209733,0.008147876085213002,0.015505570217139013,0.005234327967969257,0.010581174544703293,0.008202230131551523,1,left
1.5830000000000002,0.1483732923368623,0.9905141843304829,0.07580069813887176,0.014745020965976345,0.009461309334266697,0.014478946834549365,0.0051130281066661684,0.01031434114702642,0.008097809619192004,1,left
1.587,0.14831943985795543,0.9904526223948553,0.07581810758050686,0.013455932229775563,0.01076495218746332,0.013434807577091291,0.0049854969094757316,0.010041890571063547,0.007996373521841404,1,left
1.588,0.1482647117474831,0.9903876313344181,0.07583910997375644,0.01215696104412194,0.012057343388745935,0.012374231164267313,0.004851692820684255,0.009764134032055246,0.007897991763765164,1,left
1.5919999999999999,0.14820910523151448,0.9903193897428337,0.07586355526088259,0.010849321229765327,0.013337042133990878,0.011298340422982087,0.004711580664115544,0.009481382469515107,0.007802736424179389,1,left
1.5919999999999999,0.14815262857740455,0.990248082234418,0.07589128896829085,0.009534265749688188,0.014602630006137155,0.010208300490100155,0.0045651315973284454,0.00919394633613794,0.007710681768298324,1,left
1.5959999999999999,0.1480953009771871,0.9901738988826227,0.07592215304648219,0.008213083444221673,0.01585271282226032,0.00910531682041262,0.004412323044978365,0.008902135393776016,0.007621904271488221,1,left
1.597,0.14803715239928436,0.9900970346311151,0.07595598671813969,0.0068870954155266445,0.017085922396263997,0.007990632996924546,0.004253138610940156,0.008606258515671752,0.007536482636254145,1,left
1.6019999999999999,0.14797822341448885,0.9900176886799995,0.07599262732569873,0.005557651057664644,0.01830091822082176,0.006865528340334235,0.004087567968771654,0.008306623494121774,0.007454497801795415,1,left
1.6019999999999999,0.14791856500415054,0.9899360638495717,0.07603191117255932,0.004226123728466224,0.01949638907215756,0.005731315314538512,0.003915606730078824,0.008003536852734711,0.007376032945874822,1,left
1.6059999999999999,0.14785823835972509,0.9898523659240596,0.07607367435715348,0.0028939060593903324,0.020671054541204534,0.0045893367249645765,0.003737256290325209,0.007697303662433451,0.007301173478756406,1,left
1.607,0.1477973146826214,0.9897668029775333,0.07611775360319062,0.0015624048995585844,0.021823666494629662,0.003440962706499107,0.0035525236516100365,0.0073882273603416955,0.007230007028976444,1,left
1.607,0.14773587499162877,0.9896795846834042,0.07616398708986982,0.0002330358901422832,0.02295301046915584,0.0022875874977592464,0.0033614212225897768,0.007076609570693798,0.007162623420529414,1,left
1.611,0.1476740099424948,0.9895909216082126,0.07621221528348482,-0.00109278233472188,0.02405790700255315,0.001130625998427794,0.0031639665990436886,0.0067627499269426634,0.007099114640096016,1,left
1.611,0.147611819661014,0.9895010244902838,0.07626228176899029,-0.0024136343243094543,0.025137212904607895,-2.8489893643357465e-05,0.0029601823345847956,0.006446945894313123,0.007039574791213802,1,left
1.615,0.1475494135870004,0.989410103504582,0.07631403407659887,-0.003728114368795052,0.026189822471311148,-0.0011883151688718333,0.002750095714343522,0.006129492592085776,0.006984100031336822,1,left
1.6159999999999999,0.14748691032208114,0.9893183675166476,0.0763673244937977,-0.005034833441654044,0.027214668645438388,-0.0023473958192459956,0.0025337385410889243,0.005810682614844991,0.006932788488706854,1,left
1.621,0.1474244374714007,0.9892260233303841,0.0764220108495473,-0.006332426530770556,0.028210724126618434,-0.003504273181815492,0.002311146937215004,0.005490805851838301,0.00688574015770732,1,left
1.6219999999999999,0.14736213146946964,0.9891332749357837,0.07647795725728697,-0.0076195603453765495,0.02917700243373821,-0.0046574885081454775,0.002082361162657461,0.005170149303544875,0.006843056772347715,1,left
1.6219999999999999,0.14730013738264827,0.9890403227627225,0.07653503480619386,-0.008894941302682553,0.03011255892157483,-0.005805587717734751,0.0018474254481194254,0.004848996894537822,0.00680484165773138,1,left
1.626,0.14723860868328287,0.9889473629460076,0.07659312219359465,-0.010157323548199001,0.031016491751888493,-0.006947126225402195,0.0016063878429668109,0.0045276292817220355,0.006771199559371657,1,left
1.6269999999999998,0.1471777069922286,0.9888545866061618,0.07665210629383336,-0.011405516680475193,0.03188794281824881,-0.008080673694863434,0.0013593000771361407,0.004206323657027011,0.006742236450234043,1,left
1.631,0.14711760178711608,0.9887621791508854,0.0767118826602758,-0.012638392934191217,0.032726098624654455,-0.00920481860847691,0.0011062174363800456,0.0038853535436326647,0.00671805931539478,1,left
1.632,0.14705847007334882,0.9886703196028749,0.07677235595860214,-0.013854893725336407,0.03353019111949058,-0.010318172611109278,0.000847198650158106,0.0035649885848055606,0.006698775914219474,1,left
1.636,0.147000496014497,0.98857917995955,0.07683344033120183,-0.01505403554540925,0.034299498487150686,-0.011419374623819086,0.0005823057914633406,0.0032454943244230854,0.006684494519978765,1,left
1.6369999999999998,0.14694387051962593,0.988488924590015,0.07689505969279332,-0.01623491520817818,0.035033345899729194,-0.012507094730585096,0.0003116041878574297,0.0029271319782641055,0.006675323636831821,1,left
1.641,0.1468887907865818,0.9883997096752428,0.0769571479555972,-0.017396714452495878,0.03573110623109292,-0.013580037841274708,3.5162342970713854e-05,0.0026101581951463535,0.006671371694122502,1,left
1.641,0.1468354598014635,0.9883116826976484,0.07701964918007255,-0.01853870390460988,0.03639220073554018,-0.014636947134013069,-0.00024694813229385706,0.002294824806993279,0.0066727467179473945,1,left
1.645,0.1467840857959006,0.9882249819840879,0.07708251764679257,-0.01966024640336011,0.0370160996931542,-0.01567660728007483,-0.000534652579630331,0.0019813785669163544,0.006679555979969603,1,left
1.645,0.146734881665413,0.9881397363033106,0.07714571784711512,-0.020760799691599316,0.037602323023854176,-0.01669784745437808,-0.0008278733450669068,0.0016700608744027905,0.006691905623467185,1,left
1.65,0.14668806435331425,0.988056064517953,0.0772092243932719,-0.021839918477115687,0.03815044087204189,-0.017699544134614092,-0.0011265298233809004,0.0013611074867033296,0.006709900266620408,1,left
1.65,0.1466438542055996,0.9879740752921193,0.07727302185121691,-0.02289725586627832,0.03866007416363519,-0.01868062369199704,-0.0014305384960178536,0.0010547482155201827,0.006733642583057615,1,left
1.655,0.14660247430376114,0.9878938668559192,0.07733710450215676,-0.023932564173566262,0.03913089513717148,-0.019640064776564978,-0.0017398129633569607,0.0007512066081012906,0.0067632328596954035,1,left
1.656,0.14656414978410348,0.987815526827584,0.0774014760403377,-0.024945695110080282,0.03956262785055499,-0.020576900499907427,-0.002054263972180589,0.0004506996118538617,0.006798768531925029,1,left
1.66,0.1465291071530218,0.9877391320932598,0.07746614921441443,-0.025936599354074427,0.03995504866491115,-0.021490220418135694,-0.002373799439221045,0.0001534372215975792,0.006840343696213466,1,left
1.661,0.14649757360746904,0.9876647487442216,0.07753114541845132,-0.02690532550648107,0.0403079867069,-0.022379172317850096,-0.0026983244716728607,-0.00014037789141405036,0.0068880486002043185,1,left
1.665,0.1464697763688243,0.9875924320704533,0.07759649423798806,-0.027852018434339897,0.04062132431072851,-0.023242963807793417,-0.003027741385573727,-0.00043055076956702965,0.0069419691104208965,1,left
1.666,0.1464459420374197,0.987522226608467,0.07766223295767134,-0.0287769170049775,0.040894997440988616,-0.024080863718812424,-0.0033619497229718212,-0.000716894578908404,0.007002186157691066,1,left
1.67,0.14642629597395956,0.9874541662396887,0.07772840603958509,-0.029680351213720806,0.04112899609733471,-0.024892203314679562,-0.003700846268811581,-0.0009992310399596293,0.007068775160431104,1,left
1.67,0.14641106171181067,0.9873882743334269,0.07779506458374708,-0.030562738707864422,0.04132336470190059,-0.025676377316254627,-0.004044325068484039,-0.0012773908801549595,0.007141805425943637,1,left
1.6769999999999998,0.14640046040069685,0.9873245639268373,0.0778622657821421,-0.03142458070954958,0.04147820247024193,-0.026432844741392007,-0.004392277447001598,-0.0015512143087270617,0.0072213395299028016,1,left
1.6780000000000002,0.14639471027918807,0.9872630379349601,0.0779300723748351,-0.03226645734015092,0.04159366376647674,-0.027161129562923013,-0.004744592030599989,-0.001820551513503977,0.007307432675102355,1,left
1.679,0.14639402617171682,0.9872036893860803,0.07799855211239591,-0.033089022348707135,0.04166995844318224,-0.027860821186964882,-0.005101154770730511,-0.002085263172336597,0.007400132034982222,1,left
1.679,0.1463986190057018,0.9871465016794891,0.07806777722504861,-0.03389299724687242,0.04170735216649344,-0.028531574753728483,-0.005461848968883339,-0.0023452209597440523,0.007499476095426036,1,left
1.679,0.14640869534494355,0.9870914488632996,0.07813782389729956,-0.034679164852808725,0.04170616672673542,-0.029173111262916,-0.005826555299842411,-0.0026003080226185632,0.007605494012762365,1,left
1.685,0.1464244569365514,0.9870384959297851,0.07820877174713688,-0.03544836224638332,0.04166678033480918,-0.029785217525717975,-0.006195151831837397,-0.0028504194055510193,0.00771820500149996,1,left
1.686,0.14644610027039776,0.9869875991260085,0.07828070330999123,-0.03620147313798299,0.04158962790443916,-0.030367745945335933,-0.006567514043605287,-0.003095462418444258,0.007837617757388048,1,left
1.689,0.1464738161514288,0.9869387062786262,0.07835370352867851,-0.03693941965320507,0.04147520132027969,-0.03092061412787308,-0.006943514839238449,-0.003335356945800027,0.007963729916990535,1,left
1.69,0.14650778928492272,0.986891757133104,0.07842785925117998,-0.03766315355142803,0.04132404968872059,-0.031443804325463426,-0.007323024561877789,-0.0035700356983979268,0.00809652755409794,1,left
1.69,0.14654819787333048,0.9868466837086891,0.07850325873843741,-0.03837364697517347,0.04113677955288445,-0.03193736271398594,-0.007705911007320416,-0.0037994444080701063,0.008235984713320085,1,left
1.694,0.1465952132218167,0.9868034106712003,0.07857999118441521,-0.0390718829692471,0.040914055025771244,-0.03240139850863506,-0.008092039438621697,-0.0040235419662607245,0.008382062981221789,1,left
1.695,0.14664899934885955,0.9867618557261939,0.07865814625009729,-0.03975884608756146,0.04065659778016151,-0.03283608292109511,-0.008481272602781644,-0.00424230050704422,0.008534711095383016,1,left
1.7,0.1467097125986955,0.9867219300355884,0.07873781361178814,-0.040435513326548975,0.04036518684902479,-0.03324164796141985,-0.008873470750615264,-0.004455705435261344,0.00869386459178402,1,left
1.7009999999999998,0.14677750125402086,0.986683538660761,0.07881908252298236,-0.04110284548191997,0.04004065821750821,-0.033618385086623945,-0.009268491660915841,-0.00466375540041666,0.008859445490935008,1,left
1.705,0.14685250514945497,0.986646581033777,0.07890204138875286,-0.04176177894653209,0.039683904202719486,-0.03396664369734777,-0.009666190670028996,-0.004866462216965915,0.009031362023188702,1,left
1.706,0.14693485528783837,0.9866109514559728,0.07898677735193496,-0.042413217951317174,0.039295872620469026,-0.03428682948376125,-0.010066420707963894,-0.005063850731606333,0.009209508393692835,1,left
1.709,0.14702467346232626,0.9865765396201888,0.0790733758917982,-0.0430580272511846,0.038877565738040874,-0.03457940262178981,-0.010469032342176098,-0.005255958638167536,0.009393764587458076,1,left
1.71,0.14712207188794,0.9865432311503313,0.07916192043888678,-0.04369702525779605,0.038430039011969494,-0.03484487582066365,-0.010873873830164216,-0.005442836240685462,0.00958399621503499,1,left
1.715,0.14722715284690263,0.9865109081501926,0.07925249201297409,-0.044330977621084844,0.03795439960970995,-0.035083812222711314,-0.011280791182029785,-0.005624546165226406,0.00978005439931157,1,left
1.716,0.1473400083525506,0.9864794497523725,0.0793451688918133,-0.044960591261374125,0.03745180471400208,-0.03529682315623892,-0.011689628234156651,-0.005801163021013167,0.009981775703960352,1,left
1.7180000000000002,0.14746071983680087,0.9864487326581053,0.07944002631489322,-0.04558650885393108,0.036923459608645376,-0.03548456574225911,-0.012100226735172538,-0.00597277301139029,0.010188982104081297,1,left
1.719,0.14758935786591051,0.9864186316609218,0.07953713622047559,-0.046209303767780034,0.03637061554432065,-0.035647740355757296,-0.0125124264453614,-0.006139473495150566,0.010401480999603283,1,left
1.724,0.1477259818887133,0.9863890201505119,0.07963656700916463,-0.04682947546058431,0.0357945673830174,-0.035787087942108595,-0.012926065250700725,-0.0063013724987303395,0.010619065272023344,1,left
1.724,0.147870640021195,0.9863597705953001,0.07973838332482378,-0.04744744533139639,0.035196651019551585,-0.03590338718918633,-0.013340979292702951,-0.00645858817976684,0.01084151338507847,1,left
1.7280000000000002,0.14802336887154274,0.9863307550022686,0.07984264584428964,-0.04806355303306645,0.034578240578588576,-0.035997451555632366,-0.01375700311524485,-0.006611248242496636,0.011068589529959988,1,left
1.7280000000000002,0.14818419341081032,0.9863018453522907,0.07994941107109689,-0.048678053246091785,0.03394074538551928,-0.0360701261556913,-0.01417396982957271,-0.006759489305460581,0.011300043815695089,1,left
1.732,0.1483531268958045,0.9862729140101597,0.08005873113335825,-0.04929111291568318,0.0332856067094747,-0.03612228450094437,-0.014591711298674986,-0.006903456221967141,0.011535612505334053,1,left
1.733,0.14853017085140946,0.9862438341097943,0.08017065358896791,-0.049902808953818545,0.03261429427670548,-0.036154825099215145,-0.015010058342217119,-0.007043301353752974,0.011775018298594933,1,left
1.739,0.14871531511800032,0.9862144799151867,0.08028522124207518,-0.05051312640804964,0.031928302552498206,-0.03616866791085758,-0.015428840963236039,-0.0071791837982668975,0.012017970661630078,1,left
1.74,0.14890853796634695,0.9861847271566765,0.08040247197593191,-0.05112195709882311,0.0312291467897495,-0.03616475066257825,-0.01584788859779401,-0.007311268569991193,0.012264166204590568,1,left
1.743,0.14910980627881637,0.9861544533416698,0.08052243860977436,-0.05172909872707306,0.030518358842272716,-0.03614402501888827,-0.016267030388793294,-0.007439725736202296,0.012513289107675752,1,left
1.744,0.14931907579217119,0.9861235380394189,0.08064514878882159,-0.052334254453838214,0.02979748274086978,-0.036107452611226526,-0.016686095484274497,-0.007564729508508686,0.012765011595444931,1,left
1.745,0.14953629139461494,0.986091863139695,0.08077062491446012,-0.05293703295365219,0.029068070030163023,-0.03605600092474527,-0.017104913356123425,-0.007686457296228436,0.013018994454576771,1,left
1.749,0.1497613874692145,0.9860593130850038,0.08089888411718593,-0.05353694894345051,0.028331674864148376,-0.035990639042700355,-0.017523314127193542,-0.0078050887361823555,0.013274887581988809,1,left
1.749,0.14999428827653552,0.9860257750767026,0.08102993827012055,-0.05413342418873188,0.027589848858402405,-0.035912333248343226,-0.01794112889045202,-0.00792080471820432,0.013532330545635985,1,left
1.755,0.15023490836907982,0.98599113925657,0.08116379403742846,-0.05472578898870423,0.02684413569685114,-0.03582204248416901,-0.018358190008155528,-0.008033786420925426,0.01379095314491451,1,left
1.756,0.1504831530288934,0.9859552988652217,0.08130045295109234,-0.055313284142137945,0.02609606549098855,-0.03572071366833498,-0.01877433138697879,-0.008144214363855769,0.01405037596588436,1,left
1.757,0.15073891871907608,0.9859181503773652,0.08143991151163292,-0.05589506338862675,0.025347148899399683,-0.03560927687571549,-0.019189388729415915,-0.008252267477043787,0.014310210931128962,1,left
1.758,0.15100209354066396,0.9858795936127858,0.08158216131145236,-0.056470196284888995,0.024598871065346018,-0.035488640429470385,-0.019603199762652342,-0.008358122188638094,0.014570061844994273,1,left
1.7590000000000001,0.15127255768827227,0.9858395318216624,0.0817271891805655,-0.057037671412626105,0.02385268552000848,-0.03535968601817361,-0.0200156044461025,-0.008461951530669445,0.014829524934951606,1,left
1.7619999999999998,0.15155018389973002,0.9857978717431082,0.0818749773526235,-0.05759639977938226,0.02311000824889492,-0.03522326399196481,-0.020426445158805134,-0.008563924263363597,0.015088189389829839,1,left
1.7630000000000001,0.15183483789504434,0.9857545236370089,0.08202550364613591,-0.058145218308886255,0.022372212069006782,-0.035080188952715,-0.02083556686786478,-0.008664204018289554,0.01534563789566256,1,left
1.767,0.1521263787985812,0.9857094012915312,0.08217874165399525,-0.05868289338043595,0.021640621374520923,-0.03493123568397209,-0.021242817279123742,-0.008762948460641809,0.015601447169894693,1,left
1.768,0.15242465953713985,0.9856624220111438,0.08233466093464159,-0.05920812441191647,0.0209165072588388,-0.03477713542798505,-0.021648046971244467,-0.008860308470949894,0.015855188494690742,1,left
1.7719999999999998,0.1527295272063896,0.9856135065911528,0.0824932271994817,-0.05971954748802618,0.020201083010886328,-0.034618572509397476,-0.02205110951437734,-0.008956427346503652,0.016106428250083325,1,left
1.7730000000000001,0.15304082339811664,0.9855625792845091,0.08265440249182772,-0.06021573903525237,0.019495499983565534,-0.034456181305184096,-0.0224518615745834,-0.009051440022778206,0.016354728447695966,1,left
1.777,0.1533583844802814,0.98550956776581,0.08281814535305881,-0.0606952195451022,0.018800843832280364,-0.03429054356038916,-0.022850163005175915,-0.00914547231513865,0.016599647265768132,1,left
1.778,0.15368204182200926,0.9854544030962303,0.08298441097394735,-0.0611564573470554,0.01811813112148399,-0.034122186049212404,-0.02324587692613825,-0.009238640181100842,0.016840739586203298,1,left
1.7830000000000001,0.1540116219576483,0.9853970196924662,0.08315315133218273,-0.06159787243266076,0.017448306297222944,-0.033951578580977505,-0.023638869792769125,-0.00933104900342156,0.01707755753435241,1,left
1.7830000000000001,0.15434694668700916,0.9853373553032135,0.08332431531780665,-0.06201784033215056,0.01679223902368471,-0.033779132350508126,-0.024029011454699038,-0.009422792894288342,0.01730965102223538,1,left
1.7890000000000001,0.1546878331108393,0.9852753509969776,0.08349784884626492,-0.062414696044894614,0.016150721881789544,-0.03360519863242914,-0.024416175206414478,-0.009513954020876956,0.017536568295892244,1,left
1.79,0.15503409360163503,0.9852109511641476,0.08367369495694392,-0.06278673802495845,0.015524468427904201,-0.03343006781890362,-0.024800237830418525,-0.009604601952542088,0.01775785648754327,1,left
1.791,0.1553855357115932,0.9851441035349471,0.08385179389477904,-0.06313223222296846,0.01491411161079456,-0.03325396880031105,-0.02518107963414837,-0.009694793029905046,0.017973062173223867,1,left
1.7919999999999998,0.15574196202161242,0.9850747592140109,0.08403208317205796,-0.06344941618542056,0.014320202544975763,-0.03307706868836771,-0.02555858448176169,-0.009784569756100484,0.018181731936545164,1,left
1.796,0.15610316993626164,0.9850028727323951,0.0842144976054208,-0.06373650321249714,0.013743209638662178,-0.03289947288118662,-0.02593263982189494,-0.00987396021044267,0.018383412939214944,1,left
1.7990000000000002,0.15646895142985864,0.9849284021186038,0.0843989693209379,-0.06399168657538133,0.013183518074564955,-0.032721225469771506,-0.026303136712487428,-0.009962977484770489,0.018577653498936236,1,left
1.8019999999999998,0.15683909274973232,0.9848513089908392,0.08458542772063712,-0.06421314379397569,0.012641429641832097,-0.03254230998543683,-0.026669969843755262,-0.010051619142729154,0.018764003675282043,1,left
1.8019999999999998,0.15721337408404337,0.9847715586726694,0.08477379940727892,-0.06439904097584633,0.012117162917474287,-0.03236265048764382,-0.027033037560389606,-0.010139866702245441,0.018942015864124563,1,left
1.807,0.15759156920221182,0.9846891203337979,0.08496400806885611,-0.0645475372171214,0.011610853795669267,-0.03218211299174039,-0.027392241884043364,-0.01022768514145216,0.019111245401175984,1,left
1.807,0.15797344507640265,0.9846039671564069,0.08515597432815676,-0.06465678906597647,0.011122556363388016,-0.032000507236090756,-0.027747488537159817,-0.010315022428316474,0.019271251175175183,1,left
1.811,0.1583587614926624,0.9845160765258049,0.08534961556431385,-0.06472495504923646,0.010652244120836889,-0.03181758878807847,-0.028098686969186028,-0.010401809074225502,0.019421596251230785,1,left
1.8119999999999998,0.15874727065944955,0.9844254302427028,0.08554484571256615,-0.06475020026251734,0.010199811545261376,-0.03163306148846371,-0.0284457503859738,-0.01048795771190705,0.019561848504536447,1,left
1.8119999999999998,0.15913871681980823,0.9843320147539628,0.08574157504652087,-0.06473070102421681,0.009765075996708653,-0.03144658023357264,-0.028788595782015022,-0.010573362698690313,0.01969158126330117,1,left
1.8159999999999998,0.159532835871999,0.9842358213988633,0.08593970994544875,-0.06466464959354642,0.009347779964397635,-0.031257754094792756,-0.029127143973086238,-0.010657899747240905,0.01981037395728583,1,left
1.817,0.1599293550020008,0.9841368466680896,0.08613915264920598,-0.06455025895267329,0.00894759365239641,-0.031066149774843326,-0.02946131962572088,-0.010741425586531102,0.019917812766961557,1,left
1.8230000000000002,0.1603279923297392,0.9840350924721477,0.0863398010053516,-0.0643857676529117,0.008564117903357631,-0.03087129540028442,-0.02979105128106011,-0.010823777655175636,0.020013491269621927,1,left
1.824,0.16072845656890722,0.9839305664151075,0.08654154821450562,-0.06416944472477103,0.008196887459112366,-0.03067268464972113,-0.030116271372681153,-0.010904773828129643,0.02009701108117344,1,left
1.8259999999999998,0.1611304466982851,0.9838232820697255,0.08674428257943086,-0.06389959464710175,0.007845374550167135,-0.03046978120886546,-0.030436916239133974,-0.010984212177114077,0.020167982493642756,1,left
1.827,0.16153365164197817,0.9837132592512575,0.08694788726191185,-0.06357456234830838,0.0075089927721727805,-0.03026202350217887,-0.030752926132133464,-0.011061870765004736,0.02022602510867463,1,left
1.827,0.16193774995696172,0.9836005242884226,0.08715224005020006,-0.06319273817261718,0.007187101146237286,-0.030048829576233053,-0.03106424522134122,-0.011137507474417161,0.020270768467259736,1,left
1.8319999999999999,0.16234240952718448,0.9834851102901364,0.0873572131384877,-0.06275256272210379,0.00687900822597569,-0.029829601968484127,-0.03137082159665792,-0.01121085987071517,0.02030185267589533,1,left
1.8330000000000002,0.16274728726403634,0.9833670574061135,0.08756267291950637,-0.062252531507156594,0.006583976148257595,-0.029603732436571484,-0.03167260726893401,-0.011281645099665538,0.020318929029344776,1,left
1.835,0.16315202881382967,0.9832464130790719,0.08776847979273153,-0.061691199377720565,0.006301224585897326,-0.029370606497811324,-0.031969558169992945,-0.011349559819955581,0.020321660630123653,1,left
1.8359999999999999,0.16355626827288086,0.983123232286826,0.08797448799192341,-0.061067184729628125,0.0060299345945953224,-0.029129607769967748,-0.03226163415284749,-0.011414280170783728,0.020309723004801012,1,left
1.841,0.16395962790854482,0.982997577774256,0.08818054543416515,-0.06037917348457755,0.005769252353281515,-0.028880122112651244,-0.032548798992976045,-0.011475461774725807,0.020282804717164087,1,left
1.841,0.164361717881641,0.9828695202772226,0.08838649358914906,-0.059625922842143256,0.005518292797046652,-0.028621541568673484,-0.03283102039151195,-0.011532739776071445,0.020240607978253645,1,left
1.845,0.1647621359647436,0.9827391387416007,0.08859216736651018,-0.05880626480202254,0.0052761431418804116,-0.028353268104664837,-0.03310826998118471,-0.011585728914815723,0.020182849253234998,1,left
1.8459999999999999,0.16516046725262368,0.9826065205403114,0.08879739502212215,-0.05791910945453975,0.005041866300465501,-0.02807471715023655,-0.03338052333583805,-0.011634023636481116,0.020109259865026683,1,left
1.85,0.16555628386497384,0.9824717616902773,0.08900199808816162,-0.05696344803724121,0.004814504188304869,-0.027785320934943517,-0.033647759984335425,-0.011677198237933386,0.020019586594564993,1,left
1.85,0.1659491446461424,0.982334967069843,0.08920579133322741,-0.05593835575522417,0.0045930809194843466,-0.027484531622275644,-0.03390996342964954,-0.011714807049342803,0.019913592277537872,1,left
1.8559999999999999,0.16633859487014416,0.9821962506350881,0.08940858275815827,-0.0548429943626489,0.004376605891395671,-0.027171824239876446,-0.03416712117391774,-0.0117463846524285,0.019791056397376213,1,left
1.8559999999999999,0.16672416596039172,0.982055735630865,0.0896101736318257,-0.05367661450268663,0.004164076757764622,-0.026846699405156285,-0.03441922475023115,-0.011771446135109049,0.019651775674244424,1,left
1.861,0.1671053752331444,0.9819135547901464,0.08981035856937264,-0.052438557802956684,0.0039544822893460545,-0.02650868584543506,-0.03466626976191061,-0.011789487382666287,0.01949556464972532,1,left
1.8619999999999999,0.16748172567350772,0.9817698505140889,0.09000892565320154,-0.05112825872330451,0.00374680512166179,-0.026157342711714927,-0.03490825593000819,-0.01179998540551204,0.01932225626684687,1,left
1.865,0.1678527057538121,0.9816247750250195,0.09020565659496553,-0.04974524615256851,0.0035400243891686536,-0.025792261685148112,-0.03514518714975859,-0.011802398703628697,0.019131702445050334,1,left
1.8659999999999999,0.16821778930557285,0.9814784904848249,0.09040032693521874,-0.04828914475077793,0.0033331182452523574,-0.025413068875227728,-0.03537707155668996,-0.011796167667734305,0.01892377464965058,1,left
1.869,0.16857643545663334,0.9813311690723668,0.09059270627676647,-0.046759676033016416,0.00312506626744843,-0.025019426508691493,-0.03560392160308941,-0.011780715017201172,0.01869836445529051,1,left
1.87,0.1689280886435639,0.9811829930160622,0.0907825585485142,-0.04515665919097766,0.0029148517472939637,-0.02461103440808874,-0.03582575414550386,-0.011755446274733728,0.018455384102841792,1,left
1.876,0.16927217870578262,0.981034154580939,0.0909696422978648,-0.04348001164802935,0.0027014638642136003,-0.02418763125892064,-0.036042590543942384,-0.011719750277786491,0.018194767049154452,1,left
1.8769999999999998,0.1696081210633156,0.9808848560122796,0.09115371101046989,-0.04172974934339152,0.0024838997428398837,-0.023748995664222197,-0.03625445677343175,-0.011672999726676446,0.017916468509007497,1,left
1.88,0.16993531697701514,0.9807353094397675,0.09133451345657008,-0.03990598674082377,0.0022611663931619164,-0.023294946985412266,-0.03646138354856248,-0.011614551769315968,0.017620465988562494,1,left
1.881,0.17025315389001022,0.9805857367466486,0.09151179406320815,-0.03800893655700503,0.0020322825328871483,-0.02282534596819473,-0.036663406461316314,-0.011543748622673341,0.01730675980972836,1,left
1.881,0.1705610058508325,0.9804363694080509,0.09168529331086411,-0.03603890920457808,0.0017962802913891612,-0.02234009515225044,-0.03686056613079063,-0.011459918232090971,0.016975373625580478,1,left
1.885,0.1708582340192638,0.9802874483019586,0.09185474815232876,-0.033996311944619974,0.0015522067945994786,-0.021839139063415197,-0.037052908360432166,-0.01136237497145648,0.01662635492834039,1,left
1.8869999999999998,0.1711441872550856,0.9801392234960408,0.09201989245193659,-0.031881647743089485,0.0012991256301837944,-0.021322464186994555,-0.03724048429671712,-0.011250420388241157,0.01625977555215687,1,left
1.889,0.17141820278978742,0.9799919540133095,0.09218045744382,-0.02969551382559292,0.0010361181923225992,-0.020790098720821347,-0.037423350584861875,-0.011123343996327981,0.01587573217209312,1,left
1.889,0.17167960698273738,0.9798459075788244,0.09233617220719319,-0.027438599924601677,0.0007622849053930253,-0.020242112106616736,-0.03760156952012386,-0.010980424117613269,0.01547434679926022,1,left
1.8940000000000001,0.17192771616408037,0.9797013603487363,0.09248676415549949,-0.025111686213047876,0.00047674632582290143,-0.01967861433817063,-0.03777520919489955,-0.010820928772269775,0.015055767271201012,1,left
1.8940000000000001,0.17216183756508663,0.9795585966219795,0.0926319595361706,-0.022715640928899886,0.0001786441245195317,-0.019099755050656475,-0.03794434364214494,-0.010644116617304642,0.014620167736421465,1,left
1.895,0.17238127033447845,0.9794179085334765,0.09277148393836508,-0.020251417749518805,-0.00013285803195529965,-0.01850572242457173,-0.038109052975630664,-0.01044923793300004,0.014167749131916747,1,left
1.899,0.17258530663799457,0.9792795957267877,0.09290506280617405,-0.01772005307232029,-0.00045857365488612167,-0.017896741990348852,-0.03826942352753076,-0.01023553565677673,0.013698739652489916,1,left
1.9,0.1727732328368132,0.97914396500466,0.09303242195464871,-0.015122663412470214,-0.0007992925992383974,-0.017273075448858605,-0.038425547983831056,-0.010002246463970983,0.013213395210612308,1,left
1.9040000000000001,0.17294433073743287,0.9790113299568369,0.09315328808641563,-0.012460443073744427,-0.0011557801753234829,-0.016635019593762984,-0.0385775255180306,-0.009748601894963394,0.012711999885526421,1,left
1.905,0.17309787890281342,0.9788820105652083,0.09326738930758843,-0.009734662150566037,-0.0015287761882712785,-0.015982905369034135,-0.03872546192359705,-0.009473829528044058,0.012194866360244541,1,left
1.909,0.17323315401328637,0.9787563327877422,0.09337445564262742,-0.006946664864641611,-0.0019189939031310076,-0.015317097065692524,-0.03886946974562464,-0.009177154197342241,0.01166233634504941,1,left
1.91,0.17334943226520108,0.9786346281240563,0.09347421954859259,-0.004097868228551181,-0.0023271189366258133,-0.014637991655932122,-0.03900966841213169,-0.008857799255090256,0.011114780986057279,1,left
1.913,0.17344599079509712,0.9785172331658821,0.09356641643045042,-0.0011897610284645325,-0.0027538080766342215,-0.013946018262760011,-0.03914618436542266,-0.008514987877430505,0.01055260125735845,1,left
1.9140000000000001,0.1735221091179896,0.9784044891354989,0.09365078516057382,0.0017760968820223666,-0.0031996880305209456,-0.013241637763238577,-0.039279151193928996,-0.008147944412911775,0.00997622833520635,1,left
1.92,0.17357707057005411,0.9782967414147165,0.093727068605405,0.0047980749851114154,-0.0036653541034908773,-0.01252534252338035,-0.039408709764931577,-0.007755895772755657,0.009386123952682953,1,left
1.92,0.1736101637481991,0.9781943390658824,0.09379501415952846,0.007874472207437765,-0.004151368808193377,-0.011797656262708591,-0.039535008358557264,-0.0073380728619066365,0.008782780733226532,1,left
1.923,0.17362068394119085,0.9780976343458391,0.09385437428410484,0.011003516742633149,-0.0046582604068590395,-0.011059134046461225,-0.039658202803431894,-0.006893712049809776,0.008166722501366963,1,left
1.923,0.1736079345478907,0.9780069822145406,0.09390490704478581,0.014183365596494827,-0.005186521387307888,-0.010310362403381512,-0.03977845661436218,-0.006422056679788062,0.007538504568974415,1,left
1.929,0.17357122847783252,0.9779227398406997,0.09394637664439363,0.01741210386359399,-0.005736606874226313,-0.009551959567006186,-0.03989594113240968,-0.005922358615817497,0.006898713995289324,1,left
1.929,0.17350988952951424,0.9778452661061378,0.09397855394775267,0.02068774374430859,-0.006308932977169985,-0.008784575838330776,-0.04001083566771105,-0.005393879825421754,0.006247969818965076,1,left
1.932,0.1734232537420879,0.9777749211093623,0.09400121699898809,0.02400822331141129,-0.006903875076811289,-0.008008894067702393,-0.04012332764539056,-0.00483589399732987,0.005586923260319949,1,left
1.933,0.17331067071490974,0.9777120656686801,0.0940141515336589,0.0273714050354836,-0.0075217660510123975,-0.007225630253762721,-0.04023361275490257,-0.004247688192459866,0.004916257891961714,1,left
1.9369999999999998,0.1731715048877709,0.9776570608261663,0.09401715148861868,0.030775074078561726,-0.00816289444236895,-0.006435534257238169,-0.0403418951031345,-0.003628564526708574,0.004236689775916878,1,left
1.9380000000000002,0.17300513677464985,0.9776102673550013,0.09401001951204724,0.034216936365548484,-0.008827502568934154,-0.005639390627350419,-0.04044838737159397,-0.0029778418839431645,0.0035489675653670324,1,left
1.942,0.1728109641449213,0.9775720452728428,0.09399256747584016,0.03769461644304793,-0.009515784579898993,-0.004838019538598873,-0.040553310977997255,-0.002294857657503137,0.002853872569067201,1,left
1.943,0.17258840314683507,0.9775427533629517,0.09396461699298571,0.04120565513539565,-0.010227884458070793,-0.004032277835646953,-0.040656896242570545,-0.0015789695184327136,0.002152218776495587,1,left
1.9469999999999998,0.17233688936872812,0.977522748703374,0.09392599994261042,0.04474750700776713,-0.010963893971059879,-0.003223060184026903,-0.040759382558944186,-0.0008295572078995686,0.0014448528421782088,1,left
1.9480000000000002,0.17205587883421988,0.9775123862031351,0.09387655900410162,0.0483175376463494,-0.011723850573151834,-0.002411300324362837,-0.040861018567383084,-4.602434779669245e-05,0.0007326540296980111,1,left
1.949,0.1717448489289582,0.9775120181439017,0.09381614819997053,0.05191302076565661,-0.012507735259911239,-0.0015979724277992578,-0.04096206232425512,0.0007721997426299528,1.653411963627801e-05,1,left
1.953,0.17140329925833672,0.9775219937258314,0.09374463344605614,0.05553113515315886,-0.013315470377631344,-0.0007840925503124067,-0.04106278145950414,0.0016256582397480704,-0.0007025627122349527,1,left
1.954,0.17103075243750257,0.977542658616088,0.09366189310698868,0.05916896146147393,-0.01414691738981277,2.9279816425434604e-05,-0.04116345331602363,0.002514865030451526,-0.0014236600422918016,1,left
1.9580000000000002,0.17062675481684003,0.9775743544974089,0.09356781855339917,0.06282347885844486,-0.01500187460292299,0.0008410400999629677,-0.04126436506866346,0.0034403029554101894,-0.002145749371479312,1,left
1.9580000000000002,0.17019087714793574,0.9776174186132435,0.09346231471517982,0.06649156154549099,-0.01588007485375663,0.0016500369101040092,-0.04136581382273325,0.004402422083783289,-0.0028677903244602914,1,left
1.962,0.16972271519594337,0.9776721833058697,0.09334530062382423,0.07016997516097383,-0.016781183163599146,0.0024550702169354567,-0.04146810669229207,0.005401638021951767,-0.003588710877561578,1,left
1.963,0.16922189030348772,0.9777389755442282,0.09321670993761175,0.07385537311685506,-0.017704794378535622,0.0032548894734336416,-0.04157156085851513,0.006438330258929149,-0.004307407617589861,1,left
1.963,0.16868804990987865,0.9778181164389843,0.09307649144532862,0.07754429297364071,-0.018650430840642458,0.004048191753108164,-0.04167650360842946,0.007512840551215721,-0.0050227460335889795,1,left
1.9669999999999999,0.1681208680298456,0.9779099207436217,0.09292460954647962,0.08123315299012276,-0.019617540148937462,0.004833619995843359,-0.04178327235431322,0.008625471349967334,-0.005733560843607324,1,left
1.9669999999999999,0.16752004569877876,0.9780146963414854,0.09276104470834326,0.08491824895296131,-0.020605493054956202,0.005609761432369904,-0.04189221463405638,0.00977648427345768,-0.006438656358537543,1,left
1.972,0.16688531139427604,0.9781327437188424,0.09258579390160433,0.08859575133448239,-0.02161358151255635,0.00637514621689765,-0.04200368809278515,0.010966098627921507,-0.00713680688508099,1,left
1.972,0.16621642144519921,0.9782643554231892,0.09239887101570284,0.09226170279557833,-0.022641016887541273,0.007128246274705468,-0.04211806044605753,0.012194489979975595,-0.007826757169876348,1,left
1.9769999999999999,0.16551316044041833,0.9784098155050316,0.09220030725375267,0.09591201604428833,-0.02368692832993944,0.007867474366914583,-0.04223570942494374,0.01346178878392455,-0.008507222886815314,1,left
1.9769999999999999,0.16477534165008936,0.9785693989413669,0.09199015150649079,0.09954247206061559,-0.02475036131183399,0.008591183374640866,-0.042357022703312534,0.01476807906736922,-0.009176891169548276,1,left
1.982,0.16400280747139961,0.9787433710402094,0.09176847070513733,0.10314871869810316,-0.025830276333692035,0.009297665804686104,-0.04248239780765277,0.016113397178646845,-0.009834421191159215,1,left
1.982,0.16319542990841687,0.9789319868261117,0.0915353501535121,0.10672626967264603,-0.026925547802196293,0.009985153518888311,-0.042612242009769104,0.01749773059974376,-0.010478444792961828,1,left
1.9869999999999999,0.16235311109324135,0.9791354904057168,0.0912908938399841,0.11027050394895917,-0.02803496308263184,0.010651817689206425,-0.04274697220270109,0.01892101682843334,-0.011107567164337763,1,left
1.9869999999999999,0.16147578385351227,0.9793541143113734,0.09103522472964141,0.11377666553505202,-0.029157221728927825,0.011295768980565115,-0.04288701476022683,0.020383142333503884,-0.011720367575502913,1,left
1.993,0.16056341232925025,0.979588078821539,0.09076848503587234,0.11723986369497652,-0.030290934894497894,0.01191505796343072,-0.043032805380324904,0.021883941587053132,-0.012315400165048892,1,left
1.994,0.15961599264007692,0.9798375912582096,0.0904908364691701,0.12065507359002012,-0.03143462492706364,0.012507675758029425,-0.04318478891298277,0.02342319617793793,-0.012891194784063899,1,left
1.9980000000000002,0.15863355360274156,0.9801028452621625,0.09020246046178532,0.1240171373584055,-0.03258672515068206,0.01307155491205333,-0.04334341917275465,0.025000634010578917,-0.013446257898590299,1,left
1.9980000000000002,0.15761615749882107,0.980384020046872,0.08990355836948458,0.1273207656434352,-0.033745579838230594,0.01360457051362918,-0.0435091587364889,0.026615928593431232,-0.013979073552125132,1,left
2.001,0.15656390089215144,0.980681279632647,0.08959435165260728,0.13056053957988073,-0.03490944437763203,0.014104541541247713,-0.043682478726662234,0.028268698421542452,-0.014488104389814405,1,left
2.001,0.15547691549385553,0.9809947720632874,0.08927508203698868,0.13373091324826328,-0.03607648563512522,0.014569232452268915,-0.04386385858077773,0.029958506457728653,-0.014971792745932454,1,left
2.006,0.15435536907038364,0.9813246286078671,0.08894601165431766,0.1368262166065049,-0.03724478251890706,0.014996355011529724,-0.04405378580730355,0.031684859717008074,-0.015428561796173737,1,left
2.0069999999999997,0.15319946638867643,0.9816709629507149,0.08860742316276922,0.13984065890824496,-0.03841232674648522,0.015383570361485636,-0.04425275572865136,0.03344720895903943,-0.015856816776215966,1,left
2.011,0.15200945019396758,0.9820338703734541,0.08825961984986365,0.14276833261691735,-0.03957702381909,0.015728491335216192,-0.0444612712117167,0.035244948493418145,-0.01625494626794073,1,left
2.011,0.1507856022185265,0.9824134269332119,0.08790292571842523,0.14560321782446808,-0.040736694206497365,0.016028685013516362,-0.04467984238652782,0.037077416102788724,-0.016621323554620326,1,left
2.016,0.14952824422025168,0.9828096886406039,0.08753768555510871,0.14833918718336025,-0.04188907474561253,0.016281675527181034,-0.04490898635357563,0.038943893088834676,-0.016954308046297564,1,left
2.016,0.14823773904836593,0.983222690640893,0.0871642649814195,0.1509700113602636,-0.04303182025615534,0.016484947105468214,-0.04514922688011093,0.040843604443727984,-0.01725224677553379,1,left
2.016,0.14691449173288632,0.9836524464021645,0.08678305048809337,0.15348936501955973,-0.04416250537677398,0.016635947371598,-0.045401094084152285,0.04277571913681504,-0.017513475958783633,1,left
2.021,0.145558950595304,0.9840989469148379,0.0863944494529678,0.15589083334450865,-0.04527862662489243,0.016732090886008688,-0.045665124102151275,0.0447393504831846,-0.017736322609873706,1,left
2.021,0.14417160837726092,0.9845621599073983,0.08599889014086917,0.1581679191036214,-0.0463776046835693,0.016770762937948436,-0.04594185873472196,0.04673355654795395,-0.017919106187136307,1,left
2.025,0.1427530033815828,0.9850420290841558,0.08559682168347878,0.16031405026946197,-0.04745678691861068,0.016749323585830738,-0.04623184506644652,0.0487573405531072,-0.01806014026046916,1,left
2.026,0.1413037206176995,0.9855384733914196,0.0851887140376179,0.16232258819676323,-0.048513450129137964,0.016665111946624244,-0.04653563505863116,0.05080965127703893,-0.018157734193167317,1,left
2.033,0.13982439294227983,0.9860513863181761,0.08477505792106356,0.1641868363663844,-0.04954480353476185,0.01651545073438233,-0.04685378511549447,0.05288938344994875,-0.018210194838083706,1,left
2.033,0.1383157021858268,0.986580635236468,0.08435636472587635,0.16590004968906513,-0.05054799199894675,0.016297651044083643,-0.04718685562462245,0.05499537815089848,-0.01821582824851975,1,left
2.0340000000000003,0.13677838025689237,0.9871260607854767,0.08393316640995438,0.16745544430155843,-0.05152009947053443,0.016009017357966983,-0.04753541047256398,0.057126423212425184,-0.018172941404122855,1,left
2.035,0.13521321021688484,0.9876874763015766,0.08350601536745755,0.16884620767754763,-0.05245815259373171,0.01564685271750255,-0.047900016536482064,0.05928125363868202,-0.018079843951937746,1,left
2.036,0.133621027319121,0.9882646672942335,0.0830754842784849,0.1700655088143423,-0.05335912441923543,0.015208463985138336,-0.04828124315281869,0.061458552043154466,-0.017934849962624247,1,left
2.04,0.13200272000558555,0.9888573909656281,0.08264216593892701,0.17110650831687135,-0.054219938166628914,0.014691167138564401,-0.048679661563976066,0.06365694911207094,-0.017736279701714635,1,left
2.041,0.13035923085454648,0.9894653757714809,0.08220667307243225,0.17196236830978034,-0.05503747101967765,0.014092292573879943,-0.04909584434406272,0.0658750240996953,-0.017482461415639482,1,left
2.045,0.12869155747236283,0.9900883210211172,0.08176963812678385,0.17262626216892485,-0.055808557953595656,0.013409190412636506,-0.049530364804800914,0.06811130536175307,-0.017171733132101862,1,left
2.046,0.12700075332364827,0.9907258965152168,0.08133171305617337,0.1730913840752362,-0.05652999559674857,0.012639235811265507,-0.04998379638274112,0.07036427093330375,-0.01680244447422586,1,left
2.05,0.12528792849488285,0.9913777422202756,0.08089356908925198,0.17335095839340323,-0.05719854612913532,0.011779834271163978,-0.05045671200898038,0.07263234915742786,-0.016372958487746683,1,left
2.05,0.12355425038652303,0.9920434679804699,0.08045589648108176,0.17339824887726268,-0.05781094121985661,0.010828426947470542,-0.05094968346263404,0.07491391937114994,-0.01588165348034615,1,left
2.055,0.12180094432741272,0.992722653269547,0.08001940424606481,0.1732265677032199,-0.0583638860056356,0.009782495954314078,-0.051463280709364775,0.07720731265506599,-0.01532692487206915,1,left
2.056,0.12002929410377221,0.993414846985674,0.07958481986933649,0.1728292843324307,-0.0588540631123045,0.008639569664060811,-0.05199807122632856,0.07951081265318768,-0.014707187055583836,1,left
2.061,0.11824064239411987,0.9941195672907615,0.07915288899531742,0.17219983420186616,-0.05927813672100904,0.007397227997821216,-0.05255461931495508,0.08182265646955389,-0.014020875264870673,1,left
2.061,0.11643639110161844,0.9948363014948034,0.07872437509264772,0.17133172724375298,-0.05963275668071238,0.006053107704206759,-0.053133485403039186,0.08414103564819436,-0.013266447450743327,1,left
2.065,0.11461800157662268,0.9955645059863261,0.07830005909405473,0.17021855623223367,-0.05991456266839911,0.004604907623047924,-0.05373522533768095,0.08646409724305891,-0.012442386161417709,1,left
2.066,0.11278699472421702,0.9963036062109112,0.07788073900820917,0.16885400495542438,-0.06012018839819069,0.003050393930499536,-0.05436038967067428,0.08878994498454962,-0.011547200426154224,1,left
2.07,0.11094495099334473,0.9970529966999154,0.07746722949904607,0.16723185621036285,-0.06024626588038357,0.001387405361667114,-0.05500952293800833,0.09111664054931208,-0.010579427639802729,1,left
2.0709999999999997,0.10909351024464263,0.9978120411513631,0.0770603614272302,0.1653459996176349,-0.06028942973121245,-0.0003861415934108495,-0.05568316293521145,0.0934422049399553,-0.009537635445879666,1,left
2.076,0.10723437149356067,0.9985800725650985,0.07666098134828145,0.16319043925174628,-0.060246321533922016,-0.0022722475248950296,-0.05638183999033484,0.09576461998137728,-0.008420423615602579,1,left
2.077,0.10536929252568618,0.999356393434426,0.0762699509615682,0.16075930108256659,-0.06011359425150216,-0.004272824974173651,-0.05710607623644175,0.09808182994037645,-0.007226425920098785,1,left
2.079,0.10350008938322688,1.0001402759961833,0.07588814650412752,0.1580468402224147,-0.05988791669120355,-0.006389693345886343,-0.05785638488553861,0.10039174327522497,-0.005954311992792394,1,left
2.08,0.10162863572395874,1.0009309625402913,0.07551645808335002,0.15504744797258083,-0.05956597802070227,-0.008624573866365856,-0.05863326950595641,0.10269223452187132,-0.004602789178757274,1,left
2.085,0.09975686205497793,1.0017276657787364,0.07515578894237183,0.1517556586622889,-0.059144492335525246,-0.010979084594248704,-0.05943722330445132,0.10498114632044836,-0.003170604369281826,1,left
2.086,0.09788675484290307,1.0025295692736305,0.07480705465151295,0.14816615627229482,-0.058620203277080944,-0.01345473548933962,-0.0602687284103067,0.10725629157086222,-0.001656545828060842,1,left
2.088,0.09602035550103075,1.0033358279247782,0.07447118221882923,0.14427378083449244,-0.05798988870036347,-0.016052923546153522,-0.061128255151482354,0.10951545567942661,-5.944503031051e-05,1,left
2.089,0.09415975925391164,1.0041455685183083,0.07414910911267553,0.14007353459805935,-0.05725036539011214,-0.018774927998902124,-0.062016261308872986,0.11175639884359358,0.0016218214557352686,1,left
2.089,0.09230711388031253,1.0049578903383198,0.07384178218948077,0.1355605879518198,-0.0563984938239135,-0.02162190560504013,-0.06293319133887869,0.11397685833667254,0.0033883300241179435,1,left
2.094,0.09046461833508293,1.0057718658426744,0.0735501565216109,0.13073028509163212,-0.055431182980428324,-0.02459488601483757,-0.06387947556188307,0.11617455078116655,0.005241108017754705,1,left
2.094,0.08863452124946491,1.0065865414027182,0.07327519412277629,0.125578149420724,-0.054345395190612135,-0.027694767234800466,-0.06485552931837858,0.11834717441418302,0.007181131649499596,1,left
2.099,0.08681911930917002,1.0074009381053945,0.07301786257109487,0.12009988868401043,-0.053138151030710006,-0.030922311191343074,-0.06586175209537386,0.12049241135129228,0.00920932386274226,1,left
2.099,0.08502075551014654,1.008214052614837,0.07277913353239993,0.11429139990656237,-0.05180653426164636,-0.03427813939258922,-0.06689852662580269,0.12260792985514286,0.011326552136868975,1,left
2.1,0.08324181729286674,1.0090248580895431,0.07255998118816694,0.10814877433155282,-0.050347696830199976,-0.03776272867054693,-0.06796621796373915,0.12469138661506958,0.013533626243161114,1,left
2.105,0.08148473455762194,1.0098323051505018,0.07236138057371388,0.10166830262211468,-0.04875886395317729,-0.04137640697737956,-0.0690651725383105,0.12674042904385222,0.015831295956959392,1,left
2.106,0.07975197756629797,1.0106353228941227,0.0721843058338376,0.09484648052055182,-0.04703733929926814,-0.045119349218752096,-0.07019571718928695,0.12875269759769697,0.01822024873217783,1,left
2.109,0.0780460547391759,1.0114328199418154,0.07202972840407447,0.08768001503130374,-0.045180510271793546,-0.04899157312359894,-0.07135815818741625,0.13072582812542097,0.02070110734450941,1,left
2.109,0.07636951035623629,1.0122236855171411,0.07189861512536576,0.08016583112304865,-0.04318585338900955,-0.0529929351589168,-0.07255278024266078,0.13265745425272105,0.023274427509925498,1,left
2.114,0.074724922170397,1.0130067905421887,0.07179192629913063,0.07230107893034045,-0.041050939757016236,-0.05712312650033551,-0.07377984550358553,0.13454520980730234,0.0259406954853332,1,left
2.115,0.07311489893580594,1.0137809887467426,0.07171061369023617,0.06408314143418588,-0.038773440629932196,-0.0613816690695901,-0.07503959255123714,0.13638673129052997,0.028700325658518676,1,left
2.1180000000000003,0.07154207784909368,1.0145451177862375,0.0716556184865256,0.05550964259996918,-0.03635113305159913,-0.06576791165038845,-0.0763322353909461,0.1381796604011478,0.03155365813476994,1,left
2.1180000000000003,0.07000912189693254,1.0152980003672307,0.07162786922346089,0.04657845595012562,-0.03378190557267851,-0.07028102609453842,-0.0776579624455779,0.139921646616482,0.034500956327839484,1,left
2.123,0.06851871710067277,1.016038445381709,0.07162827968091048,0.037287713547950484,-0.03106376403659294,-0.07492000363056661,-0.07901693555385253,0.1416103498364148,0.037542404563175244,1,left
2.124,0.06707356964847565,1.0167652490526955,0.07165774675792803,0.027635815367909846,-0.028194837427348903,-0.07968365128742759,-0.08040928897744581,0.14324344309527376,0.04067810570161713,1,left
2.128,0.06567640290580988,1.017477196093186,0.0717171483314227,0.017621439026792047,-0.025173383771856028,-0.08457058844626635,-0.08183512842068189,0.14481861534663584,0.04390807879202656,1,left
2.129,0.06432995429490516,1.0181730608799806,0.07180734110526904,0.007243549849006575,-0.021997796088930214,-0.08957924353355791,-0.08329453006672058,0.1463335743258925,0.04723225676158627,1,left
2.133,0.06303697203346931,1.0188516086443662,0.07192915845707953,-0.0034985887616996985,-0.01866660837673535,-0.09470785086930579,-0.08478753963424018,0.1477860494952623,0.05065048415277871,1,left
2.134,0.06180021172430698,1.0195115966821857,0.07208340829057804,-0.014605404672879891,-0.01517850162998019,-0.09995444768433502,-0.08631417145871163,0.1491737950757712,0.05416251491632148,1,left
2.138,0.060622432790241154,1.0201517755860061,0.07227087090221956,-0.02607700612619253,-0.011532309877744751,-0.10531687132106414,-0.08787440760245663,0.15049459317054736,0.05776801026960915,1,left
2.1390000000000002,0.059506394751274914,1.0207708905025,0.07249229687131355,-0.03791317062323525,-0.007727026232363666,-0.11079275663248515,-0.08946819699777891,0.15174625698359867,0.061466536630480496,1,left
2.1430000000000002,0.05845485334204926,1.021367682419268,0.07274840498301904,-0.05011333362631397,-0.0037618089393436347,-0.11637953359441906,-0.09109545462755418,0.15292663413805452,0.06525756363639951,1,left
2.1430000000000002,0.05747055646747616,1.0219408894862907,0.07303988019233307,-0.0626765771071018,0.0003640125821617224,-0.12207442514644638,-0.09275606074776047,0.15403361009766148,0.06914046225940694,1,left
2.148,0.05655623999418628,1.0224892483769026,0.07336737163470575,-0.0756016179771887,0.004650931719253005,-0.12787444527723815,-0.09444986015652782,0.15506511169512427,0.07311450302746617,1,left
2.148,0.05571462337665688,1.023011495691792,0.07373149068703587,-0.08888679643556778,0.009099258676954622,-0.13377639737033056,-0.09617666151438128,0.1560191107706777,0.07717885436309249,1,left
2.154,0.054948405120270674,1.023506369408043,0.07413280908307236,-0.1025300642691461,0.013709114533506267,-0.13977687282669676,-0.09793623672044743,0.15689362792406564,0.08133258105041896,1,left
2.154,0.05426025808782369,1.0239726103743145,0.07457185708876485,-0.11652897314340689,0.01848042535159213,-0.14587224998077078,-0.09972832034948988,0.1576867363828859,0.08557464284211315,1,left
2.155,0.053652824658412854,1.0244089638533114,0.07504912174358379,-0.13088066292138326,0.023412916358286937,-0.15205869332687125,-0.1015526091530867,0.15839656598603793,0.08990389321487884,1,left
2.158,0.053128711746921874,1.0248141811136424,0.07556504517258213,-0.14558185005013172,0.0285061062069616,-0.15833215307325432,-0.10340876162011978,0.1590213072607848,0.09431907826783217,1,left
2.1590000000000003,0.05269048569077014,1.0251870210738718,0.07612002297263787,-0.16062881605491458,0.0337593013348545,-0.16468836504129858,-0.1052963975770138,0.1595592155357136,0.09881883573183563,1,left
2.162,0.052340667011777545,1.0255262520009503,0.07671440267630969,-0.17601739618231263,0.03917159043047716,-0.1711228509275848,-0.1072150978000181,0.16000861501164126,0.10340169404342228,1,left
2.1630000000000003,0.052081725065192035,1.025830653263612,0.07734848229750436,-0.19174296823449244,0.04474183902548423,-0.17763091894688343,-0.10916440362015271,0.16036790273226684,0.10806607145189019,1,left
2.167,0.051916072591781735,1.0260990171403555,0.07802250896380065,-0.20780044163784583,0.0504686842260967,-0.18420766487429976,-0.11114381651635644,0.16063555243211441,0.11281027515485004,1,left
2.168,0.05184606019057535,1.0263301506820166,0.07873667764089942,-0.22418424679019822,0.056350529599624076,-0.19084797350505173,-0.11315279770070076,0.16081011825905592,0.11763250047244778,1,left
2.168,0.051873970730664895,1.0265228776295123,0.07949112995530419,-0.24088832472977534,0.06238554023237623,-0.19754652054641317,-0.11519076770126793,0.16089023837244207,0.12253083007365838,1,left
2.1719999999999997,0.0520020137207667,1.0266760403870034,0.08028595312132972,-0.2579061171601958,0.06857163797716356,-0.20429777493579265,-0.1172571059483787,0.16087463841760744,0.12750323326827528,1,left
2.1719999999999997,0.0522323196539174,1.0267885020500618,0.08112117897755201,-0.2752305568489167,0.07490649691165512,-0.2110960015417328,-0.11935115036993967,0.16076213487724816,0.13254756537844475,1,left
2.177,0.05256693434343225,1.0268591484885146,0.08199678313669842,-0.29285405840760503,0.08138753903076235,-0.21793526418402134,-0.12147219700176343,0.1605516382998997,0.13766156720381192,1,left
2.178,0.053007813267793094,1.0268868904846309,0.08291268425286823,-0.3107685094736824,0.08801193019519077,-0.22480942893001582,-0.123619499618796,0.16024215640546724,0.14284286459455883,1,left
2.1830000000000003,0.05355681594566739,1.026870665928214,0.0838687434105479,-0.3289652623309442,0.09477657635610323,-0.2317121676617866,-0.125792269393266,0.1598327970674833,0.1480889681468202,1,left
2.1830000000000003,0.05421570036523021,1.0268094420700153,0.08486476364016694,-0.34743512601788945,0.10167812007479846,-0.23863696192956083,-0.12798967458584662,0.15932277117148558,0.15339727303516304,1,left
2.189,0.0549861174933431,1.0267022178340544,0.08590048956567566,-0.3661683589752056,0.10871293735642841,-0.24557710711120076,-0.130210840275998,0.15871139534862425,0.15876505899700932,1,left
2.189,0.055869605889987746,1.026548026188677,0.08697560719211994,-0.3851546622846629,0.11587713481718029,-0.2525257168975326,-0.13245484813772934,0.15799809458332062,0.1641894904840669,1,left
2.1919999999999997,0.05686758645176874,1.0263459365751613,0.08808974384368684,-0.4043831735524561,0.1231665472047417,-0.2594757281234047,-0.13472073626709186,0.15718240469351125,0.16966761699601188,1,left
2.1919999999999997,0.05798135730536561,1.0260950573911745,0.08924246826116519,-0.42384246149078786,0.13057673529224958,-0.26641990596439635,-0.1370074990677812,0.15626397468171913,0.17519637361183657,1,left
2.197,0.0592120888684272,1.0257945385250715,0.09043329086162215,-0.4435205212522118,0.1381029841662949,-0.2733508495191251,-0.13931408720129398,0.1552425689549024,0.18077258173443994,1,left
2.197,0.060560819093642214,1.0254435739359955,0.0916616641567349,-0.46340477057194984,0.14574030192991397,-0.2802609977971009,-0.14163940760814517,0.15411806941073627,0.18639295006419074,1,left
2.201,0.06202844891267224,1.0250414042735012,0.09292698332311478,-0.48348204677405904,0.15348341884184405,-0.2871426361320614,-0.14398232360671362,0.15289047738768952,0.19205407581733944,1,left
2.202,0.06361573789909637,1.024587319529139,0.09422858691745885,-0.5037386046979506,0.16132678691365288,-0.29398790304068156,-0.14634165507633942,0.1515599154759607,0.19775244620529045,1,left
2.207,0.06532330017196061,1.0240806617117364,0.09556575773049585,-0.5241601156023546,0.16926457998667105,-0.3007887975464927,-0.14871617873135076,0.15012662918604414,0.20348444019087358,1,left
2.207,0.06715160056331637,1.023520827538404,0.09693772377675701,-0.5447316671043779,0.17729069431095928,-0.307537186988763,-0.15110462849274822,0.14859098847139893,0.20924633053786992,1,left
2.211,0.06910095107360142,1.022907271133999,0.09834365942105484,-0.5654377642118161,0.18539874964882982,-0.31422481533598706,-0.15350569596432184,0.14695348910139958,0.2150342861701538,1,left
2.2119999999999997,0.07117150763734278,1.0222395067314354,0.09978268664537927,-0.5862623315073525,0.1935820909257118,-0.320843312023504,-0.15591803102001933,0.14521475388045138,0.22084437485691025,1,left
2.2159999999999997,0.0733632672188473,1.0215171113635368,0.10125387646254742,-0.6071887165437073,0.201833790451404,-0.3273842013346123,-0.1583402425094241,0.1433755337088601,0.226672566240471,1,left
2.2159999999999997,0.07567606525318485,1.020739727534733,0.10275625048726048,-0.6281996945091863,0.21014665073499297,-0.33383891234437557,-0.16077089908823775,0.14143670848075332,0.23251473522338842,1,left
2.2230000000000003,0.07810957344077778,1.0199070658573814,0.10428878267841306,-0.6492774742234161,0.21851320791692966,-0.3401987894451143,-0.16320853018069426,0.13939928781406014,0.2383666657314296,1,left
2.224,0.08066329789533908,1.0190189076329728,0.10585040126193332,-0.670403705523344,0.2269257358419547,-0.3464551034723545,-0.1656516270781228,0.1372644116076265,0.2442240548605253,1,left
2.225,0.0833365776390281,1.018075107356147,0.10743999083120064,-0.6915594880998246,0.23537625079673632,-0.35259906344975855,-0.16809864416421036,0.13503335042205333,0.2500825173722538,1,left
2.226,0.08612858343794352,1.0170755951217005,0.10905639460997359,-0.7127253818453029,0.24385651693623947,-0.3586218289712884,-0.17054800023289218,0.13270750568379316,0.2559375904241762,1,left
2.227,0.0890383169721545,1.0160203789190034,0.1106984168534681,-0.7338814187732448,0.2523580524229757,-0.36451452323855593,-0.17299807985112417,0.13028840971355696,0.2617847383778612,1,left
2.2319999999999998,0.09206461033363372,1.0149095468008205,0.11236482535449892,-0.7550071165700464,0.2608721363033924,-0.37026824677099063,-0.1754472347324918,0.12777772557801145,0.26761935757093386,1,left
2.2319999999999998,0.09520612584430162,1.0137432689145534,0.11405435401676403,-0.7760814938401847,0.26938981614574414,-0.3758740918061079,-0.1778937851122603,0.12517724676024294,0.2734367810177649,1,left
2.2359999999999998,0.09846135618798176,1.012521799385409,0.11576570546090814,-0.7970830870813833,0.27790191645043416,-0.3813231573897883,-0.18033602112816274,0.12248889664240123,0.2792322830468893,1,left
2.237,0.10182862485392942,1.0112454780434141,0.11749755363852482,-0.8179899693067038,0.2863990477767653,-0.3866065650710856,-0.18277220421395787,0.11971472779331467,0.285001083891905,1,left
2.238,0.10530608689396612,1.0099147319879553,0.11924854643890156,-0.838779770014716,0.29487161640930176,-0.3917154749626722,-0.1852005685127832,0.11685692105361026,0.2907383542525535,1,left
2.24,0.10889172999938977,1.008530076982859,0.12101730827740592,-0.8594296960889162,0.3033098343199431,-0.39664110184258605,-0.18761932231731465,0.11391778441062016,0.29643921984262134,1,left
2.241,0.11258337590623496,1.0070921186726005,0.12280244265009264,-0.8799165533270651,0.31170372924885065,-0.4013747310574602,-0.19002664954372775,0.11089975165510992,0.3020987659412234,1,left
2.246,0.11637868213578909,1.0056015536085234,0.12460253463157274,-0.9002167685163851,0.32004315484804646,-0.40590773413990144,-0.19242071124643256,0.10780538081162358,0.30771204196394064,1,left
2.247,0.12027514407152161,1.004059170073811,0.12641615329125158,-0.9203064120899326,0.3283178008984864,-0.41023158413715116,-0.194799647180527,0.10463735233400774,0.3132740660701769,1,left
2.25,0.12427009736670146,1.0024658486970657,0.1282418540085041,-0.9401612214229477,0.3365172036246996,-0.4143378706646077,-0.1971615774188799,0.10139846705744987,0.31877982982298436,1,left
2.251,0.12836072067111612,1.0008225628474914,0.13007818067562527,-0.9597566248274476,0.34463075613092936,-0.4182183146972147,-0.1995046040307176,0.09809164389814748,0.3242243029174712,1,left
2.255,0.132544038659986,0.9991303788103477,0.13192366778439057,-0.9790677663027221,0.3526477189825225,-0.42186478311111814,-0.20182681282854364,0.09471991729151318,0.329602437993759,1,left
2.256,0.136816925342736,0.9973904557478599,0.13377684239556112,-0.9980695310987171,0.3605572309561005,-0.4252693029873704,-0.20412627519017343,0.09128643435961749,0.3349091755502961,1,left
2.26,0.14117610762453298,0.995604045456164,0.1356362259907791,-1.016736572148545,0.3683483199817963,-0.42842407568881175,-0.20640104996260963,0.08779445179837658,0.3401394489731559,1,left
2.261,0.14561816909109826,0.9937724919321429,0.1375003362059938,-1.0350433374255437,0.3760099143005644,-0.431321490720587,-0.20864918545442634,0.08424733247480512,0.34528818969675984,1,left
2.267,0.15013955398839132,0.9918972307650828,0.13936768844706132,-1.0529640982794144,0.3835308538592625,-0.43395413938406135,-0.21086872152326264,0.08064854172447819,0.35035033251125874,1,left
2.2680000000000002,0.15473657137226274,0.9899797883677697,0.1412367973905491,-1.0704729788050134,0.39089990196586305,-0.4363148282331807,-0.21305769176495667,0.07700164333917787,0.3553208210315862,1,left
2.27,0.15940539940692675,0.9880217810606882,0.1431061783747292,-1.0875439862963259,0.3981057572267792,-0.43839659234158573,-0.21521412581077415,0.07331029523454198,0.36019461334296515,1,left
2.271,0.16414208979424477,0.986024914021094,0.14497434868767917,-1.1041510428370556,0.4051370657878878,-0.4401927083880254,-0.21733605173910325,0.0695782447873842,0.364966687837398,1,left
2.274,0.16894257231818663,0.9839909801054688,0.14683982876161367,-1.1202680180780662,0.41198243390039335,-0.4416967075668375,-0.21942149860789978,0.0658093238322171,0.36963204925540893,1,left
2.275,0.1738026594897794,0.9819218585496243,0.14870114328382766,-1.1358687632506623,0.4186304408322104,-0.44290238832946266,-0.2214684991140735,0.062007443306381804,0.3741857349470285,1,left
2.279,0.17871805127690318,0.9798195135467446,0.15055682223414377,-1.1509271464633601,0.4250696521450374,-0.44380382896213566,-0.22347509238590732,0.058176587533071186,0.37862282136571823,1,left
2.28,0.18368433990100258,0.9776859927011291,0.15240540185754572,-1.1654170893283913,0.43128863335676304,-0.4443954000040634,-0.2254393269144952,0.05432080813142815,0.3829384308086277,1,left
2.285,0.1886970146804771,0.9755234253541302,0.1542454255802598,-1.1793126049627014,0.43727596400827845,-0.44467177650953926,-0.22735926363007578,0.050444217542805696,0.3871277384162541,1,left
2.286,0.1937514668995127,0.9733340207774771,0.1560754448787184,-1.192587837406644,0.4430202521531688,-0.44462795015657164,-0.2292329791290218,0.04655098216219249,0.3911859794442409,1,left
2.29,0.19884299468221114,0.9711200662276318,0.15789402011326265,-1.2052171025019405,0.4485101492881248,-0.44425924120371446,-0.23105856905212768,0.04264531507623252,0.3951084568111699,1,left
2.291,0.20396680785552967,0.9688839248540885,0.1596997213403543,-1.2171749302687696,0.4537343657412497,-0.4435613102958828,-0.2328341515897318,0.03873146847168966,0.398890548883174,1,left
2.292,0.2091180327900547,0.96662803345484,0.16149112911744362,-1.2284361088200664,0.4586816865347396,-0.44253017011901785,-0.23455787104411402,0.03481372589062806,0.40252771737902365,1,left
2.295,0.21429171721180995,0.9643549000726234,0.1632668353150638,-1.2389757298492552,0.4633409877376838,-0.441162196902533,-0.23622790135449126,0.030896394571025325,0.4060155152362889,1,left
2.296,0.21948283497900825,0.9620671014256076,0.16502544395242316,-1.248769235725717,0.4677012533239674,-0.43945414176752673,-0.23784244951477035,0.026983798049029974,0.4093495943214372,1,left
2.3,0.22468629081751323,0.959767280166326,0.16676557207413045,-1.257792468230285,0.4717515925494665,-0.43740314191779217,-0.23939975885903073,0.023080269086596432,0.41252571294310836,1,left
2.301,0.22989692501127162,0.9574581419628543,0.16848585068531116,-1.2660217189609932,0.47548125786189543,-0.43500673166968795,-0.24089811221453444,0.01919014292574961,0.41553974317004505,1,left
2.305,0.23510951804924102,0.9551424523960275,0.17018492576104394,-1.2734337814371632,0.47887966335580995,-0.43226285331595593,-0.24233583492689853,0.015317750858248646,0.4183876779632461,1,left
2.306,0.2403187952364519,0.9528230336661379,0.171861459344239,-1.2800060049276947,0.48193640378437813,-0.4291698678175889,-0.24371129776189934,0.011467414099445331,0.4210656381314595,1,left
2.307,0.24551943128229844,0.9505027611027573,0.17351413074314542,-1.2857163499629536,0.4846412741258264,-0.42572656530457925,-0.24502291968820955,0.007643437955171255,0.4235698791186635,1,left
2.309,0.2507060548836968,0.9481845594721452,0.17514163783601822,-1.2905434451662932,0.48698428963760015,-0.42193217530397614,-0.24626917054519448,0.0038501062705385987,0.4258967976317101,1,left
