time,gFx,gFy,gFz,ax,ay,az,wx,wy,wz,subject_number,foot
6.65,-0.12224777342977453,0.9813545506642317,-0.15772262345623742,-3.6630790660493253,1.2959258094027992,0.3031414434810833,0.03804448720161749,-0.5225315921369355,-0.8584571427961614,3,right
6.651,-0.11713504390400216,0.9806443111663735,-0.15858550248614936,-3.663007103928595,1.2775350258578422,0.2884043256466198,0.03856093254332011,-0.5415779065730186,-0.8392741230594275,3,right
6.6579999999999995,-0.11212154853903449,0.9799336113468128,-0.15940687583863727,-3.6596891531831828,1.2593862500317508,0.27359937968821746,0.038969058587693485,-0.5600030215573085,-0.8204754406620306,3,right
6.659,-0.10721099998041499,0.9792221137136391,-0.1601866565405541,-3.653141213612778,1.241484028276741,0.25872859901892564,0.0392683607926315,-0.5778029074451131,-0.8020705008541311,3,right
6.66,-0.10240677013879353,0.9785095182820445,-0.16092481449183849,-3.643384792187699,1.223832427085209,0.2437942802825131,0.03945847954094767,-0.5949741111422542,-0.7840680069989924,3,right
6.66,-0.09771189425095933,0.9777955630511612,-0.16162137541263344,-3.6304468014117073,1.206435036709883,0.2287990251029207,0.03953919510992967,-0.6115137616702799,-0.7664759701471212,3,right
6.666,-0.09312907633560412,0.9770800244959554,-0.16227641971000675,-3.614359443183646,1.1892949751544784,0.21374573992185486,0.03951042238172544,-0.6274195769137566,-0.7493017191113378,3,right
6.667999999999999,-0.08866069588784316,0.9763627180867709,-0.16289008126589974,-3.595160078129945,1.172414892484152,0.19863763388162597,0.039372205329525685,-0.6426898713137298,-0.7325519110376401,3,right
6.667999999999999,-0.08430881566921884,0.9756434988460361,-0.1634625461524352,-3.572891080370885,1.155796975405788,0.18347821471015982,0.03912471136582161,-0.6573235638417735,-0.7162325425377566,3,right
6.671,-0.0800751904563243,0.9749222619495553,-0.1639940512856007,-3.547599677674494,1.13944295206888,0.1682712825649455,0.03876822566738528,-0.6713201853495308,-0.7003489614892807,3,right
6.671,-0.07596127659315377,0.974198943379833,-0.16448488303299963,-3.5193377769430088,1.1233540970385227,0.15302092179252552,0.03830314556262319,-0.6846798846245243,-0.6849058795716948,3,right
6.675,-0.07196824216572464,0.973473520640487,-0.1649353757929746,-3.4881617749680287,1.1075312363927787,0.13773149055998712,0.03772997501501152,-0.6974034329090388,-0.6699073855379793,3,right
6.676,-0.06809697760828984,0.9727460135425009,-0.16534591056021014,-3.454132354677669,1.0919747529162493,0.12240760835918922,0.03704931920732657,-0.7094922268747424,-0.6553569591839504,3,right
6.676,-0.06434810656653045,0.9720164850735656,-0.16571691348899184,-3.4173142685697253,1.0766845914564758,0.10705414160638788,0.03626187922533514,-0.7209482900914308,-0.6412574859709687,3,right
6.678999999999999,-0.06072199687448226,0.9712850423603768,-0.16604885446108666,-3.377776113679113,1.061660264679829,0.09167618795950773,0.035368446839299746,-0.7317742730264472,-0.6276112722589416,3,right
6.68,-0.057218771524432034,0.9705518377315704,-0.1663422456611345,-3.335590103898909,1.0469008595583467,0.07627906019726205,0.034369899381344764,-0.7419734516095087,-0.6144200611078264,3,right
6.685,-0.053838319509402176,0.9698170698873422,-0.16659764015982786,-3.290831843987063,1.032405044825704,0.06086827028218561,0.033267194716423185,-0.7515497243958588,-0.6016850486071319,3,right
6.686,-0.05058030641444639,0.9690809851797832,-0.16681563050600495,-3.243580106920443,1.0181710794720003,0.04544951382987915,0.03206136630431916,-0.7605076083588496,-0.5894069006942245,3,right
6.69,-0.04744418464579203,0.9683438790046116,-0.16699684733215403,-3.193916614771019,1.0041968222537636,0.030028654984656244,0.030753518349819948,-0.7688522333412627,-0.5775857704235442,3,right
6.691,-0.044429203211716,0.967606097300839,-0.16714195797820242,-3.141925822975796,0.9904797421775303,0.014611711657333569,0.029344821037891627,-0.7765893351928902,-0.5662213156501469,3,right
6.696000000000001,-0.041534416994762235,0.9668680381496426,-0.1672516651321484,-3.0876947078649133,0.9770169299161006,-0.000795158919116672,0.02783650585039698,-0.7837252476201185,-0.5553127170923042,3,right
6.696000000000001,-0.038758695478671314,0.9661301534568559,-0.16732670547622633,-3.0313125573054323,0.9638051101173248,-0.016185674360339224,0.02622986096060096,-0.7902668927715001,-0.5448586967391991,3,right
6.7,-0.03610073091573907,0.9653929506969339,-0.16736784831870716,-2.97287076431164,0.9508406545660057,-0.03155344107206874,0.024526226701419563,-0.7962217705815525,-0.5348575365710679,3,right
6.7010000000000005,-0.03355904594073931,0.9646569946919549,-0.16737589418570278,-2.912462623466273,0.9381195961602353,-0.046891968006549475,0.022726991103081857,-0.8015979468933009,-0.5253070975604518,3,right
6.704,-0.031132000655859797,0.9639229093965731,-0.16735167334470616,-2.850183129990882,0.9256376436642046,-0.06219468027810081,0.020833585495592683,-0.806404040378371,-0.5162048389245181,3,right
6.705,-0.02881779922772819,0.9631913796578265,-0.16729604423241357,-2.786128781297651,0.9133901972002342,-0.07745493268196219,0.018847480171104845,-0.8106492082717581,-0.5075478375997191,3,right
6.709,-0.026614496052104013,0.9624631529177875,-0.16720989176265993,-2.7203973808493456,0.901372364443472,-0.09266602316046665,0.016770180101035214,-0.8143431309367336,-0.49933280791134643,3,right
6.71,-0.02452000155300021,0.9617390408277735,-0.16709412549524194,-2.653087844148679,0.8895789774833922,-0.10782120626048948,0.014603220702488564,-0.8174959952737156,-0.4915561214118257,3,right
6.7139999999999995,-0.02253208769038203,0.9610199207454764,-0.16694967765437527,-2.5843000066733013,0.8780046103168989,-0.12291370662599586,0.012348163648286935,-0.8201184769853205,-0.48421382686287545,3,right
6.715,-0.020648393254926723,0.9603067370914367,-0.16677750099648203,-2.514134433567788,0.8666435969385007,-0.13793673256937097,0.010006592714640243,-0.8222217217082287,-0.47730167033792364,3,right
6.718999999999999,-0.018866429030332057,0.9596005025484625,-0.16657856653722092,-2.4426922308994903,0.8554900499936656,-0.15288348976505411,0.007580109660236394,-0.8238173250209446,-0.47081511542243126,3,right
6.718999999999999,-0.0171835829020687,0.9589022990950381,-0.1663538611538023,-2.3700748582808413,0.8445378799620937,-0.1677471951088193,0.0050703301302761844,-0.8249173113350091,-0.46474936349102336,3,right
6.725,-0.015597124983561104,0.9582132788689883,-0.1661043850797409,-2.296383942656786,0.8337808148382572,-0.18252109078584486,0.0024788795787296742,-0.8255341116757308,-0.45909937404155954,3,right
6.726,-0.01410421281590171,0.9575346648591136,-0.16583114930569676,-2.221721093052303,0.8232124202771538,-0.19719845859049534,-0.0001926107981531029,-0.8256805403570459,-0.45385988506750047,3,right
6.729,-0.012701896678604151,0.9568677514212214,-0.16553517289453604,-2.1461877160716374,0.812826120173798,-0.21177263454050083,-0.0029425081242835166,-0.8253697705536936,-0.4490254334511327,3,right
6.729,-0.011387125031465556,0.9562139046132822,-0.16521748021600227,-2.069884831937768,0.8026152176455326,-0.2262370238279604,-0.005769181909568853,-0.8246153087725078,-0.44459037536141155,3,right
6.734,-0.010156750094424053,0.955574562343324,-0.16487909811011667,-1.9929128908578306,0.7925729163867885,-0.24058511614931974,-0.008671008126810924,-0.8234309682232716,-0.4405489066413568,3,right
6.736000000000001,-0.009007533563198842,0.9549512343235661,-0.1645210529973617,-1.9153715894977419,0.7826923423664401,-0.25481050145617656,-0.011646373302259386,-0.8218308411184366,-0.4368950831632434,3,right
6.737,-0.007936152452274305,0.9543455018256979,-0.16414436796121565,-1.8373596873470326,0.7729665658384067,-0.26890688616845176,-0.014693678596103108,-0.8198292700805504,-0.4336228410916733,3,right
6.7379999999999995,-0.006939205053369214,0.9537590172347222,-0.16375005983036026,-1.7589748227529887,0.7633886236366387,-0.2828681098911308,-0.017811343801648564,-0.8174408191064764,-0.4307260169250151,3,right
6.7379999999999995,-0.006013216995857334,0.9531935034022236,-0.16333913628900773,-1.680313328401557,0.7539515417260891,-0.29668816267542836,-0.020997811165617643,-0.8146802446871143,-0.4281983671475057,3,right
6.742999999999999,-0.005154647393239223,0.9526507528049133,-0.16291259304959715,-1.6014700460211184,0.7446483579817145,-0.31036120286485686,-0.024251548958731887,-0.8115624675293588,-0.4260335873647091,3,right
6.742999999999999,-0.0043598950564551105,0.9521326265200092,-0.1624714111270243,-1.522538140084157,0.7354721451679765,-0.3238815755662934,-0.027571054773702534,-0.8081025450544468,-0.42422533086683734,3,right
6.744,-0.0036253047524020814,0.9516410530327973,-0.16201655425043304,-1.4436089105171095,0.7264160340888641,-0.33724383174950195,-0.030954858554471366,-0.804315644694961,-0.42276722660480043,3,right
6.747999999999999,-0.0029471734856288453,0.9511780268915863,-0.16154896643904007,-1.3647716056084187,0.7174732368645667,-0.35044274779698276,-0.03440152536604622,-0.8002170179815645,-0.42165289657275246,3,right
6.749,-0.002321756782033354,0.9507456072218408,-0.16106956975710615,-1.286113238429042,0.7086370702656009,-0.3634733449994928,-0.037909657914464136,-0.7958219754095606,-0.420875972591925,3,right
6.752999999999999,-0.0017452749525603166,0.9503459161079104,-0.16057926225262148,-1.207718411259929,0.6999009790212665,-0.376330908310965,-0.04147789882659968,-0.7911458620744303,-0.4204301124915461,3,right
6.754,-0.0012139193109102439,0.9499811368498452,-0.16007891607724958,-1.1296691513409824,0.6912585590339022,-0.3890110038572473,-0.04510493269971692,-0.7862040340646076,-0.4203090156836295,3,right
6.757000000000001,-0.0007238583151722694,0.9496535121024802,-0.15956937578347105,-1.0520447591320334,0.6827035804564178,-0.4015094950186912,-0.04878948793083998,-0.7810118355989,-0.4205064381293881,3,right
6.757999999999999,-0.00027124360246844,0.9493653419016967,-0.15905145679725072,-0.9749216690968635,0.6742300106051344,-0.41382255708728294,-0.05253033833619002,-0.7755845768951525,-0.42101620669597845,3,right
6.763,0.00014778411176731936,0.9491189815793655,-0.15852594406814596,-0.8983733227862221,0.665832036683096,-0.42594669053473627,-0.05632630457110532,-0.7699375127559936,-0.42183223290321403,3,right
6.763,0.0005370892934072292,0.9489168395652826,-0.15799359090267462,-0.8224700539970115,0.6575040882892587,-0.4378787329274426,-0.06017625536102663,-0.7640858218567792,-0.4229485260608015,3,right
6.768,0.0009005360253430307,0.9487613750712579,-0.15745511799057038,-0.7472789857862457,0.6492408596892063,-0.4496158695236439,-0.06407910855429165,-0.7580445867201753,-0.4243592057975512,3,right
6.769,0.0012419826296726044,0.9486550956501498,-0.15691121263452784,-0.6728639391200294,0.6410373318232541,-0.46115564258765007,-0.06803383200764113,-0.7518287743611932,-0.42605851398489286,3,right
6.773,0.0015652764797398282,0.9486005546225722,-0.15636252818964783,-0.5992853529396515,0.6328887940280031,-0.47249595945537287,-0.07203944431549397,-0.7454532175858946,-0.42804082605789145,3,right
6.774,0.0018742489978687477,0.9486003483656772,-0.15580968371062043,-0.5266002154289293,0.6247908654476009,-0.4836350993848891,-0.07609501539420113,-0.7389325969264467,-0.4303006617378027,3,right
6.777,0.002172710826575637,0.9486571134601696,-0.15525326379643017,-0.45486200626915596,0.6167395161111269,-0.4945717192251778,-0.0801996669326369,-0.7322814231947046,-0.43283269516103734,3,right
6.777,0.002464447152372141,0.9487735236927574,-0.15469381861630851,-0.38412064967040316,0.6087310876526884,-0.5053048579356073,-0.08435257272063282,-0.7255140206360318,-0.4356317644202184,3,right
6.782,0.0027532131516572215,0.9489522869117764,-0.15413186409756247,-0.3144224779704907,0.6007623136509528,-0.5158339399881675,-0.0885529588669027,-0.718644510664665,-0.4386928805238107,3,right
6.7829999999999995,0.003042729518887347,0.9491961417345518,-0.15356788225543114,-0.2458102055956445,0.5928303395649801,-0.5261587776838647,-0.09280010391824879,-0.7116867961615411,-0.44201123578158596,3,right
6.787000000000001,0.0033366780314225903,0.9495078541069484,-0.15300232164574668,-0.1783229131797212,0.5849327422433415,-0.5362795724141096,-0.09709333889197728,-0.7046545463151801,-0.4455822116239533,3,right
6.787000000000001,0.0036386971058461432,0.949890213717653,-0.15243559792147315,-0.11199604164186848,0.577067548983627,-0.5461969148973469,-0.1014320472335886,-0.6975611819859163,-0.4494013858639387,3,right
6.792999999999999,0.00395237730690828,0.9503460302701231,-0.1518680944742006,-0.046861396025599376,0.5692332561195503,-0.5559117844205863,-0.1058156647119415,-0.6904198615735212,-0.45346453941133624,3,right
6.794,0.004281256779644185,0.9508781296136407,-0.1513001631423851,0.017052841094515128,0.5614288471129575,-0.565425547114911,-0.11024367926422335,-0.683243467368046,-0.45776766244928074,3,right
6.797000000000001,0.004628816584682258,0.9514893497331176,-0.1507321249698005,0.07972208682900693,0.5536538101281432,-0.5747399532934557,-0.11471563080318913,-0.6760445923635328,-0.46230696008420274,3,right
6.797000000000001,0.004998475925123837,0.952182536596386,-0.1501642709995555,0.14112532599957836,0.5459081550659663,-0.5838571338797645,-0.11923111099926105,-0.6688355275141089,-0.46707885748083067,3,right
6.803,0.005393587260196651,0.9529605398579964,-0.14959686309058084,0.2012450701586321,0.5381924300353431,-0.5927795959538644,-0.1237897630457242,-0.6616282494191814,-0.47208000449063453,3,right
6.803999999999999,0.005817431305592588,0.9538262084197321,-0.14903013474479368,0.26006730778225046,0.530507737239782,-0.6015102174428167,-0.128391281392959,-0.6544344084609246,-0.4773072797629893,3,right
6.805,0.006273211923596779,0.9547823858492734,-0.1484642919342498,0.31758144581298114,0.5228557482567113,-0.6100522409819407,-0.13303541139741923,-0.6472653174829884,-0.4827577942933753,3,right
6.806,0.006764050909280638,0.955831905659146,-0.14789951391809014,0.37378024272510724,0.5152387186874375,-0.6184092669723502,-0.13772194880876762,-0.640131941135898,-0.48842889434379483,3,right
6.807,0.007292982682816999,0.9569775864484549,-0.14733595403941316,0.42865973328135965,0.5076595021556584,-0.6265852458598902,-0.14245073904112487,-0.6330448859781167,-0.494318163691032,3,right
6.812,0.00786294890281156,0.9582222269102807,-0.1467737404939787,0.4822191451462788,0.5001215636325576,-0.6345844696600182,-0.14722167621486817,-0.626014391356046,-0.5004234251946524,3,right
6.812,0.008476793022140456,0.9595686007076643,-0.14621297706566616,0.5344608075176615,0.4926289920666032,-0.6424115627526505,-0.15203470197795807,-0.6190503210498004,-0.5067427416970716,3,right
6.813,0.009137254814971603,0.9610194512203151,-0.14565374382537097,0.5853900520552968,0.4851865122965718,-0.6500714719713989,-0.15688980412037748,-0.6121621556644197,-0.5132744162726043,3,right
6.816,0.009846964907432317,0.962577486162764,-0.1450960977897047,0.635015106990175,0.47779949622787626,-0.6575694560157926,-0.16178701499538925,-0.6053589857463432,-0.5200169918430314,3,right
6.817,0.010608439342397429,0.9642453720732661,-0.14454007353512313,0.6833469863875439,0.47047397325499324,-0.6649110742229839,-0.16672640976143763,-0.5986495056051612,-0.526969250177832,3,right
6.821000000000001,0.01142407420556749,0.9660257286712849,-0.14398568376241047,0.730399377141187,0.46321663991436557,-0.6721021747396283,-0.17170810445864215,-0.5920420078208752,-0.5341302102978435,3,right
6.822,0.012296140341050074,0.9679211230798781,-0.14343291980436113,0.7761885256647973,0.4560348687508827,-0.679148882129494,-0.17673225393395198,-0.5855443784171409,-0.5414991263017144,3,right
6.8260000000000005,0.013226778187256481,0.9699340639085008,-0.14288175206639403,0.820733125148633,0.4489367163786308,-0.6860575844435054,-0.1817990496291506,-0.5791640926812375,-0.5490754846351225,3,right
6.827000000000001,0.014217992761374781,0.9720669951922277,-0.1423321303879677,0.8640542036382123,0.4419309307153687,-0.6928349197738274,-0.18690871724602218,-0.5729082116118003,-0.5568590008233255,3,right
6.831,0.015271648811712071,0.9743222901853554,-0.14178398431234943,0.90617501306663,0.4350269573701158,-0.6994877623122456,-0.19206151430311322,-0.5667833789756653,-0.5648496156882145,3,right
6.831,0.01638946614448435,0.9767022450105116,-0.14123722325219926,0.947120919368502,0.42823494516347865,-0.7060232079327042,-0.1972577275986456,-0.5607958189555126,-0.5730474910716317,3,right
6.836,0.017573015118268445,0.9792090721675875,-0.14069173653844114,0.9869192938000405,0.421565750760612,-0.7124485593174861,-0.20249767059425985,-0.5549513343703498,-0.5814530050873156,3,right
6.837000000000001,0.01882371228917653,0.9818448939084641,-0.14014739334148774,1.0255994055863165,0.4150309423970021,-0.7187713106461627,-0.20778168073439277,-0.5492553054512584,-0.5900667469244261,3,right
6.841,0.020142816185738134,0.9846117354840201,-0.13960404245866093,1.0631923160133918,0.4086428026775847,-0.7249991318661033,-0.21311011671621602,-0.543712689155209,-0.598889511226201,3,right
6.841,0.021531423194027507,0.9875115182720596,-0.13906151196873134,1.0997307740797182,0.4024143304300622,-0.7311398525630176,-0.21848335572519093,-0.5383280190001717,-0.6079222920678944,3,right
6.846,0.02299046353819714,0.9905460527997398,-0.13851960876024536,1.1352491138179848,0.39635924159367625,-0.7372014454497136,-0.22390179065141866,-0.5331054054051676,-0.6171662765587406,3,right
6.847,0.02452069734759612,0.9937170316788909,-0.13797811794288226,1.1697831533954806,0.39049196912511036,-0.7431920094909755,-0.22936582730209418,-0.5280485365193485,-0.626622838093293,3,right
6.851,0.026122710809118436,0.9970260224743013,-0.1374368021529409,1.2033700960980105,0.3848276619036602,-0.7491197526822235,-0.2348758816255009,-0.5231606795246446,-0.6362935292780885,3,right
6.852,0.027796912411564255,1.0004744605241593,-0.1368954007681633,1.2360484332994772,0.3793821826183073,-0.754992974499382,-0.24043237696211225,-0.5184446823969872,-0.646180074560196,3,right
6.858,0.02954352929536178,1.0040636417302546,-0.1363536290538959,1.2678578495164143,0.3741721046198751,-0.7608200480371867,-0.24603574133849812,-0.5139029761115833,-0.6562843625848195,3,right
6.859,0.03136260372557947,1.007794715334061,-0.1358111772709829,1.2988391296440434,0.3692147077220275,-0.7666094018529758,-0.2516864048198656,-0.5095375772782094,-0.6666084383097383,3,right
6.86,0.033253989710086515,1.0116686766936953,-0.13526770978346164,1.3290340684678135,0.364527972935504,-0.7723695015328537,-0.25738479693719785,-0.50535009119298,-0.677154494904993,3,right
6.86,0.03521734978757999,1.0156863600759538,-0.13472286420750837,1.3584853825418917,0.36013057612065996,-0.7781088309969895,-0.2631313442050883,-0.5013417152935493,-0.6879248654668466,3,right
6.865,0.03725215201043153,1.0198484314767433,-0.13417625064067562,1.3872366245236958,0.3560418805441114,-0.783835873560696,-0.26892646774650464,-0.497513243005208,-0.6989220145756835,3,right
6.8660000000000005,0.039357667144838716,1.0241553814822606,-0.1336274510045201,1.4153321000513046,0.35228192832605876,-0.7895590927678549,-0.2747705810408529,-0.49386506796584895,-0.7101485297281489,3,right
6.87,0.04153296610608452,1.0286075181826195,-0.13307601852670542,1.4428167872484428,0.3488714307657002,-0.7952869130131959,-0.2806640878118513,-0.4903971886182885,-0.7216071126744737,3,right
6.871,0.043776917639672536,1.033204960149444,-0.13252147738115344,1.4697362589397323,0.3458317575330308,-0.8010276999698989,-0.28660738007186237,-0.4871092131589452,-0.7333005706925817,3,right
6.871,0.04608818625118436,1.0379476294891388,-0.13196332249733356,1.4961366076570162,0.34318492471627204,-0.8067897408389796,-0.2926008363322324,-0.48400036483211356,-0.7452318078189731,3,right
6.875,0.04846523038246952,1.0428352449838145,-0.13140101954373917,1.5220643735158128,0.34095358171517914,-0.8125812244369304,-0.2986448199531287,-0.4810694875581733,-0.7574038159957308,3,right
6.875,0.050906300830444465,1.0478673153314362,-0.13083400508770504,1.5475664750393283,0.3391609969715425,-0.8184102211381256,-0.3047396775413465,-0.47831505188204426,-0.7698196659833011,3,right
6.881,0.05340943940426116,1.0530431324953615,-0.13026168693477297,1.5726901430059699,0.3378310425293275,-0.8242846626885626,-0.3108857372684992,-0.47573516122729875,-0.7824824978280739,3,right
6.882000000000001,0.05597247781483691,1.0583617651721486,-0.12968344465384887,1.5974828573330904,0.3369881774119485,-0.830212321919421,-0.31708330701835347,-0.4733275584432665,-0.7953955107357885,3,right
6.882000000000001,0.05859303679031936,1.0638220523869146,-0.1290986302952781,1.6219922866992087,0.3366574297747082,-0.8362007924481666,-0.3233326723373776,-0.4710896326355183,-0.8085619523128624,3,right
6.885,0.06126852541449696,1.0694225972274556,-0.1285065693052526,1.646266230049175,0.3368643777364614,-0.8422574685615085,-0.32963409419891954,-0.4690184262720292,-0.821985107199764,3,right
6.886,0.06399614069063364,1.0751617607302841,-0.12790656163319056,1.6703525588165373,0.3376351287652351,-0.8483895255338021,-0.3359878065988188,-0.46711064255810064,-0.8356682851335322,3,right
6.893,0.06677286733731208,1.0810376559327426,-0.12729788302243997,1.6942991590058152,0.33899629752473665,-0.8546039005755356,-0.34239401400040564,-0.4653626530736037,-0.8496148084772726,3,right
6.894,0.0695954778240374,1.0870481421056597,-0.12667978647046135,1.7181538728333992,0.3409749821455306,-0.8609072745002769,-0.34885288864699143,-0.4637705056665892,-0.8638279992551994,3,right
6.894,0.072460532653205,1.093190819181052,-0.12605150384205133,1.7419644399345189,0.34359873891701115,-0.867306054139541,-0.3553645677601014,-0.4623299325977734,-0.8783111657325384,3,right
6.895,0.07536438089304041,1.0994630223900226,-0.12541224761945677,1.7657784382051702,0.3468955554041376,-0.8738063555234417,-0.3619291506418548,-0.4610363589308718,-0.8930675885803617,3,right
6.899,0.07830316096374129,1.1058618171287298,-0.12476121277798798,1.7896432243476386,0.3508938219946781,-0.8804139878452534,-0.36854669570004667,-0.45988491116419683,-0.9081005066661932,3,right
6.899,0.08127280167603543,1.1123839940748734,-0.12409757878103737,1.8136058741881178,0.35562230188455807,-0.8871344382282753,-0.3752172174146381,-0.45887042609937095,-0.9234131025119979,3,right
6.904,0.08426902351880003,1.1190260645809669,-0.12342051168800634,1.8377131228349406,0.3611100995108459,-0.8939728573136849,-0.3819406832645138,-0.4579874599434291,-0.9390084874619526,3,right
6.905,0.08728734019290028,1.125784256371451,-0.12272916636279187,1.8620113047460776,0.3673866274439239,-0.9009340456883744,-0.38871701063351605,-0.45723029764099155,-0.9548896866031918,3,right
6.91,0.09032306039351205,1.1326545095683014,-0.12202268876544328,1.8865462937748463,0.37448157175249047,-0.9080224411720874,-0.3955460637149191,-0.4565929624335808,-0.9710596234835233,3,right
6.91,0.09337128985139327,1.1396324730654313,-0.12130021830944426,1.9113634432631788,0.3824248558572219,-0.9152421069835124,-0.4024276504336583,-0.45606922564353414,-0.9875211046709216,3,right
6.914,0.09642693365174333,1.1467135012676273,-0.12056089027015368,1.936507526252354,0.3912466028911886,-0.9225967208053371,-0.4093615194057791,-0.45565261668032353,-1.0042768042004286,3,right
6.915,0.09948469885459509,1.1538926512071053,-0.11980383823332941,1.9620226758817734,0.4009770965874723,-0.9300895647686385,-0.4163473569547249,-0.45533643326743806,-1.021329247954918,3,right
6.917999999999999,0.10253909744197198,1.1611646800512636,-0.11902819657649572,1.987952326047167,0.411646740716868,-0.9377235163773557,-0.4233847842042319,-0.4551137518883115,-1.0386807980270205,3,right
6.917999999999999,0.10558444961622446,1.1685240430180401,-0.11823310298075489,2.0143391523905603,0.4232860171010778,-0.9455010403939795,-0.4304733542677486,-0.45497743845008326,-1.0563336371103478,3,right
6.9239999999999995,0.10861488747442336,1.175964891719516,-0.11741770097414728,2.041225013695392,0.4359254422294166,-0.953424181707991,-0.437612549554448,-0.45492015916426914,-1.07428975296901,3,right
6.925,0.11162435908653214,1.1834810729599339,-0.11658114250746747,2.068650893761366,0.4495955225097443,-0.9614945592089847,-0.4448017792120495,-0.45493439164368704,-1.0925509230352757,3,right
6.93,0.11460663300807532,1.1910661280199097,-0.11572259056027318,2.0966568438349245,0.4643267081871293,-0.9697133606868231,-0.4520403767268108,-0.4550124362152308,-1.111118699186091,3,right
6.93,0.11755530325851463,1.1987132924615784,-0.11484122177134892,2.1252819256726734,0.480149345966616,-0.9780813387815871,-0.45932759770119874,-0.45514642744831035,-1.1299943927500473,3,right
6.935,0.12046379479410135,1.206415496488772,-0.11393622908670864,2.154564155316629,0.4970936303794346,-0.9865988080065093,-0.4666626178298904,-0.45532834589898397,-1.149179059797254,3,right
6.936,0.12332536949862025,1.2141653658946523,-0.11300682441985456,2.184540447661825,0.5151895539350363,-0.9952656428675023,-0.4740445310948968,-0.4555500300699879,-1.1686734867654676,3,right
6.938,0.12613313270596188,1.2219552236288855,-0.11205224132090577,2.2152465618985926,0.534466856104473,-1.0040812771033198,-0.4814723482007432,-0.45580318858703306,-1.1884781764766983,3,right
6.939,0.12888004025580393,1.2297770920165119,-0.11107173765080118,2.2467170479137164,0.5549549711838633,-1.0130447040708226,-0.48894499526230284,-0.4560794125863872,-1.2085933345825817,3,right
6.94,0.1315589060731732,1.2376226956588081,-0.110064598254579,2.278985193736656,0.5766829750899924,-1.0221544783002416,-0.4964613127156704,-0.45637018828145154,-1.229018856393553,3,right
6.943,0.13416241025805228,1.245483465042671,-0.1090301376246017,2.312082974119114,0.59967953114349,-1.0314087182457634,-0.5040200543463585,-0.4566669096267638,-1.2497543138962972,3,right
6.943,0.13668310766860975,1.2533505408808554,-0.10796770253906704,2.346041000338433,0.6239728348985021,-1.040805110257182,-0.5116198862868808,-0.45696089097050036,-1.2707989426807023,3,right
6.9479999999999995,0.13911343697595557,1.2612147792015627,-0.10687667465351051,2.3808884713175877,0.6495905580813411,-1.0503409137987874,-0.5192593858782595,-0.45724337961401773,-1.292151628582572,3,right
6.949,0.14144573016277548,1.269066757203419,-0.10575647301737384,2.416653126128901,0.6765597916909584,-1.0600129679178942,-0.5269370403663489,-0.457505568246356,-1.3138108940006976,3,right
6.95,0.1436722224395117,1.2768967798925703,-0.10460655648708587,2.4533611978109877,0.7049069882514226,-1.0698176988449737,-0.5346512454463345,-0.45773860724904464,-1.3357748839319128,3,right
6.954,0.1457850625595462,1.284694887520853,-0.10342642601042744,2.4910373681788256,0.7346579030908951,-1.079751128390203,-0.5424003036773482,-0.4579336168720038,-1.3580413517854684,3,right
6.954,0.1477763235227035,1.2924508638433836,-0.10221562676165717,2.5297047231693854,0.7658375344590839,-1.089808882680784,-0.5501824227892559,-0.45808169928127457,-1.380607645038946,3,right
6.957999999999999,0.1496380136617589,1.300154245209246,-0.1009737501136128,2.5693847084080566,0.7984700623655082,-1.099986200904617,-0.5579957139037717,-0.4581739504792286,-1.4034706907988037,3,right
6.959,0.15136208811344481,1.3077943304941988,-0.09970043544570396,2.6100970849360445,0.8325787861444254,-1.1102779439438313,-0.5658381896921562,-0.458201472097799,-1.4266269813295098,3,right
6.962999999999999,0.1529404606851473,1.3153601918838014,-0.09839537180389231,2.6518598851818442,0.868186060822768,-1.12067860290288,-0.5737077624918525,-0.4581553830651379,-1.4500725596160866,3,right
6.9639999999999995,0.15436501613488265,1.3228406865191655,-0.09705829944014292,2.694689369290825,0.9053132323848851,-1.1311823075604284,-0.5816022424044991,-0.45802683114594633,-1.473803005025736,3,right
6.9670000000000005,0.15562762287896906,1.3302244690215923,-0.09568901125625005,2.738599981929924,0.9439805720321224,-1.1417828347745866,-0.5895193353978453,-0.4578070043555368,-1.4978134191350607,3,right
6.968,0.15672014613054602,1.3375000049129695,-0.09428735416335536,2.783604309687448,0.984207209539574,-1.1524736168713547,-0.5974566414341729,-0.4574871422474774,-1.5220984117902263,3,right
6.972,0.15763446145959947,1.3446555849455526,-0.09285323035357348,2.8297130391910676,1.02601106581671,-1.1632477500464387,-0.605411652647895,-0.45705854707442894,-1.5466520874682215,3,right
6.973,0.15836246875684817,1.351679340348359,-0.0913865984712849,2.8769349160701556,1.069408784783,-1.1740980028108774,-0.6133817515950736,-0.4565125948215241,-1.5714680320081806,3,right
6.979,0.15889610658113754,1.3585592589875763,-0.08988747467057566,2.925276704891792,1.1144156646741308,-1.1850168245111778,-0.6213642095976497,-0.4558407461113515,-1.5965392997825225,3,right
6.98,0.15922736687183034,1.3652832024254982,-0.08835593355095618,2.9747431502029067,1.1610455888989475,-1.1959963539548921,-0.6293561852052356,-0.45503455697929507,-1.6218584013784259,3,right
6.982,0.15934831001236546,1.3718389238496789,-0.08679210897634303,3.025336938814232,1.2093109565718199,-1.2070284281727925,-0.6373547227973568,-0.4540856895176421,-1.647417291860917,3,right
6.983,0.1592510802375094,1.378214086836937,-0.08519619480364576,3.0770586634649457,1.2592226128497557,-1.2181045913489923,-0.6453567513490701,-0.45298592238651086,-1.6732073596895765,3,right
6.987,0.15892792138432385,1.3843962849206055,-0.0835684455726946,3.129906788010121,1.3107897792082452,-1.2292161039505363,-0.6533590833829114,-0.45172716118926465,-1.6992194163615846,3,right
6.9879999999999995,0.15837119299410152,1.3903730619436803,-0.08190917722478105,3.183877614276322,1.3640199837945115,-1.2403539520881368,-0.6613584141301417,-0.4503014487096683,-1.7254436868545036,3,right
6.992000000000001,0.15757338677694085,1.3961319331972641,-0.0802187679083873,3.2389652507339233,1.4189189920015715,-1.2515088571398527,-0.6693513209242749,-0.448700975007611,-1.7518698009428746,3,right
6.992999999999999,0.1565271434506011,1.4016604073515686,-0.07849765889868361,3.2951615831379586,1.47549073741126,-1.2626712856696158,-0.6773342628498669,-0.44691808736976085,-1.778486785463328,3,right
6.997999999999999,0.1552252699619284,1.4069460091792407,-0.07674635561934832,3.3524562472925483,1.533737253259149,-1.2738314596725773,-0.6853035806695392,-0.44494530011104033,-1.805283057603522,3,right
6.997999999999999,0.15366075709505403,1.4119763030506163,-0.07496542872644492,3.410836604097123,1.5936586045790766,-1.2849793671792986,-0.6932554970521915,-0.4427753042223076,-1.8322464192907981,3,right
7.002000000000001,0.15182679746587507,1.4167389171553397,-0.07315551519632978,3.4702877170358652,1.6552528211898088,-1.2961047732508373,-0.7011861171253261,-0.4404009768591051,-1.8593640527569977,3,right
7.002999999999999,0.1497168038945785,1.4212215683809812,-0.07131731934938788,3.5307923322749284,1.7185158316911584,-1.3071972313967604,-0.7090914293743734,-0.4378153906657943,-1.8866225173563875,3,right
7.007000000000001,0.14732442813621366,1.4254120877600762,-0.06945161373782079,3.5923308615351273,1.783441398641698,-1.3182460954480923,-0.7169673069118501,-0.435011822928825,-1.9140077477141244,3,right
7.007999999999999,0.14464357993508767,1.4292984463838396,-0.06755923982816854,3.654881367910827,1.8500210550949991,-1.3292405319171325,-0.7248095091391261,-0.43198376455230575,-1.941505053283136,3,right
7.007999999999999,0.14166844635521378,1.4328687816753798,-0.06564110841620013,3.7184195548088192,1.9182440426761234,-1.3401695328759875,-0.7326136838142184,-0.4287249288513582,-1.9690991193620333,3,right
7.013,0.13839351133199254,1.4361114239217954,-0.0636981997230707,3.782918758183916,1.9880972513848598,-1.3510219293855341,-0.7403753694925319,-0.4252292601727478,-1.9967740094987534,3,right
7.013999999999999,0.13481357539232788,1.4390149229827678,-0.061731563136999346,3.848349942250904,2.059565161316953,-1.361786405506374,-0.7480899982238298,-0.4214909423779776,-2.0245131689740323,3,right
7.017,0.13092377549419015,1.4415680751104487,-0.05974231658037148,3.9146816988037725,2.132629786485135,-1.37245151291012,-0.7557528983421924,-0.4175044072380008,-2.052299428930805,3,right
7.018,0.12671960493653658,1.4437599498231053,-0.057731645493741636,3.9818802500181683,2.2072706208557324,-1.383005686043984,-0.7633592972320132,-0.41326434277339924,-2.0801150108441404,3,right
7.018,0.1221969332907054,1.4455799167815109,-0.05570080143693398,4.0499094541517575,2.2834645865939702,-1.3934372576841076,-0.7709043240364917,-0.4087657015468327,-2.1079415312574223,3,right
7.022,0.11735202630540473,1.447017672626126,-0.053651100317539405,4.118730813302016,2.3611859844449405,-1.4037344746476348,-0.7783830123213393,-0.4040037088992254,-2.1357600068388995,3,right
7.023,0.11218156573373253,1.448063267737087,-0.051583920267527804,4.188303482641208,2.4404064462524553,-1.4138855134983657,-0.7857903027155435,-0.39897387111749516,-2.1635508598384727,3,right
7.026,0.10668266902348775,1.4487071328782304,-0.04950069919387458,4.258584281014613,2.5210948897497527,-1.4238784961977522,-0.7931210455508507,-0.39367198352089455,-2.1912939240246208,3,right
7.027,0.10085290880503926,1.44894010568661,-0.047402932026227286,4.329527703048069,2.6032174758311277,-1.4337015057177527,-0.8003700035214444,-0.388094138452271,-2.2189684511813335,3,right
7.031000000000001,0.09469033210161085,1.4487534569683922,-0.045292167673353596,4.401085932964603,2.6867375685319907,-1.443342601644688,-0.8075318543850833,-0.3822367331597906,-2.2465531182448446,3,right
7.032,0.08819347917067633,1.4481389167554881,-0.0431700056803961,4.47320886031194,2.7716156979490862,-1.4527898358027806,-0.8146011937267515,-0.37609647755388464,-2.2740260351598174,3,right
7.0360000000000005,0.08136140186044247,1.447088700062985,-0.041038092555711794,4.5458440978046175,2.857809526336706,-1.4620312679255665,-0.821572537805629,-0.3696704018233875,-2.3013647535344437,3,right
7.037000000000001,0.07419368133269857,1.4455955322672895,-0.038898117719621796,4.618937001486121,2.945273817618738,-1.471054981402852,-0.8284403265059486,-0.3629558638940324,-2.328546276173648,3,right
7.041,0.06669044496620084,1.443652674002428,-0.03675180902614769,4.692430693418165,3.0339604105603004,-1.4798490991303281,-0.8351989264120343,-0.3559505567116588,-2.3555470675692725,3,right
7.042000000000001,0.058852382219580654,1.4412539454496804,-0.0346009278252879,4.766266087105623,3.1238181958464675,-1.488401799488368,-0.8418426340275363,-0.3486525153316669,-2.3823430654257245,3,right
7.046,0.050680759206320945,1.4383937498754262,-0.03244726356556134,4.84038191586699,3.214793097319251,-1.4967013324759013,-0.8483656791585794,-0.34106012379542255,-2.4089096932991336,3,right
7.047000000000001,0.0421774317205897,1.4350670962565009,-0.030292627979102368,4.914714764361362,3.306828057627497,-1.5047360360246063,-0.8547622284802281,-0.33317212177348676,-2.4352218744275205,3,right
7.051,0.033344856451305305,1.431269620825721,-0.02813884893797246,4.989199103483908,3.3998630285477196,-1.512494352517959,-0.8610263893053426,-0.3249876109546988,-2.461254046828907,3,right
7.0520000000000005,0.024186100131153333,1.4269976073759787,-0.02598776411426326,5.063767328842632,3.493834966237097,-1.519964845538961,-0.8671522135745509,-0.31650606115930063,-2.4869801797436324,3,right
7.055,0.014704846388738695,1.4222480061786709,-0.023841214610119833,5.138349803029796,3.5886778316828853,-1.527136216869601,-0.8731337020857001,-0.30772731615343984,-2.5123737914964113,3,right
7.056,0.004905400108512221,1.4170184513962403,-0.02170103873830487,5.2128749019018565,3.6843225966153903,-1.5339973237643176,-0.8789648089807702,-0.2986515991415387,-2.537407968852853,3,right
7.06,-0.005207310846349273,1.4113072768941817,-0.019569066125946933,5.287269065081957,3.7806972551543003,-1.5405371965188892,-0.884639446507835,-0.28927951791216305,-2.562055387944297,3,right
7.061,-0.015627736634210403,1.405113530381786,-0.017447112289203506,5.3614568508990965,3.8777268414607007,-1.5467450563553384,-0.8901514900752396,-0.2796120696121727,-2.5862883368338547,3,right
7.065,-0.026349709185567612,1.3984369858303318,-0.01533697379531551,5.435360995977897,3.9753334536693634,-1.5526103336425339,-0.8954947836147328,-0.26965064512308334,-2.6100787397955103,3,right
7.065,-0.03736644867925917,1.3912781541300592,-0.013240424099341284,5.5089024796925194,4.073436284378024,-1.5581226864712516,-0.9006631452698433,-0.2593970330127172,-2.6333981833770315,3,right
7.07,-0.048670572678998936,1.3836382919527699,-0.011159210118248651,5.582000593697696,4.1719516579722065,-1.5632720196015104,-0.9056503734253218,-0.24885342303437485,-2.6562179443162406,3,right
7.071000000000001,-0.06025410783513204,1.3755194087858373,-0.009095049583365987,5.6545730167490005,4.270793075065821,-1.568048503799007,-0.9104502530929844,-0.23802240914491435,-2.678509019378934,3,right
7.075,-0.07210850403266872,1.3669242720961154,-0.007049629191270235,5.726535895023448,4.36987126433919,-1.572442595576463,-0.9150565626687905,-0.22690699201228745,-2.7002421571853708,3,right
7.075,-0.08422465084696354,1.3578564105715263,-0.005024603552823893,5.79780392815026,4.469094242057301,-1.576445057354656,-0.9194630810663593,-0.2155105809903373,-2.7213878920433943,3,right
7.0760000000000005,-0.09659289616252963,1.3483201153799391,-0.0030215949228855317,5.868290461160066,4.568367379552062,-1.5800469780568385,-0.9236635951860263,-0.2038369955782813,-2.74191657956754,3,right
7.081,-0.10920306682139898,1.3383204393826087,-0.0010421936803044769,5.937907582559113,4.66759347895298,-1.5832397941491427,-0.9276519075959808,-0.19189046645428257,-2.7617984334349592,3,right
7.082000000000001,-0.12204449116845062,1.3278631942386787,0.0009120404889815582,6.006566228733016,4.766672857451092,-1.5860153111384563,-0.9314218442558909,-0.17967563621215005,-2.7810035623901226,3,right
7.086,-0.13510602333477642,1.316954945335212,0.0028395767824845276,6.07417629478038,4.865503440264693,-1.5883657255040111,-0.9349672621583907,-0.1671975598889704,-2.7995020068456715,3,right
7.087000000000001,-0.14837606908064904,1.3056030044803344,0.004738910955320904,6.140646751364333,4.9639808618930505,-1.5902836468673456,-0.9382820568452002,-0.1544617052978922,-2.8172637748518543,3,right
7.087999999999999,-0.16184261303391165,1.2938154203111831,0.0066085626189626165,6.205885766249519,5.06199857419592,-1.591762119897365,-0.9413601697995846,-0.14147395313907316,-2.8342588774422124,3,right
7.09,-0.17549324716861578,1.2816009663902932,0.008447072366258504,6.269800828679333,5.159447959253747,-1.5927946452755917,-0.9441955957253245,-0.12824059685295533,-2.8504573634085997,3,right
7.091,-0.18931520033301052,1.2689691269872176,0.010252999035525961,6.3322988752546605,5.25621844554463,-1.5933751992158585,-0.9467823897217058,-0.11476834217929448,-2.8658293535564905,3,right
7.093999999999999,-0.20329536858273,1.255930080562963,0.01202491752342686,6.393286416889576,5.352197627020745,-1.5934982513381946,-0.9491146743633593,-0.10106430638464678,-2.8803450744893366,3,right
7.095,-0.217420346053372,1.2424946809944104,0.013761417536901896,6.45266966692543,5.447271385247503,-1.5931587808657661,-0.9511866466930833,-0.08713601712031138,-2.893974891968439,3,right
7.101,-0.2316764561335313,1.2286744365972335,0.015461103514534603,6.510354670582675,5.541324014883198,-1.592352291146532,-0.952992585135066,-0.07299141087204193,-2.9066893438924386,3,right
7.102,-0.2460497827671759,1.214481487028424,0.0171225957277558,6.566247435925424,5.6342383527746085,-1.5910748224999565,-0.9545268563351978,-0.05863883096217528,-2.918459172938049,3,right
7.104,-0.26052620180502084,1.1999285781708393,0.01874453239970332,6.620254066509131,5.725895910941437,-1.589322963387794,-0.955783921934411,-0.04408702506418219,-2.929255358901137,3,right
7.105,-0.27509141241172347,1.1850290351214423,0.020325572603938122,6.672280895876898,5.81617701371952,-1.5870938599066218,-0.9567583452802243,-0.029345142189024346,-2.9390491507746033,3,right
7.11,-0.2897309685947813,1.1697967334231436,0.0218643997047626,6.7222346240648,5.904960939329473,-1.5843852235984386,-0.9574447980808863,-0.014422729102105361,-2.9478120985968115,3,right
7.111000000000001,-0.3044303109414933,1.1542460686997893,0.023359725130331042,6.770022456271131,5.9921260661338165,-1.5811953375742984,-0.9578380670057197,0.0006702738709679477,-2.955516085101525,3,right
7.115,-0.3191747986369069,1.1383919248764716,0.024810292301036343,6.815552243838861,6.07755002384168,-1.5775230609445619,-0.9579330602344509,0.015923537692143018,-2.962133357197423,3,right
7.1160000000000005,-0.3339497418011883,1.1222496411907426,0.02621488055937494,6.858732627694589,6.161109849915875,-1.573367831547989,-0.957724813957489,0.03132635015504436,-2.9676365573023027,3,right
7.12,-0.348740434142783,1.1058349782197814,0.027572308961555863,6.899473184381088,6.242682151432469,-1.5687296669705006,-0.9572084988282699,0.046867622168797675,-2.9719987545540536,3,right
7.121,-0.3635321858824454,1.0891640831606035,0.028881439799699052,6.937684574814038,6.322143272638002,-1.56360916384306,-0.956379426367931,0.0625358948253508,-2.975193475917337,3,right
7.125,-0.37831035686576236,1.0722534546032787,0.030141181738023118,6.973278695886795,6.399369468444128,-1.5580074954067398,-0.9552330553217051,0.07831934729451573,-2.9771947372017338,3,right
7.126,-0.3930603897518195,1.0551199070302613,0.03135049247722744,7.006168835040039,6.474237084093746,-1.5519264073316485,-0.9537649979655408,0.09420580559135301,-2.977977074003831,3,right
7.127999999999999,-0.407767843149736,1.0377805352596086,0.032508380906353544,7.036269827905882,6.546622741226622,-1.5453682117750105,-0.95197102636056,0.11018275226088371,-2.9775155725823717,3,right
7.129,-0.4224184245762342,1.0202526790290005,0.033613908749378224,7.0634982191285145,6.616403530566088,-1.5383357796623103,-0.9498470785520465,0.1262373370254445,-2.9757859006721534,3,right
7.1339999999999995,-0.43699802312037905,1.002553887893928,0.03466619175721291,7.087772426455667,6.683457211441634,-1.53083253117404,-0.9473892647087414,0.14235638844029655,-2.9727643382388833,3,right
7.135,-0.4514927417129228,0.9847018865890965,0.035664400534534804,7.1090129081872035,6.747662418355063,-1.5228624244192106,-0.9445938731972824,0.1585264266033576,-2.9684278081735993,3,right
7.138,-0.4658889288946346,0.9667145409783977,0.03660776112500022,7.127142334058873,6.808898874790409,-1.5144299422754355,-0.9414573765856775,0.17473367696515027,-2.9627539069216446,3,right
7.138999999999999,-0.48017320995603197,0.9486098246967023,0.037495555503966715,7.142085759630797,6.867047614459995,-1.5055400773740415,-0.9379764375687444,0.19096408528524197,-2.9557209350374607,3,right
7.145,-0.49433251728539507,0.9304057865677187,0.0383271221368074,7.15377080424153,6.921991210170796,-1.4961983152073184,-0.9341479148074754,0.2072033337816005,-2.947307927652696,3,right
7.147,-0.5083541197288767,0.9121205188671043,0.039101856745275276,7.162127832579625,6.973614010486786,-1.4864106153336922,-0.929968868673467,0.22343685849173398,-2.937494684837358,3,right
7.147,-0.5222256507599579,0.893772126484615,0.03981921338604034,7.167090139915466,7.021802384354059,-1.4761833906553015,-0.9254365668893199,0.23964986772625602,-2.9262618018101914,3,right
7.148,-0.5359351352782314,0.875378697021161,0.04047870589857969,7.168594141026796,7.066444973846295,-1.4655234847411467,-0.9205484900562956,0.2558273612466106,-2.913590698915155,3,right
7.148,-0.5494710148689868,0.8569582718473808,0.04107990973822347,7.166579562841794,7.107432955178656,-1.454438147167713,-0.91530233706027,0.27195414966037806,-2.899463651257219,3,right
7.153,-0.5628221713247976,0.8385288181575921,0.041622464177299055,7.160989640813822,7.144660308128275,-1.4429350068476992,-0.9096960303452484,0.28801487366582046,-2.8838638179062546,3,right
7.154,-0.5759779481924717,0.820108202062287,0.042106074830231564,7.151771318739111,7.178024093618458,-1.4310220433794354,-0.9037277210413099,0.30399402302615247,-2.8667752706090144,3,right
7.155,-0.5889281701161938,0.8017141627558869,0.04253051644021582,7.138875450253855,7.207424737358726,-1.4187075567643135,-0.8973957939320586,0.31987595529217433,-2.8481830219646587,3,right
7.1579999999999995,-0.6016631598004011,0.783364287777607,0.04289563585719929,7.122256997600556,7.232766314083888,-1.406000136407061,-0.890698872245471,0.3356449143193708,-2.8280730530189757,3,right
7.159,-0.6141737524659663,0.7650759893693585,0.043201355126471976,7.101875221778353,7.2539568250697295,-1.3929086306284841,-0.8836358222509941,0.35128504862534704,-2.8064323402281732,3,right
7.162999999999999,-0.6264513076917118,0.7468664819332821,0.04344767458326684,7.077693859646184,7.270908463446085,-1.379442117603185,-0.8762057576446988,0.36678042963319146,-2.7832488817388006,3,right
7.162999999999999,-0.6384877185418446,0.7287527605935887,0.04363467582146596,7.049681286173365,7.283537865154468,-1.3656098780649168,-0.8684080437032466,0.3821150698460318,-2.758511722926006,3,right
7.167999999999999,-0.6502754179035698,0.7107515808632338,0.04376252438812822,7.017810661486009,7.291766345240043,-1.3514213698051767,-0.8602423011863817,0.39727294099768007,-2.732210981127932,3,right
7.169,-0.661807381992233,0.6928794394058048,0.043831472052035816,6.98206006263976,7.295520119526473,-1.3368862039263725,-0.8517084099665964,0.4122379922238458,-2.7043378695096236,3,right
7.172999999999999,-0.6730771310129917,0.6751525558698501,0.04384185850057484,6.942412600038304,7.294730511709725,-1.322014122809847,-0.8428065123635735,0.426994168297935,-2.6748847199853687,3,right
7.1739999999999995,-0.6840787269973306,0.6575868557546478,0.04379411233303295,6.898856518406063,7.2893341458943475,-1.3068149797580213,-0.8335370161599464,0.4415254279749463,-2.6438450051238953,3,right
7.178,-0.694806768858823,0.6401979542378755,0.043688751239634366,6.851385282212325,7.279273124582828,-1.29129872026892,-0.8239005972738588,0.45581576248641814,-2.6112133589563364,3,right
7.178999999999999,-0.7052563847355722,0.6230011408597502,0.043526381286988144,6.799997645432893,7.2644951921156435,-1.2754753649003772,-0.8138982020627556,0.4698492142287848,-2.5769855966023374,3,right
7.182,-0.7154232217148038,0.6060113649324994,0.04330769527477539,6.7446977055241115,7.244953883546362,-1.2593549936802864,-0.8035310492317753,0.48360989568685053,-2.5411587326251284,3,right
7.183,-0.7253034330773717,0.589243221546996,0.043033470185812696,6.685494941472897,7.220608658922795,-1.242947732018332,-0.7928006313190643,0.49708200863339996,-2.503730998021805,3,right
7.188,-0.7348936632540836,0.5727109380813372,0.04270456381823871,6.622404235775161,7.191425022931637,-1.2262637380737769,-0.7817087157292812,0.5102498636452243,-2.464701855750491,3,right
7.189,-0.7441910307357406,0.5564283611635237,0.04232191074940992,6.555445880183775,7.157374629850369,-1.2093131915330138,-0.7702573452855116,0.5230978999750608,-2.4240720146914514,3,right
7.192,-0.7531931092071493,0.5404089440842152,0.041886517811746724,6.484645565056056,7.118435373736423,-1.1921062837497693,-0.7584488382687724,0.5356107058181131,-2.381843441934636,3,right
7.194,-0.7618979071771794,0.5246657346853085,0.041399459247592446,6.410034352119538,7.074591463769699,-1.1746532092000548,-0.7462857879132461,0.5477730390109468,-2.338019373281542,3,right
7.197,-0.7703038463613889,0.5092113637633421,0.04086187166523312,6.331648630463778,7.025833484650573,-1.1569641582031904,-0.733771061324352,0.5595698481996357,-2.2926043218446703,3,right
7.197,-0.778409739054159,0.49405803402647847,0.040274948868151465,6.249530055554815,6.972158441941502,-1.1390493108594943,-0.7209077977857394,0.5709862945130731,-2.2456040846232774,3,right
7.202000000000001,-0.786214764712392,0.47921750963619375,0.039639936594123765,6.163725471058089,6.91356979222626,-1.1209188321545216,-0.707699406420265,0.582007773776353,-2.1970257469295382,3,right
7.202000000000001,-0.7937184459654543,0.4647011063561807,0.03895812718550994,6.074286813244671,6.850077457946702,-1.1025828681790553,-0.6941495631690117,0.5926199392980798,-2.1468776845346635,3,right
7.207000000000001,-0.8009206242649719,0.45051968232498235,0.03823085421153706,5.981270997745035,6.781697826762917,-1.084051543413413,-0.6802622070514037,0.6028087252643706,-2.0951695633999696,3,right
7.207999999999999,-0.8078214353893107,0.4366836294661503,0.03745948706657348,5.884739788403978,6.7084537352684315,-1.0653349590240015,-0.6660415356684808,0.6125603707711816,-2.041912336853368,3,right
7.212999999999999,-0.8144212850168937,0.4232028655500182,0.036645425568310554,5.784759647979872,6.63037443687814,-1.0464431921194688,-0.6514919999104135,0.6218614445254146,-1.9871182400672298,3,right
7.2139999999999995,-0.8207208245756051,0.41008682692263276,0.0357900945771692,5.6814015704211815,6.547495553692544,-1.0273862959132407,-0.6366182978522659,0.6306988702126968,-1.9308007817628656,3,right
7.2139999999999995,-0.8267209275553429,0.39734446191509204,0.03489493865603062,5.574740894443074,6.45985901212799,-1.0081743007386936,-0.6214253679404923,0.6390599523717578,-1.8729747334311926,3,right
7.2170000000000005,-0.8324226664391844,0.38498422493953766,0.03396141679076691,5.464857098117063,6.36751296208864,-0.9888172158627165,-0.60591838178671,0.6469324023319281,-1.8136561170185814,3,right
7.218,-0.8378272903874147,0.37301407127479586,0.03299099720223035,5.3518335741769265,6.270511679442211,-0.9693250320429374,-0.590102737003802,0.654304363612237,-1.7528621923912668,3,right
7.222,-0.8429362038101409,0.36144145254993915,0.03198515229845148,5.235757386220459,6.168915451847635,-0.9497077247564281,-0.573984050399045,0.6611644363359394,-1.6906114455186059,3,right
7.224,-0.8477509459661,0.35027331293840597,0.030945353828339784,5.116719008406353,6.062790449468494,-0.9299752579422027,-0.5575681516230575,0.6675017004949942,-1.6269235776473554,3,right
7.225,-0.8522731717098312,0.33951608607158146,0.029873068294501454,4.99481205560867,5.952208584791167,-0.9101375879462891,-0.5408610772530351,0.6733057380543066,-1.5618194953661242,3,right
7.227,-0.8565046334957415,0.32917569267775987,0.02876975266947709,4.870133013411595,5.837247367252636,-0.8902046672727085,-0.5238690652639804,0.6785666539154138,-1.4953213013812103,3,right
7.228,-0.8604471647533943,0.31925753895893316,0.027636850445676236,4.742780974889642,5.717989756870721,-0.8701864478284544,-0.5065985498407819,0.6832750957578003,-1.4274522858209122,3,right
7.231,-0.8641026647588883,0.30976651572883296,0.026475788030865307,4.612857386738116,5.594524018358236,-0.8500928835034027,-0.48905615648316103,0.6874222727744939,-1.358236917881333,3,right
7.232,-0.8674730851229173,0.3007069983440224,0.025287971473873686,4.4804658048816774,5.466943575690825,-0.8299339320108975,-0.47124869735468733,0.6909999733170346,-1.2877008376226973,3,right
7.236000000000001,-0.8705604179948322,0.29208284746582175,0.024074783474189062,4.345711659195354,5.335346866786077,-0.809719555931527,-0.45318316682626203,0.694000581463325,-1.2158708477212627,3,right
7.237,-0.8733666860472552,0.2838974106956375,0.022837580601799422,4.208702026965011,5.199837197939423,-0.789459722902387,-0.4348667371636907,0.6964170925202566,-1.142774904978046,3,right
7.242000000000001,-0.8758939342593198,0.27615352512923663,0.02157769063565255,4.069545414707173,5.060522597650539,-0.7691644048939416,-0.4163067543082036,0.6982431274713748,-1.0684421113817864,3,right
7.242999999999999,-0.8781442234621221,0.2688535208770821,0.020296409926212046,3.9283515479613076,4.9175156694624285,-0.7488435765164326,-0.39751073369804213,0.6994729463781874,-0.9929027045198638,3,right
7.246,-0.8801196255529222,0.26199922559743877,0.0189950007044645,3.7852311686612232,4.77093344342413,-0.7285072122976599,-0.3784863560785082,0.7001014607420435,-0.916188047127245,3,right
7.247000000000001,-0.8818222202316458,0.25559197008351797,0.017674688295500104,3.6402958396860576,4.620897225777078,-0.708165282873847,-0.35924146324717576,0.700124244831818,-0.8383306155599833,3,right
7.251,-0.8832540930722107,0.24963259493386292,0.01633665824188059,3.493657756185472,4.467532446454564,-0.6878277500352413,-0.33978405368028425,0.6995375459809221,-0.7593639869763399,3,right
7.252000000000001,-0.8844173347184326,0.244121458317919,0.01498205338966038,3.3454295632681537,4.310968503973445,-0.6675045605680475,-0.3201222779856794,0.6983382938554367,-0.6793228250052119,3,right
7.256,-0.8853140409906388,0.23905844482802613,0.013611971027442422,3.1957241796375073,4.151338607287369,-0.647205638834278,-0.30026443412703296,0.6965241086934254,-0.5982428636782778,3,right
7.257000000000001,-0.8859463137002465,0.23444297538579853,0.012227460188490807,3.0446546267535215,3.988779614161218,-0.6269408780311189,-0.2802189623634635,0.6940933085137367,-0.5161608893990843,3,right
7.261,-0.8863162619887739,0.23027401814625287,0.010829519226507541,2.8923338630952395,3.8234318656172888,-0.6067201300714492,-0.25999443984809173,0.6910449152908426,-0.4331147207192133,3,right
7.2620000000000005,-0.8864260040290001,0.2265501003188156,0.009419093762134375,2.738874623094008,3.655439015994931,-0.5865531940272208,-0.2395995748285042,0.6873786600905002,-0.3491431856886893,3,right
7.265,-0.886277668945371,0.22326932080190046,0.00799707507618768,2.5843892603037686,3.4849478581569566,-0.5664498030775061,-0.21904320039155675,0.6830949871592514,-0.2642860965449083,3,right
7.266,-0.8858733988273496,0.2204293635088091,0.006564299002986406,2.4289895943710533,3.3121081433681274,-0.5464196099031449,-0.19833426769443768,0.6781950569590007,-0.17858422150160166,3,right
7.27,-0.8852153507255156,0.2180275112489299,0.005121545357338089,2.2727867613640855,3.137072395363443,-0.5264721704700763,-0.1774818386234206,0.6726807481361418,-0.09207925339669341,3,right
7.272,-0.8843056985379706,0.21606066001997096,0.003669537913304975,2.115891067017426,2.9599957181167755,-0.5066169261436284,-0.15649507782127328,0.6665546584129296,-0.004813774955366833,3,right
7.276,-0.8831466347125932,0.21452533356453804,0.0022089449409778096,1.9584118424459847,2.7810355968136506,-0.48686318407623996,-0.13538324402385066,0.6598201043870254,0.08316877957776822,3,right
7.277,-0.8817403717064627,0.21341769804786323,0.0007403802984517924,1.800457301879905,2.6003516915256895,-0.4672200958113342,-0.11415568064598815,0.6524811202233777,0.17182416668582173,3,right
7.28,-0.8800891431566392,0.21273357672094484,-0.0007355949309688848,1.6421344019698352,2.4181056230783433,-0.44769663404632504,-0.09282180555642594,0.6445424552208503,0.26110737995668026,3,right
7.281000000000001,-0.8781952047261896,0.21246846444311399,-0.0022184702739311154,1.4835487022104297,2.234460750598171,-0.4283015674980275,-0.07139109998113592,0.6360095702342579,0.3509727008426292,3,right
7.282,-0.8760608345961464,0.2126175419519425,-0.0037077832006303635,1.3248042260285438,2.0495819402209436,-0.409043433814063,-0.04987309651178577,0.6268886329422315,0.4413737539033911,3,right
7.2860000000000005,-0.8736883335802411,0.21317568978952048,-0.005203115988528128,1.1660033220815302,1.863635324437386,-0.3899305104741926,-0.02827736638424811,0.6171865120070952,0.5322635658665508,3,right
7.287000000000001,-0.871080024846744,0.21413750181991512,-0.006704092149144205,1.00724652531029,1.6767880515493487,-0.3709707836258795,-0.006613506531045249,0.6069107702746811,0.6235946264573857,3,right
7.292999999999999,-0.8682382532400625,0.21549729829401018,-0.008210372454084104,0.848632417291266,1.4892080247056607,-0.35217191479877547,0.015108872900152158,0.5960696572178088,0.7153189481829749,3,right
7.294,-0.8651653842022777,0.21724913843137722,-0.009721650605528454,0.6902574857126752,1.301063630410795,-0.3335412055427508,0.036880160058556107,0.5846721007680026,0.8073881230255446,3,right
7.295,-0.8618638023003806,0.2193868325010342,-0.011237648603308647,0.5322159842067568,1.1125234585316583,-0.3150855605320702,0.05869075176886165,0.5727276985749181,0.8997533753849012,3,right
7.295,-0.8583359093688077,0.22190395339887614,-0.012758111859042952,0.37459979630167023,0.92375601966826,-0.29681145057435865,0.08053106280110302,0.5602467086738492,0.9923656113796085,3,right
7.296,-0.8545841222821419,0.2247938477387098,-0.014282804106484167,0.21749830866371817,0.7349294678871614,-0.2787248774610273,0.10239153409428786,0.5472400395285933,1.0851754647712972,3,right
7.3,-0.8506108703820203,0.2280496464951495,-0.015811502165870645,0.06099829739515956,0.5462113346807034,-0.26083134209878694,0.12426263999644499,0.5337192394153851,1.1781333397773384,3,right
7.3,-0.8464185925918437,0.23166427525672992,-0.017343990633668028,-0.09481617137734914,0.35776827617180507,-0.24313581646681753,0.14613489458380646,0.5196964851120668,1.2711894510378272,3,right
7.305,-0.8420097342579873,0.23563046416164313,-0.0188800565784107,-0.2498638267935382,0.16976583344919657,-0.22564271944715725,0.16799885712190266,0.5051845698551551,1.3642938610033892,3,right
7.307,-0.8373867437573586,0.23994075759548744,-0.02041948432657283,-0.40406626487893516,-0.01763179450869207,-0.20835589647691824,0.18984513673137995,0.4901968905259904,1.4573965150107413,3,right
7.31,-0.8325520689120551,0.24458752373212878,-0.021962050420605336,-0.5573480069403404,-0.20426196586217663,-0.1912786029715036,0.2116643963213538,0.4747474340257104,1.5504472743132276,3,right
7.311,-0.8275081532546424,0.2495629639962871,-0.023507518824408814,-0.7096365451826091,-0.3899637994308257,-0.17441349146858137,0.23344735585308596,0.45885076279738995,1.6433959473336874,3,right
7.315,-0.8222574321923333,0.25485912251964854,-0.025055636440830118,-0.8608623759895607,-0.5745783672440223,-0.15776260244316204,0.255184794996725,0.4425219994523201,1.7361923194070048,3,right
7.316,-0.8168023291247407,0.260467895651621,-0.02660612899438704,-1.0109590213091955,-0.7579488766573728,-0.14132735874472638,0.2768675552437701,0.4257768104560771,1.8287861812795425,3,right
7.32,-0.8111452515767121,0.26638104157335674,-0.02815869732242428,-1.1598630385805533,-0.9399208425680912,-0.12510856360795955,0.29848654153781623,0.4086313888287457,1.921127356632367,3,right
7.32,-0.8052885874125872,0.27259019005101676,-0.02971301410872311,-1.307514019636505,-1.120342250259372,-0.10910640218926053,0.320032723486005,0.39110243581242304,2.0131657288947387,3,right
7.324,-0.7992347011991298,0.2790868523511358,-0.03126872108433831,-1.4538545790135238,-1.2990637094001916,-0.09332044658181494,0.3414971362134522,0.37320714145793293,2.104851267613756,3,right
7.325,-0.792985930781532,0.2858624313270541,-0.03282542671132103,-1.5988303320960717,-1.475938599722967,-0.07774966426263893,0.3628708809227374,0.35496316408153344,2.196134054645314,3,right
7.33,-0.7865445841317015,0.2929082316716027,-0.03438270435530896,-1.7423898635196384,-1.6508232088970565,-0.06239242992562361,0.3841451252203322,0.3363886085412971,2.286964310430674,3,right
7.331,-0.7799129365221917,0.3002154703179342,-0.03594009094165813,-1.8844846862527085,-1.8235768631112004,-0.04724654065522884,0.40531110327161013,0.317502003281795,2.3772924206219264,3,right
7.334,-0.7730932280738658,0.3077752869573844,-0.03749708607801912,-2.025069191774029,-1.9940620508727116,-0.03230923439609216,0.4263601158458206,0.29832227609471246,2.4670689633184684,3,right
7.335,-0.7660876617206,0.31557875463140833,-0.03905315161661212,-2.1641005917574776,-2.162144540525507,-0.01757721167443093,0.44728353031212226,0.27886872854207684,2.556244737175318,3,right
7.3389999999999995,-0.7588984016293657,0.32361689034542296,-0.04060771162335939,-2.301538851672639,-2.3276934919829597,-0.0030466605277216004,0.46807278064746227,0.2591610089878827,2.6447707906426525,3,right
7.34,-0.751527572109243,0.3318806656466992,-0.04216015271807926,-2.4373466167048456,-2.490581563165039,0.01128671540026188,0.48871936751675005,0.23921908418305707,2.7325984525943667,3,right
7.343,-0.7439772570391741,0.340361017106041,-0.04370982474944465,-2.5714891303940144,-2.650685011622317,0.025427665641379892,0.5092148584854153,0.21906320934792173,2.819679364601724,3,right
7.343999999999999,-0.736249499841346,0.3490488566418638,-0.04525604177065808,-2.7039341463870104,-2.8078837918221415,0.039381358603780836,0.5295508884240534,0.19871389669558132,2.9059655151063044,3,right
7.349,-0.72834630402445,0.3579350816252522,-0.046798083286843095,-2.834651833693605,-2.9620616485646467,0.05315334423246287,0.5497191601509647,0.17819188240094086,2.9914092756394663,3,right
7.35,-0.720269634317778,0.36701058471171544,-0.0483351957514417,-2.9636146758313164,-3.1131062069882747,0.06674951367037804,0.5697114452905155,0.15751809232918065,3.07596343870848,3,right
7.35,-0.7120214184130703,0.3762662633640639,-0.0498665942922682,-3.0907973642395428,-3.260909059616145,0.08017605596017591,0.5895195852034001,0.13671360739449276,3.1595812560223147,3,right
7.354,-0.7036035493298509,0.38569302905327113,-0.05139146464208561,-3.216176686338453,-3.405365850885948,0.09343941182616262,0.6091354917769531,0.11579962972912555,3.242216475202748,3,right
7.355,-0.6950178884235214,0.39528181614067526,-0.05290896523341157,-3.3397314086030554,-3.5463763595970366,0.10654622457554698,0.6285511479306042,0.09479745053260874,3.323823373648828,3,right
7.358,-0.6862662690580574,0.40502359045643066,-0.05441822940440251,-3.461442155017745,-3.683844579699089,0.11950328815755806,0.64775860781243,0.07372841991312569,3.404356789164876,3,right
7.359,-0.6773505009619067,0.41490935759849373,-0.05591836766449516,-3.581291281339718,-3.817678799681355,0.13231749250778085,0.6667499967296482,0.052613918722946296,3.483772147484349,3,right
7.36,-0.6682723752780748,0.4249301709807599,-0.0574084699843486,-3.699262745935554,-3.9477916800327955,0.1449957667507553,0.6855175108688132,0.031475332327632694,3.56202548692389,3,right
7.3629999999999995,-0.6590336703103252,0.43507713965707046,-0.05888760809425766,-3.81534197856413,-4.074100326831427,0.15754502163652304,0.7040534168608746,0.010334026248538368,3.6390734803988267,3,right
7.364,-0.6496361579600273,0.4453414359423397,-0.06035483779052443,-3.9295157488148464,-4.196526358731935,0.16997209303254446,0.7223500512456387,-0.010788676382009888,3.7148734550281626,3,right
7.369,-0.640081610844476,0.45571430284564884,-0.06180920125865838,-4.041772035563581,-4.314995965388754,0.18228368784586907,0.7403998198895297,-0.0318715156135265,3.789383409553765,3,right
7.37,-0.6303718100848515,0.4661870613248105,-0.06324972942601903,-4.152099898189228,-4.429439956742742,0.19448633294700343,0.7581951974098841,-0.05289331377886555,3.8625620297950016,3,right
7.374,-0.6205085537468766,0.4767511173685191,-0.06467544435291708,-4.260489349947018,-4.5397938033672025,0.2065863272204206,0.7757287266583217,-0.07383299296503731,3.9343687023564846,3,right
7.375,-0.6104936659104886,0.48739796890973675,-0.06608536166021828,-4.366931233821089,-4.645997668213462,0.21858969677709292,0.7929930183150319,-0.0946695909138625,4.00476352680288,3,right
7.377999999999999,-0.6003290063394072,0.498119212571423,-0.0674784929792545,-4.471417101173214,-4.747996430084623,0.23050215336411695,0.8099807506450762,-0.11538227541280904,4.073707326510919,3,right
7.38,-0.5900164807189284,0.5089065502437079,-0.06885384840475453,-4.573939093499046,-4.845739699154376,0.24232905600620294,0.8266846694670653,-0.13595035723612017,4.141161658404806,3,right
7.382000000000001,-0.5795580514304469,0.5197517954914724,-0.07021043893676662,-4.6744898275976565,-4.939181824835854,0.25407537591352436,0.8430975883837865,-0.15635330169604708,4.2070888217771625,3,right
7.382999999999999,-0.5689557488325213,0.5306468797932963,-0.07154727890966145,-4.773062284454481,-5.028281896293425,0.2657456646901597,0.8592123893235688,-0.1765707388636434,4.271451866393494,3,right
7.3870000000000005,-0.5582116830188381,0.541583858615855,-0.07286338841997453,-4.869649702132194,-5.113003735878125,0.2773440258771133,0.8750220234403578,-0.1965824725181642,4.334214600073849,3,right
7.388,-0.547328056022868,0.5525549173301249,-0.07415779577636063,-4.964245472958358,-5.193315885755082,0.28887408986366836,0.8905195124196306,-0.2163684878836375,4.395341595941015,3,right
7.393,-0.5363071744380087,0.563552376974503,-0.07542954000110169,-5.056843045292984,-5.269191587978803,0.30033899220060756,0.9056979502364328,-0.2359089582106445,4.454798199520046,3,right
7.394,-0.5251514624198729,0.5745686998643308,-0.07667767341079063,-5.147435830153477,-5.340608758259635,0.31174135534862735,0.920550505410939,-0.25518425026075325,4.512550535869361,3,right
7.398,-0.5138634750324719,0.5855964950394834,-0.07790126429416339,-5.236017112968691,-5.407549953652077,0.32308327389507563,0.9350704238060391,-0.27417492875040356,4.568565516918931,3,right
7.399,-0.5024459118921207,0.5966285235339343,-0.07909939969078461,-5.322579970728093,-5.470002334382848,0.33436630327195416,0.9492510320105451,-0.29286175981033513,4.622810849186294,3,right
7.403,-0.49090163105307316,0.6076577034441899,-0.08027118825979307,-5.407117194786272,-5.527957620023846,0.3455914520079461,0.9630857413506649,-0.31122571351588957,4.675255042036219,3,right
7.404,-0.47923366306760024,0.6186771147672182,-0.08141576321621732,-5.489621219577239,-5.5814120402022755,0.3567591775470542,0.9765680525714442,-0.32924796554270036,4.725867416644882,3,right
7.407,-0.46744522514020764,0.6296800039734203,-0.08253228530349231,-5.570084057487183,-5.630366280027318,0.36786938566626565,0.9896915612288982,-0.34690989800141225,4.774618115824313,3,right
7.4079999999999995,-0.45553973528180214,0.6406597882779709,-0.0836199457635453,-5.648497240128516,-5.674825420399852,0.3789214335244901,1.0024499638325648,-0.36419309950414386,4.821478114857696,3,right
7.412000000000001,-0.4435208263570003,0.6516100595755531,-0.08467796926035082,-5.724851766252205,-5.714798873358771,0.38991413637485395,1.014837064777192,-0.3810793645144267,4.866419233490865,3,right
7.412999999999999,-0.4313923599077624,0.6625245880080793,-0.08570561670981118,-5.799138056529512,-5.750300312604538,0.4008457779722654,1.0268467841012516,-0.39755069203131876,4.909414149219986,3,right
7.417000000000001,-0.41915843962880645,0.67339732514099,-0.08670218796775339,-5.871345915428401,-5.781347599327725,0.4117141247079971,1.038473166108913,-0.41358928365730374,4.95043641200996,3,right
7.417999999999999,-0.4068234243643158,0.684222406730444,-0.08766702432730816,-5.9414645004039155,-5.807962703457394,0.42251644350286316,1.0497103888910515,-0.4291775410984468,4.989460460572616,3,right
7.419,-0.3943919404936638,0.6949941550707073,-0.08859951077583074,-6.009482298615923,-5.830171620431362,0.4332495234903872,1.0605527747515209,-0.4442980631693884,5.0264616402858024,3,right
7.422000000000001,-0.38186889358172227,0.705707080918561,-0.08949907796230933,-6.075387111381638,-5.84800428357755,0.4439097015211799,1.0709948014025445,-0.4589336425010287,5.061416222617258,3,right
7.422000000000001,-0.36925947918584723,0.7163558849995052,-0.09036520383246265,-6.139166046564325,-5.861494472182973,0.45449289151954947,1.0810311135376498,-0.4730672623751825,5.094301425530429,3,right
7.4270000000000005,-0.3565691927236858,0.7269354591061418,-0.09119741489671064,-6.200805519093547,-5.8706797153142025,0.4649946177231709,1.090656534248163,-0.4866820942356551,5.125095434132028,3,right
7.428,-0.34380383830566236,0.7374408868002025,-0.09199528709996814,-6.260291259806273,-5.875601191440628,0.4754100518364296,1.0998660758894088,-0.499761496297285,5.153777421026847,3,right
7.428999999999999,-0.33096953643423105,0.7478674437296796,-0.09275844626544999,-6.317608332668738,-5.8763036239748025,0.4857340540267341,1.1086549502559013,-0.5122890134453324,5.180327566220303,3,right
7.432,-0.31807273048098383,0.7582105975760937,-0.0934865680936058,-6.372741159816351,-5.872835173209154,0.49596121718737013,1.1170185780649073,-0.524248378489594,5.204727076614811,3,right
7.433,-0.3051201918693191,0.7684660076529868,-0.09417937770943112,-6.425673552733186,-5.8652473257953215,0.5060859129803382,1.1249525977748307,-0.535623514810781,5.226958205182341,3,right
7.437,-0.2921190239045676,0.7786295241812781,-0.09483664876182339,-6.476388747269856,-5.8535947832775825,0.5161023376668661,1.132452873763655,-0.5463985404351127,5.247004269889389,3,right
7.438,-0.279076664203018,0.7886971872694405,-0.09545820208834464,-6.5248694408087955,-5.83793535080253,0.5260045562384976,1.139515503891461,-0.5565577735714502,5.264849672444408,3,right
7.441,-0.26600088568182195,0.7986652256284619,-0.09604390397100011,-6.571097830989234,-5.818329826436136,0.5357865442712435,1.1461368264698046,-0.56608573964361,5.280479916931546,3,right
7.442,-0.2528997960855671,0.8085300550536738,-0.09659366402270587,-6.615055656014209,-5.794841891130309,0.5454422274304584,1.1523134266594919,-0.5749671798487798,5.293881628388233,3,right
7.446000000000001,-0.23978183603776448,0.8182882767059401,-0.09710743275564643,-6.6567242366788735,-5.767537999294098,0.5549655186548783,1.15804214231703,-0.583187061271188,5.305042571377836,3,right
7.447,-0.22665577561239064,0.827936675221466,-0.09758519888883671,-6.69608452025284,-5.736487269913342,0.5643503530479049,1.1633200693087717,-0.5907305885783635,5.313951668602285,3,right
7.452999999999999,-0.21353070942245675,0.8374722166728485,-0.09802698645355447,-6.733117126342822,-5.701761378151456,0.573590720503864,1.1681445663104897,-0.5975832173254694,5.320599019593128,3,right
7.452999999999999,-0.20041605022229939,0.846892046396558,-0.09843285175385871,-6.7678023948552175,-5.66343444735306,0.5826806960965807,1.172513259108829,-0.6037306688912912,5.324975919513042,3,right
7.457000000000001,-0.18732152102053043,0.8561934866959237,-0.09880288023651972,-6.800120436171672,-5.621582941361386,0.5916144682572202,1.1764240444197955,-0.609158947067519,5.3270748780934,3,right
7.457000000000001,-0.17425714570290776,0.8653740344235078,-0.09913718332036706,-6.830051183643964,-5.576285557049896,0.6003863647679252,1.1798750932381366,-0.613854356320979,5.326889638726944,3,right
7.461,-0.161233238169805,0.8744313584420901,-0.09943589522942096,-6.857574448507804,-5.527623116958145,0.608990876597352,1.1828648537301572,-0.6178035217464432,5.324415197728134,3,right
7.462000000000001,-0.14826039000215166,0.8833632969607403,-0.09969916987006934,-6.882669977308352,-5.475678461911836,0.6174226796037553,1.1853920536812022,-0.6209934107255827,5.3196478237671965,3,right
7.465,-0.13534945668238385,0.8921678547417718,-0.09992717779334825,-6.9053175119234025,-5.420536343497135,0.6256766541308121,1.1874557025077164,-0.6234113563055251,5.312585077477308,3,right
7.466,-0.12251154241154338,0.9008432001734357,-0.10012010328853763,-6.925496852263233,-5.3622833162496,0.6337479025208893,1.189055092842469,-0.625045082308331,5.3032258312278175,3,right
7.471,-0.10975798357776012,0.9093876622004999,-0.10027814165996798,-6.943187921719192,-5.301007629408704,0.6416317645699671,1.1901898017001973,-0.6258827301805266,5.291570289049803,3,right
7.472,-0.09710033094234485,0.9177997271001045,-0.10040149674010296,-6.958370835426026,-5.236799118079716,0.6493238309479189,1.1908596912295997,-0.6259128875896142,5.277620006693664,3,right
7.477,-0.08455033061652847,0.9260780350835215,-0.10049037868358471,-6.971025971395891,-5.169749093635803,0.6568199546073246,1.1910649090562715,-0.6251246187722242,5.261377911791867,3,right
7.478,-0.07211990390583739,0.9342213766977703,-0.10054500206779715,-6.981134044574808,-5.099950233184495,0.6641162602034557,1.1908058882198407,-0.6235074966362947,5.242848324093365,3,right
7.482,-0.0598211261020338,0.9422286889970755,-0.1005655843009616,-6.988676183865135,-5.027496467914278,0.6712091515475215,1.1900833467072294,-0.6210516366173386,5.22203697572962,3,right
7.483,-0.04766620430494546,0.9500990514525034,-0.10055234431757505,-6.993634012150388,-4.952482870128878,0.6780953171147005,1.1888982865826314,-0.6177477322865136,5.198951031465579,3,right
7.485,-0.035667454356135844,0.9578316815682397,-0.10050550153014763,-6.9959897293514075,-4.875005538768938,0.6847717336279118,1.1872519927232879,-0.6135870926604053,5.173599108872894,3,right
7.486000000000001,-0.023837276957573348,0.9654259301780355,-0.10042527500801945,-6.995726198535472,-4.795161483213144,0.6912356677376931,1.185146031217907,-0.6085616809329272,5.145991298308656,3,right
7.487,-0.01218813303192737,0.9728812764057079,-0.1003118828651258,-6.992827035092585,-4.713048505143525,0.697484675817963,1.1825822475716508,-0.6026641539385156,5.116139182490933,3,right
7.4910000000000005,-0.0007325183727699416,0.980197322281885,-0.10016554185242409,-6.987276698985662,-4.628765078252548,0.7035166018968401,1.179562764909383,-0.5958879014262408,5.084055855408436,3,right
7.492000000000001,0.01051706235572286,0.9873737870103725,-0.09998646716372145,-6.979060590073822,-4.542410225562863,0.7093295737410829,1.176089982318449,-0.58822708444907,5.049755940342637,3,right
7.496,0.0215481221907466,0.9944105008765578,-0.09977487247639659,-6.968165146500425,-4.454083394124008,0.7149219971120983,1.1721665733825555,-0.5796766725788037,5.01325560685964,3,right
7.497000000000001,0.03234821892398799,1.0013073987934775,-0.09953097026005903,-6.9545779461298665,-4.3638843268441745,0.7202925482108408,1.1677954849079024,-0.5702324798817858,4.974572586670168,3,right
7.497000000000001,0.04290498254359148,1.0080645134879747,-0.09925497239206425,-6.938287810941732,-4.271912931378827,0.7254401643668132,1.162979935831593,-0.5598911996333688,4.933726188259183,3,right
7.501,0.05320614298176647,1.0146819683364752,-0.09894709111572575,-6.919284913944207,-4.1782691468405915,0.7303640332183061,1.1577234163010641,-0.548650437746561,4.890737310180313,3,right
7.502000000000001,0.06323955810237142,1.0211599698663647,-0.09860754036646288,-6.897560887550814,-4.083052810616377,0.7350635809769894,1.1520296869119802,-0.536508744887721,4.845628452903997,3,right
7.505,0.0729932418712958,1.027498799946216,-0.09823653747718973,-6.873108932017824,-3.9863635284208794,0.7395384605618958,1.1459027780907682,-0.523465647249583,4.798423729102063,3,right
7.506,0.08245539263899287,1.0336988076985498,-0.09783430525887345,-6.845923922870851,-3.8883005498625325,0.7437885401946273,1.1393469896067001,-0.5095216759493207,4.749148872245287,3,right
7.51,0.09161442144076985,1.0397604011840096,-0.09740107443473403,-6.816002516851446,-3.7889626502665292,0.7478138927003609,1.132366890197174,-0.49467839501676814,4.697831243384394,3,right
7.51,0.10045898020217797,1.0456840389249569,-0.09693708639013683,-6.783343256245656,-3.688448018647027,0.7516147855660197,1.1249673172886037,-0.47893842793532826,4.644499835978958,3,right
7.515,0.10897798972431082,1.0514702213561578,-0.09644259619191178,-6.747946671516439,-3.586854151547038,0.7551916717678187,1.117153376794094,-0.462305482695517,4.589185278632694,3,right
7.516,0.1171606673113859,1.057119482306582,-0.09591787583374761,-6.709815382153974,-3.4842777524608417,0.7585451813797528,1.1089304429678575,-0.44478437531850645,4.53191983558781,3,right
7.52,0.12499655388915887,1.0626323806265505,-0.09536321767519075,-6.668954195650061,-3.380814636550387,0.7616761139739434,1.1003041582951303,-0.4263810518044589,4.47273740482524,3,right
7.521,0.1324755404489164,1.0680094920770151,-0.09477893805533218,-6.625370204494901,-3.2765596403640322,0.7645854318231217,1.0912804333951482,-0.4071026084578808,4.411673513611958,3,right
7.525,0.13958789364017243,1.0732514015925203,-0.09416538107453166,-6.579072881086767,-3.171606536263152,0.7672742539148835,1.0818654469135744,-0.38695731053967414,4.34876531133091,3,right
7.527,0.1463242803284284,1.0783586960165352,-0.09352292254569264,-6.5300741704371585,-3.0660479512596073,0.7697438507867137,1.0720656453796098,-0.3659546091930345,4.284051559423648,3,right
7.529,0.15267579093575825,1.0833319573872386,-0.09285197411592379,-6.478388580546274,-2.959975289964767,0.7719956401901392,1.0618877430018772,-0.34410515658783125,4.217572618270313,3,right
7.53,0.15863396139436492,1.0881717568253768,-0.09215298754358403,-6.42403327031583,-2.853478661348789,0.7740311835917365,1.0513387213760461,-0.3214208192256173,4.149370430826331,3,right
7.535,0.1641907935667879,1.092878649046796,-0.09142645908364737,-6.367028134858491,-2.7466468090071166,0.7758521835180933,1.04042582907606,-0.29791468934495785,4.079488502830014,3,right
7.5360000000000005,0.16933877401778882,1.097453167493039,-0.09067293389335111,-6.307395888055462,-2.6395670446296546,0.777460481751195,1.029156581099744,-0.27360109436433433,4.007971879390161,3,right
7.539,0.17407089105778142,1.1018958200466709,-0.08989301033133626,-6.245162142206157,-2.5323251843668912,0.7788580583800886,1.0175387581385038,-0.24849560429748713,3.934867117757857,3,right
7.54,0.1783806500136722,1.1062070852781838,-0.08908734399821028,-6.18035548460622,-2.4250054877862546,0.7800470317140573,1.0055804056397786,-0.2226150370737,3.860222256081777,3,right
7.545,0.18226208671893532,1.1103874091618098,-0.08825665136342288,-6.11300755088264,-2.3176905991112653,0.7810296590619318,0.9932898326298972,-0.19597746169321395,3.784086777941678,3,right
7.546,0.18570977924896176,1.1144372021986155,-0.08740171284402944,-6.043153094907258,-2.210461490435605,0.7818083383815577,0.9806756102639763,-0.1686021991456854,3.7065115724501583,3,right
7.5489999999999995,0.18871885795967389,1.1183568368946943,-0.08652337523842202,-5.970830055102543,-2.103397406603966,0.782385610802839,0.967746570068525,-0.14050982101737905,3.627548889708355,3,right
7.55,0.19128501391776662,1.1221466455573572,-0.08562255346162548,-5.896079616946249,-1.9965758114515717,0.7827641640271847,0.9545118018414686,-0.11172214571061494,3.547252291396977,3,right
7.553999999999999,0.19340450583881819,1.1258069183910189,-0.08470023156865773,-5.8189462714743625,-1.8900723350945043,0.7829468366056032,0.9409806511733716,-0.08226223219687191,3.4656765962799354,3,right
7.553999999999999,0.19507416567010605,1.1293379018949572,-0.08375746308259946,-5.739477869574662,-1.7839607219634301,0.7829366230971063,0.927162716557274,-0.05215437123745844,3.382877820526615,3,right
7.555,0.19629140295897948,1.1327397975827438,-0.08279537066065638,-5.657725671856254,-1.6783127792740271,0.7827366801085186,0.9130678460763376,-0.021424074076495013,3.2989131134189162,3,right
7.558,0.19705420813436056,1.1360127610546031,-0.0818151451354395,-5.573744393873592,-1.5731983256283064,0.7823503332162222,0.89870613369846,0.009901941259885274,3.213840690200523,3,right
7.56,0.19736115481936337,1.1391569014637102,-0.08081804396893062,-5.4875922464768045,-1.4686851394421567,0.781781084769814,0.884087915228849,0.0417957658532417,3.1277197644862276,3,right
7.564,0.19721140130145043,1.1421722814298794,-0.07980538916005558,-5.399330971016176,-1.364838907042154,0.7810326225389602,0.8692237639480931,0.07422831784117387,3.0406104819819113,3,right
7.565,0.19660469129164565,1.145058917462904,-0.0787785646478978,-5.309025868935122,-1.261723171008144,0.7801088289734505,0.8541244859216935,0.10716936242685,2.952573856067596,3,right
7.566,0.19554135408675716,1.1478167809567559,-0.07773901324632009,-5.216745824942966,-1.1593992806573208,0.779013790502591,0.8388011149436204,0.1405875340267097,2.863671705129065,3,right
7.569,0.1940223042270854,1.1504457998124402,-0.07668823313886815,-5.122563322765673,-1.0579263472993852,0.7777518061088134,0.8232649070712149,0.17445036064944602,2.773966591387942,3,right
7.569,0.192049040736974,1.1529458607498917,-0.07562777396036484,-5.026554452653945,-0.9573612061625119,0.7763273946006201,0.8075273347080857,0.20872429060083028,2.683521760977464,3,right
7.5729999999999995,0.18962364603604112,1.155316812372308,-0.07455923248808001,-4.92879891015919,-0.8577583855746325,0.774745300352834,0.791600080191003,0.24337472161031112,2.592401085008683,3,right
7.574,0.1867487845996675,1.1575584690413543,-0.07348424795655811,-4.829379985869563,-0.7591700832550407,0.7730104974723915,0.7754950288361849,0.2783660324765944,2.5006690013695345,3,right
7.579,0.18342770143123732,1.1596706156105747,-0.07240449700018846,-4.728384545830435,-0.6616461494275407,0.7711281923855918,0.7592242613997899,0.3136616173305893,2.4083904569970915,3,right
7.579,0.17966422039437543,1.1616530130536291,-0.07132168822220261,-4.625903002368648,-0.5652340764691202,0.769103824842274,0.7428000459068882,0.3492239226151852,2.315630850361371,3,right
7.582999999999999,0.1754627424428443,1.1635054050163933,-0.07023755638983763,-4.522029275035123,-0.4699789948110324,0.7669430673319447,0.7262348288026697,0.38501448688230155,2.2224559738973166,3,right
7.584,0.1708282437761511,1.165227525316378,-0.06915385626001834,-4.4168607413759196,-0.37592367481223593,0.7646518229064636,0.7095412253791755,0.4209939835085242,2.128931956120002,3,right
7.587999999999999,0.16576627393929333,1.1668191064076063,-0.06807235604365082,-4.3104981772374975,-0.2831085343283185,0.7622362214034832,0.692732009430398,0.4571222664314068,2.0351252031567277,3,right
7.5889999999999995,0.16028295387878216,1.168279888822754,-0.06699483051887786,-4.203045686308033,-0.19157165170235596,0.7597026140644478,0.6758201020881869,0.49335841900916894,1.9411023394284828,3,right
7.5920000000000005,0.15438497396856948,1.1696096315941757,-0.06592305380631937,-4.09461061859286,-0.10134878390759848,0.7570575665405805,0.6588185597910339,0.5296608061070643,1.8469301472122472,3,right
7.593,0.14807959202947166,1.170808123636569,-0.06485879182289966,-3.9853034775187166,-0.012473389575431636,0.7543078502799381,0.6417405613374755,0.5659871295141179,1.7526755048147993,3,right
7.597,0.14137463138086281,1.171875196042367,-0.06380379443809307,-3.8752378153583456,0.07502334335427102,0.751460432288263,0.6245993939755581,0.6022944867942384,1.6584053230880602,3,right
7.598,0.1342784789793667,1.1728107351963921,-0.06275978737385592,-3.764530116664184,0.1611124656195183,0.7485224632560542,0.6074084384795534,0.6385394336759034,1.5641864800156002,3,right
7.603,0.12680008371062576,1.1736146965628436,-0.06172846392038519,-3.653299669397368,0.24576723051454266,0.7455012640439693,0.590181153164892,0.6746780500846797,1.4700857530996725,3,right
7.604,0.11894895489864399,1.1742871189437158,-0.06071147658019676,-3.5416684234361275,0.32896305391140485,0.7424043105183937,0.5729310567921012,0.7106660099227863,1.3761697492781104,3,right
7.608,0.11073516107135,1.174828138967678,-0.0597104287947602,-3.429760836145784,0.41067747067211524,0.7392392167287539,0.5556717103103936,0.7464586546997278,1.2825048321005652,3,right
7.609,0.1021693289617745,1.175238005558814,-0.058726866941103704,-3.3177037046910782,0.49089008769441006,0.736013716417911,0.5384166973914413,0.7820110711177206,1.1891570458939011,3,right
7.612,0.09326264263431439,1.1755170941603654,-0.057762272800745786,-3.2056259847704185,0.5695825338301322,0.7327356428567551,0.5211796037038153,0.8172781727151975,1.0961920366470952,3,right
7.6129999999999995,0.08402684252233518,1.175665920533724,-0.056818056696955235,-3.0936585954508313,0.6467384069109181,0.7294129069939227,0.503973994878536,0.8522147856711185,1.0036749693467097,3,right
7.617000000000001,0.07447422406542589,1.1756851539922923,-0.05589555147390729,-2.9819342097819854,0.7223432181115794,0.7260534739113903,0.48681339311619215,0.8867757388721224,0.9116704414949169,3,right
7.617999999999999,0.06461763554647267,1.175575629949588,-0.05499600745644128,-2.8705870308676062,0.796384333877207,0.7226653375765428,0.46971125238614414,0.9209159583437352,0.8202423925431495,3,right
7.622000000000001,0.054470474644356524,1.175338361662016,-0.05412058847907655,-2.759752553072909,0.8688509156356131,0.719256493881189,0.45268093216841143,0.9545905661459008,0.7294540089757416,3,right
7.622000000000001,0.044046683146663664,1.174974551037698,-0.05327036901092308,-2.649567308047387,0.93973385751228,0.7158349119578896,0.435735669744612,0.9877549836753277,0.6393676249803724,3,right
7.622999999999999,0.03336073924879182,1.1744855983779916,-0.052446332347381774,-2.540168595243374,1.0090257222604875,0.7124085037638853,0.4188885513226737,1.0203650385324676,0.5500446196486724,3,right
7.627999999999999,0.02242764691233529,1.1738731109240967,-0.05164936980555217,-2.4316941966122783,1.076720675614781,0.7089850919228439,0.4021524827809745,1.0523770726993527,0.4615453134610067,3,right
7.629,0.011262921788870436,1.1731389100790781,-0.05088028084168696,-2.3242820751622517,1.14281441927139,0.7055723758146177,0.38554016109599454,1.083748048989588,0.37392886781635265,3,right
7.632999999999999,-0.00011742681409427386,1.1722850371526636,-0.05013977399837123,-2.218070057545238,1.207304122713759,0.7021778959709734,0.3690640472396642,1.1144356535136737,0.2872531903654901,3,right
7.632999999999999,-0.011696918448540303,1.1713137574588321,-0.049428468598253145,-2.1131955032535883,1.2701883541923535,0.6988089971741972,0.35273634083217564,1.1443983933113568,0.20157484709926926,3,right
7.6339999999999995,-0.02345862892929561,1.1702275626083662,-0.04874689713737542,-2.0097949673467626,1.331467011335362,0.6954727912656069,0.3365689565581997,1.1735956890843553,0.11694898114136311,3,right
7.638,-0.0353852228375827,1.1690291708575216,-0.04809550838266075,-1.9080038660416752,1.3911412519578963,0.6921761210099796,0.3205735022992033,1.201987963117515,0.033429237996629266,3,right
7.638999999999999,-0.04745899111283069,1.167721525376923,-0.047474671229717776,-1.8079561520944845,1.449213425537096,0.6889255260230496,0.3047612589349874,1.2295367224743923,-0.04893230299093095,3,right
7.642,-0.05966189344706787,1.1663077903100352,-0.04688467940801139,-1.7097840025685929,1.5056870056438798,0.6857272111592311,0.289143161768026,1.2562046375510487,-0.1300851912136081,3,right
7.643,-0.07197560488556241,1.1647913445157878,-0.046325757097846615,-1.613617519178642,1.560566523521893,0.6825870174178974,0.2737297835246793,1.2819556160695427,-0.20998066164863272,3,right
7.647,-0.08438156576885948,1.163175772922141,-0.045798065426591233,-1.5195844409233832,1.6138575029804874,0.6795103953588904,0.25853131888788106,1.3067548725901759,-0.28857168621653023,3,right
7.648,-0.09686103399002499,1.1614648554429228,-0.04530170965483513,-1.4278098687256766,1.6655663967639722,0.6765023810180865,0.24355757051645577,1.3305689936190255,-0.3658130198822077,3,right
7.653,-0.10939513850092553,1.1596625534382183,-0.04483674669235063,-1.3384160018036317,1.7157005245548076,0.6735675743140099,0.2288179365068093,1.3533659983846646,-0.4416612417281903,3,right
7.653,-0.12196493307166098,1.1577729937483678,-0.044403192457070396,-1.2515218855030306,1.7642680127638413,0.6707101199366643,0.21432139925335295,1.3751153953552409,-0.5160747912256806,3,right
7.656000000000001,-0.13455144946724665,1.1558004504147563,-0.04400102856157713,-1.1672431703276522,1.811277736256153,0.6679336907099527,0.2000765156646654,1.3957882345642543,-0.5890139999252405,3,right
7.6579999999999995,-0.1471357494211089,1.1537493243117398,-0.043630207907553176,-1.08569188191095,1.856739262156541,0.6652414734192639,0.18609140869306892,1.4153571558104596,-0.6604411187848995,3,right
7.6610000000000005,-0.1596989750080584,1.1516241210320173,-0.04329065896840122,-1.0069762016797048,1.9006627958741986,0.6626361570960229,0.1723737601359938,1.4337964327943102,-0.7303203413493723,3,right
7.662000000000001,-0.17222239720236354,1.149429427465693,-0.04298228877976653,-0.9312002579677878,1.9430591294816426,0.660119923751238,0.15893080466822643,1.4510820132502749,-0.7986178229898405,3,right
7.666,-0.18468746252141546,1.1471698875732321,-0.04270498486105364,-0.8584639273459899,1.9839395925785142,0.6576944415503162,0.14576932506488244,1.4671915551311832,-0.8653016964094129,3,right
7.669,-0.1970758377040226,1.1448501778713975,-0.042458616405343076,-0.7888626459420119,2.0233160057664596,0.6553608604216659,0.13289564857571287,1.4821044588975254,-0.9303420836149335,3,right
7.67,-0.20936945237918,1.1424749831353376,-0.042243035090477804,-0.722487230533148,2.061200636856906,0.6531198100918634,0.12031564441214043,1.4958018959613075,-0.9937111045512723,3,right
7.6739999999999995,-0.2215505396779536,1.1400489727783552,-0.04205807581327735,-0.6594237092029133,2.0976061599291937,0.6509714005404174,0.10803472230922964,1.5082668333307037,-1.0553828825895963,3,right
7.675,-0.23360167475096238,1.1375767783125352,-0.04190355758520983,-0.5997531613618692,2.1325456173522217,0.6489152248674287,0.09605783212562127,1.5194840544983013,-1.115333547056407,3,right
7.678,-0.24550581118106474,1.1350629722254317,-0.04177928478866048,-0.5435515669421498,2.166032384878444,0.6469503645677085,0.08438946444530333,1.5294401766122534,-1.173541232985328,3,right
7.678999999999999,-0.25724631531383796,1.1325120485351807,-0.04168504897519413,-0.4908896645846997,2.198080139914853,0.6450753972051808,0.07303365214594987,1.5381236639661118,-1.2299860782687628,3,right
7.683,-0.2688069985535098,1.129928405211446,-0.04162063136001041,-0.44183281864796997,2.228702833071331,0.6432884064816623,0.06199397289943034,1.5455248378395376,-1.284650218381591,3,right
7.684,-0.280172147682567,1.1273163285730545,-0.04158580610438588,-0.3964408948767721,2.257914663082609,0.6415869946943701,0.05127355257097858,1.551635882718468,-1.3375177788440824,3,right
7.689,-0.2913265532609702,1.1246799796948967,-0.04158034438032905,-0.35476814458014727,2.2857300551959217,0.6399682975767687,0.04087506948440666,1.556450848919658,-1.3885748655861363,3,right
7.689,-0.3022555361521293,1.122023382779246,-0.041604019102290384,-0.31686309717745215,2.3121636431123673,0.6384290015176161,0.030800759521656326,1.559965651640847,-1.4378095533698498,3,right
7.693,-0.3129449722130097,1.119350415377387,-0.041656610120215466,-0.2827684609823797,2.3372302545659114,0.6369653631533162,0.021052422025896883,1.5621780664540923,-1.4852118724222592,3,right
7.694,-0.3233813151766689,1.1166648002985988,-0.04173790962085965,-0.2525210321053042,2.3609449006199767,0.6355732313289196,0.011631426473248092,1.5630877212741447,-1.530773793404827,3,right
7.695,-0.3335516177481129,1.1139700990294306,-0.041847727491085965,-0.2261516113651519,2.3833227687575933,0.634248071423343,0.0025387198538658106,1.5626960849203146,-1.5744892107406585,3,right
7.6979999999999995,-0.3434435509286605,1.111269706505164,-0.041985896440176626,-0.20368492911293143,2.4043792198371405,0.6329849920345934,-0.006225165341424256,1.5610064525490455,-1.6163539241344962,3,right
7.6979999999999995,-0.35304542157466445,1.1085668470979406,-0.042152276711917964,-0.1851395778800974,2.4241297889818476,0.6317787740209883,-0.01466010265709097,1.5580239283209665,-1.656365618014909,3,right
7.702999999999999,-0.36234618817666653,1.1058645716909994,-0.04234676021850803,-0.17052795277604882,2.442590190467367,0.6306239018945552,-0.02276636283339336,1.5537554055721772,-1.6945238387231507,3,right
7.704,-0.37133547481780366,1.1031657557138772,-0.042569273927694974,-0.15985619964496472,2.4597763265738424,0.6295145974989428,-0.03054460464690871,1.5482095445932669,-1.7308299694485065,3,right
7.705,-0.38000358325015404,1.1004730980408604,-0.04281978236434568,-0.15312417137695666,2.4757042998946153,0.6284448555842131,-0.037995865460379294,1.5413967480255721,-1.7652872030049986,3,right
7.707000000000001,-0.38834150302368514,1.097789120696679,-0.04309828914057432,-0.15032539345214274,2.4903904277430686,0.6274084803147918,-0.04512155150516626,1.533329133862431,-1.7979005125590737,3,right
7.707999999999999,-0.396340919603079,1.095116169353053,-0.04340483748171039,-0.15144704018107755,2.5038512568249223,0.626399121426856,-0.0519234279186577,1.5240205060395215,-1.8286766204125713,3,right
7.712000000000001,-0.4039942204028706,1.092456414631786,-0.04373950975844949,-0.156469922742752,2.51610357681021,0.6254103090716846,-0.0584036085580395,1.5134863225947421,-1.857623964939978,3,right
7.712999999999999,-0.41129449867528173,1.0898118542531854,-0.044102426067978394,-0.16536848946032304,2.527164432282532,0.6244354869578205,-0.06456454561090287,1.5017436613744874,-1.884752665773665,3,right
7.718,-0.41823555521296013,1.0871843160779309,-0.04449374192520171,-0.17811083839245825,2.537051133010185,0.6234680437251081,-0.0704090190222331,1.488811183259609,-1.9100744873255415,3,right
7.72,-0.424811897872512,1.0845754620807468,-0.044913645124259535,-0.1946587422546704,2.5457812625744065,0.6225013425477501,-0.0759401257564007,1.474709092880837,-1.9336028007283037,3,right
7.723,-0.4310187389658203,1.0819867932637572,-0.045362351813756405,-0.2149676856961354,2.553372685386542,0.6215287489635696,-0.08116126891185964,1.4594590967899732,-1.9553525442742359,3,right
7.723,-0.43685199059149565,1.079419655471295,-0.04584010180899092,-0.23898691496851762,2.559843552122578,0.6205436569266822,-0.08607614670534887,1.4430843590497398,-1.975340182424341,3,right
7.727,-0.4423082579833296,1.0768752460169269,-0.046347153154772426,-0.26665950003424366,2.5652123036001577,0.6195395130807899,-0.09068874134149393,1.4256094542018267,-1.993583663455417,3,right
7.728,-0.44738483093962234,1.0743546209891663,-0.046883775961606054,-0.297922409172458,2.5694976731199226,0.6185098392502848,-0.09500330778281563,1.4070603175693732,-2.0101023758075973,3,right
7.732,-0.4520796733761853,1.0718587030717566,-0.04745024556600758,-0.3327065961515385,2.5727186872898185,0.6174482531463222,-0.0990243624342733,1.387464192846899,-2.024917103189818,3,right
7.732,-0.4563914110270961,1.0693882896989895,-0.048046835105778826,-0.3709371000475323,2.574894665347816,0.6163484872849625,-0.10275667175560287,1.3668495769275373,-2.0380499784956543,3,right
7.737,-0.46031931730863723,1.066944061364612,-0.048673807644111014,-0.4125331577981723,2.57604521699541,0.6152044061144097,-0.10620524081385355,1.3452461619143454,-2.0495244365770313,3,right
7.7379999999999995,-0.4638632973684443,1.0645265899112681,-0.04933140801273299,-0.4574083295922408,2.5761902387511832,0.6140100213482851,-0.10937530178768538,1.3226847742594574,-2.0593651659184107,3,right
7.742999999999999,-0.46702387036712567,1.0621363466436102,-0.05001985456650547,-0.5054706372039292,2.5753499088307352,0.612759505501762,-0.11227230243416014,1.299197310971922,-2.067598059249236,3,right
7.744,-0.4698021500840692,1.0597737101321063,-0.05073933104794648,-0.5566227153915044,2.5735446805563176,0.6114472036272635,-0.11490189452794354,1.2748166728322323,-2.0742501631276493,3,right
7.747999999999999,-0.4721998239982161,1.0574389736058531,-0.051489978752203805,-0.6107619764889989,2.57079527429664,0.6100676432462785,-0.11726992228203727,1.249576694548805,-2.0793496265238063,3,right
7.749,-0.4742191310577042,1.055132351868083,-0.05227188916323035,-0.667780788328781,2.5671226679344756,0.6086155424736913,-0.11938241075837554,1.2235120717890011,-2.0829256484264964,3,right
7.752000000000001,-0.4758628384065519,1.0528539877022793,-0.0530850972026512,-0.7275666656417352,2.5625480858569243,0.6070858163308437,-0.12124555427585265,1.19665828501473,-2.085008424492242,3,right
7.752999999999999,-0.47713421737182904,1.050603957764037,-0.05392957519844169,-0.790002475090347,2.5570929864604826,0.6054735812433549,-0.12286570482259733,1.1690515200501956,-2.0856290927515877,3,right
7.756,-0.4780370190264901,1.048382277969664,-0.05480522764778616,-0.8549666540982469,2.550779048160412,0.6037741577195168,-0.12424936047857577,1.1407285853069906,-2.084819678382916,3,right
7.756,-0.47857544963303583,1.046188908397599,-0.055711886822870725,-0.922333443647715,2.5436281538913144,0.6019830712048593,-0.12540315385388945,1.1117268255894686,-2.082613037559841,3,right
7.761,-0.47875414624544055,1.0440237577178955,-0.05664930925078548,-0.9919731352242435,2.5356623740832855,0.6000960511082447,-0.12633384055065858,1.08208403253292,-2.079042800412171,3,right
7.7620000000000005,-0.47857815270102944,1.0418866871622068,-0.05761717308635855,-1.0637523320945106,2.5269039480955597,0.5981090279945992,-0.12704828767181783,1.0518383523837727,-2.0741433133270304,3,right
7.763,-0.4780528961769367,1.0397775140439298,-0.058615076385432195,-1.1375342251110137,2.517375264087149,0.5960181289391259,-0.12755346242849586,1.0210281930148424,-2.0679495811559665,3,right
7.766,-0.47718416444338757,1.0376960148394234,-0.0596425362710077,-1.2131788832431312,2.5070988373016414,0.593819671037572,-0.12785642091312388,0.9896921327255769,-2.060497210080666,3,right
7.766,-0.4759780839333095,1.0356419278505973,-0.06069898896170134,-1.2905435590405214,2.496097286741046,0.5915101530668324,-0.12796429708868398,0.957868832716749,-2.05182235169538,3,right
7.771,-0.4744410987428215,1.0336149554860072,-0.06178379060154422,-1.3694830092405113,2.4843933102013587,0.5890862452898736,-0.1278842920149,0.9255969539416768,-2.041961648517181,3,right
7.772,-0.47257995065620784,1.0316147662163955,-0.06289621880158762,-1.4498498302885083,2.472009657689839,0.5865447774459145,-0.12762366331548008,0.892915078375784,-2.0309521809408624,3,right
7.773,-0.4704016602562335,1.0296409962721016,-0.06403547479217943,-1.531494806305572,2.4589691034891996,0.5838827252027586,-0.12718971488673586,0.8598616346131666,-2.0188314156136364,3,right
7.775,-0.46791350914913277,1.027693251149649,-0.06520068609435213,-1.614267263010091,2.4452944175770477,0.5810971957731547,-0.12658978684736436,0.8264748276975358,-2.0056371552013847,3,right
7.776,-0.46512302330715444,1.0257711069949673,-0.06639090963249152,-1.6980154188647847,2.431008337354255,0.5781854136330092,-0.12583124572865959,0.7927925730937391,-1.9914074895149156,3,right
7.782,-0.4620379575073969,1.0238741119422772,-0.06760513521389004,-1.7825867269637434,2.416133540386753,0.5751447070426435,-0.12492147490392284,0.7588524347049834,-1.97618074796149,3,right
7.7829999999999995,-0.458666280819984,1.0220017874996463,-0.06884228930340378,-1.8678282052091586,2.4006926184182755,0.5719724956466244,-0.12386786525536446,0.7246915668399335,-1.9599954532837909,3,right
7.7860000000000005,-0.45501616307053894,1.0201536300688634,-0.07010123903556181,-1.9535867545700394,2.3847080526625235,0.5686662791910573,-0.12267780607633351,0.6903466600330043,-1.9428902765455456,3,right
7.787000000000001,-0.45109596217448694,1.0183291126693865,-0.07138079642726111,-2.0397094656655352,2.36820219033207,0.5652236273495989,-0.12135867620627798,0.6558538906204274,-1.9249039933201377,3,right
7.791,-0.44691421221846944,1.016527686912017,-0.07267972277144141,-2.1260439139174085,2.351197222359689,0.5616421706490727,-0.11991783539542478,0.6212488739740365,-1.9060754410357998,3,right
7.792000000000001,-0.44247961215000925,1.0147487852424044,-0.07399673320209484,-2.2124384435176943,2.333715162266244,0.5579195924851824,-0.11836261589577637,0.5865666212941836,-1.8864434774283265,3,right
7.795,-0.43780101493055124,1.0129918234502806,-0.07533050142356887,-2.298742440458619,2.315777826127764,0.5540536222184294,-0.11670031427465061,0.5518414998627763,-1.8660469400497273,3,right
7.796,-0.4328874170069581,1.011256203420286,-0.0766796645919613,-2.384806594872477,2.2974068135929007,0.5500420293399411,-0.11493818344664038,0.5171071966570999,-1.844924606778811,3,right
7.801,-0.4277479479592972,1.0095413160862186,-0.07804282832347177,-2.470483152929317,2.2786234899006,0.545882618696511,-0.11308342491954115,0.48239668522486445,-1.8231151572773854,3,right
7.803,-0.42239186018561325,1.007846544541898,-0.07941857178742237,-2.5556261585400617,2.259448968846502,0.5415732267637385,-0.11114318124948645,0.447742195720795,-1.8006571353335676,3,right
7.805,-0.4168285184863055,1.0061712672564471,-0.08080545282648241,-2.6400916851119622,2.239904096645334,0.5371117189557418,-0.10912452870024485,0.41317518800505226,-1.7775889120316062,3,right
7.806,-0.4110673894125224,1.004514861338457,-0.08220201303748045,-2.7237380576022154,2.220009436635392,0.5324959879594878,-0.10703447010136559,0.37872632770384024,-1.7539486496856413,3,right
7.81,-0.4051180302472117,1.0028767057930978,-0.08360678274367303,-2.806426065114017,2.1997852547700667,0.5277239530813569,-0.1048799278996142,0.34442546513271427,-1.7297742664729798,3,right
7.81,-0.3989900774974475,1.0012561847196022,-0.08501828579320447,-2.8880191642773996,2.1792515058403157,0.5227935605931207,-0.10266773739791424,0.31030161698335484,-1.7051034017006879,3,right
7.816,-0.3926932347944395,0.999652690403569,-0.0864350441284404,-2.968383673654843,2.158427820370967,0.5177027850640666,-0.10040464017580572,0.2763829506749083,-1.6799733816376787,3,right
7.817,-0.38623726012276244,0.9980656262686697,-0.08785558208546876,-3.0473889594089063,2.137333492132803,0.5124496316655596,-0.09809727768524586,0.24269677127142011,-1.6544211858429245,3,right
7.82,-0.37963195233025127,0.9964944096649362,-0.08927843039948793,-3.1249076124659942,2.1159874662114793,0.5070321394338697,-0.09575218501541112,0.20926951086739262,-1.6284834139190054,3,right
7.821000000000001,-0.37288713690202485,0.9949384744852218,-0.09070212990657026,-3.2008156174068274,2.0944083275734937,0.5014483854766388,-0.09337578482001412,0.17612672034408647,-1.6021962526188764,3,right
7.825,-0.36601265101524455,0.9933972736159075,-0.09212523494326652,-3.274992513310321,2.0726142900686546,0.4956964901078903,-0.09097438140052072,0.1432930633998516,-1.5755954432325323,3,right
7.825,-0.3590183279244299,0.991870281239456,-0.0935463164532304,-3.3473215467732866,2.0506231858077646,0.4897746228960147,-0.0885541549385444,0.11079231275851553,-1.5487162491791344,3,right
7.829,-0.3519139807553974,0.9903569950123812,-0.09496396481559623,-3.4176898173237578,2.028452454853568,0.4836810096086875,-0.08612115587521905,0.07864734845171145,-1.5215934237696551,3,right
7.83,-0.34470938579941357,0.9888569381416589,-0.0963767924123521,-3.4859884154407816,2.006119135162388,0.47741394003819,-0.08368129945835086,0.04688015802711963,-1.494261178306683,3,right
7.83,-0.33741426539629926,0.9873696613779055,-0.09778343595107704,-3.5521125533882216,1.9836398527133239,0.4709717766901187,-0.08124036051962448,0.01551183845491518,-1.4667531510516878,3,right
7.836,-0.3300382704952987,0.9858947449404105,-0.09918255855893969,-3.6159616890644783,1.96103081176135,0.46435296431797357,-0.07880396856717374,-0.015437400539061142,-1.439102377791839,3,right
7.837000000000001,-0.3225909630028879,0.9844318003895953,-0.10057285166783204,-3.677439643064106,1.9383077851501915,0.45755604028561847,-0.07637760325573492,-0.04594823193901231,-1.4113412645353822,3,right
7.8389999999999995,-0.315081798052832,0.9829804724627315,-0.10195303671710171,-3.7364547090782096,1.9154861046495548,0.4505796457192007,-0.07396659025506856,-0.07600220584759997,-1.3835015624995959,3,right
7.84,-0.30752010633767074,0.9815404408854435,-0.1033218667034754,-3.7929197574396833,1.8925806514264745,0.4434225373100968,-0.07157609751427696,-0.10558174293489145,-1.3556143453524632,3,right
7.84,-0.2999150766215483,0.9801114221660242,-0.10467812760429827,-3.8467523310468157,1.8696058470222303,0.4360835994508158,-0.06921113191505841,-0.1346701270154488,-1.327709988628379,3,right
7.846,-0.2922757385420848,0.9786931713747185,-0.10602063969300306,-3.8978747325774292,1.8465756453515783,0.4285618562857635,-0.06687653630698315,-0.16325149683985876,-1.2998181512379794,3,right
7.847,-0.2846109458224608,0.9772854839070175,-0.10734825875844146,-3.9462141022126995,1.8235035260952175,0.42085648335776354,-0.06457698691793456,-0.1913108371856419,-1.2719677589920504,3,right
7.85,-0.2769293600348302,0.975888197227301,-0.10865987723236152,-3.9917024856479806,1.8004024895942141,0.41296681870983587,-0.06231699113293224,-0.21883396933107005,-1.244186990059416,3,right
7.851,-0.2692394350589171,0.974501192584746,-0.10995442522173493,-4.03427689247448,1.777285053209355,0.40489237340071993,-0.060100885634640014,-0.24580754099396612,-1.216503262278741,3,right
7.854,-0.2615494023664655,0.9731243966874636,-0.11123087143706105,-4.073879345070508,1.7541632490791839,0.396632841412005,-0.057932834898963094,-0.27221901581606284,-1.1889432222443053,3,right
7.854,-0.25386725724411063,0.9717577833156864,-0.112488224006193,-4.110456918132834,1.7310486232103839,0.3881881089242025,-0.05581683003925095,-0.2980566624719581,-1.1615327360859993,3,right
7.861000000000001,-0.24620074604924122,0.9704013748524972,-0.11372553116659842,-4.143961768970336,1.7079522358341186,0.37955826293856365,-0.05375668799274878,-0.3233095434801284,-1.1342968818640724,3,right
7.861000000000001,-0.23855735457610341,0.9690552437114747,-0.11494188183741695,-4.174351158673596,1.6848846629619396,0.3707435992209137,-0.05175605104307793,-0.34796750379184743,-1.1072599434995147,3,right
7.8629999999999995,-0.23094429759235274,0.9677195136441453,-0.11613640608348433,-4.201587464265404,1.6618559990748758,0.3617446295432461,-0.049818386672674644,-0.3720211592322113,-1.080445406161385,3,right
7.864,-0.2233685095893745,0.9663943609153566,-0.11730827549181569,-4.225638181928358,1.6388758608793816,0.3525620881982828,-0.04794698773927699,-0.3954618848657934,-1.053875953032896,3,right
7.871,-0.21583663677304696,0.9650800153408183,-0.11845670348427077,-4.246475921396743,1.6159533920639007,0.34319693776168203,-0.04614497297071992,-0.41828180335774423,-1.0275734633786362,3,right
7.872000000000001,-0.20835503030533417,0.9637767611875503,-0.11958094558881334,-4.26407839159089,1.5930972689899021,0.33365037407604275,-0.044415287772479245,-0.44047377339941735,-1.0015590118359479,3,right
7.874,-0.20092974079216414,0.962484937944211,-0.12068029968712449,-4.278428377563031,1.5703157072514042,0.323923830430328,-0.04276070534259522,-0.46203137826584406,-0.9758528688541808,3,right
7.874,-0.1935665140004133,0.9612049409736383,-0.1217541062500191,-4.289513708814474,1.5476164690371443,0.3140189809078076,-0.041183828088805385,-0.48294891457059547,-0.950474502206306,3,right
7.88,-0.18627078777552405,0.9599372220637337,-0.12280174856682433,-4.297327219034616,1.5250068712297609,0.3039377428750977,-0.03968708934292372,-0.5032213812817714,-0.9254425794982014,3,right
7.88,-0.17904769012038288,0.9586822898942559,-0.1238226529717961,-4.301866697303009,1.502493794176554,0.293682278584359,-0.038272755367718424,-0.522844469061032,-0.900774971601805,3,right
7.882999999999999,-0.17190203838641369,0.9574407104359397,-0.1248162890683951,-4.303134830786286,1.4800836910666335,0.2832549958602037,-0.03694292765176381,-0.5418145499857526,-0.8764887569392694,3,right
7.8839999999999995,-0.16483833951910376,0.9562131072954997,-0.12578216994980246,-4.301139138952411,1.4577825978495165,0.2726585478423557,-0.035699545487971336,-0.5601286677125289,-0.8526002265462475,3,right
7.888,-0.1578607912903973,0.9550001620167892,-0.12671985241212072,-4.295891899315282,1.435596143630517,0.261895831754608,-0.034544388831741366,-0.5777845281383978,-0.8291248898434804,3,right
7.888,-0.15097328444014152,0.9538026143457711,-0.12762893715596776,-4.287410064713352,1.413529561478557,0.25096998667012727,-0.03347908143491954,-0.594780490614262,-0.8060774810469582,3,right
7.894,-0.14417940564116727,0.9526212624654433,-0.1285090689718041,-4.275715172116575,1.3915876995823546,0.23988439024267222,-0.0325050942519897,-0.6111155597631267,-0.7834719661480577,3,right
7.895,-0.13748244119873015,0.9514569632058807,-0.12935993690258354,-4.260833242946614,1.3697750326912563,0.22864265437281323,-0.03162374911518846,-0.6267893779538644,-0.7613215503962545,3,right
7.898,-0.13088538139477218,0.9503106322333993,-0.13018127437493204,-4.242794674886008,1.348095673777337,0.217248619777774,-0.030836222671354652,-0.64180221845146,-0.7396386862310463,3,right
7.898,-0.12439092539306784,0.9491832442212838,-0.13097285929025115,-4.221634125142757,1.3265533858557441,0.20570634943305657,-0.03014355055294111,-0.6561549791234439,-0.7184350816750971,3,right
7.899,-0.11800148663231616,0.9480758330026816,-0.1317345140694365,-4.197390385127634,1.3051515939006293,0.19402012085356418,-0.029546631718716306,-0.6698491763294869,-0.6977217093172875,3,right
7.905,-0.11171919864143405,0.9469894917046054,-0.13246610564481756,-4.170106246492478,1.2838933967944015,0.18219441718149804,-0.029046232879304433,-0.6828869384798901,-0.6775088160798008,3,right
7.906000000000001,-0.10554592120822096,0.9459253728611113,-0.1331675453894641,-4.139828358468765,1.2627815792484205,0.1702339170478797,-0.028642992943632848,-0.6952709988861521,-0.6578059339006483,3,right
7.907,-0.09948324682626723,0.9448846885039143,-0.13383878897118523,-4.106607076436915,1.2418186236336566,0.15814348317413707,-0.028337427459796314,-0.7070046877757397,-0.6386218913490713,3,right
7.9079999999999995,-0.09353250734517392,0.9438687102293862,-0.13447983611929523,-4.070496301827663,1.2210067216820641,0.14592814971205192,-0.028129933044772425,-0.7180919234806512,-0.6199648261285918,3,right
7.909,-0.08769478075794754,0.9428787692409173,-0.13509073029535715,-4.031553314346503,1.2003477861288876,0.13359310848127978,-0.028020791801830862,-0.7285372028353543,-0.6018421984111306,3,right
7.912999999999999,-0.08197089807336036,0.9419162563647586,-0.13567155826160474,-3.989838599120457,1.1798434625628382,0.12114369455361856,-0.028010175724759567,-0.7383455908178168,-0.5842608049470992,3,right
7.912999999999999,-0.07636145023307152,0.9409826220366589,-0.13622244954050847,-3.9454156722563716,1.1594951418605657,0.10858537179414395,-0.028098151088312352,-0.7475227094654907,-0.5672267938978852,3,right
7.917000000000001,-0.07086679503898356,0.9400793762563752,-0.13674357575610002,-3.898350907393597,1.1393039734732335,0.09592371880768602,-0.0282846828245648,-0.7560747260962645,-0.550745680338685,3,right
7.917999999999999,-0.06548706405935983,0.9392080885062876,-0.13723514984374555,-3.848713364209194,1.1192708796371647,0.08316441544845479,-0.0285696388851481,-0.7640083408625744,-0.5348223623811894,3,right
7.922999999999999,-0.06022216948732823,0.9383703876275412,-0.1376974251120814,-3.7965746189278318,1.09939657047191,0.07031322988900958,-0.028952794589613463,-0.7713307736650525,-0.5194611378672004,3,right
7.925,-0.055071810932386875,0.9375679616432272,-0.13813069414078502,-3.7420085967013255,1.0796815599077392,0.05737600621221083,-0.02943383696046269,-0.7780497504502913,-0.5046657215858427,3,right
7.9270000000000005,-0.050035482133218435,0.9368025575150474,-0.13853528750050778,-3.6850914057153688,1.0601261823850068,0.04435865248951308,-0.030012369045663023,-0.7841734889155325,-0.4904392629686376,3,right
7.928,-0.04511247758860532,0.9360759808175627,-0.13891157228409803,-3.6259011728738395,1.0407306102683012,0.031267129308693235,-0.030687914229746305,-0.7897106836413322,-0.4767843642183177,3,right
7.933,-0.04030189911257954,0.9353900953115214,-0.13925995044074524,-3.564517880904096,1.0214948719187396,0.018107438713861924,-0.03145992053487354,-0.7946704906715228,-0.46370309882888544,3,right
7.934,-0.035602662329788544,0.9347468223958901,-0.1395808569093917,-3.501023206719913,1.002418870368233,0.004885613520375237,-0.03232776491352569,-0.7990625115580802,-0.4511970304560532,3,right
7.937,-0.031013503136383572,0.9341481404188264,-0.13987475755538925,-3.435500360872202,0.9835024025400027,-0.008392293032948582,-0.03329075753476036,-0.8028967768868243,-0.4392672320988416,3,right
7.938,-0.026532984158895406,0.9335960838313067,-0.1401421469217933,-3.368033927911345,0.9647451789600886,-0.021720217332098817,-0.03434814606625063,-0.8061837292982225,-0.42791430555476123,3,right
7.942,-0.02215950124767055,0.9330927421724537,-0.14038354581085982,-3.298709707478924,0.9461468439050505,-0.03509209517459808,-0.03549911995459774,-0.8089342060159328,-0.41713840111265305,3,right
7.942,-0.017891290042111225,0.9326402588806708,-0.140599498712978,-3.227614555940795,0.9277069959315175,-0.048501871332815104,-0.036742814706682295,-0.8111594208941252,-0.4069392374489178,3,right
7.949,-0.013726432641306444,0.9322408299274403,-0.1407905711023688,-3.1548362283678837,0.9094252087337001,-0.06194350893213894,-0.038078316175090124,-0.8128709459930461,-0.39731612169452074,3,right
7.95,-0.009662864406394012,0.9318967022708823,-0.14095734662251655,-3.080463220665734,0.8913010522754392,-0.07541099868241549,-0.03950466485091699,-0.8140806926907534,-0.3882679696418147,3,right
7.9510000000000005,-0.005698380913265324,0.9316101721255293,-0.1411004241875269,-3.0045846116487636,0.8733341141438145,-0.088898368001156,-0.041020860167523314,-0.8148008923374384,-0.3797933260618811,3,right
7.952000000000001,-0.001830645067774954,0.9313835830452467,-0.1412204150264088,-2.9272899048503414,0.8555240210717949,-0.10239969006711878,-0.04262586481907323,-0.8150440764572744,-0.371890385104741,3,right
7.956,0.0019428056104930985,0.9312193238182562,-0.14131793969637704,-2.848668869855231,0.8378704605778644,-0.11590909284293995,-0.044318609097953356,-0.8148230565012997,-0.36455701075644115,3,right
7.957000000000001,0.005624551536537178,0.9311198261755994,-0.14139362508965178,-2.7688113829366103,0.8203732026710073,-0.1294207681055459,-0.0460979952554247,-0.8141509031534244,-0.35779075732866444,3,right
7.961,0.009217283447476056,0.9310875623158065,-0.14144810145482492,-2.68780726677581,0.8030321215698885,-0.14292898052312059,-0.04796290189011613,-0.8130409251902916,-0.3515888899581588,3,right
7.962000000000001,0.012723794640899627,0.9311250422490774,-0.1414819994492699,-2.605746129039113,0.785847217385515,-0.15642807681742413,-0.04991218836921986,-0.8115066478943839,-0.34594840509491104,3,right
7.966,0.01614697307685453,0.9312348109650922,-0.14149594723688128,-2.5227171995823947,0.7688186377171133,-0.1699124950502656,-0.051944699282726776,-0.8095617910354104,-0.34086605095196104,3,right
7.9670000000000005,0.01948979335531782,0.9314194454299178,-0.1414905676463342,-2.4388091660510987,0.7519466991114059,-0.18337677407292372,-0.05405926890742798,-0.8072202465184266,-0.33633834785305944,3,right
7.9670000000000005,0.022755308579058574,0.9316815514183462,-0.14146647540577176,-2.354110007639995,0.7352319083359198,-0.1968155631772823,-0.05625472561470842,-0.8044960559483463,-0.332361608347028,3,right
7.972,0.025946642108751854,0.9320237601882964,-0.14142427446945174,-2.2687068267743933,0.7186749834174098,-0.2102236319874063,-0.05852989613254026,-0.8014033884439989,-0.32893195692097166,3,right
7.973,0.02906697921358065,0.9324487250050422,-0.1413645554518021,-2.1826856784719615,0.7022768743969283,-0.22359588063022554,-0.06088360959617655,-0.7979565189490743,-0.3260453491843958,3,right
7.977,0.03211955861827937,0.9329591175254383,-0.141287893183697,-2.0961313973773987,0.6860387837596096,-0.2369273502014295,-0.0633147013652213,-0.7941698071337698,-0.3236975904668235,3,right
7.978,0.03510766394792497,0.9335576240541104,-0.14119484440348729,-2.0091274236371848,0.6699621865280961,-0.25021323343012297,-0.0658220166088376,-0.7900576768952252,-0.32188435381138963,3,right
7.978,0.03803461507436096,0.9342469416826873,-0.14108594559245374,-1.9217556308983663,0.6540488500637384,-0.2634488852432585,-0.06840441366585318,-0.7856345964468716,-0.32060119735611026,3,right
7.982,0.04090375937180073,0.9350297743204925,-0.14096171096157442,-1.834096160890787,0.6383008536505617,-0.2766298328182807,-0.07106076718674467,-0.7809150589858477,-0.31984358109607325,3,right
7.982,0.04371846289284069,0.9359088286232157,-0.14082263059226655,-1.746227267873903,0.6227206079070562,-0.28975178482475045,-0.07378997106470093,-0.7759135639267039,-0.3196068830213324,3,right
7.9879999999999995,0.04648210147921935,0.9368868098250378,-0.14066916872638316,-1.65822517410972,0.607310874016569,-0.3028106397580059,-0.07659094116318164,-0.7706445986887164,-0.3198864146268081,3,right
7.9879999999999995,0.04919805182429763,0.9379664174775818,-0.1405017621919255,-1.5701639363455948,0.5920747827371472,-0.31580249338022354,-0.07946261784759973,-0.7651226210232852,-0.320677435792009,3,right
7.992999999999999,0.05186968250683579,0.9391503410951457,-0.1403208189449782,-1.4821153230546382,0.5770158531460803,-0.32872364530656734,-0.08240396832896547,-0.7593620418670803,-0.32197516902988427,3,right
7.994,0.05450034501765867,0.9404412557012989,-0.14012671670781618,-1.3941487021810748,0.5621380110748798,-0.34157060477393075,-0.08541398882753672,-0.7533772087058304,-0.32377481310559864,3,right
7.996,0.0570933648006779,0.9418418172691854,-0.13991980168764395,-1.3063309391377358,0.5474456071909349,-0.35434009562958707,-0.08849170656472222,-0.7471823894329197,-0.326071556027494,3,right
7.996,0.05965203232704435,0.943354658047908,-0.13970038736816315,-1.2187263048028967,0.5329434346825926,-0.3670290605768584,-0.09163618159168589,-0.7407917566862797,-0.32886058741395346,3,right
8.001,0.06217959421737475,0.944982381769631,-0.13946875337457415,-1.1313963932638949,0.5186367465049307,-0.37963466471470336,-0.09484650846329667,-0.7342193726464101,-0.3321371102413285,3,right
8.001,0.06467924442395667,0.9467275587350489,-0.13922514441943476,-1.0444000490553929,0.5045312721440277,-0.39215429840789934,-0.09812181776626372,-0.727479174277765,-0.33589635197951634,3,right
8.006,0.06715411548389377,0.9485927207773424,-0.13896976934048827,-0.9577933036407532,0.49063323385807966,-0.4045855795242658,-0.10146127751048788,-0.7205849589951748,-0.3401335751231892,3,right
8.007,0.06960726985485349,0.9505803561059114,-0.13870280024147127,-0.8716293208857759,0.47694936235427654,-0.4169263550751353,-0.10486409439285026,-0.7135503707364549,-0.34484408712807846,3,right
8.01,0.07204169134551544,0.952692904030482,-0.13842437174372568,-0.785958351275002,0.4634869118609306,-0.4291747022950321,-0.10832951494284504,-0.7063888864218657,-0.3500232497631024,3,right
8.01,0.07446027665244184,0.9549327495634512,-0.13813458035196635,-0.7008276946219008,0.4502536745549466,-0.44132892919626665,-0.11185682655964829,-0.6991138027806515,-0.3556664878904996,3,right
8.015,0.07686582701520894,0.9573022178946918,-0.1378334839340661,-0.6162816710255211,0.43725799430533824,-0.4533875746338929,-0.11544535845039647,-0.6917382235244753,-0.3617692976874897,3,right
8.017000000000001,0.07926104000243649,0.9598035687313557,-0.13752110131442657,-0.5323615998275999,0.42450877969413453,-0.46534940791621104,-0.11909448247962831,-0.684275046847207,-0.3683272543243316,3,right
8.021,0.08164850144137459,0.9624389904970928,-0.1371974119838371,-0.44910578632566445,0.4120155162766777,-0.4772134279957283,-0.12280361394002177,-0.6767369532301934,-0.3753360191149791,3,right
8.022,0.08403067750267719,0.9652105943887683,-0.13686235593293283,-0.3665495159993416,0.3997882780439991,-0.4889788622752165,-0.12657221225473358,-0.6691363935318506,-0.3827913461578574,3,right
8.027000000000001,0.08640990695155762,0.9681204082920231,-0.13651583361783512,-0.2847250560088735,0.3878377380506685,-0.5006451650632274,-0.1303997816218228,-0.6614855773401638,-0.39068908848559003,3,right
8.027999999999999,0.08878839357771122,0.9711703705593805,-0.1361577060649795,-0.20366166372674624,0.3761751781722493,-0.5122120157131471,-0.13428587161141312,-0.6537964615664699,-0.399025203743801,3,right
8.029,0.09116819881846168,0.9743623236557404,-0.13578779512003125,-0.12338560206533815,0.36481249795725496,-0.5236793164795853,-0.1382300777264184,-0.6460807392587127,-0.40779575942040097,3,right
8.03,0.09355123459187255,0.9776980076758996,-0.13540588384380636,-0.043920161365590314,0.35376222253930273,-0.5350471901256151,-0.14223204193782654,-0.6383498286122173,-0.41699693764803636,3,right
8.036,0.09593925635906786,0.9811790537377193,-0.1350117170546631,0.03471431238611653,0.3430375095759861,-0.5463159773140902,-0.14629145320078477,-0.6306148621661335,-0.4266250395910504,3,right
8.037,0.09833385643682699,0.9848069772535861,-0.13460500201261524,0.1125003832434412,0.3326521551818495,-0.5574862338159834,-0.15040804793329882,-0.6228866762246756,-0.4366764893665983,3,right
8.038,0.1007364575817658,0.9885831710829361,-0.13418540923885378,0.189423485116156,0.3226205988237514,-0.5685587275684022,-0.1545816103952487,-0.6151758006341513,-0.4471478373374825,3,right
8.04,0.10314830686745696,0.9925088985699818,-0.13375257346661304,0.26547187594267413,0.3129579271478348,-0.5795344356146571,-0.15881197288099097,-0.6074924490978131,-0.45803576255254574,3,right
8.041,0.10557046987712675,0.9965852864722868,-0.13330609472254884,0.3406365864424573,0.3036798767083027,-0.5904145409584716,-0.16309901566357943,-0.5998465101595306,-0.46933707417462994,3,right
8.047,0.10800382523603803,1.0008133177863572,-0.1328455395386477,0.4149113636692585,0.29480283556921183,-0.6012004293641456,-0.16744266667307614,-0.5922475388954254,-0.4810487118506308,3,right
8.048,0.11044905950796911,1.0051938244756142,-0.13237044229247147,0.4882926096018299,0.28634384374981586,-0.6118936861182115,-0.17184290091618587,-0.5847047493016263,-0.4931677450423292,3,right
