time,gFx,gFy,gFz,ax,ay,az,wx,wy,wz,subject_number,foot
2.09,-0.005417488294195079,1.1305568512123971,-0.1021491700726033,1.9108572474280061,0.046621891885153165,-1.0860670205403091,-0.3371061657049393,-0.15951109569123845,-0.7976991788698149,3,right
2.094,-0.003931255797918407,1.1358242297946692,-0.10133469488525497,1.942495193018804,0.059348594146614086,-1.1009541186315785,-0.34437189668507545,-0.15900712546395754,-0.812557097979323,3,right
2.094,-0.0024483907104172267,1.1411402020864418,-0.1004605170805471,1.974278228290746,0.07286916710837135,-1.1159672299799546,-0.3517074079811195,-0.15853391844787462,-0.8276383830989436,3,right
2.095,-0.000971794984206432,1.146500523341681,-0.09952534282550601,2.006218259280674,0.08720461711821488,-1.1311007908505404,-0.3591109618802308,-0.15808881895241164,-0.8429445210168469,3,right
2.0980000000000003,0.0004954527623833436,1.1519007585962333,-0.09852790014285924,2.038327456901489,0.10237582835466236,-1.1463490043294002,-0.3665807180573348,-0.15766906736892472,-0.8584769055715891,3,right
2.099,0.0019500974207592966,1.1573362825809625,-0.0974669420941469,2.0706182343574815,0.11840353265297245,-1.161705834485347,-0.3741147322899645,-0.1572718038905701,-0.87423682873055,3,right
2.104,0.003388707892411924,1.1628022799390945,-0.09634125009740437,2.1031032225919457,0.13530827821347644,-1.1771650004062486,-0.38171095510720277,-0.1568940723086073,-0.8902254712104981,3,right
2.105,0.004807677911154866,1.168293745766322,-0.09514963740020756,2.135795243649572,0.15311039715705335,-1.1927199701225364,-0.38936723039418064,-0.15653282388392728,-0.9064438926849054,3,right
2.109,0.006203227186982288,1.1738054864981213,-0.09389095271744607,2.1687072820114515,0.1718299719607023,-1.208363954456834,-0.3970812939737698,-0.1561849212926582,-0.9228930216232883,3,right
2.109,0.007571402871103828,1.1793321211719527,-0.09256408402564129,2.2018524539960334,0.19148680082181854,-1.2240899008441033,-0.40485077218728643,-0.15584714264475727,-0.9395736448085098,3,right
2.113,0.008908081342481743,1.1848680830916931,-0.09116796249504587,2.2352439753199858,0.21210036200235743,-1.2398904871669765,-0.41267318049619695,-0.15551618557454358,-0.9564863965786345,3,right
2.114,0.01020897032308917,1.1904076219200945,-0.08970156654193823,2.2688951269135282,0.2336897772067051,-1.2557581156512023,-0.42054592212698017,-0.15518867140216622,-0.9736317478405935,3,right
2.12,0.011469611338688908,1.1959448062251579,-0.08816392599021428,2.3028192190854893,0.2562737740497669,-1.2716849068663645,-0.4284662867814603,-0.15486114936502973,-0.9910099949035768,3,right
2.12,0.012685382547119999,1.2014735265077925,-0.08655412633542717,2.337029554134038,0.2798706476745317,-1.2876626938772506,-0.4364314494350769,-0.15453010091821912,-1.0086212481807437,3,right
2.123,0.013851501957699828,1.206987498737429,-0.08487131310144941,2.3715393874997894,0.30449822158117285,-1.3036830165914346,-0.4444384692457023,-0.15419194410297596,-1.0264654208085042,3,right
2.123,0.014963031069363005,1.2124802684165275,-0.08311469627064222,2.4063618875587687,0.33017380773260424,-1.3197371163488085,-0.4524842885957535,-0.15384303798227736,-1.0445422172332934,3,right
2.129,0.016014878962628397,1.2179452151852934,-0.08128355475875247,2.441510094153539,0.3569141660043155,-1.3358159307989481,-0.46056573229047415,-0.1534796871425589,-1.0628511218164332,3,right
2.13,0.017001806888310007,1.2233755579674637,-0.07937724090438086,2.4769968759616576,0.38473546304927364,-1.3519100891123137,-0.46867950693538135,-0.15309814626060225,-1.0813913875083405,3,right
2.133,0.017918433402804364,1.2287643606490863,-0.07739518495740258,2.512834886801528,0.41365323065168536,-1.368009907571386,-0.476822200515985,-0.15269462473457718,-1.100162024644012,3,right
2.134,0.018759240104902927,1.234104538276654,-0.07533689957711669,2.5490365209766424,0.4436823236464735,-1.3841053855879062,-0.48499028220298734,-0.1522652913781862,-1.11916178991238,3,right
2.1390000000000002,0.019518578028850812,1.2393888637593358,-0.07320198436560478,2.585613867760189,0.4748368774844237,-1.4001862021924356,-0.49318010240626525,-0.15180627917680742,-1.1383891755527986,3,right
2.14,0.02019067474079613,1.2446099750601327,-0.07099013044647146,2.622578665123003,0.5071302655261068,-1.4162417130424625,-0.5013878931010182,-0.1513136901044686,-1.1578423988325797,3,right
2.1430000000000002,0.020769642173732887,1.2497603828612462,-0.06870112506996826,2.659942252808884,0.540575056150872,-1.432260947995271,-0.5096097684495396,-0.1507836000004101,-1.1775193918601587,3,right
2.1430000000000002,0.021249485222977652,1.254832478692903,-0.06633485621069059,2.697715524862385,0.575182969770439,-1.4482326092917477,-0.5178417257421307,-0.15021206350391011,-1.1974177917891191,3,right
2.148,0.021624111111598666,1.2598185435228368,-0.06389131712444437,2.7359088817152855,0.6109648358398878,-1.464145070397222,-0.5260796466807262,-0.14959511904594855,-1.2175349314689556,3,right
2.148,0.02188733952556681,1.2647107568075306,-0.061370610828135254,2.774532181939102,0.6479305499621463,-1.4799863755453382,-0.5343192990288442,-0.14892879389617814,-1.2378678305991007,3,right
2.153,0.02203291351452673,1.2695012059983064,-0.058772954456099875,2.813594693772182,0.6860890311854215,-1.4957442400308145,-0.5425563386514985,-0.14820910926355269,-1.2584131874433668,3,right
2.154,0.022054511154923885,1.2741818964794576,-0.05609868344091062,2.85310504653112,0.7254481795963849,-1.5114060512967766,-0.5507863119584455,-0.147432085450254,-1.2791673711439735,3,right
2.154,0.021945757973752558,1.2787447619051853,-0.05334825547369016,2.893071182017456,0.766014834315325,-1.526958870862147,-0.5590046587127272,-0.14659374706553274,-1.3001264145818485,3,right
2.158,0.021700240130707975,1.283181674903993,-0.050522254209982416,2.9335003060319127,0.8077947320029036,-1.5423894371343312,-0.5672067150739105,-0.14569012831873024,-1.3212860075629331,3,right
2.158,0.021311518354302218,1.2874844581250529,-0.047621392690776664,2.97439884010967,0.850792465991598,-1.5576841691521617,-0.575387716693985,-0.1447172784176986,-1.3426414900177275,3,right
2.1630000000000003,0.020773142625517663,1.2916448956006052,-0.04464651644443668,3.015772373591523,0.8950114461583791,-1.5728291713037572,-0.5835428017352673,-0.143671267091546,-1.3641878449949898,3,right
2.164,0.02007866760192732,1.2956547443948947,-0.041598606233646696,3.057625616135826,0.9404538596303348,-1.5878102390548767,-0.5916670137721624,-0.14254819024363993,-1.3859196913986545,3,right
2.165,0.019221668774624973,1.29950574651267,-0.03847878041745231,3.099962350721296,0.9871206322768251,-1.6026128656794052,-0.5997553045899899,-0.14134417573348823,-1.4078312765106875,3,right
2.168,0.018195759347503702,1.3031896410494577,-0.03528829690779137,3.142785387090943,1.0350113906903555,-1.6172222499047595,-0.6078025369042926,-0.1400553892844845,-1.429916468361764,3,right
2.169,0.01699460782197605,1.3066981765749126,-0.03202855470689574,3.1860965155325784,1.0841244242202444,-1.6316233043409714,-0.6158034870239533,-0.13867804051428337,-1.4521687480121863,3,right
2.174,0.015611956260636932,1.310023123746648,-0.028701095016761366,3.2298964609489396,1.1344566467682966,-1.6458006646052512,-0.623752847481346,-0.1372083890843386,-1.474581201805973,3,right
2.175,0.014041639193441131,1.313156288158011,-0.025307601917377406,3.2741848372730074,1.1860035583141166,-1.6597386991316951,-0.6316452296526283,-0.1356427509648932,-1.497146513661553,3,right
2.177,0.012277603122816328,1.3160895234299768,-0.021849902615350535,3.318960102341711,1.2387592062828192,-1.673421519698763,-0.6394751663911459,-0.1339775048114571,-1.5198569574629737,3,right
2.178,0.010313926580675762,1.318814744562162,-0.018329967264572866,3.364219513353832,1.2927161468997186,-1.6868329927152164,-0.6472371146967757,-0.1322090984485423,-1.5427043896159902,3,right
2.182,0.008144840689217144,1.3213239415603293,-0.014749908355059925,3.409959083039351,1.3478654066800644,-1.6999567513045246,-0.6549254584438688,-0.13033405545615026,-1.5656802418338445,3,right
2.1830000000000003,0.005764750175828304,1.3236091933576888,-0.011111979660155612,3.456173536668838,1.4041964442053614,-1.7127762082270128,-0.6625345111902726,-0.12834898185421972,-1.5887755142179611,3,right
2.187,0.003168254786316815,1.325662682043467,-0.00741857473114394,3.50285627003291,1.4616971123412579,-1.7252745696782419,-0.67005851908972,-0.12625057287994768,-1.6119807686991698,3,right
2.188,0.0003501710272087278,1.3274767074046139,-0.003672224931102081,3.5499993085231374,1.5203536210554072,-1.7374348500012884,-0.6774916639296595,-0.1240356198525895,-1.635286122905445,3,right
2.1919999999999997,-0.002694445852103713,1.3290437017771584,0.0001244029983483465,3.597593267447145,1.5801505009971033,-1.7492398873497124,-0.684828066316372,-0.12170101712002852,-1.6586812445224801,3,right
2.1919999999999997,-0.005970279749914772,1.330356245194565,0.003968509844427976,3.645627313712001,1.6410705680038418,-1.7606723603370815,-0.6920617890289777,-0.11924376908108011,-1.6821553462137506,3,right
2.198,-0.009481731612123921,1.3314070808123337,0.00785716731224908,3.694089129011303,1.7030948887032804,-1.7717148057079504,-0.6991868405636712,-0.11666099727716037,-1.7056971811669797,3,right
2.199,-0.013232897501077534,1.3321891305800213,0.011787321901944156,3.7429648746526603,1.7662027473823383,-1.7823496370641674,-0.70619717888925,-0.11394994754660642,-1.7292950393342021,3,right
2.202,-0.017227547011068906,1.3326955111225889,0.01575579927834809,3.792239158163535,1.8303716142984054,-1.7925591646793158,-0.7130867154347036,-0.11110799723458326,-1.752936744432832,3,right
2.2030000000000003,-0.021469102216794673,1.3329195497839077,0.01975930913401617,3.841895001814631,1.895577115610794,-1.8023256164329706,-0.7198493193293172,-0.10813266245115133,-1.7766096517753374,3,right
2.209,-0.025960617337476018,1.332854800778401,0.023794450538700336,3.8919138132012048,1.9617930051136754,-1.8116311598952888,-0.7264788219154177,-0.10502160536970125,-1.8003006469952894,3,right
2.21,-0.030704759286105398,1.3324950613905415,0.02785771775787331,3.9422753580238123,2.028991137954791,-1.8204579255912174,-0.7329690215535389,-0.10177264155758588,-1.823996145737673,3,right
2.211,-0.03570378925591247,1.3318343881544596,0.03194550651371713,3.992957735211103,2.097141446527197,-1.8287880314723453,-0.7393136887394209,-0.09838374733039783,-1.847682094381437,3,right
2.2119999999999997,-0.040959545479250924,1.3308671129401708,0.03605412065521109,4.043937354528301,2.1662119187242057,-1.8366036086230846,-0.7455065715518745,-0.09485306712095015,-1.8713439718623113,3,right
2.217,-0.04647342727974667,1.3295878588732248,0.04017977919521454,4.0951889168160065,2.2361685787504975,-1.8438868282265068,-0.7515414014501414,-0.09117892085362238,-1.8949667926639355,3,right
2.218,-0.05224638052777008,1.327991556021359,0.04431862365797598,4.1466853970048705,2.306975470685115,-1.8506199298137203,-0.7574118994389649,-0.08735981131433279,-1.9185351110453062,3,right
2.222,-0.058278884601534645,1.3260734567925094,0.04846672566432856,4.198398030052524,2.378594644994686,-1.8567852508192066,-0.7631117826085717,-0.0833944315030234,-1.9420330265486319,3,right
2.2230000000000003,-0.06457094094668463,1.3238291510009235,0.05262009467524678,4.250296299949946,2.450986148197767,-1.8623652574629976,-0.768634771003435,-0.07928167194029767,-1.9654441907122784,3,right
2.2230000000000003,-0.0711220633136724,1.3212545805694993,0.056774685820778735,4.302347931945145,2.524108015883626,-1.8673425769790002,-0.7739745946780442,-0.07502062787273195,-1.9887518146986205,3,right
2.226,-0.07793126974191486,1.3183460538422456,0.060926407747140546,4.354518888132631,2.597916269291137,-1.8717000312071375,-0.7791250007445336,-0.07061060630612688,-2.0119386774271235,3,right
2.227,-0.08499707635754558,1.3151002594783374,0.06507113041359376,4.406773366557721,2.6723649156556406,-1.8754206715653057,-0.7840797602693963,-0.06605113281037707,-2.0349871339220154,3,right
2.231,-0.09231749304797301,1.3115142798919839,0.06920469277801515,4.45907380398023,2.747405952484875,-1.8784878153831464,-0.7888326749711566,-0.06134195806591453,-2.057879123798329,3,right
2.2319999999999998,-0.09989002106277312,1.3075856041965712,0.07332291033323493,4.511380882418012,2.8229893756826727,-1.8808850834165876,-0.7933775837232089,-0.05648306413608936,-2.0805961799290253,3,right
2.233,-0.1077116525709956,1.3033121406082795,0.07742158247713868,4.5636535395470865,2.8990631910010958,-1.8825964380699725,-0.7977083688760436,-0.051474670452388696,-2.10311943735937,3,right
2.2359999999999998,-0.11577887218453832,1.2986922282563425,0.081496499697804,4.615848983010708,2.975573428059045,-1.8836062216894438,-0.8018189624124992,-0.046317239498965844,-2.125429642534291,3,right
2.237,-0.12408766043501243,1.2937246483308253,0.08554345052945261,4.667922708714272,3.0524641564112587,-1.8838991944506052,-0.8057033519490852,-0.04101148218252179,-2.1475071629039317,3,right
2.242,-0.13263349916961295,1.2884086344827097,0.0895582282040068,4.719828523226774,3.129677503592902,-1.8834605716518094,-0.8093555865958038,-0.03555836287315218,-2.169331996972064,3,right
2.2430000000000003,-0.14141137881489607,1.282743882383422,0.09353663690988626,4.771518570433801,3.2071536753105434,-1.8822760603836883,-0.8127697826862652,-0.029959104101345436,-2.19088378485141,3,right
2.247,-0.15041580744603744,1.2767305583499484,0.0974744975845665,4.822943362591534,3.284830978000277,-1.8803318955757287,-0.8159401293892443,-0.024215190895892143,-2.2121418193892515,3,right
2.247,-0.15964082158938436,1.2703693069430293,0.10136765320299397,4.874051815930779,3.3626458439746827,-1.87761487541861,-0.8188608942121548,-0.01832837474704286,-2.2330850579259813,3,right
2.252,-0.16907999867764695,1.2636612574497645,0.10521197356830018,4.9247912909594085,3.44053285938105,-1.8741123961588657,-0.8215264284062397,-0.012300677178832431,-2.253692134748464,3,right
2.252,-0.17872647107352516,1.256608029170898,0.10900335966298857,4.9751076376108365,3.5184247951938854,-1.869812486260259,-0.8239311722825708,-0.006134392914073865,-2.273941374299227,3,right
2.256,-0.18857294158001073,1.2492117354481065,0.11273774768559222,5.024945245385229,3.596252641465096,-1.864703839924038,-0.8260696604472375,0.00016790738488514626,-2.2938108052016073,3,right
2.2569999999999997,-0.19861170035749648,1.2414749863853887,0.11641111297817339,5.074247098629099,3.673945645055456,-1.8587758499579834,-0.827936526963369,0.0066033748169540924,-2.313278175159994,3,right
2.26,-0.2088346431577418,1.2334008902359679,0.12001947412388352,5.1229548370977085,3.7514313510709707,-1.852018639981872,-0.8295265104468874,0.013168880402348442,-2.3323209667933007,3,right
2.26,-0.21923329075609108,1.2249930534372873,0.12355889752757727,5.171008821943329,3.828635648227565,-1.8444230959546595,-0.8308344591021234,0.01986101371999405,-2.3509164144586974,3,right
2.265,-0.22979880942397093,1.2162555792808425,0.12702550274373198,5.21834820727086,3.9054828183671257,-1.8359808970063278,-0.8318553357026437,0.02667608204076785,-2.3690415221214733,3,right
2.266,-0.24052203225337526,1.2071930652026763,0.13041546866002585,5.264911017400612,3.981895590347339,-1.8266845455549692,-0.8325842225218509,0.033610109975428376,-2.3866730823256903,3,right
2.27,-0.2513934811366267,1.19781059867556,0.13372504042264152,5.310634229976152,4.057795198526951,-1.8165273966872657,-0.8330163262170989,0.040658839656452915,-2.403787696318995,3,right
2.27,-0.2624033892101829,1.1881137516762652,0.13695053680197097,5.355453865053086,4.133101446067035,-1.805503686778101,-0.8331469826702473,0.047817731473350625,-2.420361795383612,3,right
2.274,-0.2735417235742577,1.1781085736945187,0.14008835763071484,5.399305080302401,4.207732773267623,-1.7936085613225756,-0.8329716617867401,0.05508196538136198,-2.436371663424115,3,right
2.274,-0.28479820809910555,1.1678015832496678,0.1431349910075293,5.442122272459583,4.281606331157559,-1.7808381019512463,-0.8324859722544352,0.06244644280378395,-2.4517934608610883,3,right
2.281,-0.2961623461410342,1.1571997578914923,0.14608702008706348,5.483839185148114,4.354638060553733,-1.7671893525968985,-0.8316856662625557,0.06990578914847607,-2.466603249878249,3,right
2.281,-0.30762344303341166,1.1463105226856576,0.1489411294004832,5.524389023203196,4.426742776803921,-1.7526603447786817,-0.8305666441802454,0.07745435695940478,-2.480777021068961,3,right
2.286,-0.31917062828983245,1.1351417372208685,0.15169411073620195,5.563704573618546,4.497834260425251,-1.7372501219669103,-0.8291249591933282,0.08508622972437033,-2.4942907215264016,3,right
2.286,-0.3307928775410867,1.1237016812185041,0.1543428686609127,5.601718333235972,4.5678253538479465,-1.720958762989317,-0.8273568218969599,0.09279522636033309,-2.5071202844198646,3,right
2.29,-0.3424790342993577,1.1119990388656145,0.15688442578174525,5.638362643294072,4.636628064471255,-1.7037874044370205,-0.8252586048417236,0.10057490639073094,-2.519241660058975,3,right
2.291,-0.3542178316786251,1.1000428820105514,0.1593159278395885,5.673569830948849,4.704153674235637,-1.6857382620259354,-0.8228268470336496,0.10841857579301498,-2.5306308482512265,3,right
2.292,-0.36599791419503785,1.08784265235133,0.16163464868767402,5.707272357875293,4.770312855912077,-1.6668146508668298,-0.8200582583946554,0.11631929342932709,-2.5412639314062204,3,right
2.294,-0.3778078597454101,1.0754081427379962,0.16383799516653103,5.739402976055076,4.835015796305973,-1.6470210045947014,-0.8169497241928104,0.12426987793704208,-2.551117107643504,3,right
2.295,-0.38963620183323006,1.0627494777268394,0.16592351185363696,5.769894890851335,4.898172326569403,-1.6263628933056349,-0.8134983094470117,0.1322629149924836,-2.5601667233532597,3,right
2.301,-0.4014714520768125,1.0498770935452972,0.16788888565306456,5.798681931230819,4.959692059652887,-1.6048470402365493,-0.809701263302746,0.1402907649268114,-2.5683893050069764,3,right
2.302,-0.41330212299616825,1.0368017176174664,0.16973195019665002,5.825698725807143,5.019484534129803,-1.582481337069583,-0.8055560233707716,0.14834557070962315,-2.575761590207462,3,right
2.302,-0.425116751046509,1.0235343477649226,0.17145069004249588,5.85088088124654,5.077459362193476,-1.559274857648271,-0.8010602200188,0.15641926632321662,-2.5822605580041453,3,right
2.3040000000000003,-0.4369039198409241,1.0100862311719037,0.17304324466647644,5.874165158390605,5.133526378828454,-1.535237869839044,-0.7962116806052632,0.16450358555055672,-2.5878634584972353,3,right
2.3040000000000003,-0.44865228346951685,0.9964688432071938,0.17450791224453993,5.895489642627448,5.187595789946297,-1.5103818453203042,-0.7910084336432552,0.17259007120006964,-2.592547841751872,3,right
2.309,-0.46035058978779597,0.9826938662088601,0.17584315322277339,5.914793907165035,5.2395783186997456,-1.484719467171027,-0.7854487128817249,0.1806700847904397,-2.5962915860408815,3,right
2.31,-0.4719877035314097,0.9687731683414954,0.1770475936734504,5.9320191690370825,5.289385349977374,-1.4582646351796338,-0.7795309612899889,0.18873481671861497,-2.599072925432193,3,right
2.315,-0.4835526291182166,0.9547187826311797,0.17812002843937183,5.947108437902623,5.33692907323387,-1.4310324688017506,-0.7732538349306152,0.1967752969342333,-2.600870476734318,3,right
2.316,-0.4950345330142756,0.9405428862793954,0.17905942407289926,5.96000665769457,5.382122623805084,-1.4030393076931684,-0.7666162067046987,0.20478240614366125,-2.601663265810604,3,right
2.32,-0.5064227655623762,0.9262577803546603,0.17986492157584155,5.970660841166661,5.424880222850738,-1.3743027097420328,-0.7596171699525285,0.21274688756679486,-2.6014307532702112,3,right
2.3209999999999997,-0.5177068821959651,0.9118758699581466,0.18053583893705583,5.979020197381987,5.465117316061187,-1.3448414465220757,-0.7522560418916108,0.2206593592697004,-2.6001528595409176,3,right
2.324,-0.528876663981868,0.8974096449567185,0.18107167344531003,5.985036252180057,5.502750711257884,-1.3146754960865026,-0.7445323668729767,0.22851032709607774,-2.5978099893259987,3,right
2.325,-0.5399221374463933,0.8828716613736814,0.18147210373424957,5.988662961652893,5.53769871501019,-1.2838260330200288,-0.7364459194356702,0.23629019822040587,-2.594383055444464,3,right
2.329,-0.5508335936395663,0.86827452352189,0.18173699150800604,5.989856818654064,5.569881268383941,-1.252315415664468,-0.7279967071382638,0.2439892953454804,-2.5898535020509383,3,right
2.33,-0.5616016063846585,0.8536308669516869,0.18186638290481427,5.988576952357851,5.599220081929713,-1.2201671704312655,-0.7191849731452188,0.2515978715668765,-2.584203327228422,3,right
2.335,-0.5722170496504511,0.8389533422653913,0.18186050947281515,5.984785220878854,5.625638770010992,-1.1874059731123976,-0.7100111985448554,0.2591061259266653,-2.5774151049440333,3,right
2.335,-0.5826711139770561,0.8242545998227504,0.18171978874552844,5.97844629695539,5.649062984564569,-1.1540576270991694,-0.7004761043746633,0.26650421967848076,-2.569472006354692,3,right
2.339,-0.59295532188584,0.809547275332055,0.18144482441059806,5.969527746692928,5.669420548377229,-1.120149038416609,-0.6905806533286392,0.2737822932857733,-2.5603578204464728,3,right
2.34,-0.6030615422114238,0.794843976291998,0.18103640606701404,5.958000101356584,5.686641587954505,-1.0857081874794006,-0.6803260511202988,0.28093048417479793,-2.5500569739880885,3,right
2.343,-0.6129820033099411,0.7801572692197226,0.18049550856954635,5.943836922194395,5.700658666048624,-1.0507640974736103,-0.6697137474739752,0.2879389452635684,-2.538554550775656,3,right
2.344,-0.622709305121395,0.765499667569778,0.1798232909716137,5.927014858265702,5.711406913903959,-1.0153467992668606,-0.6587454367159771,0.29479786428766425,-2.525836310142522,3,right
2.349,-0.6322364300873202,0.7508836202157223,0.17902109509213293,5.907513697241448,5.718824163269343,-0.97948729274807,-0.6474230579361518,0.3014974839434046,-2.511888704704528,3,right
2.35,-0.6415567529379447,0.7363215003366531,0.17809044372015737,5.885316409135672,5.7228510782173485,-0.9432175044964431,-0.6357487946893725,0.30802812286850056,-2.4966988973076414,3,right
2.353,-0.6506640493613578,0.7218255945436377,0.1770330384186594,5.860409182919816,5.723431286801287,-0.9065702416780297,-0.6237250742054409,0.31438019747986956,-2.4802547771413828,3,right
2.354,-0.6595525035499211,0.7074080921111925,0.17585075683102835,5.832781455963808,5.720511512571099,-0.8695791420669075,-0.6113545660748874,0.3205442446878363,-2.4625449749779618,3,right
2.358,-0.668216714582958,0.6930810742382999,0.17454564938294853,5.802425936240094,5.714041705959595,-0.8322786200868679,-0.5986401803771354,0.32651094550546117,-2.443558877493454,3,right
2.358,-0.6766517015553684,0.6788565033262938,0.17311993531160916,5.769338617219079,5.703975175540598,-0.7947038087683974,-0.5855850652354053,0.33227114953082093,-2.4232866406466256,3,right
2.359,-0.6848529073253307,0.6647462123026662,0.1715759980023325,5.7335187853765515,5.690268719150472,-0.7568904975147618,-0.5721926038762913,0.33781590007751566,-2.4017192022017633,3,right
2.363,-0.6928162007475456,0.6507618940327045,0.1699163796450839,5.694969020225922,5.672882754854368,-0.718875065570118,-0.5584664114411529,0.34313645936448806,-2.3788482936840443,3,right
2.364,-0.7005378772572394,0.6369150908607106,0.16814377525713997,5.6536951867801974,5.651781451728182,-0.6806944110817861,-0.544410331890038,0.3482243329736375,-2.354666452166685,3,right
2.369,-0.7080146576516781,0.6232171843240557,0.1662610261728877,5.609706420413973,5.626932860280182,-0.6423858757706453,-0.530028435243332,0.35307129298510387,-2.329167032170997,3,right
2.37,-0.7152436849070298,0.609679385077059,0.16427111315501688,5.5630151044536085,5.598309041642883,-0.6039871658356044,-0.5153250152351739,0.3576693995630742,-2.3023442177508855,3,right
2.37,-0.7222225188955954,0.596312723036719,0.16217714929699062,5.513636841474427,5.565886193425982,-0.5655362708202402,-0.5003045873571793,0.3620110209663076,-2.2741930347151715,3,right
2.373,-0.7289491289095689,0.5831280377255491,0.15998237287135916,5.461590419641679,5.5296447694275574,-0.5270713827818981,-0.4849718872511633,0.3660888519972852,-2.24470936291448,3,right
2.373,-0.735421883931367,0.5701359687467745,0.15769014025570274,5.406897775058529,5.489569591072773,-0.48863081749072373,-0.4693318694086361,0.36989593090317835,-2.213889948515627,3,right
2.378,-0.7416395406356423,0.557346946287167,0.15530391903046725,5.349583950418184,5.445649949667466,-0.450252938283326,-0.45338970613392976,0.3734256547410915,-2.1817324161826233,3,right
2.379,-0.7476012291805224,0.544771181511499,0.1528272812856698,5.289677049883851,5.397879699225932,-0.41197608258317003,-0.43715078672692104,0.3766717932192794,-2.1482352810795926,3,right
2.3819999999999997,-0.7533064369311405,0.5324186567021661,0.15026389711812752,5.2272081900394705,5.346257339757745,-0.3738384909773517,-0.42062071684043206,0.37962850102526097,-2.1133979606070605,3,right
2.383,-0.7587549903381,0.5202991150128364,0.1476175282631308,5.162211446746624,5.290786090887441,-0.3358782387395877,-0.4038053179665215,0.3822903286509566,-2.0772207857792315,3,right
2.388,-0.7639470352600752,0.5084220497408934,0.1448920217859495,5.094723797735598,5.231473955669819,-0.29813316968954295,-0.3867106270050302,0.38465223172416085,-2.039705012146026,3,right
2.3890000000000002,-0.768883016067978,0.4967966930686738,0.1420913037649143,5.024785060751212,5.168333774452577,-0.26064083227901946,-0.3693428958669057,0.38670957885483337,-2.000852830159797,3,right
2.3930000000000002,-0.7735636538899655,0.4854320042687863,0.13921937293190623,4.952437827066783,5.101383268626941,-0.2234384177960383,-0.35170859106401325,0.3884581580038442,-1.9606673748828016,3,right
2.394,-0.7779899243511221,0.47433665741501513,0.13628029428018165,4.877727390172429,5.030645074095938,-0.1865627005784635,-0.3338143932363384,0.38989418138094734,-1.9191527349276671,3,right
2.397,-0.7821630351404079,0.4635190286939846,0.13327819267373336,4.800701669436887,4.956146764278945,-0.15004998012954285,-0.3156671965667015,0.3910142888778852,-1.8763139605192356,3,right
2.398,-0.7860844037138531,0.4529871834720619,0.1302172464852137,4.7214111285351255,4.87792086246026,-0.11393602502857218,-0.29727410803234083,0.39181555004163793,-1.8321570705623587,3,right
2.4019999999999997,-0.7897556354201903,0.4427488633230049,0.12710168127046342,4.639908688427197,4.7960048432785145,-0.07825601853082696,-0.2786424464419731,0.3922954645919361,-1.7866890585963933,3,right
2.4019999999999997,-0.7931785023073418,0.4328114732487531,0.12393576348481074,4.556249634667206,4.710441123143004,-0.043044505751947224,-0.259779741206215,0.39245196148624817,-1.739917897513346,3,right
2.408,-0.7963549228313735,0.4231820693212035,0.12072379426312667,4.470491518814698,4.621277039352282,-0.008335342333105613,-0.24069373078854295,0.39228339653453875,-1.6918525429128324,3,right
2.4090000000000003,-0.7992869426489971,0.413867346942421,0.11747010329871974,4.382694053714459,4.528564817679801,0.025838355515466146,-0.2213923607832838,0.3917885485651726,-1.642502934963245,3,right
2.412,-0.8019767166426295,0.404873629880061,0.11417904284342312,4.29291900240453,4.432361528180875,0.059444259693672764,-0.20188378156646525,0.3909666141424104,-1.5918799986347953,3,right
2.4130000000000003,-0.8044264923117258,0.396206860199981,0.1108549818124972,4.201230060406189,4.332729028964966,0.09245087771311164,-0.18217634546471398,0.38981720083500837,-1.539995642166369,3,right
2.417,-0.8066385946613057,0.3878725891973207,0.10750229992931472,4.107692731143829,4.229733897667046,0.12482759911909226,-0.16227860338677208,0.3883403190344994,-1.4868627536244479,3,right
2.418,-0.8086154127126489,0.37987596941917057,0.1041253818050761,4.012374194236959,4.123447350341825,0.1565447409295916,-0.1421993008616059,0.3865363723207937,-1.4324951954087013,3,right
2.421,-0.8103593877346909,0.37222174786894985,0.10072861083246333,3.915343166401079,4.013945147494765,0.18757359218589909,-0.12194737342651217,0.38440614637179576,-1.3769077965552237,3,right
2.4219999999999997,-0.8118730032402537,0.3649142604770772,0.09731636278695657,3.8166697546888586,3.9013074869541455,0.2178864577078964,-0.1015319413080791,0.38195079641279794,-1.320116342684809,3,right
2.426,-0.8131587767201296,0.35795742790937046,0.09389299907313822,3.7164253017979507,3.7856188832790227,0.247456701145026,-0.08096230336075998,0.37917183323978415,-1.2621375635172836,3,right
2.427,-0.8142192530282736,0.35135475276250633,0.09046285960812944,3.6146822231668385,3.6669680333886814,0.2762587874120253,-0.060247930339425285,0.37607110804642374,-1.2029891182552546,3,right
2.428,-0.8150569992993949,0.345109318169191,0.08703025538094732,3.5115138355754127,3.545447668090179,0.3042683245964508,-0.03939845778357711,0.3726507966374462,-1.1426895798316945,3,right
2.432,-0.8156746012554995,0.33922378781170043,0.08359946076733052,3.4069941769624563,3.4211543891718397,0.3314621054228838,-0.018423678902570916,0.368913383806738,-1.0812584193982193,3,right
2.4330000000000003,-0.8160746607192696,0.33370040732239203,0.08017470572356937,3.301197817167914,3.294188491722032,0.35781814835650694,0.0026664622613296607,0.36486164846100017,-1.0187159920417137,3,right
2.437,-0.81625979411916,0.32854100702864497,0.07676016801617418,3.194199659303734,3.16465377132436,0.3833157384264649,0.023861877317414095,0.36049864971504136,-0.9550835240191349,3,right
2.438,-0.8162326317717625,0.3237470059780702,0.07335996564570242,3.0860747318623654,3.032657316166447,0.40793546778557827,0.04515233969631513,0.35582771398729357,-0.890383101411232,3,right
2.439,-0.8159958177610102,0.3193194171671847,0.0699781495922366,2.976897973714263,2.898309286062044,0.43165927571306095,0.06652749056569239,0.3508524230839161,-0.8246376600155579,3,right
2.443,-0.8155520102809672,0.3152588538956385,0.06661869696457706,2.8667440178249555,2.761722683925181,0.454470487210894,0.08797684455267632,0.34557660325896244,-0.7578709762960237,3,right
2.444,-0.8149038823431385,0.311565537165044,0.06328550459653183,2.755686981564924,2.6230131271982136,0.47635384903447514,0.10948979533421167,0.34000431523719765,-0.6901076592031772,3,right
2.4459999999999997,-0.8140541227584199,0.30823930402655014,0.05998238311069768,2.643800269436589,2.4822986247586614,0.49729556230310923,0.13105562115668343,0.3341398451852836,-0.6213731426763863,3,right
2.447,-0.8130054373016896,0.30527961676330445,0.05671305145493877,2.531156390357239,2.33969936127696,0.5172833113868157,0.15266349034642027,0.3279876966161839,-0.5516936786361809,3,right
2.4530000000000003,-0.8117605499679293,0.30268557278338737,0.053481131901510506,2.4178267895882,2.1953374890209374,0.5363062890707854,0.17430246687285378,0.32155258321078983,-0.48109633027213816,3,right
2.4530000000000003,-0.8103222042310089,0.3004559150952657,0.0502901454869234,2.303881694988985,2.049336926703048,0.5543552180576199,0.1959615160262626,0.314839422539931,-0.40960896542891406,3,right
2.456,-0.8086931642172325,0.29858904323867,0.04714350786914903,2.189389977272979,1.9018231649609638,0.5714223688647508,0.21762951027215183,0.30785333066910625,-0.33726024989030895,3,right
2.457,-0.8068762157102463,0.29708302454874375,0.044044525587760966,2.074419023939244,1.7529230780570908,0.5875015741716654,0.23929523534440705,0.3005996176274594,-0.2640796403586186,3,right
2.46,-0.8048741669158102,0.2959356056396774,0.04099639272402722,1.9590346265532639,1.6027647413778507,0.6025882396687723,0.2609473966394194,0.2930837837217261,-0.19009737692396908,3,right
2.461,-0.8026898489325079,0.2951442240048105,0.038002187963107906,1.8433008810478622,1.4514772543092376,0.6166793514569237,0.28257462597340377,0.28531151667509336,-0.11534447481586084,3,right
2.4659999999999997,-0.8003261158934427,0.2947060196421982,0.0350648720571468,1.7272801007141643,1.2991905680611744,0.629773480043775,0.3041654887651261,0.27728868957014635,-0.03985271522675776,3,right
2.467,-0.7977858447604761,0.29461784662632234,0.03218728567940731,1.611032741551263,1.1460353180095797,0.641870780980316,0.3257084917062163,0.2690213595743234,0.0363453650047427,3,right
2.47,-0.7950719347643322,0.29487628455674464,0.029372147650556304,1.4946173396422555,0.992142660121822,0.6529729921780494,0.3471920909811703,0.26051576742556376,0.11321648506583527,3,right
2.47,-0.7921873064910868,0.2954776498234747,0.026622053513316958,1.3780904602234803,0.8376441110283581,0.6630834279444334,0.3686047010990428,0.2517783376551147,0.190726633413326,3,right
2.475,-0.7891349006200963,0.29641800663871154,0.023939474433072844,1.2615066581131382,0.6826713913008665,0.6722069697713458,0.3899347043986922,0.2428156795237606,0.2688410828081699,3,right
2.476,-0.7859176763222638,0.2976931777970737,0.02132675640885469,1.144918449164986,0.527356271495065,0.680350053908468,0.4111704612892694,0.23363458864705436,0.34752440736148404,3,right
2.481,-0.7825386093315739,0.2992987551409041,0.01878611978883466,1.0283762924124682,0.37183042051466575,0.6875206557506469,0.43230032128743856,0.22424204928446437,0.4267405018146273,3,right
2.4819999999999998,-0.779000689707139,0.3012301097214071,0.016319659091738842,0.9119285825684892,0.2162252558515531,0.6937282710654542,0.4533126349125807,0.2146452372667049,0.5064526032776729,3,right
2.487,-0.7753069193071955,0.30348240165784474,0.013929343135070845,0.795621652546005,0.06067179525629094,0.6989838940843575,0.4741957665009582,0.2048515235348898,0.5866233156522311,3,right
2.487,-0.7714603089993227,0.30605058970480675,0.01161701546222859,0.679499785664745,-0.09469949060754312,0.7032999924781193,0.494938107999516,0.19486847826454295,0.6672146369661106,3,right
2.49,-0.7674638756312611,0.30892944054228616,0.009384395047684237,0.5636052372096407,-0.24975882497192525,0.7066904792342829,0.5155280937996588,0.18470387554691187,0.7481879898487294,3,right
2.491,-0.7633206387840724,0.31211353780590373,0.00723307724679175,0.44797826500693766,-0.40437727168243853,0.7091706814518685,0.535954216670969,0.1743656985994665,0.8295042553775018,3,right
2.495,-0.759033617325469,0.3155972908754798,0.00516453494665501,0.332657168684494,-0.5584268822718715,0.7107573060657097,0.5562050448544286,0.1638621454769211,0.9111238105266378,3,right
2.497,-0.7546058257779745,0.3193749434393364,0.0031801198679581584,0.21767833728341987,-0.7117808438345294,0.7114684025102023,0.5762692403742699,0.1532016352535963,0.9930065694508825,3,right
2.498,-0.7500402705154706,0.3234405818499426,0.0012810639665870344,0.10307630488897278,-0.8643136281451594,0.711323322329626,0.5961355785799192,0.14239281462330913,1.0751120286996771,3,right
2.5,-0.7453399458017531,0.3277881432849603,-0.0005315191102856433,-0.011116186050497764,-1.0159011424647604,0.7103426757396377,0.6157929686930507,0.1314445647418494,1.1573993157679179,3,right
2.501,-0.7405078296855202,0.3324114237271786,-0.00225663254862883,-0.12486811404678709,-1.166420882473552,0.7085482851420185,0.6352304747095275,0.12036600791947218,1.2398272391479286,3,right
2.505,-0.7355468797706228,0.3373040857771755,-0.0038933948986007803,-0.2381501009504124,-1.3157520875298805,0.7059631356443052,0.6544373357694944,0.109166513649755,1.3223543373577316,3,right
2.5069999999999997,-0.7304600288874573,0.3424596663131897,-0.00544103863357082,-0.3509343282165653,-1.4637758972554185,0.7026113228935408,0.6734029853442314,0.09785570358142387,1.40493892511139,3,right
2.508,-0.7252501806950544,0.3478715840130987,-0.0068989087550233846,-0.463194448645298,-1.610375506291676,0.6985179989990528,0.6921170690124506,0.08644345525655649,1.4875391360399226,3,right
2.51,-0.7199202052457726,0.3535331467534931,-0.008266461457596486,-0.5749054956015021,-1.755436312873727,0.6937093175769046,0.7105694608339982,0.07493990455887961,1.570112962061741,3,right
2.511,-0.7144729345524644,0.35943755890054796,-0.009543262865441143,-0.686043791298764,-1.8988460580590036,0.6882123786864607,0.7287502783754239,0.06335544683968877,1.6526182896397639,3,right
2.5140000000000002,-0.7089111582076556,0.3655779285066986,-0.010728987847468566,-0.7965868549735966,-2.0404949545972073,0.6820551739593669,0.7466498964411576,0.05170073668862783,1.735012933162406,3,right
2.515,-0.7032376191072821,0.3719472744261788,-0.011823418913460277,-0.9065133113549169,-2.180275805618674,0.6752665319591917,0.7642589595632784,0.03998668631630397,1.8172546656855637,3,right
2.521,-0.6974550093281643,0.3785385333612059,-0.012826445185919555,-1.015802799747996,-2.318084113552931,0.6678760637559987,0.781568393302086,0.028224462515482298,1.8993012472725204,3,right
2.522,-0.6915659662033632,0.3853445668489194,-0.013738061435543828,-1.1244358840503934,-2.45381817968414,0.6599141086982223,0.7985694144088743,0.016425482167402552,1.9811104511683815,3,right
2.524,-0.6855730686342334,0.3923581681975828,-0.014558367164106684,-1.2323939640156238,-2.5873791947447535,0.6514116803624108,0.8152535399014736,0.0046014062595905675,2.062640088045206,3,right
2.525,-0.6794788336715893,0.39957206937942935,-0.015287565718841493,-1.3396591880784705,-2.7186713209430438,0.6424004126596696,0.831612595102268,-0.007235867618600537,2.1438480285534403,3,right
2.53,-0.6732857133916251,0.40697894788669625,-0.01592596342423444,-1.4462143680539823,-2.847601765814232,0.6329125060759994,0.8476387206875095,-0.019074214336589707,2.2246922244145813,3,right
2.53,-0.6669960920868833,0.41457143355666276,-0.0164739687167066,-1.5520428960202484,-2.9740808482786867,0.6229806740221713,0.8633243787958391,-0.030901291873249602,2.3051307282891886,3,right
2.5340000000000003,-0.6606122837894012,0.42234211537034244,-0.01693209126496588,-1.6571286636930609,-3.0980220572841635,0.6126380892673233,0.8786623582429967,-0.04270455359164979,2.385121712653446,3,right
2.5340000000000003,-0.6541365301420187,0.43028354822725845,-0.01730094105607576,-1.7614559845985316,-3.219342103402276,0.6019183304290908,0.8936457788887363,-0.05447126217184329,2.4646234879164233,3,right
2.539,-0.6475709986337096,0.4383882596959007,-0.0175812274263999,-1.8650095193476428,-3.3379609637423435,0.5908553284918108,0.9082680952009973,-0.06618850523564551,2.5435945200090306,3,right
2.54,-0.6409177812135705,0.44664875673631693,-0.017773758019106654,-1.9677742043145898,-3.453801920538505,0.5794833133231617,0.922523099061376,-0.07784321269728581,2.621993447674363,3,right
2.544,-0.6341788932946321,0.4550575323858966,-0.017879437656156377,-2.0697351840185796,-3.5667915937584267,0.5678367601585174,0.936404921854928,-0.08942217587370631,2.699779099687742,3,right
2.545,-0.627356273155357,0.46360707239044285,-0.017899267120057384,-2.1708777475065353,-3.6768599680742113,0.555950336021305,0.9499080358862927,-0.10091206838814064,2.776910512233215,3,right
2.548,-0.6204517817478549,0.4722898617546492,-0.017834341844046933,-2.2711872690318953,-3.7839404145281246,0.5438588460467755,0.9630272551630796,-0.11229946890042466,2.853346946661652,3,right
2.549,-0.6134672029281482,0.48109839118750675,-0.017685850503471007,-2.3706491533223755,-3.887969707217582,0.5315971796758031,0.9757577355863822,-0.12357088569727406,2.9290479078538105,3,right
2.5540000000000003,-0.6064042441298206,0.49002516343160163,-0.017455073486486214,-2.4692487857272223,-3.988888035315445,0.5192002566846404,0.9880949745871999,-0.1347127831755071,3.003973163409853,3,right
2.5540000000000003,-0.599264537503047,0.4990626994837959,-0.017143381209193637,-2.5669714875320873,-4.0866390107331085,0.5067029730159717,1.0000348102464445,-0.14571161025089668,3.0780827638848107,3,right
2.559,-0.5920496415376983,0.5082035447299897,-0.016752232241048663,-2.66380247672722,-4.181169671725095,0.49414014637611153,1.0115734199350943,-0.156553830725002,3.151337064287383,3,right
2.56,-0.5847610431851851,0.517440275025321,-0.016283171222560525,-2.7597268345121977,-4.272430482724948,0.48154646156281405,1.0227073185099271,-0.16722595564195877,3.2236967470572178,3,right
2.563,-0.5774001604888634,0.5267655027532935,-0.015737826581391716,-2.854729477817886,-4.3603753306931265,0.46895641548786504,1.0334333560991247,-0.17771457766679485,3.2951228467334936,3,right
2.5639999999999996,-0.5699683457260428,0.5361718828942077,-0.015117908075447144,-2.9487951381237774,-4.444961518248343,0.4564042618584416,1.0437487155097214,-0.18800640744437858,3.3655767764435582,3,right
2.565,-0.5624668890564928,0.5456521191280334,-0.014425204202895718,-3.04190834684623,-4.52614975384443,0.4439239554811364,1.0536509092818722,-0.19808831153756054,3.435020355929883,3,right
2.569,-0.5548970226647193,0.5551989699921288,-0.013661579516253478,-3.1340534275705023,-4.603904139245266,0.43154909615255127,1.0631377764032408,-0.20794735089444066,3.5034158400965727,3,right
2.57,-0.5472599253773931,0.5648052551091376,-0.012828971869996781,-3.2252144953967687,-4.6781921545407,0.41931287210047496,1.072207478689797,-0.21757081843407164,3.570725946645944,3,right
2.575,-0.539556727732892,0.5744638614932898,-0.011929389628823948,-3.3153754636675687,-4.74898464093659,0.4072480029398647,1.080858496843957,-0.22694627469936277,3.6369138817807416,3,right
2.575,-0.5317885174767967,0.5841677499358645,-0.010964908865037818,-3.404520058141839,-4.816255781518156,0.3953866821646431,1.0890896262103145,-0.2360615811734109,3.7019433636788444,3,right
2.576,-0.5239563454564664,0.5939099614667558,-0.00993767057190071,-3.492631837680165,-4.879983080055227,0.3837605194791673,1.0968999722538484,-0.2449049312148664,3.765778643852156,3,right
2.5789999999999997,-0.5160612318901606,0.6036836238895555,-0.008849877915190745,-3.57969421870722,-4.940147337690792,0.3724004837821236,1.1042889457854534,-0.2534648786392414,3.8283845265797503,3,right
2.58,-0.5081041729910063,0.613481958386757,-0.007703793543817219,-3.6656904997167747,-4.996732627223541,0.3613368478986352,1.11125625795844,-0.2617303639723201,3.8897263866019953,3,right
2.582,-0.500086147933044,0.623298286184866,-0.006501736985491542,-3.7506038830793496,-5.049726264805513,0.35059913587459357,1.11780191505844,-0.2696907384010517,3.9497701852589704,3,right
2.583,-0.4920081261552844,0.633126035259405,-0.005246082161154057,-3.83441749320538,-5.099118779082907,0.340216073139583,1.1239262131079413,-0.2773357854464921,4.008482485252952,3,right
2.588,-0.4838710750085383,0.6429587470521887,-0.003939255055967403,-3.9171143911113697,-5.1449038779184555,0.3302155395631682,1.129629732305469,-0.28465574038251634,4.065830464211105,3,right
2.589,-0.47567596775593457,0.652790083168794,-0.002583731579997319,-3.9986775856329317,-5.187078412847565,0.32062452537376,1.1349133313182154,-0.29164130742314737,4.1217819272208045,3,right
2.593,-0.4674237919393346,0.6626138320215015,-0.0011820356349938515,-4.079090041525446,-5.225642341410116,0.3114690899102921,1.139778141445717,-0.2982836747004427,4.176305318506182,3,right
2.593,-0.4591155581203494,0.6724239153804259,0.0002632626231639699,-4.158334684689877,-5.260598687489437,0.30277432317803743,1.1442255606709617,-0.3045745270539476,4.229369732410572,3,right
2.5980000000000003,-0.45075230899685964,0.6822143947908315,0.001749548368671406,-4.236394404758014,-5.291953499779605,0.29456431018106827,1.1482572476141075,-0.31050605665176206,4.280944923845524,3,right
2.5989999999999998,-0.44233512888256554,0.6919794778071274,0.0032741636116134557,-4.3132520552681,-5.319715808491872,0.28686209800511253,1.1518751154027944,-0.316070971462287,4.331001318362938,3,right
2.602,-0.4338651535181609,0.7017135239860076,0.004834408729245098,-4.388890451658465,-5.343897580400647,0.2796896656258812,1.155081325471824,-0.3212625015947043,4.379510022002712,3,right
2.603,-0.4253435801606706,0.7114110505749226,0.006427544145895566,-4.463292367303377,-5.364513672319119,0.27306789641933077,1.1578782813037976,-0.32607440352521366,4.426442831063992,3,right
2.608,-0.41677167787328784,0.7210667378278914,0.00805079229077621,-4.536440527811851,-5.3815817830843145,0.26701655335178126,1.160268622121107,-0.330500962225,4.47177224194375,3,right
2.609,-0.40815079791221975,0.7306754338788461,0.009701339956834558,-4.608317603806679,-5.395122404121078,0.2615542568293314,1.162255216538496,-0.3345369912048303,4.515471461182007,3,right
2.612,-0.39948238408357456,0.740232159104728,0.011376341168293542,-4.67890620239738,-5.4051587686442435,0.25669846518759004,1.1638411561842348,-0.3381778304900924,4.557514415848442,3,right
2.613,-0.3907679829273883,0.7497321099178008,0.013072920641493731,-4.748188857557161,-5.411716799548076,0.25246545780438,1.1650297492967725,-0.3414193425389787,4.597875764400563,3,right
2.617,-0.38200925358046495,0.7591706619393488,0.01478817789374612,-4.81614801961034,-5.41482505602192,0.24887032081976126,1.165824514302593,-0.34425790611540136,4.636530908138917,3,right
2.6189999999999998,-0.3732079771754304,0.7685433725240975,0.016519192018175283,-4.882766044032979,-5.4145146789209555,0.24592693544945762,1.1662291733798285,-0.34669040812708785,4.6734560033800685,3,right
2.622,-0.3643660656490457,0.7778459826247969,0.018263027100419355,-4.948025179765714,-5.410819334910959,0.24364796887956033,1.1662476460110551,-0.34871423343816205,4.70862797446322,3,right
2.622,-0.35548556985658647,0.787074418008545,0.020016738210464714,-5.011907557233972,-5.403775159396056,0.24204486773221012,1.1658840425275627,-0.3503272526643575,4.7420245277014965,3,right
2.6260000000000003,-0.3465686869192868,0.7962247898594501,0.02177737786576801,-5.07439517626692,-5.393420698228668,0.24112785409382956,1.1651426576462698,-0.35152780795784644,4.773624166383899,3,right
2.627,-0.33761776676521654,0.8052933948228892,0.023542002833464373,-5.135469894102572,-5.379796848191083,0.2409059240993834,1.1640279639993436,-0.35231469678749233,4.8034062069289325,3,right
2.6319999999999997,-0.328635317855557,0.8142767145616102,0.025307681122064007,-5.195113413662534,-5.362946796228538,0.24138684906808364,1.1625446056554927,-0.3526871537191577,4.831350796285794,3,right
2.6319999999999997,-0.31962401211254987,0.8231714149014571,0.02707149901114709,-5.253307272275861,-5.342915957404112,0.24257717918792435,1.160697391632758,-0.35264483024640064,4.857438930638549,3,right
2.633,-0.3105866890769276,0.8319743446428789,0.0288305679862333,-5.310032831027435,-5.319751911536421,0.2444822497484258,1.1584912894113004,-0.35218777295515036,4.881652475286959,3,right
2.636,-0.30152635932199545,0.8406825341045466,0.030582031479961903,-5.365271264902162,-5.2935043384717835,0.24710618992298305,1.1559314184711509,-0.3513164007267558,4.903974185254592,3,right
2.636,-0.29244620715009095,0.8492931934541688,0.03232307135075102,-5.4190035538921375,-5.264224951933435,0.2504519341042503,1.1530230438885947,-0.350031481917055,4.924387725992944,3,right
2.6430000000000002,-0.2833495926031802,0.8578037108736247,0.03405091404516409,-5.471210475229671,-5.231967431881332,0.25452123579804264,1.14977157001408,-0.34833411221347793,4.942877693721514,3,right
2.6430000000000002,-0.27424005282586517,0.8662116505974499,0.03576283640200829,-5.521872596915102,-5.19678735535042,0.25931468404178387,1.1461825342359986,-0.34622569344901216,4.959429635256037,3,right
2.6439999999999997,-0.2651213028158649,0.8745147508532202,0.03745617107629146,-5.570970272755234,-5.158742125942227,0.26483172210802275,1.1422616008239406,-0.3437079134162315,4.974030067348204,3,right
2.647,-0.25599723558547166,0.8827109217220839,0.03912831158437304,-5.618483639216193,-5.117890902524408,0.2710706678819766,1.1380145548420997,-0.34078272667651327,4.986666495589944,3,right
2.648,-0.24687192174875822,0.8907982429272923,0.04077671699103899,-5.664392614441318,-5.07429452790021,0.2780287350965614,1.1334472961225273,-0.33745233635839156,4.997327432929791,3,right
2.6510000000000002,-0.23774960855142535,0.8987749615451437,0.042398916274793724,-5.708676899728958,-5.02801545798584,0.285702054818022,1.1285658332869846,-0.33371917693781816,5.00600241784325,3,right
2.6510000000000002,-0.22863471836898144,0.9066394896176085,0.04399251241788464,-5.751315983668137,-4.979117691637416,0.2940856969509856,1.1233762778052037,-0.3295858979919318,5.0126820321934416,3,right
2.656,-0.21953184670603804,0.9143904016327256,0.045555186268826445,-5.792289149074212,-4.927666701045508,0.30317369174140346,1.1178848380764526,-0.32505534891677423,5.01735791881262,3,right
2.657,-0.21044575973310137,0.9220264318293055,0.04708470021816453,-5.831575482851666,-4.873729362564474,0.3129590512994148,1.1120978135203927,-0.3201305645982344,5.020022798829479,3,right
2.661,-0.2013813913997882,0.9295464712779675,0.04857890171734388,-5.8691538889065145,-4.817373887836271,0.323433791166202,1.1060215886623335,-0.31481475202435244,5.020670488761405,3,right
2.662,-0.1923438401658627,0.9369495646923937,0.050035726659612326,-5.90500310422596,-4.75866975506105,0.33458895195093125,1.0996626271971246,-0.3091112778259755,5.019295917385096,3,right
2.6660000000000004,-0.1833383653928449,0.9442349069309096,0.05145320263259459,-5.939101718238122,-4.697687640259772,0.346414621065871,1.0930274660150714,-0.303023656731625,5.015895142393205,3,right
2.667,-0.1743703834375999,0.9514018391559154,0.052829452044536,-5.971428195559741,-4.63449934836706,0.35889995458976115,1.0861227091724346,-0.296555540921311,5.0104653668388215,3,right
2.67,-0.16544546348437597,0.9584498446263116,0.054162695119253125,-6.001960902234804,-4.5691777439858425,0.37203319929145584,1.078955021788261,-0.28971071026291684,5.003004955363874,3,right
2.6710000000000003,-0.15656932314361516,0.9653785441054848,0.05545125274835575,-6.030678135561998,-4.501796681628722,0.38580171484779036,1.0715311238484975,-0.2824930634136742,4.993513450201652,3,right
2.675,-0.14774782383566643,0.9721876908741008,0.05669354918502513,-6.057558157603813,-4.432430935264716,0.40019199629151264,1.0638577838975654,-0.27490660976815495,4.981991586937854,3,right
2.676,-0.13898696596599489,0.9788771653436871,0.057888114562661755,-6.0825792324649415,-4.361156126983887,0.41518969672698103,1.0559418125968223,-0.26695546223312555,4.9684413100087275,3,right
2.68,-0.13029288388542792,0.9854469692740987,0.05903358722188864,-6.105719667422457,-4.2880486545864285,0.4307796503531516,1.0477900561285973,-0.2586438308085375,4.952865787909041,3,right
2.681,-0.12167184061415821,0.9918972196034991,0.060128715827548654,-6.126957857984921,-4.21318561789713,0.44694589583516525,1.03940938942377,-0.24997601695286906,4.935269428076786,3,right
2.685,-0.11313022229240932,0.9982281419019642,0.061172361252192914,-6.146272336952247,-4.1366447436006135,0.46367170006758457,1.030806709190169,-0.24095640870998636,4.915657891415693,3,right
2.6860000000000004,-0.1046745323056499,1.0044400634596766,0.06216349819410302,-6.163641827542776,-4.058504308387493,0.4809395823740323,1.021988926718387,-0.23158947657365503,4.894038106410822,3,right
2.69,-0.09631138501891917,1.0105334060188211,0.06310121648804623,-6.179045300648506,-3.9788430601965756,0.49873133918963797,1.0129629604409505,-0.2218797700648125,4.870418282786698,3,right
2.6910000000000003,-0.08804749904315082,1.0165086781560864,0.0639847220605886,-6.192462036273922,-3.8977401373333653,0.5170280692743027,1.0037357282201458,-0.21183191499569906,4.8448079246516675,3,right
2.695,-0.07988968994797563,1.0223664673226789,0.06481333748296977,-6.203871689208282,-3.8152749852405896,0.5358101995063482,0.9943141393391873,-0.20145061139394874,4.817217843066371,3,right
2.696,-0.07184486233293919,1.0281074315529382,0.0655865020829806,-6.213254358975557,-3.731527270692057,0.555057511307622,0.9847050861708115,-0.19074063205875708,4.787660167968518,3,right
2.7,-0.06392000117331548,1.0337322908610944,0.06630377158805058,-6.220590664100538,-3.6465767931770343,0.5747491677525773,0.9749154354968051,-0.1797068217202706,4.756148359380407,3,right
2.701,-0.056122162367402126,1.0392418183565377,0.06696481727790557,-6.225861820723827,-3.56050339323841,0.5948637414152406,0.9649520194745648,-0.16835409678142155,4.722697217826306,3,right
2.701,-0.04845846242810149,1.0446368311172876,0.06756942462507774,-6.229049725592639,-3.473386857524245,0.6153792430093136,0.9548216263619852,-0.15668744566566473,4.687322893912926,3,right
2.7039999999999997,-0.04093606728033553,1.0499181808674134,0.06811749140002094,-6.230137043448438,-3.3853068203088283,0.6362731508779333,0.944530991319788,-0.14471192987446532,4.650042897077766,3,right
2.705,-0.03356218014659475,1.055086744512514,0.06860902521601776,-6.229107298826517,-3.296342661236149,0.6575224413908259,0.9340867877256426,-0.13243268590264748,4.610876103536288,3,right
2.71,-0.026344028525804166,1.0601434146019435,0.06904414048539763,-6.225944972158646,-3.206573399222793,0.6791036202850511,0.9234956193182099,-0.11985492811363387,4.5698427634216205,3,right
2.71,-0.019288850290248263,1.0650890897977707,0.06942305475603017,-6.220635599473845,-3.116077583390006,0.7009927548731717,0.9127640132804493,-0.10698395259439933,4.526964507047839,3,right
2.7110000000000003,-0.012403878936253918,1.069924665429979,0.06974608439886236,-6.213165873924281,-3.024933183576025,0.723165506839486,0.9018984142553477,-0.09382514196390987,4.482264350190707,3,right
2.714,-0.005696328035258738,1.0746510242152616,0.07001363961904936,-6.203523746767127,-2.9332174839129754,0.7455971652324695,0.8909051792636584,-0.08038397109892621,4.4357666982680355,3,right
2.715,0.0008266250467674148,1.0792690272240406,0.07022621876269974,-6.191698526017061,-2.841006982015026,0.768262679375902,0.8797905734928366,-0.06666601374020864,4.387497349296548,3,right
2.719,0.007157856068681766,1.0837795051898576,0.07038440189558876,-6.177680972039921,-2.7483772946387415,0.7911366916261828,0.8685607669259677,-0.05267694994133289,4.337483495496882,3,right
2.72,0.013290311362446471,1.0881832502576978,0.0704888436461211,-6.161463389941794,-2.6554030697394264,0.8141935700175311,0.8572218317791256,-0.038422574321516446,4.28575372341321,3,right
2.7239999999999998,0.01921702569088332,1.0924810082652385,0.07054026533061622,-6.143039718719534,-2.5621579046587195,0.8374074408601263,0.8457797407152422,-0.02390880508305944,4.232338012408869,3,right
2.725,0.024931140388350623,1.0966734716464404,0.07053944640834535,-6.122405617132429,-2.4687142701774993,0.8607522213568471,0.8342403658022408,-0.009141693753225655,4.177267731394397,3,right
2.7289999999999996,0.030425921652126618,1.1007612730388834,0.07048721534166769,-6.099558546248428,-2.375143440167173,0.8842016523047895,0.8226094781828737,0.005872564390372492,4.120575633639419,3,right
2.7289999999999996,0.03569477884814251,1.1047449796642268,0.07038443996087475,-6.074497848611971,-2.281515426571638,0.9077293309481922,0.8108927484234064,0.02112761925256626,4.062295849515007,3,right
2.734,0.0407312826913506,1.1086250885361781,0.07023201745216134,-6.047224823974163,-2.1878989194516283,0.9313087440497785,0.7990957475080114,0.03661695425400872,4.002463877008391,3,right
2.735,0.04552918315929699,1.112402022533265,0.0700308640981625,-6.017742801519633,-2.094361231822787,0.9549133012478217,0.7872239484454703,0.05233387410825703,3.9411165698472153,3,right
2.738,0.05008242700033431,1.1160761273559388,0.06978190490386488,-5.986057208518115,-2.0009682490186544,0.9785163687664646,0.775282728454538,0.06827149208636853,3.8782921230660135,3,right
2.739,0.05438517470805592,1.1196476693707271,0.06948606324016786,-5.952175635322384,-1.9077843823097755,1.0020913035469743,0.7632773716940915,0.08442271681349285,3.8140300558430873,3,right
2.7430000000000003,0.05843181685162406,1.123116834328004,0.0691442506371986,-5.916107896627879,-1.8148725265103616,1.0256114878676832,0.7512130725039692,0.10078023864259594,3.748371191431643,3,right
2.7439999999999998,0.062216989676044505,1.126483726923316,0.06875735686187916,-5.877866088903009,-1.722294021304352,1.049050364520365,0.7390949391222094,0.11733651565108497,3.6813576340047893,3,right
2.7489999999999997,0.06573558991449364,1.1297483711554897,0.06832624041906918,-5.8374646438928215,-1.6301086160233171,1.0723814726107135,0.7269279978442106,0.13408375930671673,3.6130327422298816,3,right
2.75,0.06898278878475722,1.1329107114199708,0.06785171962014393,-5.79492037809244,-1.5383744376094248,1.0955784840504328,0.714717197589166,0.15101391984976406,3.543441099383673,3,right
2.753,0.07195404517219602,1.135970614265519,0.06733456436221694,-5.750252538080466,-1.4471479614976472,1.118615240808217,0.7024674148389723,0.16811867143898507,3.4726284798158615,3,right
2.7539999999999996,0.07464511802984465,1.1389278707384718,0.06677548875206273,-5.703482841596295,-1.3564839851525072,1.1414657929865861,0.6901834589146721,0.1853893971094885,3.4006418115648556,3,right
2.759,0.07705207805001014,1.1417821992419022,0.06617514469310397,-5.654635514239186,-1.2664356039959588,1.1641044377911587,0.6778700775553574,0.20281717359111298,3.327529134925928,3,right
2.76,0.07917131868080256,1.144533248846718,0.06553411653623915,-5.6037373216608115,-1.1770541894644484,1.1865057594584887,0.6655319627643598,0.22039275603643874,3.2533395567684322,3,right
2.763,0.08099956657571616,1.1471806030074152,0.0648529168765969,-5.550817597116961,-1.0883893689348225,1.2086446702080482,0.6531737568874459,0.23810656270802716,3.1781232003953965,3,right
2.764,0.0825338915736545,1.1497237836547256,0.06413198355414773,-5.495908264238164,-1.0004890072605015,1.2304964522833437,0.6408000588876565,0.25594865967493347,3.1019311507355614,3,right
2.7689999999999997,0.0837717163094321,1.1521622556574151,0.06337167788387513,-5.439043854873056,-0.9133991896612621,1.2520368011464569,0.6284154307813525,0.2739087455689616,3.0248153946548406,3,right
2.77,0.08471082555044954,1.154495431662881,0.06257228410710881,-5.380261521852538,-0.8271642057120198,1.2732418698895624,0.6160244041958868,0.29197613647399306,2.9468287563116253,3,right
2.77,0.08534937534293488,1.156722677338124,0.06173401003144061,-5.319601046517074,-0.7418265341781959,1.2940883149261413,0.6036314869887984,0.31013975113441655,2.868024828179457,3,right
2.773,0.08568590203240246,1.1588433170384096,0.06085698881601315,-5.257104840843828,-0.6574268284475787,1.314553343023719,0.5912411698315614,0.3283880968712156,2.7884578996213873,3,right
2.7739999999999996,0.08571933120654637,1.160856639935572,0.05994128185166821,-5.192817944004879,-0.5740039023110404,1.3346147597389948,0.5788579326404247,0.3467092567069066,2.7081828855997485,3,right
2.778,0.08544898660095315,1.1627619066464503,0.05898688267462018,-5.126788013234205,-0.49159471595273924,1.3542510192157606,0.5664862507573499,0.3650908780884661,2.6272552574008117,3,right
2.778,0.08487459900260848,1.1645583564093396,0.057993721847656686,-5.059065309135195,-0.4102343625415973,1.3734412748077351,0.554130600820898,0.38352016339543926,2.5457309759881666,3,right
2.779,0.08399631517650955,1.1662452148567013,0.05696167275268633,-4.9897026760221035,-0.32995605676989365,1.3921654290923373,0.5417954662874096,0.40198386230829974,2.4636664278947182,3,right
2.783,0.0828147068307115,1.1678217024312239,0.05589055825389068,-4.918755518143207,-0.2507911272161932,1.410404181343029,0.5294853425669453,0.42046826608983895,2.381118363420935,3,right
2.783,0.08133077962973409,1.169287043493749,0.054780158201533896,-4.846281772369209,-0.17276901388436658,1.4281390710237554,0.5172047417385042,0.43895920383249926,2.2981438369052767,3,right
2.7880000000000003,0.07954598226301741,1.1706404761656894,0.05363021775554585,-4.77234187745895,-0.0959172713223171,1.4453525167626076,0.5049581968090912,0.457442040724662,2.2148001488311704,3,right
2.7889999999999997,0.07746221556934837,1.1718812629246464,0.052440456519939324,-4.69699873975062,-0.020261577198751286,1.4620278507576292,0.49275026548128287,0.4759016783889607,2.13114478953352,3,right
2.792,0.07508184170721631,1.1730087019306996,0.05121057848861877,-4.6203176950703835,0.0541742538860834,1.4781493486656736,0.4805855333940206,0.49432255734570824,2.047235384266508,3,right
2.792,0.07240769334354065,1.1740221390096997,0.049940282800259486,-4.542366466646156,0.12736825157641357,1.4937022550237287,0.46846861680145985,0.5126886616545004,1.9631296393933955,3,right
2.798,0.06944308281025764,1.174920980167233,0.048629275278352736,-4.463215118810226,0.1993002661409948,1.5086728042505764,0.45640416465481554,0.5309835257869939,1.878885289458114,3,right
2.798,0.06619181115579831,1.1757047044605364,0.047277280691056286,-4.382936006270584,0.2699519402709932,1.52304823727507,0.44439686005226814,0.5491902437837399,1.794560044897736,3,right
2.803,0.06265817700510568,1.176372877022405,0.04588405560717861,-4.3016037187271845,0.33930667650591734,1.5368168138356764,0.43245142102213047,0.5672914807478013,1.7102115401543219,3,right
2.804,0.058846985141468425,1.1769251620180237,0.04444940165770821,-4.219295020605907,0.4073496004942024,1.5499678204942628,0.42057260060462826,0.585269486727672,1.6258972819442714,3,right
2.8080000000000003,0.05476355472999569,1.1773613353286898,0.042973178951737266,-4.136088785679762,0.47406752029137394,1.562491574405403,0.4087651861978111,0.6031061130417634,1.5416745974430461,3,right
2.8089999999999997,0.050413727103736435,1.1776812967945618,0.04145531935831816,-4.052065926343854,0.5394488818949972,1.57437942288073,0.3970339981332868,0.6207828310964216,1.457600582143084,3,right
2.812,0.045803873018973595,1.1778850818998288,0.03989583935879986,-3.9673093173078287,0.6034837212118528,1.5856237387860916,0.38538388744766605,0.6382807537490814,1.3737320471428132,3,right
2.813,0.04094089924946571,1.177972872830718,0.03829485218892982,-3.881903713466944,0.6661636126489763,1.5962179118074749,0.3738197328158074,0.6555806592677564,1.290125465624943,3,right
2.8160000000000003,0.03583225432600115,1.1779450088668326,0.036652579012141744,-3.795935661710573,0.7274816145163638,1.6061563356198256,0.3623464366121727,0.6726630179376065,1.2068369182826273,3,right
2.8169999999999997,0.030485933139373398,1.1778019960726864,0.034969358888375525,-3.7094934064248304,0.7874322114252799,1.6154343909910582,0.35096892006683594,0.6895080213648066,1.1239220374526926,3,right
2.822,0.02491048002266729,1.1775445162358236,0.033245657327918295,-3.6226667884441714,0.8460112538622152,1.624048424851668,0.3396921174829352,0.7060956145273735,1.0414359497158727,3,right
2.823,0.019114989828052334,1.1771734349532608,0.0314820732478665,-3.535547137205181,0.9032158951146356,1.6319957253584971,0.3285209694826185,0.7224055306219812,0.9594332167249027,3,right
2.826,0.013109106429584629,1.17668980871103,0.02967934417757593,-3.448227155854426,0.9590445257207295,1.6392744929792944,0.3174604152488098,0.7384173287551132,0.8779677740223972,3,right
2.827,0.0069030180337426575,1.1760948907516733,0.027838349590035092,-3.360800799061136,1.0134967056114348,1.6458838076228084,0.30651538373041054,0.7541104345261588,0.7970928676116746,3,right
2.832,0.000507448685317712,1.175390135502072,0.025960112275711846,-3.2733631432846435,1.0665730941090734,1.6518235918372421,0.29569078377885494,0.7694641835492637,0.7168609880450666,3,right
2.832,-0.0060663545575669366,1.1745772013512725,0.02404579772691283,-3.1860102492459306,1.118275377942973,1.6570945700979753,0.28499149318425704,0.7844578679598889,0.6373238017958014,3,right
2.8360000000000003,-0.01280663912569582,1.1736579516209409,0.0220967115525504,-3.098839016352346,1.1686061974385047,1.6616982242035438,0.2744223465797164,0.799070785951114,0.5585320796812416,3,right
2.8369999999999997,-0.019701169219500388,1.172634453638994,0.020114294979369052,-3.0119470288245065,1.2175690710320144,1.6656367447969391,0.2639881222176558,0.8132822943034799,0.48053562226246,3,right
2.8369999999999997,-0.02673725274272575,1.1715089758842085,0.018100118512632213,-2.9254323932746504,1.2651683182601798,1.668912979027373,0.25369352779720883,0.8270718634697728,0.4033831829239107,3,right
2.842,-0.033901772615212766,1.1702839832040568,0.01605587384350304,-2.8393935674862365,1.3114089813683878,1.6715303743657395,0.24354318583667112,0.8404191340526309,0.3271223907373061,3,right
2.843,-0.04118122207003436,1.1689621301282214,0.013983364130794294,-2.753929180145376,1.3562967456788,1.6734929185850909,0.23354161926019995,0.8533039731103428,0.25179967599286995,3,right
2.846,-0.04856174339195315,1.1675462523186764,0.011884492853971567,-2.6691378415245883,1.3998378589363736,1.6748050760486566,0.22369323769356375,0.8657065291263533,0.1774602005067802,3,right
2.847,-0.05602916946293602,1.1660393562125397,0.009761251484561743,-2.5851179463647234,1.4420390502547975,1.675471721111567,0.21400232464953703,0.8776072851991513,0.10414779341796346,3,right
2.8480000000000003,-0.0635690675227144,1.1644446069236645,0.007615706223463857,-2.501967472441768,1.4829074500140833,1.675498070638528,0.20447302560917577,0.8889871104092437,0.03190489241331244,3,right
2.8539999999999996,-0.07116678462627371,1.1627653144896613,0.0054499840474456,-2.4197837795511865,1.5224505124652727,1.6748896183033521,0.1951093369706907,0.8998273093988014,-0.039227509832136236,3,right
2.8539999999999996,-0.07880749427948408,1.1610049185990514,0.0032662583413086022,-2.3386634124006633,1.5606759423862835,1.6736520726688624,0.1859150958380884,0.9101096701981226,-0.10920991421057968,3,right
2.8560000000000003,-0.08647624372224957,1.1591669719978175,0.0010667344222740087,-2.2587019086653872,1.5975916263954253,1.6717912998459024,0.17689397062221338,0.9198165103315679,-0.17800435893982824,3,right
2.8560000000000003,-0.09415800139155933,1.1572551228319485,-0.0011463647643211747,-2.1799936122187975,1.6332055691177136,1.6693132708628144,0.16804945242729993,0.9289307212340638,-0.24557445872894615,3,right
2.861,-0.10183770420865237,1.1552730962199589,-0.0033708125767125353,-2.102631491305965,1.6675258343138173,1.6662240137418507,0.15938484719662938,0.9374358110076805,-0.3118854395521121,3,right
2.863,-0.10950030443568991,1.1532246753646764,-0.005604392121727837,-2.0267069614300954,1.700560491077697,1.6625295702771823,0.15090326859138448,0.9453159455461273,-0.3769041692282498,3,right
2.865,-0.11713081591676545,1.151113682509214,-0.007844909163773015,-1.952309712726253,1.7323175652052685,1.6582359575073973,0.14260763157730066,0.9525559880533178,-0.4405991840004647,3,right
2.866,-0.12471435955910815,1.1489439600239386,-0.010090204475343974,-1.8795275416002586,1.7628049958326968,1.65334913387363,0.1345006466942294,0.9591415369803996,-0.5029407113057087,3,right
2.87,-0.13223620793376079,1.1467193518863592,-0.012338165598942859,-1.8084461864148431,1.7920305974392396,1.647874970052719,0.12658481498425475,0.9650589624038557,-0.563900688921387,3,right
2.8710000000000004,-0.13968182889329933,1.1444436857892601,-0.014586737967571444,-1.7391491670095243,1.820002027305887,1.6418192244530765,0.11886242355453774,0.9702954408654431,-0.6234527806718215,3,right
2.8760000000000003,-0.14703692812615418,1.1421207560870552,-0.016833935316332715,-1.6717176278453074,1.8467267585173957,1.6351875233592343,0.11133554175160469,0.9748389886928608,-0.681572388873601,3,right
2.877,-0.15428749059456298,1.1397543077670964,-0.019077849323851336,-1.6062301845701887,1.8722120585916935,1.6279853457093645,0.10400601792434454,0.9786784938181167,-0.7382366636948838,3,right
2.8810000000000002,-0.16141982082986656,1.1373480216105973,-0.021316658448012924,-1.5427627738065697,1.8964649738170212,1.6202180124883805,0.09687547675353517,0.9818037461086104,-0.7934245095996756,3,right
2.8810000000000002,-0.16842058207445396,1.1349055006852538,-0.023548635955193038,-1.4813885059670333,1.919492319373604,1.6118906807175855,0.08994531712627976,0.9842054662239623,-0.8471165890439972,3,right
2.885,-0.17527683425576301,1.13243025828594,-0.02577215717130475,-1.4221775209105214,1.9413006753130795,1.6030083420201853,0.08321671053430121,0.9858753330095955,-0.8992953235866771,3,right
2.886,-0.1819760707518951,1.129925707407432,-0.027985705993047272,-1.3651968462567468,1.9618963884653677,1.593575825740367,0.0766905999756134,0.9868060094360275,-0.9499448925732666,3,right
2.89,-0.18850625386528885,1.1273951517908698,-0.030187880680087296,-1.3105102581826724,1.981285580339148,1.5835978065920302,0.07036769933966316,0.9869911670907553,-0.9990512295472851,3,right
2.89,-0.19485584886893237,1.1248417785335152,-0.03237739890523301,-1.2581781445311133,1.9994741610786073,1.5730788168116636,0.06424849325661579,0.9864255092275153,-1.046602016538653,3,right
2.895,-0.20101385643643196,1.1222686521947358,-0.034553101982985696,-1.208257370067902,2.0164678495356427,1.5620232627882835,0.05833323739203748,0.9851047923755747,-1.0925866763747887,3,right
2.8960000000000004,-0.20696984321919612,1.1196787102808432,-0.03671395814438953,-1.1608011437306494,2.032272199513224,1.550435446141776,0.052621959168812155,0.9830258465095795,-1.1369963631554119,3,right
2.9,-0.21271397029703767,1.1170747599590518,-0.03885906469206247,-1.115858887718889,2.0468926322321837,1.5383195892194343,0.04711445889871398,0.9801865937783221,-1.1798239510276276,3,right
2.9010000000000002,-0.21823701920893734,1.114459475843638,-0.04098764886326851,-1.073476108282308,2.0603344750702655,1.525679864978945,0.04181031130664299,0.9765860657886278,-1.2210640213933766,3,right
2.905,-0.2235304152751793,1.1118353987150873,-0.04309906725462301,-1.0336942680708425,2.0726030066188414,1.5125204312245382,0.036708867431116204,0.9722244194383843,-1.2607128486768155,3,right
2.905,-0.22858624795460047,1.1092049350683435,-0.04519280371589979,-0.9965506599176287,2.083703508099313,1.4988454691615096,0.03180925688519181,0.9671029512905552,-1.2987683847746438,3,right
2.906,-0.23339728803794393,1.1065703574274595,-0.04726846569031269,-0.9620782819331447,2.0936413211778206,1.4846592262328087,0.02711039046280309,0.9612241104545837,-1.3352302422848732,3,right
2.909,-0.23795700154844684,1.103933805398653,-0.04932577904294894,-0.9303057137963399,2.1024219122135164,1.469966063199901,0.02261096307713783,0.9545915098231518,-1.3700996764901279,3,right
2.91,-0.24225956028795884,1.1012972874548814,-0.0513645814633425,-0.9012569941361199,2.110050942972303,1.4547705054286304,0.018309457020217423,0.9472099353008202,-1.4033795658602704,3,right
2.9139999999999997,-0.2462998490193889,1.0986626834536244,-0.05338481456686968,-0.8749514989042189,2.1165343478345977,1.4390772983393347,0.014204145534483379,0.9390853525426445,-1.4350743907197334,3,right
2.915,-0.2500734693132806,1.0960317478878747,-0.05538651487057922,-0.8514038206482355,2.121878417522357,1.4228914669790163,0.010293096686694104,0.9302249108349561,-1.4651902098352068,3,right
2.915,-0.2535767401124298,1.093406113858255,-0.05736980386383039,-0.8306236488708265,2.1260898891398496,1.4062183795182503,0.006574177533063931,0.9206369439576096,-1.4937346348814835,3,right
2.9210000000000003,-0.25680669508242054,1.0907872977367694,-0.05933487739791542,-0.812615653015916,2.129176041182149,1.3890638137057216,0.003045058564062197,0.9103309679811201,-1.5207168028535645,3,right
2.9210000000000003,-0.25976107681677535,1.0881767044774924,-0.06128199458058674,-0.7973793720552905,2.131144790115049,1.3714340239288045,-0.0002967815823676148,0.8993176759732532,-1.5461473465115443,3,right
2.924,-0.26243832796551986,1.0855756335126387,-0.06321146631852599,-0.7849091160038835,2.132004783989635,1.3533358057588336,-0.0034540511498571637,0.8876089295875481,-1.5700383629403094,3,right
2.925,-0.26483757936900826,1.0829852851463022,-0.06512364362939148,-0.7751938833530104,2.1317654896887284,1.3347765556266993,-0.006429640045074607,0.8752177475041875,-1.5924033803015756,3,right
2.93,-0.26695863530252933,1.0804067673278621,-0.06701890583237595,-0.7682172959941709,2.130437272446212,1.3157643246560975,-0.009226614381204068,0.862158290691603,-1.6132573228513487,3,right
2.93,-0.26880195596383405,1.077841102663239,-0.06889764870798151,-0.763957551866968,2.1280314674142913,1.296307866448786,-0.011848210792519442,0.8484458444552077,-1.6326164742914695,3,right
2.9339999999999997,-0.2703686373654336,1.0752892355078187,-0.07076027270437776,-0.7623873953032014,2.124560443278016,1.276416678768547,-0.01429783052860722,0.8340967972376884,-1.6504984395195257,3,right
2.935,-0.2716603888275874,1.0727520389794323,-0.07260717127259377,-0.7634741050470447,2.1200376579132763,1.2561010390692595,-0.016579033336280243,0.8191286161333775,-1.6669221048370724,3,right
2.94,-0.2726795083016208,1.0702303217351505,-0.07443871943529368,-0.7671794999390125,2.114477706081389,1.2353720338112082,-0.018695531136720893,0.8035598190773436,-1.6819075966718124,3,right
2.9410000000000003,-0.27342885577911397,1.0677248343724746,-0.07625526272335204,-0.7734599622591347,2.1078963591503292,1.214241581508508,-0.020651181504898468,0.7874099436680208,-1.695476238865148,3,right
2.943,-0.2739118250565308,1.0652362753398397,-0.07805710663956773,-0.7822664787323783,2.100310596829652,1.1927224494493076,-0.02244998095782202,0.7706995125804142,-1.7076505085723273,3,right
2.944,-0.2741323141297665,1.0627652962680711,-0.07984450682409075,-0.7935446992068655,2.091738630903157,1.1708282640292502,-0.024096058057717112,0.7534499955252022,-1.7184539908182814,3,right
2.949,-0.2740946944956506,1.0603125066604757,-0.0816176600996786,-0.8072350130228293,2.0821999209404347,1.1485735146375124,-0.02559366633575314,0.7356837677073806,-1.7279113317481793,3,right
2.95,-0.27380377964287467,1.0578784779023445,-0.08337669656538209,-0.8232726430974815,2.071715181965533,1.1259735510336384,-0.026947177041497638,0.717424064736495,-1.7360481906077259,3,right
2.9539999999999997,-0.2732647930253158,1.0554637465689862,-0.08512167288525987,-0.8415877577580708,2.0603063840581677,1.1030445741522974,-0.028161071722835402,0.6986949339389535,-1.7428911904842899,3,right
2.9539999999999997,-0.27248333582610895,1.0530688170259335,-0.08685256688773493,-0.8621056003623161,2.0479967438601183,1.0798036202720704,-0.029239934640664107,0.6795211820214326,-1.7484678678360857,3,right
2.958,-0.2714653548381692,1.050694163329073,-0.08856927355509986,-0.8847466367521375,2.0348107079567352,1.056268538483377,-0.030188445022264355,0.6599283190329731,-1.7528066208328434,3,right
2.9589999999999996,-0.27021711080196475,1.0483402304491787,-0.09027160244320845,-0.9094267205931377,2.0207739281008346,1.0324579613897067,-0.031011369156841186,0.6399424985720167,-1.7559366565276824,3,right
2.964,-0.2687451475505853,1.0460074348661341,-0.09195927652950764,-0.9360572766586063,2.005913228243669,1.008391268975433,-0.03171355233634649,0.6195904541833548,-1.7578879368762705,3,right
2.964,-0.2670562623110381,1.043696164603171,-0.09363193244544618,-0.9645455021229067,1.9902565633351528,0.9840885455726371,-0.03229991064431728,0.5988994318887623,-1.758691123615797,3,right
2.969,-0.265157477493299,1.041406778798448,-0.0952891220089378,-0.994794585934954,1.9738329698530754,0.9595705298585806,-0.03277542259510442,0.5778971187939602,-1.7583775220128117,3,right
2.97,-0.2630560142610687,1.039139606935669,-0.09693031493504352,-1.0267039463480865,1.9566725080186698,0.9348585578147373,-0.03314512062551955,0.5566115677134992,-1.7569790234856084,3,right
2.9730000000000003,-0.26075926812047245,1.0368949478727076,-0.09855490257111103,-1.0601694866879623,1.9388061956536207,0.9099744985776087,-0.03341408244059532,0.5350711177541826,-1.7545280471035205,3,right
2.9739999999999998,-0.2582747866900865,1.034673068812548,-0.10016220248373511,-1.0950838694451608,1.9202659336314016,0.8849406831109399,-0.03358742222098083,0.5133043109365037,-1.7510574800113174,3,right
2.975,-0.255610249740215,1.032474204347813,-0.10175146372996019,-1.1313368087839328,1.9010844228737047,0.8597798256283887,-0.03367028172991494,0.49133980563147694,-1.746600617068847,3,right
2.978,-0.2527734515248939,1.030298555681089,-0.10332187267159931,-1.168815381563006,1.8812950728407074,0.8345149376952132,-0.03366782141273547,0.46920628884722226,-1.7411911004341971,3,right
2.9789999999999996,-0.2497722853765428,1.028146290096668,-0.10487255921266703,-1.2074043569685058,1.8609319014619905,0.8091692349371089,-0.03358521161233254,0.44693239009773417,-1.7348628600607954,3,right
2.983,-0.24661473047858412,1.0260175407467167,-0.10640260333775758,-1.2469865448628976,1.8400294264530694,0.7837660362839654,-0.03342762399296942,0.42454659888697344,-1.7276500558309593,3,right
2.984,-0.24330884067075464,1.0239124068021555,-0.1079110418213935,-1.287443162957365,1.818622547960766,0.7583286556760149,-0.033200223209344765,0.4020771865832301,-1.7195870216045228,3,right
2.985,-0.23986273508727635,1.0218309539918,-0.10939687498680982,-1.328654222320323,1.7967464227409902,0.7328802864256113,-0.03290815882681505,0.37955213275957816,-1.710708211213453,3,right
2.988,-0.2362845904029646,1.0197732155223436,-0.11085907341667553,-1.3704989277480846,1.7744363313809175,0.7074438797577223,-0.032556557492335526,0.3569990559361725,-1.7010481463818055,3,right
2.988,-0.23258263447056662,1.0177391933502737,-0.11229658454598421,-1.412856084145061,1.751727542434045,0.682042021446137,-0.032150515355477645,0.334445148659901,-1.6906413665479358,3,right
2.992,-0.22876514113330332,1.0157288597609755,-0.11370833908546547,-1.455604497073511,1.7286551786452198,0.6566968117923647,-0.031695090738694844,0.3119171168567428,-1.6795223805635295,3,right
2.9930000000000003,-0.2248404259552296,1.0137421591914648,-0.11509325722737297,-1.4986233586242008,1.7052540891315249,0.6314297528642248,-0.031195297055837713,0.2894411233921013,-1.6677256202417785,3,right
2.998,-0.22081684255409034,1.0117790102159996,-0.11645025458564114,-1.5417926151419625,1.681558729025825,0.6062616445172139,-0.030656095977762948,0.2670427357743795,-1.6552853957248792,3,right
2.9989999999999997,-0.21670277918615163,1.00983930760722,-0.11777824783142612,-1.5849933163307888,1.6576030467787548,0.581212489391889,-0.030082390843738524,0.24474687793713534,-1.6422358526389849,3,right
3.003,-0.21250665522321235,1.00792292438979,-0.1190761600023237,-1.628107945861787,1.6334203790520034,0.5563014068147236,-0.029479020317220085,0.22257778603530629,-1.628610931002801,3,right
3.0039999999999996,-0.20823691716788345,1.0060297138151135,-0.12034292548217096,-1.6710207336077536,1.609043353134894,0.5315465555301806,-0.028850752284460095,0.20055896819121055,-1.614444325854153,3,right
3.01,-0.20390203387131764,1.0041595112030988,-0.12157749466289303,-1.7136179496282153,1.584503796815515,0.5069650651920823,-0.02820227799431209,0.17871316812632845,-1.5997694495571184,3,right
3.011,-0.19951049064708176,1.0023121356186229,-0.12277883830781794,-1.755788180028548,1.5598326556370001,0.48257297654275433,-0.0275382064375069,0.15706233261522798,-1.5846193957506511,3,right
3.012,-0.19507078201578718,1.0004873913736987,-0.1239459516382757,-1.7974225848162009,1.5350599174690014,0.45838519020886587,-0.026863058963606214,0.13562758269842926,-1.5690269048980738,3,right
3.013,-0.19059140286881052,0.9986850693692026,-0.12507785816541114,-1.8384151378761653,1.510214544323919,0.4344154240433854,-0.02618126413378044,0.11442918859149839,-1.5530243313953533,3,right
3.017,-0.1860808379045347,0.9969049483106508,-0.126173613289301,-1.8786628491865882,1.4853244113470856,0.4106761789436113,-0.025497152807512934,0.09348654822821888,-1.536643612194707,3,right
3.0180000000000002,-0.18154754926182945,0.9951467958487165,-0.12723230768791935,-1.9180659693939122,1.460416252909799,0.38717871307582175,-0.0248149534613006,0.07281816937630795,-1.5199162368988157,3,right
3.022,-0.17699996234676899,0.9934103697047607,-0.1282530705181164,-1.9565281768650769,1.4355156157338886,0.3639330244377124,-0.024138787737401576,0.05244165526482237,-1.5028732192797456,3,right
3.023,-0.17244644991559502,0.9916954188428686,-0.12923507244749777,-1.9939567473321924,1.410646818976373,0.3409478416904499,-0.023472666220673864,0.03237369366313089,-1.4855450701755804,3,right
3.0269999999999997,-0.16789531453849735,0.9900016847421178,-0.1301775285285614,-2.0302627062426706,1.3858329212027078,0.3182306231928602,-0.022820484441553972,0.012630049352116474,-1.4679617717167872,3,right
3.028,-0.1633547696245504,0.9883289028078257,-0.1310797009153746,-2.0653609639251025,1.3610956941771413,0.2957875641709921,-0.02218601910324181,-0.006774440070891978,-1.4501527528334155,3,right
3.032,-0.15883291923658668,0.9866768039420221,-0.13194090141058662,-2.0991704336782173,1.3364556033987884,0.2736236119570413,-0.021572924531186567,-0.025825865111074396,-1.4321468659934158,3,right
3.033,-0.1543377369642044,0.985045116274554,-0.13276049382066077,-2.1316141328870355,1.3119317953121876,0.25174248923238907,-0.020984729343008265,-0.04451124207564705,-1.4139723651216323,3,right
3.037,-0.14987704415248804,0.9834335670389873,-0.13353789609411348,-2.1626192672668676,1.2875420911213173,0.23014672521029164,-0.020424833337040087,-0.06281850760967671,-1.395656884648365,3,right
3.0380000000000003,-0.1454584878024335,0.9818418845639328,-0.1342725822206844,-2.192117298332122,1.263302987136332,0.20883769469455854,-0.019896504597737945,-0.08073651012288317,-1.377227419635844,3,right
3.0410000000000004,-0.14108951846629494,0.9802698003423925,-0.13496408387469624,-2.2200439941829635,1.2392296615826033,0.18781566495136598,-0.0194028768162748,-0.09825499816108245,-1.3587103069304578,3,right
3.042,-0.13677736845450442,0.978717051139107,-0.13561199179203054,-2.2463394636987455,1.2153359878020409,0.16707985033216952,-0.018946946825822583,-0.1153646058145716,-1.3401312073049876,3,right
3.042,-0.13252903063963636,0.9771833810979751,-0.1362159568771366,-2.270948174222819,1.191634553777087,0.1466284745865018,-0.018531572356635943,-0.13205683545330807,-1.321515088638793,3,right
3.0460000000000003,-0.12835123808905016,0.9756685438174789,-0.13677569104190307,-2.2938189528188118,1.168136687908264,0.1264588408042626,-0.01815947002608935,-0.14832403843519165,-1.3028862103348928,3,right
3.0469999999999997,-0.12425044471911785,0.9741723043680879,-0.1372909677801281,-2.3149049711738057,1.144852490976659,0.10656740892792896,-0.01783321358444804,-0.16415939463125193,-1.2842681092567318,3,right
3.053,-0.12023280716726821,0.9726944412287083,-0.1377616224810245,-2.334163714218986,1.1217908742232832,0.08694988077592866,-0.01755523243174854,-0.17955689141167946,-1.2656835873832886,3,right
3.054,-0.11630416809377116,0.9712347481215847,-0.13818755248536843,-2.3515569325333696,1.0989596034778233,0.06760129251922696,-0.01732781041135061,-0.19451130237781872,-1.2471547012298922,3,right
3.054,-0.11247004111494834,0.9697930357299687,-0.13856871689074984,-2.3670505788463663,1.076365349160627,0.04851611435021725,-0.017153084880332722,-0.2090181659253336,-1.2287027529981174,3,right
3.057,-0.10873559753177775,0.968369133289548,-0.13890513611802727,-2.3806147302260627,1.0540137414359516,0.029688356065003606,-0.017033046055937546,-0.2230737636827672,-1.2103482834014156,3,right
3.057,-0.10510565497053607,0.9669628900511773,-0.13919689125806098,-2.3922234998322236,1.0319094288115573,0.011111675447115549,-0.016969536637418625,-0.23667509886844657,-1.1921110661133056,3,right
3.0610000000000004,-0.10158466801567112,0.9655741766194128,-0.13944412322622232,-2.4018549433839342,1.010056137933961,-0.007220514677336371,-0.016964251702790655,-0.2498198746073983,-1.174010103785152,3,right
3.0610000000000004,-0.09817672089747723,0.9642028861796561,-0.1396470317613797,-2.4094909642099007,0.9884567328758054,-0.02531494382352912,-0.017018738880142433,-0.2625064722486472,-1.1560636255808527,3,right
3.0669999999999997,-0.0948855222822072,0.9628489356346651,-0.13980587431084898,-2.4151172184463503,0.9671132731961154,-0.04317838694674541,-0.017134398793333748,-0.27473392972196536,-1.1382890861760833,3,right
3.0669999999999997,-0.09171440218342597,0.9615122666758,-0.1399209648390459,-2.4187230206654378,0.9460270706013789,-0.060817573512577286,-0.017312485782064336,-0.28650191997182994,-1.1207031661701374,3,right
3.071,-0.08866631097359322,0.9601928468139449,-0.13999267258774126,-2.4203012499560637,0.9251987441454074,-0.07823910259050991,-0.017554108896474425,-0.2978107295050327,-1.1033217738588494,3,right
3.072,-0.08574382043460617,0.9588906703901414,-0.1400214208061833,-2.41984825647324,0.9046282739066654,-0.09544936402221707,-0.017860233166611877,-0.3086612370870666,-1.0861600483175669,3,right
3.075,-0.0829491267512224,0.9576057595792724,-0.14000768546541326,-2.4173637684663536,0.8843150530824948,-0.1124544657152552,-0.018231681147279875,-0.3190548926210973,-1.0692323637436953,3,right
3.076,-0.08028405532248631,0.9563381653948686,-0.1399519939732174,-2.4128507997908426,0.8642579384403996,-0.1292601671122172,-0.01866913473896139,-0.3289936962420069,-1.0525523350089108,3,right
3.0810000000000004,-0.07775006724162264,0.9550879687005165,-0.13985492390806264,-2.4063155579019964,0.8444552990672978,-0.1458718188847992,-0.019173137285701566,-0.3384801776566854,-1.03613282437177,3,right
3.0810000000000004,-0.07534826727337676,0.9538552812316755,-0.13971710178552035,-2.397767352323738,0.8249050633583815,-0.1622943089016446,-0.019744095951016616,-0.3475173757604315,-1.0199859493021217,3,right
3.085,-0.07307941314059718,0.9526402466288049,-0.13953920185963137,-2.387218503579444,0.8056047641879637,-0.17853201451825418,-0.02038228437308705,-0.35610881855801946,-1.0041230913694277,3,right
3.0860000000000003,-0.07094392592099708,0.9514430414793095,-0.13932194495113392,-2.3746842525660434,0.78655158220542,-0.1945887612366946,-0.02108784560068401,-0.36425850341669186,-0.98855490614785,3,right
3.09,-0.06894190135152747,0.9502638763652623,-0.13906609729053415,-2.3601826703468674,0.7677423872000579,-0.2104677877822915,-0.021860795311469467,-0.37197087767704595,-0.9732913340917446,3,right
3.091,-0.06707312184040264,0.9491029969173854,-0.13877246936706228,-2.343734568332981,0.7491737774794609,-0.22617171764396207,-0.02270102531450401,-0.3792508196465038,-0.9583416123360146,3,right
3.097,-0.06533706899260475,0.9479606848806431,-0.13844191477967774,-2.325363408817026,0.730842117206568,-0.24170253712432144,-0.023608307338989082,-0.38610361999878823,-0.9437142873766209,3,right
3.0980000000000003,-0.06373293646146506,0.9468372592002007,-0.1380753290875635,-2.3050952158179543,0.7127435716414467,-0.25706157994518364,-0.02458229711146394,-0.3925349636015689,-0.9294172285874215,3,right
3.1010000000000004,-0.062259642946824005,0.9457330771379835,-0.1376736486533833,-2.2829584861894676,0.6948741402344095,-0.2722495184535758,-0.025622538723870627,-0.3985509117932053,-0.9154576425304127,3,right
3.1010000000000004,-0.060915845170487676,0.9446485354298287,-0.13723784946653514,-2.258984100939427,0.6772296875178017,-0.28726636147288337,-0.026728469295092528,-0.4041578851282837,-0.9018420880173666,3,right
3.105,-0.05969995067300874,0.943584071491077,-0.13676894592933037,-2.2332052367020765,0.6598059717444626,-0.3021114588432509,-0.027899423928763635,-0.4093626466104378,-0.8885764918818108,3,right
3.1060000000000003,-0.05861013029291029,0.9425401646752237,-0.13626798958668654,-2.205657277299553,0.6425986712215163,-0.31678351269486915,-0.029134640970335583,-0.4141722854297479,-0.8756661654212612,3,right
3.11,-0.057644330210585196,0.9415173375877073,-0.13573606777879674,-2.176377725323883,0.6256034082887922,-0.3312805954972861,-0.0304332675665781,-0.41859420122084107,-0.8631158214706083,3,right
3.111,-0.0568002834637042,0.9405161574560195,-0.13517430219642085,-2.145406113665486,0.6088157708918169,-0.34560017492738576,-0.03179436553087502,-0.4226360888566602,-0.850929592068557,3,right
3.111,-0.056075520868304904,0.9395372375569281,-0.134583847320072,-2.1127839169091245,0.5922313316999319,-0.35973914559817904,-0.03321691751006581,-0.4263059237833124,-0.8391110466766336,3,right
3.115,-0.055467381307667304,0.9385812387001657,-0.13396588872767584,-2.0785544625132806,0.5758456647207073,-0.3736938676900482,-0.034699833409780376,-0.4296119478581931,-0.8276632108942458,3,right
3.116,-0.05497302137632542,0.937648870765609,-0.13332164126021667,-2.0427628416840657,0.5596543593624155,-0.38746021252557294,-0.036241956965223546,-0.43256265557670454,-0.816588585583624,3,right
3.1189999999999998,-0.054589424387935806,0.9367408942885569,-0.1326523470397949,-2.005455819871822,0.5436530319495805,-0.4010336149733639,-0.03784207230555772,-0.4351667805297133,-0.8058891663024742,3,right
3.12,-0.054313408772195135,0.9358581220854859,-0.1319592733374652,-1.9666817469228293,0.5278373349605422,-0.41440913178986566,-0.03949891039918969,-0.4374332819749529,-0.7955664629602871,3,right
3.1210000000000004,-0.05414163589641157,0.9350014209109423,-0.13124371028989645,-1.9264904671100083,0.5122029647305592,-0.42758150361087766,-0.04121115533760839,-0.4393713314803422,-0.7856215196460286,3,right
3.125,-0.054070617358057,0.9341717131343783,-0.13050696846657353,-1.8849332293710448,0.4967456686278675,-0.4405452175280553,-0.0429774504545708,-0.4409902996382997,-0.7760549345930654,3,right
3.1260000000000003,-0.054096721813357694,0.9333699784223203,-0.12975037629281108,-1.8420625979692689,0.4814612524473007,-0.4532945679610156,-0.04479640428539278,-0.4422997428575837,-0.7668668802516729,3,right
3.13,-0.054216181428358275,0.9325972554071105,-0.12897527733529246,-1.7979323635925852,0.46634558829256456,-0.46582371493175956,-0.0466665963712608,-0.4433093902382471,-0.7580571234405588,3,right
3.1310000000000002,-0.05442509805226772,0.9318546433203106,-0.12818302745389626,-1.7525974547929652,0.4513946229554249,-0.47812673962345525,-0.04858658291363565,-0.44402913053437754,-0.7496250455499192,3,right
3.134,-0.05471944921615532,0.9311433035657557,-0.12737499181729844,-1.7061138496434534,0.4366043867478897,-0.49019769726019324,-0.05055490228397044,-0.4444689992084056,-0.7415696627696328,3,right
3.135,-0.055095094056036624,0.9304644612030029,-0.1265525417751127,-1.658538487486038,0.42197100274395505,-0.502030667343696,-0.0525700803941123,-0.44463916557990324,-0.7338896463172842,3,right
3.139,-0.05554777924951983,0.9298194063081828,-0.12571705158186747,-1.6099291806402685,0.40749069638795493,-0.5136198012823104,-0.054630635932900226,-0.44454992007096095,-0.7265833426417907,3,right
3.14,-0.05607314504073693,0.9292094951783012,-0.12486989497912437,-1.5603445259392061,0.3931598054270189,-0.5249593674469488,-0.05673508547461055,-0.44421166154943015,-0.719648793579488,3,right
3.1439999999999997,-0.05666673141166232,0.9286361513474639,-0.1240124416574369,-1.5098438159561665,0.378974790125592,-0.536043793687957,-0.05888194846503565,-0.44363488477054064,-0.7130837564406086,3,right
3.145,-0.05732398444159742,0.9281008663885145,-0.12314605363455267,-1.4584869497827297,0.36493224372040955,-0.5468677073461922,-0.061069752091112366,-0.4428301679166603,-0.7068857240051617,3,right
3.1489999999999996,-0.05804026288229688,0.9276052004796809,-0.12227208159633175,-1.4063343432157116,0.35102890307475215,-0.5574259727908716,-0.06329703604014225,-0.4418081602342468,-0.7010519444082861,3,right
3.15,-0.05881084496454399,0.9271507827218435,-0.12139186124983252,-1.3534468382081442,0.3372616594912221,-0.5677137265160245,-0.06556235715476796,-0.4405795697663585,-0.6955794408962132,3,right
3.154,-0.059630935442200904,0.9267393111980639,-0.12050670973509013,-1.299885611436862,0.3236275696426953,-0.57772640982663,-0.06786429398998771,-0.4391551511784344,-0.6904650314350259,3,right
3.154,-0.06049567287060141,0.9263725527733239,-0.11961792213743233,-1.2457120818370055,0.31012386658150004,-0.5874597991447617,-0.0702014512786028,-0.4375456936744312,-0.685705348155453,3,right
3.159,-0.061400137107538666,0.9260523426382385,-0.1187267681381956,-1.1909878169516424,0.29674797078726756,-0.5969100339652827,-0.07257246431160322,-0.43576200899981066,-0.6812968566179666,3,right
3.16,-0.0623393570185323,0.9257805836046786,-0.11783448883829702,-1.1357744379427697,0.2834975012142809,-0.6060736424898484,-0.07497600324010076,-0.4338149195273088,-0.6772358748834839,3,right
3.1630000000000003,-0.0633083183644167,0.9255592451632425,-0.11694229378600497,-1.0801335231082059,0.27037028629952403,-0.6149475649671646,-0.07741077730552103,-0.4317152464208864,-0.6735185923759945,3,right
3.1639999999999997,-0.06430197184698234,0.9253903623122833,-0.11605135823700467,-1.0241265097472936,0.25736437489300074,-0.6235291747666472,-0.07987553900486259,-0.42947379787276074,-0.6701410885244395,3,right
3.1689999999999996,-0.06531524128512227,0.9252760341659083,-0.11516282067056374,-0.967814594216937,0.24447804707225376,-0.6318162972117983,-0.08236908819792538,-0.42710135740794786,-0.6670993511721672,3,right
3.17,-0.06634303188921316,0.9252184223449491,-0.11427778057958457,-0.911258630018261,0.23170982480336869,-0.6398072261987873,-0.08489027616349998,-0.42460867225030635,-0.66438929474328,3,right
3.175,-0.06738023859677854,0.925219749152144,-0.11339729654372858,-0.8545190237531316,0.21905848241109652,-0.6475007386248819,-0.08743800961159587,-0.4220064417436679,-0.6620067781561602,3,right
3.176,-0.06842175442975458,0.9252822955320086,-0.11252238458325563,-0.797655628788901,0.2065230568210727,-0.6548961066505368,-0.09001125465886944,-0.41930530582126174,-0.6599476224754279,3,right
3.178,-0.06946247883372977,0.9254083988167828,-0.11165401677897252,-0.7407276364690355,0.19410285753745016,-0.6619931078180887,-0.09260904077449225,-0.4165158335162953,-0.6582076282945372,3,right
3.179,-0.07049732596241154,0.9256004502611472,-0.1107931201348509,-0.6837934647067581,0.18179747631960083,-0.6687920330491605,-0.09523046469856465,-0.4136485115114363,-0.6567825928357954,3,right
3.179,-0.07152123287677961,0.9258608923690114,-0.1099405756573097,-0.6269106437984796,0.1696067965218727,-0.675293692542017,-0.09787469430919737,-0.410713732750647,-0.6556683267237207,3,right
3.1830000000000003,-0.07252916763717247,0.9261922160153065,-0.10909721762843026,-0.5701356992936055,0.15753100206072174,-0.6814994195892627,-0.1005409723675519,-0.4077217851833462,-0.6548606703313237,3,right
3.1830000000000003,-0.07351613727417154,0.9265969573646186,-0.10826383305576187,-0.5135240317572857,0.14557058597386865,-0.6874110723354132,-0.10322862004414213,-0.40468284073664296,-0.6543555095680001,3,right
3.188,-0.07447719562765347,0.9270776945869923,-0.10744116128521516,-0.45712979326281855,0.13372635853645967,-0.6930310334930213,-0.10593704015582218,-0.4016069445852007,-0.6541487910104211,3,right
3.1889999999999996,-0.07540745104458307,0.9276370443697544,-0.106629893765878,-0.40100576065378835,0.12199945491787442,-0.6983622080530538,-0.10866572008985034,-0.3985040047413444,-0.6542365363359277,3,right
3.1889999999999996,-0.07630207392842905,0.9282776582235615,-0.10583067395809559,-0.3452032066317656,0.11039134245481232,-0.7034080191136957,-0.11141423441753756,-0.3953837819619027,-0.6546148560506106,3,right
3.193,-0.0771563041366418,0.9290022185816009,-0.10504409737853874,-0.28977177155353934,0.09890382778160996,-0.7081724021117055,-0.11418224720526002,-0.3922558799629677,-0.6552799625114718,3,right
3.194,-0.0779654582251434,0.929813434692056,-0.10427071177652868,-0.23475933983790984,0.08753906415073659,-0.7126597978289396,-0.11696951403067345,-0.3891297359336807,-0.6562281822429119,3,right
3.199,-0.07872493653969594,0.930714038304097,-0.10351101743308451,-0.18021192386770388,0.07629955918509893,-0.7168751444565203,-0.11977588371202431,-0.38601461134010123,-0.6574559675486223,3,right
3.199,-0.07943023015532663,0.9317067791468344,-0.10276546756795207,-0.12617355644621922,0.06518818313914947,-0.7208238688375362,-0.12260129975850913,-0.3829195830101925,-0.658959907420785,3,right
3.2030000000000003,-0.08007692766854363,0.9327944201998948,-0.10203446883297565,-0.07268619185321995,0.05420817765448736,-0.7245118769190388,-0.12544580154968865,-0.3798535344909652,-0.6607367377492946,3,right
3.2030000000000003,-0.08066072185338409,0.9339797327533745,-0.10131838186679273,-0.019789615343876202,0.04336316497766966,-0.7279455434254569,-0.1283095252520187,-0.376825147668848,-0.6627833508345253,3,right
3.2089999999999996,-0.08117741620025555,0.9352654912535653,-0.10061752188799594,0.032478639064498604,0.032657157608320185,-0.7311317007647853,-0.13119270448061435,-0.3738428946444138,-0.6650968042079536,3,right
3.21,-0.0816229313626348,0.9366544679300912,-0.09993215931035312,0.08408336267148249,0.022094568346001073,-0.7340776271781569,-0.1340956707144196,-0.37091502985267233,-0.6676743287657365,3,right
3.214,-0.08199331153799315,0.93814942720099,-0.09926252037151163,0.13499173819022853,0.011680220704700876,-0.7367910341426774,-0.13701885347300927,-0.3680495824202474,-0.6705133362211162,3,right
3.214,-0.08228473080649863,0.9397531198543699,-0.09860878777170633,0.18517339801187419,0.0014193596641931293,-0.7392800530366878,-0.13996278026330666,-0.36525434875088936,-0.6736114258822932,3,right
3.218,-0.08249349944624557,0.941468277007832,-0.09797110131762547,0.23460047478585255,-0.008682337272067601,-0.7415532210759384,-0.14292807630455756,-0.36253688533092976,-0.6769663907631648,3,right
3.219,-0.08261607023809202,0.9432976038495144,-0.09734955856013007,0.28324764446228595,-0.018618748742418652,-0.7436194665284847,-0.14591546403995873,-0.3599045017464622,-0.6805762230350821,3,right
3.222,-0.08264904476779325,0.9452437731664852,-0.09674421540945959,0.33109216194056096,-0.028383297945295562,-0.7454880932154738,-0.14892576244339997,-0.3573642539042364,-0.6844391188285177,3,right
3.2230000000000003,-0.08258917972953786,0.9473094186665836,-0.09615508671313823,0.37811388946602037,-0.037968940839378094,-0.7471687643043716,-0.15195988612983932,-0.3549229374484747,-0.6885534823942797,3,right
3.228,-0.08243339323449438,0.9494971280999562,-0.09558214678990806,0.42429531791447433,-0.0473681541541064,-0.748671485400585,-0.15501884427789536,-0.35258708136606387,-0.692917929634638,3,right
3.23,-0.08217877113050716,0.951809436187877,-0.09502532992369561,0.46962158110193075,-0.056572923238603134,-0.7500065869428706,-0.15810373937330646,-0.3503629417728394,-0.6975312910154565,3,right
3.233,-0.08182257334176248,0.9542488173687185,-0.09448453082994197,0.5140804632545896,-0.06557472977652234,-0.7511847059073765,-0.161215765781975,-0.34825649587396307,-0.7023926138711462,3,right
3.233,-0.08136224023624797,0.956817678373419,-0.09395960510853561,0.5576623997717348,-0.07436453939380921,-0.7522167668246594,-0.1643562081613869,-0.34627343609169725,-0.707501164114977,3,right
3.238,-0.08079539902291212,0.9595183506443263,-0.09345036969194193,0.6003604714117082,-0.08293278918579514,-0.7531139621135321,-0.167526439719271,-0.3444191643541992,-0.7128564273679983,3,right
3.239,-0.08011987017143078,0.9623530826108961,-0.09295660328757709,0.6421703920286629,-0.09126937518946851,-0.7538877317351517,-0.17072792032844092,-0.34269878653929653,-0.7184581095205296,3,right
3.242,-0.07933367383892076,0.9653240318341313,-0.09247804680667401,0.6830904899852815,-0.09936363982615147,-0.7545497421703379,-0.17396219450684428,-0.34111710706755816,-0.7243061367409002,3,right
3.242,-0.07843503628246007,0.968433257030614,-0.0920144037716507,0.7231216833641095,-0.10720435933917498,-0.7551118647227208,-0.17723088927192954,-0.33967862363934553,-0.7304006549468179,3,right
3.2460000000000004,-0.0774223962337985,0.9716827099869493,-0.09156534069787321,0.7622674490976086,-0.1147797312504781,-0.7555861531499685,-0.18053571187550527,-0.33838752211493384,-0.7367420287490766,3,right
3.247,-0.07629441121233414,0.9750742273757936,-0.0911304874490663,0.8005337861344851,-0.12207736185936002,-0.75598482062502,-0.18387844741023482,-0.3372476715573007,-0.7433308398461059,3,right
3.248,-0.07504996375327563,0.9786095224849315,-0.09070943756725632,0.8379291727572997,-0.1290842538058835,-0.7563202160289663,-0.18726095625177946,-0.3362626194937849,-0.7501678847911313,3,right
3.2510000000000003,-0.07368816752673037,0.9822901768704497,-0.09030174857973962,0.8744645181638271,-0.1357867937206653,-0.7566047995769662,-0.19068517128558124,-0.33543558747335267,-0.7572541720225001,3,right
3.252,-0.07220837331833382,0.9861176319434285,-0.08990694228781425,0.9101531084221115,-0.1421707399819895,-0.756851117778372,-0.194153094882512,-0.33476946697653104,-0.764590918080366,3,right
3.2569999999999997,-0.07061017483642723,0.9900931804980685,-0.08952450504321027,0.9450105469599364,-0.14822121062699287,-0.7570717777545563,-0.19766679561495756,-0.3342668156993172,-0.7721795429910756,3,right
3.258,-0.06889341430961013,0.9942179581898866,-0.08915388801664376,0.9790546900132941,-0.1539226715960399,-0.7572794210503269,-0.2012284047201527,-0.33392985421271504,-0.7800216648332334,3,right
3.258,-0.06705818784166166,0.9984929349751895,-0.08879450745966203,1.0123055779354144,-0.159258925728332,-0.757486697277252,-0.20484011232073443,-0.33376046299599194,-0.788119093506526,3,right
3.261,-0.06510485049271113,1.0029189065257944,-0.08844574495879241,1.0447853635318594,-0.16421310305908032,-0.7577062380396772,-0.2085041634126118,-0.3337601798422155,-0.7964738237251068,3,right
3.261,-0.06303402105243783,1.0074964856360533,-0.08810694768199699,1.0765182383185323,-0.16876765283432243,-0.7579506314816525,-0.21222285363038781,-0.333930197635107,-0.8050880272580778,3,right
3.266,-0.060846586466305655,1.0122260936436043,-0.08777742862148064,1.1075303571177688,-0.17290433741857078,-0.7582323975904266,-0.2159985248007149,-0.33427136249672834,-0.8139640444403295,3,right
3.267,-0.05854370587331759,1.0171079518903299,-0.08745646684250054,1.1378497611391325,-0.17660422813613622,-0.7585639642796713,-0.21983356029411416,-0.33478417230600344,-0.8231043749777485,3,right
3.272,-0.05612681421322309,1.0221420732541333,-0.0871433077535143,1.1675062996361354,-0.17984770305917114,-0.758957644253168,-0.22373038018594615,-0.3354687755885652,-0.8325116680715402,3,right
3.273,-0.053597625362096314,1.027328253784193,-0.0868371634166436,1.19653155022803,-0.1826144467542755,-0.7594256126497898,-0.22769143623738497,-0.3363249707789089,-0.8421887118871756,3,right
3.2760000000000002,-0.0509581347589346,1.0326660644721757,-0.08653721291536756,1.224958737973839,-0.1848834519982515,-0.7599798854707595,-0.23171920670741772,-0.3373522058563251,-0.8521384223942208,3,right
3.2769999999999997,-0.0482106214926421,1.03815484318934,-0.08624260278779541,1.2528226532838824,-0.1866330234722817,-0.7606322987903399,-0.23581619100706958,-0.33854957835657895,-0.8623638316040823,3,right
3.281,-0.04535764982701066,1.0437936868144744,-0.08595244752377586,1.2801595687522629,-0.18784078344243263,-0.7613944887513274,-0.2399849042072385,-0.339915835761794,-0.8728680752334733,3,right
3.281,-0.04240207014976414,1.0495814435714172,-0.08566583011752801,1.3070071549920372,-0.18848367943295605,-0.7622778723469669,-0.24422787141171579,-0.34144937627148925,-0.8836543798221909,3,right
3.287,-0.03934701934046767,1.055516705589905,-0.08538180266542993,1.3334043955532073,-0.18853799389736492,-0.7632936289911859,-0.24854762200716737,-0.34314824995820714,-0.8947260493345842,3,right
3.287,-0.03619592056168486,1.0615978017015169,-0.08509938700080828,1.359391501002138,-0.18797935589070489,-0.7644526828793625,-0.2529466838020568,-0.34501016031165366,-0.9060864512749,3,right
3.2910000000000004,-0.03295248248780003,1.067822790483497,-0.08481757536332814,1.3850098222396139,-0.18678275474481643,-0.7657656861421908,-0.25742757706670494,-0.3470324661757513,-0.9177390023474933,3,right
3.292,-0.02962069799476329,1.0741894535652186,-0.08453533110705293,1.410301763133453,-0.18492255574669147,-0.767243002795582,-0.26199280848690015,-0.34921218408348104,-0.9296871536937221,3,right
3.2960000000000003,-0.026204842339503796,1.0806952892124735,-0.08425158945516803,1.4353106925404204,-0.18237251781826563,-0.7688946934899576,-0.2666448650437028,-0.3515459909948562,-0.9419343757381646,3,right
3.298,-0.02270947085883444,1.0873375062033415,-0.08396525831013026,1.4600808557911296,-0.1791058131941536,-0.7707305010627243,-0.2713862078323209,-0.35403022744383106,-0.9544841426776447,3,right
3.3,-0.019139416215653803,1.0941130180084133,-0.08367521912770379,1.4846572857106775,-0.17509504909192689,-0.7727598368982013,-0.27621926583317863,-0.35666090110039944,-0.9673399166473927,3,right
3.301,-0.015499785217406862,1.1010184372893912,-0.08338032786380085,1.5090857132469582,-0.17031229136755063,-0.7749917680997621,-0.2811464296485446,-0.3594336907545786,-0.9805051315995363,3,right
3.305,-0.011795955229109874,1.108050070732541,-0.08307941600359472,1.5334124777779061,-0.16472909014653667,-0.7774350054794871,-0.28617004521834827,-0.36234395072940795,-0.9939831769299782,3,right
3.305,-0.008033570200638303,1.1152039142355523,-0.08277129168124424,1.5576844371683707,-0.1583165074192301,-0.7800978923711738,-0.2912924075290721,-0.3653867157305091,-1.0077773808905999,3,right
3.31,-0.00421853632469829,1.1224756484676774,-0.08245474089529153,1.581948877646898,-0.15104514658642884,-0.7829883942731377,-0.2965157543298792,-0.36855670614016356,-1.0218909938246197,3,right
3.3110000000000004,-0.00035701733689291764,1.1298606348231839,-0.08212852882012756,1.6062534235724029,-0.1428851839392347,-0.7861140893278394,-0.3018422598704138,-0.37184833376425763,-1.036327171263831,3,right
3.3160000000000003,0.003544570537404031,1.137353911787472,-0.08179140120971522,1.630645947160565,-0.13380640205465108,-0.789482159646005,-0.30727402867499315,-0.37525570804082387,-1.0510889569273534,3,right
3.3160000000000003,0.007479563990976754,1.1449501917356875,-0.08144208588891474,1.6551744782397524,-0.12377822508597439,-0.793099383483559,-0.31281308936376734,-0.37877264271386524,-1.066179265654168,3,right
3.3169999999999997,0.011441058402863795,1.152643858186093,-0.08107929433124696,1.6798871141063973,-0.11276975592447247,-0.796972128280367,-0.31846138850954386,-0.38239266294945223,-1.0816008662612253,3,right
3.32,0.015421913973327313,1.1604289635326257,-0.08070172332754563,1.7048319295500014,-0.10074981520620362,-0.8011063445704742,-0.3242207844793633,-0.38610901282273546,-1.0973563642453144,3,right
3.321,0.019414762232994168,1.168299227281548,-0.08030805675523832,1.7300568871183373,-0.087686982135101,-0.8055075607742489,-0.3300930411880478,-0.3899146630777868,-1.1134481842064197,3,right
3.326,0.023412012934239085,1.1762480348173336,-0.07989696746084282,1.755609747693943,-0.07354963709063128,-0.8101808788835665,-0.33607982171342965,-0.393802319089522,-1.1298785519126495,3,right
3.326,0.027405861333985662,1.1842684367237544,-0.07946711926623969,1.7815379814449068,-0.05830600599754417,-0.8151309710339782,-0.3421826817632013,-0.39776442900591236,-1.146649476002313,3,right
3.327,0.031388295878638624,1.192353148686358,-0.0790171691026503,1.8078886791699107,-0.04192420649280813,-0.8203620768688451,-0.34840306300582385,-0.4017931920759934,-1.1637627293610981,3,right
3.3310000000000004,0.035351106304063344,1.2004945520016599,-0.07854576926801261,1.834708463979547,-0.024372296030773816,-0.8258780014396867,-0.3547422862826967,-0.4058805671748232,-1.1812198302215529,3,right
3.332,0.03928589216684013,1.2086846947174037,-0.07805156979517834,1.8620434032131679,-0.0056183221250027384,-0.8316821132980649,-0.3612015447191236,-0.4100182815367545,-1.1990220230330524,3,right
3.3339999999999996,0.04318407182713942,1.2169152934280048,-0.07753322091106231,1.889938920535572,0.014369625138645307,-0.837777342524852,-0.36778189675194606,-0.41419783970857843,-1.2171702591514189,3,right
3.335,0.04703689190700411,1.2251777357495335,-0.07698937556352699,1.9184397082380755,0.03562335829546772,-0.8441661786050639,-0.37448425909205896,-0.41841053273426215,-1.2356651773983434,3,right
3.34,0.050835437249216305,1.2334630834988922,-0.07641869199540423,1.9475896398138233,0.058174535443746477,-0.850850668146992,-0.3813093996403661,-0.42264744758315054,-1.2545070845417554,3,right
3.341,0.05457064140077466,1.24176207660218,-0.07581983635236134,1.9774316828875762,0.082054600992436,-0.8578324124631481,-0.3882579303760804,-0.4268994768336182,-1.2736959357492759,3,right
3.344,0.058233297641681885,1.2500651377581427,-0.07519148532004814,2.0080078125819436,0.10729472427583599,-0.8651125650313838,-0.3953303002366258,-0.4311573286242556,-1.2932313150678836,3,right
3.345,0.061814070575725355,1.258362377884111,-0.07453232879191701,2.039358925403889,0.13392573610010045,-0.8726918288553858,-0.40252678800874764,-0.435411536884741,-1.313112415983926,3,right
3.35,0.06530350829708087,1.2666436023722336,-0.07384107256907621,2.0715247537373336,0.16197806329025113,-0.8805704537446103,-0.40984749525079495,-0.43965247185859285,-1.3333380221185938,3,right
3.35,0.06869205514518047,1.2748983181815325,-0.07311644108827701,2.1045437810297787,0.19148166131026997,-0.8887482335345699,-0.41729233926649156,-0.44387035093001437,-1.3539064881149803,3,right
3.3539999999999996,0.07197006505871183,1.28311574178737,-0.07235718016810358,2.1384531577630996,0.22246594503283965,-0.8972245032692463,-0.42486104615086995,-0.4480552497670305,-1.374815720773837,3,right
3.355,0.07512781553621713,1.2912848080065726,-0.07156205976059975,2.173288618300994,0.25495971773938386,-0.9059981363682635,-0.4325531439293982,-0.4521971137930792,-1.3960631604961196,3,right
3.359,0.07815552220535149,1.2993941797140383,-0.07072987669617145,2.2090843987080206,0.28899109843522663,-0.9150675418023106,-0.44036795581168664,-0.45628576999915305,-1.4176457630914157,3,right
3.359,0.0810433539970678,1.3074322584632325,-0.06985945741157318,2.245873155637719,0.32458744756894203,-0.9244306613011632,-0.44830459358151636,-0.46031093910849047,-1.439559982012306,3,right
3.366,0.08378144891744864,1.3153871960174632,-0.06894966065314818,2.283685886389957,0.36177529124930113,-0.9340849666195031,-0.45636195114528394,-0.46426224810569466,-1.4618017510756984,3,right
3.367,0.08635993040849063,1.323246906793009,-0.06799938015121013,2.322551850240405,0.4005802440576377,-0.9440274568865886,-0.4645386982613123,-0.46812924314200227,-1.4843664677331236,3,right
3.3689999999999998,0.08876892428566135,1.3309990812130097,-0.06700754726673054,2.3624984911478966,0.4410269305579488,-0.9542546560666639,-0.47283327447282386,-0.47190140282824383,-1.5072489769529387,3,right
3.37,0.09099857623151202,1.3386311999742733,-0.06597313361561156,2.403551361948351,0.48313890561161693,-0.9647626105578384,-0.48124388326772033,-0.4755681519268234,-1.5304435557783271,3,right
3.3739999999999997,0.09303906981237003,1.3461305492346383,-0.06489515367579708,2.445734050146979,0.5269385736082819,-0.9755468869579875,-0.48976848648865495,-0.47911887545380505,-1.5539438986258987,3,right
3.3739999999999997,0.09488064497242178,1.3534842367315747,-0.06377266737868431,2.489068105423579,0.5724471067291064,-0.9866025700270502,-0.49840479901722234,-0.4825429332019184,-1.5777431033906173,3,right
3.378,0.0965136169500885,1.3606792088417112,-0.06260478268192952,2.53357296896891,0.619684362363459,-0.9979242608758975,-0.507150283756422,-0.4858296746949944,-1.6018336584236774,3,right
3.3789999999999996,0.09792839555838893,1.3677022685868951,-0.06139065811926537,2.579265904773366,0.6686687998048869,-1.009506075412742,-0.5160021469358795,-0.4889684545840091,-1.6262074304508194,3,right
3.383,0.099115504773755,1.3745400945866317,-0.06012950532592118,2.6261619329924777,0.719417396357153,-1.0213416430788391,-0.5249573337646306,-0.4919486484945491,-1.6508556534994376,3,right
3.384,0.10006560258443921,1.381179260951713,-0.05882059154359684,2.6742737655171376,0.7719455629860781,-1.0334241059059877,-0.5340125244518623,-0.4947596693270684,-1.6757689188878209,3,right
3.385,0.10076950105885646,1.3876062581129325,-0.05746324211202665,2.723611743879837,0.826267059657944,-1.0457461179290908,-0.5431641305927024,-0.49739098397064213,-1.7009371662514294,3,right
3.389,0.1012181866037021,1.3938075145820659,-0.05605684295214932,2.774183779631662,0.882393910510277,-1.0582998449877616,-0.5524082918739451,-0.49983213031803503,-1.7263496754392558,3,right
3.389,0.10140284038684289,1.399769419643905,-0.05460084304060553,2.8259952973282916,0.9403363190059427,-1.0710769649516687,-0.5617408730312758,-0.5020727344291724,-1.7519950590348252,3,right
3.3939999999999997,0.10131485889938743,1.4054783469737675,-0.0530947568705539,2.8790491802559997,1.0001025832263437,-1.0840686684032665,-0.5711574610134474,-0.5041025277298291,-1.7778612553363786,3,right
3.395,0.10094587463064583,1.4109206791696542,-0.0515381668918597,2.9333457189785053,1.0616990114632854,-1.097265659803565,-0.580653362351622,-0.5059113642042375,-1.8039355217741135,3,right
3.395,0.10028777683302806,1.4160828331886062,-0.04993072592531453,2.988882562692405,1.1251298382717378,-1.1106581591516316,-0.5902236007559574,-0.5074892375799819,-1.8302044288222858,3,right
3.3989999999999996,0.09933273235727363,1.4209512866796985,-0.04827215955012792,3.045654673328763,1.1903971411495444,-1.124235904140478,-0.5998629149664781,-0.5088262985109865,-1.8566538544804498,3,right
3.4,0.09807320653756627,1.425512605204811,-0.046562268467880676,3.1036542823957167,1.2575007580167938,-1.1379881528212294,-0.6095657568855017,-0.5099128717637751,-1.8832689793987085,3,right
3.403,0.09650198410396948,1.429753470332906,-0.04480093084430933,3.162870850657184,1.3264382056753845,-1.151903686803636,-0.6193262900190987,-0.5107394734115098,-1.9100342827224146,3,right
3.404,0.09461219010021654,1.4336607085866762,-0.042988104620772266,3.2232910307999996,1.3972045994359934,-1.1659708150301724,-0.6291383882552684,-0.5112968280396325,-1.936933538732266,3,right
3.409,0.09239731078723656,1.437221321211061,-0.04112382977249035,3.284898633256081,1.4697925741052127,-1.1801773781632077,-0.6389956350066899,-0.5115758859662086,-1.9639498143562226,3,right
3.41,0.08985121451402313,1.440422514719788,-0.03920823047484146,3.3476745953497056,1.5441922065308862,-1.1945107536251984,-0.6488913227460755,-0.5115678404793279,-1.9910654676301005,3,right
3.4130000000000003,0.08696817253646956,1.443251732159911,-0.03724151712617875,3.4115969539434357,1.6203909399089205,-1.20895786133229,-0.6588184529622988,-0.5112641450931438,-2.0182621471840774,3,right
3.4139999999999997,0.0837428797620668,1.4456966850164088,-0.03522398816917425,3.4766408217596307,1.6983735100600732,-1.2235051701621067,-0.6687697365656009,-0.5106565308233342,-2.045520792832688,3,right
3.4189999999999996,0.08017047539498082,1.4477453856596847,-0.03315603165438737,3.5427783675578426,1.778121873890427,-1.2381387051968833,-0.6787375947702897,-0.5097370234819425,-2.072821637346162,3,right
3.42,0.07624656345306603,1.449386180221013,-0.031038126499203345,3.6099788003516684,1.8596151402544083,-1.2528440557834073,-0.6887141604834303,-0.5084979609907079,-2.100144209481189,3,right
3.423,0.07196723312560775,1.4506077817685568,-0.02887084340945501,3.678208357851854,1.9428295034443435,-1.2676063844515364,-0.6986912802281002,-0.5069320107111228,-2.127467338349384,3,right
3.423,0.06732907893601242,1.4513993036497534,-0.026654845445108023,3.747430299325579,2.027738179535594,-1.2824104367332951,-0.7086605166298283,-0.5050321867885595,-2.1547691592018254,3,right
3.427,0.06232922066555047,1.4517502928616828,-0.024390888222117532,3.817604903064902,2.1143113458213363,-1.2972405519247652,-0.718613151494857,-0.5027918675068898,-2.182027120708124,3,right
3.428,0.05696532298350503,1.4516507633081537,-0.0220798197512699,3.8886894686602886,2.2025160835759716,-1.3120806748331433,-0.7285401895088731,-0.5002048126490851,-2.209217993808456,3,right
3.432,0.051235614717964596,1.4510912288009166,-0.019722579926030725,3.9606383242779906,2.2923163243910336,-1.3269143685514628,-0.7384323625848275,-0.49726518085832566,-2.236317882216949,3,right
3.4330000000000003,0.04513890769089373,1.4500627356621172,-0.017320199689748877,4.033402839142785,2.383672800332212,-1.3417248283035461,-0.7482801348884149,-0.4939675469931671,-2.2633022346546716,3,right
3.437,0.03867461503096464,1.448556894785356,-0.014873799939286992,4.106931441430175,2.4765429981708107,-1.3564948964017824,-0.7580737085697121,-0.49030691946932226,-2.2901458588902925,3,right
3.438,0.03184276886776224,1.4465659130131727,-0.012384590250079186,4.181169641774643,2.570881117947529,-1.3712070783603136,-0.7678030302293698,-0.4862787575796006,-2.3168229376662017,3,right
3.4410000000000003,0.02464403729866028,1.4440826236877322,-0.00985386752081874,4.256060062602869,2.666638036130912,-1.385843560206131,-0.7774577981476312,-0.48187898878252167,-2.3433070465875643,3,right
3.4419999999999997,0.01707974049943626,1.441100516227321,-0.007283014620779216,4.331542473503037,2.763761273637166,-1.400386227030482,-0.7870274703042853,-0.4771040259490771,-2.3695711740513588,3,right
3.448,0.00915186581850113,1.437613764575688,-0.004673499081013101,4.407553832843359,2.86219496898224,-1.4148166828228077,-0.7965012732174854,-0.4719507845560592,-2.395587743291983,3,right
3.449,0.0008630816549653955,1.4336172543685035,-0.0020268718210521477,4.484028335854844,2.9618798568411426,-1.4291162716292192,-0.8058682116291437,-0.46641669981331113,-2.4213286366194495,3,right
3.4539999999999997,-0.007783250121379502,1.4291066086638007,0.0006552341294304193,4.560897469394996,3.062753252293391,-1.443266100077253,-0.8151170790643719,-0.4604997437111729,-2.4467652219255664,3,right
3.455,-0.016783063482764374,1.4240782120918052,0.0033711049530755505,4.638090073610684,3.164749041037227,-1.457247061308321,-0.8242364692778406,-0.4541984419581748,-2.471868381487885,3,right
3.4560000000000004,-0.026131579566090194,1.4185292332960735,0.006118947422274644,4.715532410719699,3.267797675858846,-1.4710398603588892,-0.8332147885280274,-0.4475118907022346,-2.496608542875953,3,right
3.4560000000000004,-0.035823300252525093,1.4124576455603042,0.008896890308239765,4.793148241131698,3.3718261796462623,-1.484625041030994,-0.8420402684911198,-0.44043977279125357,-2.520955711359522,3,right
3.457,-0.045852004224912396,1.4058622455292948,0.011702985768285278,4.870858907130112,3.476758155240681,-1.4979830142922212,-0.8507009795543672,-0.43298237325220396,-2.5448795029929423,3,right
3.4619999999999997,-0.05621074572629725,1.398742669929136,0.014535210635757774,4.948583424223115,3.582513802365842,-1.5110940882063244,-0.8591848442998702,-0.4251405937423967,-2.5683491777733836,3,right
3.463,-0.0668918562395007,1.3910994101858352,0.01739146753547666,5.026238579701212,3.6890099416015607,-1.523938499203067,-0.8674796511182195,-0.4169159658617698,-2.5913336726734153,3,right
3.464,-0.0778869492677765,1.3829338248480407,0.020269585768864305,5.103739036911363,3.7961600448716286,-1.536496444149614,-0.8755730679625201,-0.40831066328963855,-2.613801634571719,3,right
3.466,-0.08918692834567978,1.3742481497268755,0.02316732193779687,5.180997443186579,3.9038742716415396,-1.5487481124930886,-0.8834526562671476,-0.39932751272338185,-2.635721453149285,3,right
3.468,-0.10078199837442182,1.3650455056592645,0.026082360291968077,5.257924539940736,4.0120595103006735,-1.56067371793514,-0.8911058850550373,-0.3899700035954427,-2.657061293817052,3,right
3.472,-0.11266168034358956,1.3553299037879816,0.029012312798796038,5.334429274465812,4.120619424704109,-1.5722535294441589,-0.8985201452567309,-0.380242296543929,-2.677789130739474,3,right
3.472,-0.12481482945379622,1.3451062482447667,0.03195471895449404,5.410418913539083,4.229454506127894,-1.5834679016018902,-0.9056827642637884,-0.37014923061101457,-2.697872780016904,3,right
3.4760000000000004,-0.13722965659983807,1.3343803361226823,0.03490704537652566,5.48579915906108,4.338462130948355,-1.594297304318661,-0.9125810207385243,-0.3596963291422689,-2.7172799330880375,3,right
3.477,-0.14989375312600978,1.3231588546281754,0.037866685241111135,5.560474265943877,4.44753662435709,-1.6047223519504437,-0.9192021597013412,-0.3488898043589803,-2.7359781904118945,3,right
3.4810000000000003,-0.16279411872921762,1.3114493753163348,0.04083095766340818,5.634347162467812,4.556569330424076,-1.6147238318499353,-0.9255334079162068,-0.3377365605744899,-2.7539350954869555,3,right
3.4819999999999998,-0.17591719235524145,1.2992603453400584,0.043797107170154545,5.707319573322978,4.665448688821825,-1.6242827323827134,-0.9315619895940669,-0.3262441960245213,-2.7711181692631413,3,right
3.486,-0.18924888589721947,1.2866010756846789,0.04676230348668138,5.779292145549795,4.774060318523684,-1.6333802704383795,-0.9372751424331855,-0.314421003280477,-2.787494945000279,3,right
3.487,-0.20277462045539993,1.2734817264049896,0.04972364194487558,5.850164577590675,4.8822871087892725,-1.641997918465382,-0.9426601340145735,-0.3022759682136769,-2.803033003624573,3,right
3.492,-0.2164793648576086,1.2599132889197626,0.05267814487950024,5.919835751662185,4.990009317749577,-1.6501174310569329,-0.9477042785697969,-0.28981876747754276,-2.817700009632363,3,right
