time,gFx,gFy,gFz,ax,ay,az,wx,wy,wz,subject_number,foot
11.209000000000001,0.1865516407858927,1.1340674450251869,-0.016271406832185042,-3.5568185044984197,-2.124657445950997,0.2578449488154413,1.2116951200103958,-0.0993449144635507,3.5792459351741868,1,right
11.21,0.18889270517201096,1.1379878354454969,-0.015532143565425831,-3.5484606368159235,-2.0370445200673206,0.283315108912002,1.1976159859867919,-0.062253687276918275,3.5059679172330824,1,right
11.216,0.19083595011316354,1.1418002493016441,-0.014821741634678112,-3.5384315189053717,-1.9493002050566737,0.30905473681200957,1.1832918443025797,-0.024514024769293798,3.431466180347323,1,right
11.217,0.19237880067855478,1.1455041410586957,-0.01414135947628673,-3.5267336613767566,-1.8614739961085973,0.335037948487454,1.1687311862495984,0.013844078321248473,3.355788965740224,1,right
11.219000000000001,0.19351924721527555,1.1490988810238743,-0.013492174687459873,-3.5133719538636594,-1.7736146786275706,0.361238623647785,1.1539426194952391,0.052789304632720586,3.2789857247461076,1,right
11.22,0.19425584840892063,1.152583757252641,-0.012875384534120292,-3.498353706787545,-1.685770316894231,0.38763044155173,1.1389348650596964,0.09228903085655232,3.2011070800305106,1,right
11.224,0.19458773331357396,1.1559579777553466,-0.012292205722858437,-3.4816886893866013,-1.5979882434294073,0.41418691655482476,1.1237167540158874,0.1323093480778997,3.122204782799888,1,right
11.224,0.19451460250851674,1.1592206730197143,-0.011743873448353212,-3.463389163970752,-1.5103150488086698,0.440881433467865,1.1082972238695712,0.1728150858907397,3.042331665780297,1,right
11.228,0.19403672851792952,1.162370898886704,-0.011231639741817954,-3.443469916359731,-1.4227965716751505,0.46768728280204,1.0926853145765774,0.21376984040115019,2.961541591741448,1,right
11.23,0.19315495560725016,1.1654076398329924,-0.010756771155691175,-3.421948282456356,-1.3354778886985534,0.49457769597698154,1.0768901641534459,0.255136006233667,2.8798893973395683,1,right
11.232999999999999,0.19187069904756993,1.1683298127224928,-0.010320545827724422,-3.398844170902471,-1.2484033042285956,0.5215258805683546,1.0609210038371966,0.2968748126570022,2.797430832049743,1,right
11.234000000000002,0.19018594391704197,1.1711362710949478,-0.009924249970569123,-3.374180081760374,-1.1616163393915582,0.5485050556719401,1.044787152749405,0.3389463639466943,2.714222491955765,1,right
11.238,0.18810324348494506,1.1738258100636063,-0.009569173827187097,-3.3479811211579458,-1.075159720379201,0.5754884874614001,1.028498012019226,0.38130968410344096,2.6303217481630368,1,right
11.239,0.1856257172007059,1.176397171895292,-0.009256607121442386,-3.320275011831151,-0.9890753656799888,0.6024495250170826,1.0120630583195096,0.4239227660469329,2.5457866695977813,1,right
11.243,0.18275704828944297,1.1788490523426458,-0.008987834026313106,-3.291092099493115,-0.9034043720034083,0.6293616365033129,0.9954918367696843,0.46674262540596145,2.460675939953641,1,right
11.243,0.17950148094071597,1.1811801077894786,-0.008764127673685394,-3.260465354954585,-0.8181869986490986,0.6561984457716308,0.9787939531800366,0.5097253589481376,2.375048768731142,1,right
11.244000000000002,0.17586381707048473,1.183388963257155,-0.008586744233691756,-3.228430371916226,-0.733462650073586,0.6829337694673664,0.961979065718633,0.5528262073019377,2.288964797245572,1,right
11.25,0.17184941263657733,1.185474221305907,-0.008456916590474555,-3.1950253603490117,-0.6492698564085997,0.7095416547168114,0.9450568762743994,0.5959996209199596,2.202484002154561,1,right
11.251,0.16746417349073095,1.1874344718548997,-0.008375847636334994,-3.160291135374783,-0.5656462516862476,0.735996417472023,0.9280371218965311,0.6391993278414055,2.1156665999870636,1,right
11.253,0.1627145507520757,1.189268302941152,-0.008344703202482824,-3.1242711015489433,-0.4826285496649081,0.7622726815273329,0.9109295665830499,0.6823784022034772,2.028572955222232,1,right
11.253,0.1576075356876833,1.1909743124363674,-0.008364604641116213,-3.0870112324128156,-0.4002525178370393,0.788345417907894,0.8937439934983522,0.7254893331560024,1.9412634927881476,1,right
11.254000000000001,0.15215065408683304,1.1925511207374815,-0.008436621067533791,-3.0485600451244554,-0.3185529514362178,0.814189983766085,0.8764901975922826,0.7684840942250221,1.853798614917507,1,right
11.259,0.14635196011854867,1.1939973844389282,-0.008561761264144383,-3.008968569942558,-0.237563649948277,0.8397821596077001,0.8591779785716097,0.8113142132492794,1.7662386221102027,1,right
11.259,0.1402200296692151,1.1953118109786027,-0.008740965243722762,-2.968290314365015,-0.1573173979474366,0.8650981839826511,0.8418171341745532,0.8539308430133533,1.67864363795211,1,right
11.263,0.13376395317227083,1.196493174217892,-0.00897509546991205,-2.926581221775182,-0.07784595084577949,0.8901147853383211,0.8244174536988199,0.8962848327008426,1.5910735375389413,1,right
11.263,0.1269933279679361,1.1975403308641395,-0.009264927743517086,-2.883899624476118,0.0008199745393506989,0.9148092110463639,0.806988711733436,0.9383268002905378,1.5035878792537682,1,right
11.267999999999999,0.11991825026519912,1.198452237575608,-0.009611141786992778,-2.8403061909960776,0.07865070483048836,0.939159253675626,0.7895406620445239,0.9800072060178993,1.4162458396466988,1,right
11.269,0.11254930680692296,1.1992279685186726,-0.010014311591791813,-2.7958638675455543,0.15561761057595552,0.9631432745830072,0.7720830315650591,1.021276427023407,1.3291061511652758,1,right
11.272,0.10489756633658902,1.1998667330956565,-0.01047489561929993,-2.7506378135033915,0.23169310260246434,0.9867402248931532,0.7546255144385593,1.0620848333084525,1.2422270424843962,1,right
11.273,0.09697457091092107,1.2003678935468067,-0.01099322695468286,-2.7046953308068686,0.30685062445793804,1.0099296639368847,0.737177766066606,1.1023828651184,1.1556661811849729,1,right
11.277999999999999,0.08879232700020041,1.20073098215027,-0.011569503515260005,-2.6581057871182288,0.38106464116559596,1.032691775217217,0.7197493971100659,1.1421211118712675,1.0694806185311312,1,right
11.279000000000002,0.0803632961911036,1.2009557177767616,-0.012203778440967391,-2.6109405326378696,0.45431062450779036,1.0550073799707143,0.7023499673938823,1.1812503927491513,0.9837267360964849,1,right
11.282,0.07170038517372856,1.2010420215745568,-0.012895950861967724,-2.5632728104323697,0.5265650350554473,1.0768579483907528,0.6849889796653347,1.2197218390680555,0.8984601939909497,1,right
11.283,0.06281693456172366,1.2009900315552364,-0.013645757330374972,-2.5151776601436633,0.597805301156256,1.0982256085780397,0.6676758731557215,1.257486978540175,0.8137358804406264,1,right
11.288,0.05372670597187831,1.2008001158289332,-0.014452764273326365,-2.4667318149440254,0.6680097950919722,1.1190931532824575,0.6504200168955011,1.294497821540936,0.7296078624745247,1,right
11.289000000000001,0.044443866693290035,1.2004728842174048,-0.015316361823723399,-2.418013591600097,0.7371578066123547,1.1394440444989637,0.6332307027330374,1.3307069494912076,0.646129337473298,1,right
11.294,0.034982971218261466,1.2000091979761471,-0.01623575929106907,-2.36910277350795,0.8052295140503415,1.1592624159788936,0.6161171380072356,1.3660676054630714,0.5633525853367191,1,right
11.295,0.02535893889771673,1.1994101774012562,-0.017209982375717314,-2.3200804865601814,0.8722059532201012,1.1785330737165765,0.5990884378245159,1.4005337871153682,0.48132892102832786,1,right
11.297,0.015587027048594172,1.1986772071833178,-0.018237872078727586,-2.2710290677052667,0.9380689842965614,1.1972414944696965,0.5821536168907653,1.43406034206294,0.40010864725755674,1,right
11.298,0.005682799020048803,1.197811939473994,-0.01931808519625278,-2.2220319260588273,1.0028012568719222,1.2153738223702923,0.5653215808491225,1.4666030657810512,0.31974100706164654,1,right
11.302,-0.004337912957203587,1.1968162947140033,-0.020449096338981163,-2.173173396426172,1.0663861733815236,1.2329168636817311,0.5486011170747006,1.498118802143902,0.24027413605182943,1,right
11.302999999999999,-0.014459049886976038,1.1956924603092312,-0.021629201527844224,-2.1245385850953697,1.128807851088236,1.2498580797553658,0.5320008848776117,1.528565546693455,0.16175501409056123,1,right
11.307,-0.024664372379789024,1.1944428872322659,-0.02285652348882949,-2.076213207760286,1.190051082811296,1.2661855782389397,0.5155294050659639,1.557902552731964,0.08422941616903175,1,right
11.308,-0.034937510175393975,1.193070284584569,-0.02412901873593066,-2.028283419433409,1.2501012965822167,1.281888102587106,0.49919504882081245,1.5860904403286578,0.007741862256767125,1,right
11.312000000000001,-0.04526201346373658,1.191577612106379,-0.025444486403131683,-1.980835636208935,1.3089445144070584,1.2969550199227051,0.4830060258663722,1.6130913081469722,-0.06766443399110161,1,right
11.312999999999999,-0.05562140464555039,1.1899680705951032,-0.026800578647196358,-1.933956348737469,1.3665673103109663,1.31137630729568,0.4669703720740497,1.6388688470906982,-0.14194761722527752,1,right
11.312999999999999,-0.06599922938944787,1.1882450902021846,-0.028194812372800433,-1.8877319272748396,1.4229567678374528,1.3251425363847171,0.4510959369180283,1.6633884531353271,-0.21506724164647742,1,right
11.317,-0.07637910607578495,1.1864123166228222,-0.029624582030265953,-1.842248418168912,1.4781004371714348,1.33824485668487,0.4353903713554411,1.6866173358026277,-0.28698431949808184,1,right
11.318,-0.08674477282735561,1.1844735952683096,-0.03108717327868262,-1.7975913316499081,1.5319862920515344,1.35067497722258,0.41986111654972463,1.7085246196378285,-0.35766136535496185,1,right
11.322000000000001,-0.09708013144017572,1.1824329536063694,-0.03257977740883904,-1.753845420791633,1.5846026866336087,1.3624251468376165,0.40451539357742294,1.7290814376739376,-0.4270624357522115,1,right
11.323,-0.10736928777545776,1.1802945819474815,-0.03409950656063751,-1.711094451513126,1.6359383124638935,1.3734881330695619,0.38936019410431755,1.7482610167688848,-0.49515316424926314,1,right
11.323,-0.11759658847273677,1.17806281301564,-0.035643409859025796,-1.6694209638211195,1.6859821557741503,1.3838571997474025,0.3744022719862856,1.7660387548783616,-0.5619007921323451,1,right
11.327,-0.12774665405432706,1.1757421006445994,-0.03720849057938229,-1.6289060261387134,1.7347234555956128,1.3935260836932029,0.35964813575081933,1.7823922903233556,-0.6272741949545777,1,right
11.328,-0.13780440858102963,1.1733369978926564,-0.03879172436693985,-1.5896289875248857,1.7821516637033608,1.4024889715147149,0.3451040419156828,1.797301563107423,-0.6912439051092446,1,right
11.332,-0.14775510605218745,1.1708521348287224,-0.040390078413700424,-1.5516672342349704,1.8282564076870957,1.410740477774144,0.33077598910175016,1.8107488683347237,-0.7537821306279194,1,right
11.332,-0.15758435378817912,1.1682921962513675,-0.042000531360612305,-1.5150959554331378,1.8730274581524955,1.4182756255039268,0.3166697128976549,1.8227189017757521,-0.8148627703911854,1,right
11.338,-0.16727813310201486,1.1656618996275427,-0.04362009358073012,-1.4799879199151154,1.91645470053504,1.425089829472489,0.3027906814344808,1.8331987976235589,-0.8744614259356555,1,right
11.338,-0.17682281764432795,1.1629659735366238,-0.045245827458036326,-1.4464132640607377,1.9585281117163493,1.4311788822865472,0.28914409162934723,1.8421781584790584,-0.9325554100368939,1,right
11.341,-0.1862051898866597,1.1602091368843903,-0.04687486731480038,-1.4144392909114245,1.9992377415716238,1.4365389433515976,0.27573486605737624,1.8496490775997845,-0.9891237522436521,1,right
11.342,-0.19541245627730178,1.1573960791285278,-0.048504438716972506,-1.3841302802718813,2.038573699572922,1.4411665307101509,0.2625676504121819,1.8556061534421735,-1.0441472015345834,1,right
11.345,-0.20443226163479408,1.1545314417321497,-0.0501318769446754,-1.3555473097397188,2.0765261465691176,1.445058515775203,0.2496468115156898,1.8600464965231582,-1.0976082262642806,1,right
11.345999999999998,-0.2132527033152819,1.1516198010268976,-0.05175464441713844,-1.3287480865712695,2.1130852918594676,1.448212120974329,0.23697643583877565,1.8629697286225184,-1.1494910115610972,1,right
11.35,-0.22186234559541818,1.1486656526176653,-0.05337034681184802,-1.3037867902966733,2.148241395673766,1.4506249203176877,0.2245603284949061,1.8643779743430964,-1.1997814543347873,1,right
11.350999999999999,-0.23025023456123458,1.1456733973987416,-0.05497674755121397,-1.280713926002237,2.181984777168091,1.4522948429011122,0.21240201266967257,1.8642758450416328,-1.2484671560475042,1,right
11.356,-0.2384059136071305,1.1426473291831687,-0.05657178029104599,-1.259576188203202,2.2143058280411556,1.4532201793533415,0.20050472944982814,1.862670415138628,-1.295537413397176,1,right
11.357000000000001,-0.24631943945578938,1.1395916238822388,-0.05815355906563164,-1.2404163352353197,2.2451950318722234,1.4533995912343156,0.18887143801616632,1.8595711908112778,-1.3409832070577021,1,right
11.36,-0.25398139843427026,1.1365103301208734,-0.05972038583147638,-1.223273074099054,2.2746429892775133,1.4528321233893335,0.1775048161653213,1.8549900710692104,-1.384797188615807,1,right
11.360999999999999,-0.26138292260155443,1.1334073611486224,-0.06127075528957107,-1.208180955695779,2.3026404489779235,1.4515172192617278,0.16640726112631823,1.8489413012084317,-1.4269736658397543,1,right
11.365,-0.2685157052308889,1.130286487912007,-0.06280335702528096,-1.1951702804010131,2.329178344866781,1.4494547391645665,0.15558089063846028,1.8414414186346015,-1.4675085864104571,1,right
11.366,-0.2753720151144442,1.1271513331888299,-0.06431707515584731,-1.1842670139255191,2.3542478391622024,1.4466449815097526,0.14502754425790396,1.8325091910425122,-1.506399520240841,1,right
11.370999999999999,-0.28194470918022374,1.124005366737287,-0.06581098579432319,-1.1754927134209774,2.377840371724474,1.4430887069907459,0.13474878486104727,1.8221655469344236,-1.5436456405046062,1,right
11.373,-0.2882272429852757,1.120851901467863,-0.06728435270689251,-1.1688644637929124,2.399947715614665,1.4387871657129787,0.12474590031363328,1.8104334984557573,-1.5792477034908403,1,right
11.374,-0.2942136787595852,1.1176940906899984,-0.06873662154531515,-1.1643948241895965,2.420562038966477,1.4337421272638964,0.11501990527525523,1.7973380565225288,-1.6132080273961917,1,right
11.375,-0.2998986908013844,1.1145349265053093,-0.07016741298064667,-1.162091784641762,2.439675973239084,1.427955913712412,0.10557154310973835,1.782906138210856,-1.6455304701616131,1,right
11.38,-0.3052775681480398,1.1113772394073593,-0.07157651497299623,-1.1619587328341074,2.457282687914456,1.4214314355254194,0.09640128787266455,1.7671664663748945,-1.6762204064559483,1,right
11.38,-0.3103462145509965,1.1082236991102221,-0.07296387431982963,-1.163994430995775,2.473375971698373,1.4141722303868756,0.08750934635569639,1.7501494616415487,-1.7052847038868444,1,right
11.38,-0.31510114585300075,1.1050768165837794,-0.07432958755743932,-1.1681930029031904,2.4879503202800186,1.4061825049028411,0.07889566020612719,1.7318871278560237,-1.7327316984293266,1,right
11.384,-0.3195394848997129,1.1019389472396834,-0.07567389125363526,-1.1745439309948797,2.5010010307007216,1.3974671791737365,0.07055990820923633,1.7124129337217326,-1.7585711689038868,1,right
11.385,-0.32365895414420076,1.0988122951839792,-0.07699715171980029,-1.1830320636041007,2.5125243023780675,1.3880319342129748,0.06250150885980073,1.6917616943039535,-1.7828143102458331,1,right
11.39,-0.3274578661461275,1.0956989184191481,-0.07829985417828719,-1.1936376323213231,2.5225173448272336,1.3778832621890282,0.054719623311939185,1.6699694551335107,-1.805473705388449,1,right
11.39,-0.33093511220970084,1.0926007348450484,-0.07958259143423872,-1.2063362795047745,2.5309784921170335,1.3670285194659022,0.04721315872891047,1.6470733799700734,-1.82656329573168,1,right
11.390999999999998,-0.334090149413713,1.0895195288888804,-0.0808460521069247,-1.2210990959291328,2.5379073238035175,1.355475982258309,0.0399807720173086,1.6231116423517353,-1.8460983502489359,1,right
11.394,-0.3369229862559339,1.0864569585969663,-0.08209100847022283,-1.2378926683972375,2.5433047906283024,1.3432349039326954,0.033020873923297625,1.5981233208683487,-1.8640954332971318,1,right
11.395,-0.33943416708208163,1.0834145630400451,-0.08331830394081524,-1.2566791368373764,2.5471733406521357,1.3303155715736923,0.02633163346931908,1.5721482980929267,-1.8805723711905835,1,right
11.399000000000001,-0.34162475543290427,1.0803937698926929,-0.08452884024699835,-1.2774162602433383,2.549517040038522,1.316729358650461,0.01991098271049172,1.5452271631023582,-1.8955482175949152,1,right
11.399000000000001,-0.34349631644367845,1.0773959030277054,-0.08572356431801938,-1.3000574909915332,2.550341684149116,1.3024887713985271,0.01375662179070592,1.5174011175157385,-1.9090432177927148,1,right
11.405,-0.3450508984544381,1.074422189938007,-0.08690345495446432,-1.3245520573835141,2.5496548972204804,1.2876074879403037,0.007866024279191695,1.4887118849757806,-1.9210787718683178,1,right
11.405999999999999,-0.34629101401651513,1.0714737687931657,-0.0880695093753961,-1.3508450544391144,2.5474662203386997,1.2721003899486831,0.0022364427691106913,1.4592016239960617,-1.9316773968547767,1,right
11.41,-0.3472196205106578,1.0685516949622391,-0.0892227297886315,-1.3788775430051352,2.5437871877142366,1.2559835868128202,-0.0031350852795132243,1.428912844094256,-1.9408626878818367,1,right
11.41,-0.3478401006255551,1.0656569468809614,-0.09036411018891369,-1.4085866572498285,2.5386313912550804,1.239274432263386,-0.008251731469452746,1.3978883251290322,-1.9486592783595387,1,right
11.415,-0.3481562429752746,1.062790431199309,-0.09149462363849467,-1.4399057206185835,2.5320145334319184,1.2219915334127809,-0.013116870184703974,1.3661710397559252,-1.9550927992279443,1,right
11.415999999999999,-0.3481722231503472,1.0599529872048665,-0.09261521030966005,-1.4727643703312119,2.5239544684247988,1.2041547521640439,-0.01773407211311913,1.3338040789152688,-1.960189837299429,1,right
11.42,-0.3478925854935375,1.0571453905673045,-0.0937267665582727,-1.5070886905060303,2.5144712315365014,1.1857851989404984,-0.022107097587951142,1.3008305802631517,-1.9639778927159903,1,right
11.42,-0.34732222586545974,1.0543683564808235,-0.09483013524942327,-1.5428013540005647,2.50358705685365,1.1669052186865279,-0.02623988976229408,1.2672936594543807,-1.9664853355401135,1,right
11.424000000000001,-0.3464663756209085,1.051622542291212,-0.09592609747989542,-1.5798217730631086,2.4913263831324537,1.147538369088286,-0.030136567629691472,1.233236344184555,-1.9677413614938966,1,right
11.424000000000001,-0.34533058696237245,1.0489085496859867,-0.09701536575390729,-1.6180662588935746,2.477715847881884,1.1277093909616194,-0.03380141890348361,1.1987015108966257,-1.9677759468573743,1,right
11.427999999999999,-0.3439207197795333,1.0462269265085449,-0.09809857858415874,-1.6574481902160596,2.4627842696130684,1.1074441707530145,-0.037238892766775014,1.1637318240556873,-1.966619802533312,1,right
11.429,-0.342242930024924,1.0435781682405065,-0.09917629642047393,-1.6978781909692906,2.4465626182197386,1.086769695097989,-0.04045359250422555,1.1283696778942591,-1.9643043272821372,1,right
11.433,-0.3403036596171675,1.0409627191879165,-0.1002489987601965,-1.7392643172246307,2.429083973450702,1.065713997380019,-0.04345026802620279,1.0926571405289365,-1.9608615601271806,1,right
11.434000000000001,-0.3381096278061081,1.0383809734084,-0.10131708227080774,-1.781512253444591,2.4103834714315004,1.0443060962318418,-0.046233808295180555,1.0566359003480446,-1.9563241319269657,1,right
11.439,-0.3356678238798815,1.0358332754251325,-0.10238085975364736,-1.8245255181977904,2.3904982391887257,1.022575925919806,-0.04880923366362879,1.0203472145688015,-1.9507252161079707,1,right
11.44,-0.3329855010428761,1.0333199207856891,-0.10344055979154713,-1.8682056794490538,2.3694673171268668,1.0005542585508387,-0.0511816881320141,0.9838318598614866,-1.9440984785480362,1,right
11.444,-0.33007017124704346,1.0308411565348867,-0.10449632694569037,-1.9124525795458083,2.3473315694040364,0.9782726180406007,-0.05335643153491785,0.947130084937222,-1.936478026597463,1,right
11.445,-0.32692960072014227,1.0283971816760669,-0.10554822239388381,-1.9571645700241262,2.3241335821495417,0.9557631857804684,-0.05533883166268173,0.9102815649952101,-1.927898357221782,1,right
11.449000000000002,-0.323571805906781,1.0259881476920893,-0.10659622493085254,-2.0022387563596897,2.2999175494629687,0.933058697940147,-0.05713435632540729,0.873325357924613,-1.9183943042472356,1,right
11.45,-0.32000504952877656,1.0236141591860506,-0.10764023227751443,-2.0475712527905614,2.274729147131283,0.9101923343419762,-0.05874856536699605,0.8362998621819706,-1.9080009847323494,1,right
11.45,-0.3162378364927228,1.0212752746852503,-0.10868006266733864,-2.093057447339985,2.248615393997399,0.8871975988423354,-0.060187102643501,0.7992427763958566,-1.896753744712199,1,right
11.454,-0.3122789094197391,1.0189715076339994,-0.10971545669267146,-2.1385922771684807,2.221624500910753,0.8641081911549954,-0.061455687992370604,0.7621910609863659,-1.8846881049660864,1,right
11.455,-0.3081372436068309,1.0167028275854875,-0.11074607940222776,-2.1840705143852364,2.1938057071876154,0.8409578700507999,-0.06256010922578224,0.7251809022180522,-1.8718397076827713,1,right
11.46,-0.30382204122563916,1.0144691615913828,-0.11177152264355952,-2.2293870624492405,2.1652091045062365,0.8177803078676915,-0.06350621417362094,0.6882476789736182,-1.858244264668962,1,right
11.460999999999999,-0.2993427245504879,1.0122703957782084,-0.11279130764306648,-2.2744372628568836,2.135885448532362,0.7946089365780657,-0.06429990278832441,0.6514259322994668,-1.8439375073376643,1,right
11.462,-0.29470892802162607,1.01010637709169,-0.11380488781331156,-2.3191172096433204,2.105885960433164,0.7714767872264612,-0.06494711931620709,0.6147493376431132,-1.8289551384847442,1,right
11.463,-0.2899304889874759,1.0079769151854505,-0.11481165177559416,-2.3633240653197323,2.075262123792172,0.748416327369678,-0.0654538445379938,0.5782506796764348,-1.8133327858147303,1,right
11.463,-0.28501743699853505,1.0058817844258505,-0.11581092658546156,-2.406956369698592,2.0440654843005777,0.7254593027176341,-0.06582608808085601,0.5419618295990506,-1.7971059571748345,1,right
11.467,-0.2799799815307973,1.0038207259783645,-0.11680198114733097,-2.4499143352272394,2.0123474577334672,0.7026365876071791,-0.06606988080382267,0.5059137248165403,-1.7803099974542211,1,right
11.468,-0.27482849801831344,1.0017934499368757,-0.11778402980005181,-2.4921001263534257,1.980159148360971,0.6799780461221281,-0.06619126725803437,0.4701363508887198,-1.762980047103729,1,right
11.472999999999999,-0.2695735120936799,0.9997996374595681,-0.11875623605012692,-2.5334181226140924,1.9475511780777968,0.6575124041068748,-0.06619629822292311,0.43465872564379165,-1.7451510022295016,1,right
11.474,-0.26422568197089447,0.9978389428821621,-0.11971771642622102,-2.5737751655705865,1.9145735261601364,0.6352671320080813,-0.0660910233190311,0.3995088853548791,-1.7268574762123565,1,right
11.478,-0.2587957789499718,0.9959109957879899,-0.12066754442952905,-2.61308078971129,1.8812753795575894,0.6132683384794162,-0.06588148369783033,0.3647138728762265,-1.7081337628031765,1,right
11.478,-0.25329466607393586,0.9940154030228333,-0.12160475456080534,-2.6512474374401647,1.847704993626537,0.5915406746848637,-0.06557370480857026,0.330299727637209,-1.6890138006431885,1,right
11.482000000000001,-0.24773327502282028,0.9921517506501554,-0.12252834641594666,-2.6881906582669437,1.8139095632103335,0.5701072492367524,-0.06517368924186459,0.2962914773932341,-1.6695311391566454,1,right
11.482999999999999,-0.24212258138132497,0.9903196058504282,-0.12343728885538739,-2.7238292923117062,1.779935103970766,0.5489895537053624,-0.06468740964942758,0.2627131316336336,-1.6497189057621973,1,right
11.487,-0.23647357846473185,0.9885185187767955,-0.12433052426384429,-2.7580856382332866,1.7458263438744421,0.5282073986377415,-0.0641208017390892,0.22958767654773807,-1.6296097743480997,1,right
11.488,-0.23079724993204473,0.986748024386525,-0.12520697292188307,-2.7908856056874796,1.7116266247371217,0.5077788600242041,-0.06347975734395246,0.19693707145148842,-1.609235934955358,1,right
11.493,-0.22510454145365028,0.9850076442714886,-0.12606553750729352,-2.8221588524172483,1.677377813728489,0.4877202361518915,-0.06277011756430906,0.16478224657817223,-1.5886290646119667,1,right
11.494000000000002,-0.21940633172825938,0.9832968885100872,-0.12690510773195193,-2.8518389060731866,1.6431202247394703,0.46804601478572816,-0.061997665980697995,0.13314310213817188,-1.5678202992605412,1,right
11.498,-0.21371340315923862,0.9816152575578693,-0.12772456510034338,-2.8798632708583116,1.6088925495139454,0.4487688506181268,-0.0611681219362785,0.10203850855397321,-1.546840206720885,1,right
11.499,-0.2080364125047874,0.9799622441855756,-0.12852278775480827,-2.906173519086881,1.5747317984465476,0.4298995529298474,-0.06028713388649094,0.07148630777810502,-1.5257187606283595,1,right
11.502,-0.2023858618089094,0.9783373354625972,-0.12929865535707355,-2.9307153677423643,1.5406732509482266,0.4114470834055201,-0.05936027281379907,0.041503315603159396,-1.5044853152883446,1,right
11.503,-0.19677206990062523,0.9767400147734029,-0.13005105395038624,-2.953438740114949,1.5067504152813236,0.39341856404847675,-0.05839302570514263,0.012105324874576067,-1.4831685813865854,1,right
11.507,-0.1912051447211156,0.9751697638477806,-0.13077888075221583,-2.9742978125940436,1.4729949977661014,0.3758192951407039,-0.0573907890895816,-0.016692890481541316,-1.4617966024948101,1,right
11.508,-0.18569495670720715,0.9736260647837548,-0.13148104884049008,-2.9932510466861775,1.4394368812609606,0.35865278319492383,-0.05635886263348108,-0.04487757070167607,-1.4403967323106852,1,right
11.512,-0.18025111342718872,0.9721084020437573,-0.1321564917112395,-3.010261206323474,1.4061041128189593,0.3419207788470237,-0.05530244279047006,-0.07243596478363733,-1.418995612570927,1,right
11.512,-0.17488293563163534,0.9706162644088994,-0.1328041676987553,-3.025295360522533,1.3730229004237284,0.325623324638282,-0.054226616503306,-0.0993563245234868,-1.3976191515762384,1,right
11.517000000000001,-0.1695994348469017,0.9691491468812746,-0.13342306426003345,-3.03832487144808,1.3402176187084434,0.30975881263808225,-0.053136354960783436,-0.12562789805354874,-1.3762925032963698,1,right
11.517999999999999,-0.16440929260136514,0.9677065525281092,-0.13401220213313167,-3.0493253679301917,1.307710823562146,0.2943240518590471,-0.052036507443208986,-0.15124092285237928,-1.3550400471722284,1,right
11.519,-0.15932084133781804,0.9662879942637791,-0.1345706393837634,-3.0582767044782124,1.2755232755284436,0.2793143454177699,-0.050931795344729455,-0.17618661803334223,-1.333885368999536,1,right
11.520999999999999,-0.15434204703801133,0.9648929965673119,-0.13509747535696312,-3.06516290582875,1.2436739719023866,0.26472357739556507,-0.04982680649121331,-0.20045717562635382,-1.3128512434272972,1,right
11.520999999999999,-0.1494804935694726,0.9635210971346854,-0.13559185455122427,-3.0699720970592987,1.2121801874321894,0.2505443093548843,-0.048725989841902434,-0.22404575065569138,-1.2919596184559354,1,right
11.527000000000001,-0.14474336875187446,0.9621718484660355,-0.13605297042875958,-3.0726964192931776,1.1810575235333676,0.23676788646826857,-0.04763365060821718,-0.24694644997724624,-1.271231602052716,1,right
11.527999999999999,-0.1401374521243404,0.960844819387013,-0.13648006916777614,-3.073331931270423,1.1503199657801635,0.22338455299027576,-0.04655394579264094,-0.2691543199268836,-1.2506874508538017,1,right
11.527999999999999,-0.13566910438050336,0.9595395965022111,-0.1368724533557957,-3.0718784983277625,1.1199799487217827,0.21038357566586235,-0.04549088014453129,-0.2906653328476605,-1.2303465608929727,1,right
11.533,-0.1313442584292745,0.9582557855777117,-0.1372294856189965,-3.0683396726188086,1.0900484257789775,0.1977533716211992,-0.044448302529728465,-0.31147637256167954,-1.2102274602975027,1,right
11.533,-0.12716841203103654,0.9569930128490753,-0.1375505921773739,-3.0627225696740465,1.0605349412592504,0.18548163614588725,-0.04342990271086827,-0.3315852188503659,-1.1903478038922228,1,right
11.536,-0.12314662194588741,0.95575092625133,-0.13783526630684415,-3.0550377451197703,1.0314477022484547,0.17355546691477586,-0.04243920853535377,-0.35099053100495753,-1.1707243696533718,1,right
11.537,-0.11928349951754932,0.954529196568941,-0.1380830716803373,-3.0452990730751375,1.0027936494307905,0.16196148324730525,-0.04147958352799857,-0.3696918305069873,-1.1513730569544796,1,right
11.540999999999999,-0.1155832076106618,0.9533275185046318,-0.13829364555377974,-3.0335236264661236,0.9745785266087575,0.1506859401414636,-0.04055422488542381,-0.38768948289652183,-1.132308886547208,1,right
11.542,-0.112049458820013,0.9521456116661048,-0.13846670175990403,-3.0197315592343235,0.9468069488395212,0.13971483704806928,-0.03966616186937005,-0.40498467888390266,-1.113546002220812,1,right
11.546,-0.10868551487497885,0.9509832214710295,-0.13860203347217392,-3.003945990412661,0.919482469105387,0.12903402135204195,-0.03881825459617419,-0.42157941475871347,-1.09509767408466,1,right
11.547,-0.10549418717025841,0.9498401199738044,-0.13869951570147762,-2.986192890034228,0.8926076434373398,0.11862928652824128,-0.03801319321975968,-0.43747647214767993,-1.0769763034190798,1,right
11.550999999999998,-0.10247783836401429,0.948716106621722,-0.13875910748781115,-2.9665009668346736,0.866184094411875,0.10848646494032552,-0.03725349750559497,-0.45267939717118943,-1.0591934290406575,1,right
11.552,-0.09963838499533317,0.9476110089525163,-0.1387808537478134,-2.944901557702855,0.8402125729426306,0.09859151525191612,-0.03654151679319021,-0.4671924790461093,-1.0417597351290193,1,right
11.555,-0.09697730108362794,0.9465246832497327,-0.1387648867395971,-2.9214285188288143,0.8146930182896202,0.08893060442014812,-0.03587943034482492,-0.4810207281805797,-1.0246850604630608,1,right
11.556,-0.09449562268111272,0.9454570151772603,-0.13871142711191603,-2.8961181184925735,0.7896246162101617,0.0794901842424384,-0.03526924807832923,-0.49416985380446427,-1.0079784090155655,1,right
11.561,-0.09219395335238577,0.944407920418881,-0.13862078451383833,-2.8690089314317815,0.7650058551768896,0.07025706242801645,-0.03471281168187812,-0.5066462411771604,-0.9916479618561475,1,right
11.562000000000001,-0.09007247055210786,0.9433773453506671,-0.13849335774845237,-2.8401417347208437,0.7408345805895407,0.061218468166435384,-0.03421179610890094,-0.5184569284125083,-0.9757010903134895,1,right
11.565999999999999,-0.08813093286676978,0.9423652677723928,-0.13832963445786559,-2.8095594050889203,0.7171080469084948,0.05236211216591471,-0.0337677114513573,-0.5296095829585852,-0.960144370348897,1,right
11.567,-0.08636868808248549,0.9413716977197041,-0.1381301903306908,-2.7773068175990008,0.6938229676393415,0.043676241134963385,-0.033381905189784476,-0.5401124777682406,-0.9449835980942748,1,right
11.572000000000001,-0.08478468203651976,0.9403966783729724,-0.1378956878301599,-2.7434307456052176,0.6709755630990302,0.03514968668129113,-0.033055564818680314,-0.5499744671943192,-0.9302238065087276,1,right
11.573,-0.08337746820506942,0.9394402870728857,-0.1376268744496183,-2.7079797619006376,0.6485616058954377,0.026771908602540688,-0.03278972084594869,-0.5592049626416282,-0.9158692831091056,1,right
11.575,-0.08214521797528263,0.9385026364475828,-0.1373245805109428,-2.671004140962985,0.6265764640534504,0.01853303254386495,-0.03258525016530189,-0.567813908005839,-0.9019235887309552,1,right
11.575999999999999,-0.08108573154625863,0.9375838756510012,-0.13698971653001518,-2.6325557622010813,0.6050151417219198,0.010423881997831537,-0.032442879800684665,-0.5758117549276739,-0.8883895772774816,1,right
11.581,-0.08019644940089343,0.936684191707004,-0.13662327018017073,-2.5926880141002657,0.5838723173970919,0.0024360046225665884,-0.03236319102195793,-0.5832094378889191,-0.8752694164152958,1,right
11.581,-0.07947446428839797,0.9358038109497505,-0.13622630288805393,-2.5514556991606923,0.5631423795993407,-0.005438307145550104,-0.0323466238312566,-0.5900183491750134,-0.8625646091768876,1,right
11.585,-0.07891653365769413,0.9349430005485113,-0.1357999460980744,-2.5089149395181622,0.5428194599412566,-0.013206001207952277,-0.032393481819613615,-0.5962503137272147,-0.8502760164309513,1,right
11.587,-0.07851909248540333,0.934102070104653,-0.13534539724318945,-2.465123083133083,0.5228974635263386,-0.020873256671680315,-0.032503937386875736,-0.6019175639112939,-0.8384038801739845,1,right
11.588,-0.07827826644930957,0.9332813733095717,-0.13486391545832038,-2.4201386104292246,0.5033700966187258,-0.0284454804915361,-0.032678037284385744,-0.6070327142563827,-0.826947847553312,1,right
11.59,-0.07818988540747523,0.9324813096547792,-0.13435681706676586,-2.3740210412601903,0.484230891525574,-0.035927309908927375,-0.03291570837936929,-0.611608736267009,-0.8159069954528542,1,right
11.591,-0.07824949714819425,0.9317023261881745,-0.13382547086537244,-2.326830842077918,0.46547322863483215,-0.04332262070943932,-0.033216763506415226,-0.6156589334381015,-0.8052798554296914,1,right
11.595,-0.07845238137231912,0.9309449193122278,-0.13327129323582204,-2.278629333174121,0.4470903555523078,-0.05063454132089621,-0.033580907305352854,-0.6191969165727913,-0.7950644388351337,1,right
11.595999999999998,-0.07879356386259176,0.9302096366198371,-0.1326957431127169,-2.2294785958949466,0.4290754033399205,-0.05786547268105207,-0.03400774200572978,-0.6222365794502245,-0.7852582620352239,1,right
11.597000000000001,-0.07926783079355167,0.9294970787629249,-0.13210031683829618,-2.179441379889202,0.41142140014260226,-0.06501711334198451,-0.03449677315200828,-0.6247920748607253,-0.7758583716912472,1,right
11.6,-0.07986974314156288,0.928807901347761,-0.1314865429304115,-2.1285810107413177,0.394121283004427,-0.07209048844675908,-0.03504741527052535,-0.6268777910185036,-0.7668613700708965,1,right
11.600999999999999,-0.08059365115895542,0.928142816848588,-0.1308559767909726,-2.07696129850062,0.37716790896007196,-0.07908598075188274,-0.03565899747944148,-0.6285083283606684,-0.7582634403619173,1,right
11.604000000000001,-0.08143370887309523,0.9275025965269248,-0.13021019538737316,-2.0246464474528008,0.36055406620428615,-0.08600336233065056,-0.03633076904308187,-0.6296984767399205,-0.7500603719612197,1,right
11.605,-0.082383888565615,0.9268880723389737,-0.12955079194276553,-1.9717009671834025,0.344272485631012,-0.09284182642352905,-0.037061904872250494,-0.6304631930169471,-0.7422475857136055,1,right
11.61,-0.08343799518663901,0.9263001388088625,-0.1288793706675073,-1.9181895848178043,0.3283158527503359,-0.09960001936330884,-0.03785151097227217,-0.6308175790572338,-0.7348201590753997,1,right
11.61,-0.0845896806641998,0.9257397548413827,-0.12819754155548227,-1.8641771582875608,0.3126768199355258,-0.106276072594897,-0.03869862984069083,-0.6307768601357457,-0.7277728511794131,1,right
11.615,-0.08583245807712186,0.9252079454448576,-0.12750691525855443,-1.8097285904711318,0.2973480189533668,-0.1128676348093911,-0.039602245816722365,-0.630356363751708,-0.7211001277787801,1,right
11.617,-0.08715971566849597,0.9247058033331547,-0.12680909804239976,-1.7549087440554207,0.2823220737319395,-0.11937190421184538,-0.04056129038472835,-0.6295714988545348,-0.7147961860483235,1,right
11.62,-0.0885647306862515,0.9242344903756959,-0.12610568682037893,-1.6997823569630994,0.26759161332089887,-0.1257856609419027,-0.04157464743414192,-0.6284377354808234,-0.7088549792231911,1,right
11.620999999999999,-0.09004068304731279,0.9237952388656206,-0.12539826426134662,-1.644413958189439,0.25314928500020223,-0.13210529966622192,-0.042641158478439425,-0.6269705848012395,-0.7032702410555788,1,right
11.623,-0.09158066883162023,0.9233893525791466,-0.12468839397191026,-1.588867783891309,0.23898776749410433,-0.13832686236137884,-0.04375962783591057,-0.6251855795750709,-0.698035510071422,1,right
11.624,-0.0931777136210394,0.9230182076037876,-0.12397761576073087,-1.5332076935701142,0.22509978424808827,-0.14444607130565804,-0.04492882777513553,-0.6230982550092278,-0.6931441536099714,1,right
11.629000000000001,-0.09482478570494275,0.9226832529190987,-0.12326744099855201,-1.4774970861897536,0.21147811672722608,-0.1504583622978815,-0.04614750362823039,-0.6207241300175061,-0.6885893916301983,1,right
11.629000000000001,-0.09651480917748043,0.9223860107194785,-0.12255934809003699,-1.421798816070168,0.19811561769527206,-0.15635891812113817,-0.04741437887507129,-0.618078688875022,-0.6843643202689734,1,right
11.634,-0.09824067695056644,0.922128076472453,-0.12185477807034988,-1.3661751083967144,0.18500522443457604,-0.16214270226898292,-0.04872816020185331,-0.6151773632618518,-0.6804619351369575,1,right
11.635,-0.0999952637021858,0.9219111187076963,-0.12115513033143668,-1.3106874741854648,0.1721399718676706,-0.16780449295136696,-0.0500875425374824,-0.6120355146890932,-0.6768751543391008,1,right
11.64,-0.10177143877262727,0.9217368785328353,-0.12046175847510478,-1.2553966245445538,0.1595130055421295,-0.17333891739723878,-0.051491214071436885,-0.6086684172997806,-0.6735968412075999,1,right
11.640999999999998,-0.10356207901226054,0.9216071688721338,-0.11977596628819985,-1.2003623840719155,0.1471175944410198,-0.17874048647042035,-0.052937861256869875,-0.6050912410363515,-0.6706198267360867,1,right
11.644,-0.10536008157432442,0.921523873423309,-0.11909900384120399,-1.1456436032301418,0.13494714358197488,-0.18400362961501152,-0.054426173802854944,-0.6013190351656718,-0.6679369317047305,1,right
11.644,-0.10715837663605665,0.9214889453268731,-0.1184320637223961,-1.0912980695397525,0.12299520636859919,-0.18912273014620962,-0.05595484965980461,-0.5973667121519816,-0.6655409884868183,1,right
11.648,-0.10894994002287482,0.9215044055430447,-0.1177762774306089,-1.0373824174329067,0.1112554966585825,-0.19409216090204995,-0.05752260000221459,-0.5932490318675155,-0.6634248625282478,1,right
11.649000000000001,-0.11072780570406787,0.9215723409337706,-0.11713271195656369,-0.9839520366104867,0.09972190051354686,-0.19890632027117428,-0.05912815421300664,-0.5889805861299936,-0.6615814734922092,1,right
11.652999999999999,-0.11248507812410051,0.9216949020508899,-0.11650236658326862,-0.9310609787465562,0.08838848759627836,-0.20355966861132116,-0.0607702648738586,-0.5845757835556615,-0.6600038160621573,1,right
11.652999999999999,-0.11421494433088913,0.9218743006351626,-0.11588616993103747,-0.878761862385428,0.0772495221816052,-0.20804676507280231,-0.06244771276602261,-0.5800488347160822,-0.6586849803969809,1,right
11.654000000000002,-0.11591068586291119,0.9221128068336105,-0.1152849772669089,-0.8271057758779637,0.06629947374777646,-0.21236230484078197,-0.06415931188030284,-0.5754137375949476,-0.6576181722237933,1,right
11.658,-0.11756569036275548,0.9224127461430867,-0.114699568094253,-0.7761421782052801,0.055533027115771225,-0.21650115680971657,-0.06590391440527633,-0.5706842633833,-0.6567967325082089,1,right
11.659,-0.1191734628938481,0.9227764960870004,-0.11413064403531276,-0.7259187975397287,0.04494509210452706,-0.22045840170283232,-0.06768041560949632,-0.5658739427277066,-0.656214156559336,1,right
11.663,-0.12072763694298805,0.9232064826325199,-0.11357882701807108,-0.6764815273948612,0.034530812670619665,-0.22422937064902812,-0.06948775850382274,-0.560996052588134,-0.6558641123811133,1,right
11.665,-0.12222198508913565,0.923705176358384,-0.11304465778015824,-0.6278743202180791,0.024285575501453716,-0.2278096842290825,-0.07132493819981231,-0.5560636038194872,-0.6557404581286498,1,right
11.665,-0.1236504293117641,0.9242750883857038,-0.11252859470337416,-0.5801390784780796,0.01420501805349199,-0.2311952919451802,-0.07319100593363834,-0.551089329514032,-0.655837258612292,1,right
11.667,-0.1250070509079627,0.9249187660829783,-0.11203101298930261,-0.5333155442829324,0.00428503613731931,-0.2343825117805274,-0.07508507275479166,-0.5460856740992176,-0.6561488008391357,1,right
11.668,-0.12628609998949447,0.9256387885537832,-0.11155220418037722,-0.4874411903336362,-0.005478208650590483,-0.23736806899919513,-0.07700631288483839,-0.5410647831767565,-0.6566696085916142,1,right
11.673,-0.12748200453336733,0.9264377619146553,-0.11109237602501186,-0.442551116001968,-0.015088281239292727,-0.24014913304906005,-0.0789539667515934,-0.5360384940886989,-0.657394456043429,1,right
11.674000000000001,-0.12858937895709502,0.9273183143715645,-0.11065165268212145,-0.39867795134259093,-0.024548464837171467,-0.24272335171685475,-0.08092734370414868,-0.5310183271961543,-0.6583183804137057,1,right
11.677999999999999,-0.12960303218736577,0.9282830911041677,-0.11023007525929064,-0.35585177008546875,-0.033861752024451436,-0.24508888219984298,-0.08292582441427435,-0.5260154778562613,-0.6594366936608598,1,right
11.677999999999999,-0.13051797519485395,0.9293347489671389,-0.10982760267869127,-0.3141000116759932,-0.04303083519008272,-0.24724441904476233,-0.08494886296978575,-0.5210408090829921,-0.6607449932182456,1,right
11.684000000000001,-0.1313294279773602,0.9304759510176215,-0.10944411286418139,-0.27344741223685254,-0.05205809634018113,-0.24918921896142482,-0.08699598866554448,-0.516104844877393,-0.6622391717742303,1,right
11.685,-0.13203282598367327,0.9317093608778584,-0.1090794042403582,-0.23391594432867288,-0.060945596304784785,-0.2509231225177686,-0.08906680749783313,-0.5112177642129143,-0.6639154260998971,1,right
11.687000000000001,-0.13262382597963177,0.9330376369427441,-0.10873319752919346,-0.19552476538954353,-0.0696950633692722,-0.252446572722551,-0.09116100336791448,-0.5063893956615588,-0.6657702649281277,1,right
11.687999999999999,-0.13309831136608175,0.9344634264432692,-0.10840513782318432,-0.15829017473668927,-0.07830788135637928,-0.2537606305012698,-0.09327833900065487,-0.5016292126466936,-0.6678005158883481,1,right
11.693,-0.13345239696526226,0.9359893593780676,-0.10809479690695366,-0.12222557901676796,-0.08678507718435051,-0.2548669870702946,-0.0954186565841605,-0.4969463293085054,-0.6700033315017433,1,right
11.694,-0.1336824332969006,0.9376180423260456,-0.10780167579316062,-0.08734146599454064,-0.09512730792636186,-0.25576797321358713,-0.09758187813644174,-0.49234949696825053,-0.6723761942422664,1,right
11.699000000000002,-0.1337850103684798,0.939352052153823,-0.10752520743479162,-0.05364538657297794,-0.1033348473959604,-0.256466565465789,-0.09976800560518786,-0.48784710117764263,-0.6749169206692652,1,right
11.699000000000002,-0.13375696100632206,0.9411939296338472,-0.10726475957605584,-0.02114194494122162,-0.11140757228287436,-0.25696638920486015,-0.10197712070680053,-0.4834471593399463,-0.677623664638051,1,right
11.702,-0.13359536375511408,0.943146172992225,-0.10701963770934336,0.010167203249795467,-0.11934494786315943,-0.25727171865686316,-0.1042093845109004,-0.4791573188895884,-0.6804949195952205,1,right
11.704,-0.13329754537355615,0.9452112314070904,-0.10678908811399226,0.040283344780860784,-0.12714601330725897,-0.2573874738149073,-0.10646503677658727,-0.47498485601736923,-0.683529519966025,1,right
11.707,-0.13286108295422822,0.9473914984776242,-0.1065723009591888,0.06921069492049517,-0.1348093666091681,-0.257319214273698,-0.10874439504680022,-0.47093667492865177,-0.6867266416415609,1,right
11.708,-0.13228380569726306,0.949689305681821,-0.10636841345528467,0.09695637573341309,-0.1423331491595009,-0.2570731299805796,-0.11104785350719094,-0.4670193076222196,-0.6900858015740273,1,right
11.712,-0.13156379636962523,0.9521069158384551,-0.10617651303584606,0.1235303867279548,-0.14971502998486877,-0.25665602890341455,-0.11337588161599091,-0.4632389141778337,-0.6936068564887647,1,right
11.712,-0.13069939248479015,0.9546465165852132,-0.10599564054890674,0.1489455679256064,-0.15695218967558033,-0.25607532161511865,-0.11572902251142128,-0.4596012835408709,-0.6972900007222603,1,right
11.717,-0.12968918724174278,0.957310213880989,-0.10582479343246816,0.17321755543233508,-0.1640413040232718,-0.25533900279415767,-0.11810789120326365,-0.4561118347928056,-0.7011357631957681,1,right
11.719000000000001,-0.12853203026635707,0.9601000255368639,-0.10566292884807242,0.19636472958810747,-0.17097852738966765,-0.25445562963982465,-0.1205131725552805,-0.45277561889668544,-0.7051450035346598,1,right
11.722000000000001,-0.12722702819969303,0.9630178747778819,-0.10550896674713982,0.21840815576763561,-0.17775947582725532,-0.25343429720064636,-0.12294561906572272,-0.4495973209030031,-0.7093189073463559,1,right
11.722999999999999,-0.1257735451737391,0.9660655838363307,-0.10536179284717516,0.23937151790211714,-0.18437920997223037,-0.2522846106138219,-0.12540604845561415,-0.4465812625809838,-0.7136589806814867,1,right
11.722999999999999,-0.1241712032066487,0.9692448675764849,-0.10522026149916061,0.2592810447885108,-0.19083221772963158,-0.25101665425317576,-0.12789534107886144,-0.4437314054033012,-0.7181670437238029,1,right
11.725999999999999,-0.12241988254252455,0.9725573271493194,-0.105083198432045,0.27816542924972304,-0.19711239677013528,-0.24964095778271136,-0.13041443717069467,-0.4410513537918801,-0.7228452237661683,1,right
11.727,-0.12051972195751368,0.9760044436728718,-0.10494940336397963,0.2960557402059843,-0.20321303685751366,-0.24816845911248486,-0.13296433394864576,-0.4385443585537159,-0.7276959475191054,1,right
11.731,-0.11847111904902588,0.97958757193206,-0.10481765247532232,0.31298532782624156,-0.2091268020550233,-0.24661046432261383,-0.13554608257607262,-0.43621332047356565,-0.7327219327784499,1,right
11.732000000000001,-0.11627473051550027,0.9833079340934232,-0.10468670074635288,0.32898972248330216,-0.21484571300720173,-0.24497860496810128,-0.1381607849959436,-0.43406079405165765,-0.7379261794678273,1,right
11.732999999999999,-0.11393147242410384,0.9871666134344056,-0.10455528416923272,0.3441065292377418,-0.2203611297607081,-0.24328479380179296,-0.1408095906422096,-0.43208899137922463,-0.7433119600698891,1,right
11.737,-0.11144252045534747,0.9911645480905855,-0.10442212184679543,0.3583753201306838,-0.22566373573601448,-0.2415411802997138,-0.14349369303618315,-0.4302997861451685,-0.7488828094607547,1,right
11.738,-0.1088093101055599,0.9953025248263102,-0.10428591799148389,0.37183752600505265,-0.23074352331248538,-0.2397601070256451,-0.14621432627543776,-0.4286947177676785,-0.7546425141626176,1,right
11.741,-0.1060335368203002,0.99958117283494,-0.1041453638367076,0.3845363285682338,-0.23558978122111948,-0.2379540672467115,-0.14897276142284002,-0.4272749956451423,-0.7605951010299947,1,right
11.742,-0.10311715602578385,1.0040009575751023,-0.10399913947127196,0.39651655284878795,-0.2401910837899074,-0.2361356638644304,-0.15177030280342757,-0.4260415035212132,-0.766744825385629,1,right
11.745999999999999,-0.10006238302272541,1.0085621746497018,-0.10384591560840782,0.40782456008598644,-0.24453528205637504,-0.23431756965613404,-0.15460828421695125,-0.4249948039594247,-0.773096158622603,1,right
11.747,-0.09687169270812236,1.0132649437357608,-0.10368435530523855,0.4185081410887444,-0.2486094967612099,-0.23251248882160308,-0.1574880650740085,-0.42413514292327686,-0.7796537752897698,1,right
11.75,-0.09354781909433865,1.0181092025756375,-0.10351311565385694,0.4286164100984686,-0.2524001132361625,-0.23073311982971562,-0.16041102646380778,-0.423462454458252,-0.7864225396781797,1,right
11.751,-0.09009375459958485,1.0230947010422675,-0.103330849468952,0.43819969918840634,-0.25589277819867506,-0.22899211955991516,-0.16337856716171917,-0.4229763654727519,-0.7934074919267574,1,right
11.755999999999998,-0.086512749088448,1.028220995291269,-0.10313620699768303,0.447309453230293,-0.25907239846491176,-0.2273020687333406,-0.16639209958488732,-0.4226762006154893,-0.8006138336660783,1,right
11.755999999999998,-0.08280830864455306,1.0334874420110958,-0.10292783767438236,0.4559981254574447,-0.2619231415920497,-0.22567543862853248,-0.16945304570430678,-0.422560987247398,-0.8080469132196999,1,right
11.76,-0.07898419405855944,1.0388931927798757,-0.10270439193617253,0.4643190736519375,-0.2644284384598311,-0.2241245590767425,-0.17256283292188718,-0.42262946050666544,-0.8157122103831256,1,right
11.761,-0.07504441901366288,1.044437188535414,-0.10246452310823628,0.4723264569821547,-0.2665709878004766,-0.2226615877320171,-0.17572288992116894,-0.4228800684660224,-0.8236153208011145,1,right
11.765999999999998,-0.07099324794963348,1.050118154164712,-0.10220688936178746,0.4800751335157802,-0.2683327626851148,-0.22129848061140914,-0.1789346425004857,-0.4233109773819565,-0.8317619399647012,1,right
11.767000000000001,-0.06683519358764858,1.0559345932215929,-0.10193015574347836,0.48762055843225505,-0.2696950189738854,-0.22004696390088865,-0.1821995093975099,-0.4239200770360432,-0.8401578468499586,1,right
11.770999999999999,-0.06257501410263216,1.0618847827843578,-0.10163299627058263,0.4950186829578204,-0.27063830573583486,-0.21891850702277557,-0.18551889811426273,-0.42470498616910884,-0.848808887221221,1,right
11.772,-0.058217709935629136,1.0679667684690657,-0.10131409608343195,0.5023258540455261,-0.27114247764362276,-0.21792429696080393,-0.18889420075181837,-0.4256630580094615,-0.8577209566221792,1,right
11.775,-0.05376852024329737,1.0741783596172931,-0.10097215364835213,0.5095987148220009,-0.2711867093469121,-0.21707521383924672,-0.19232678986408405,-0.4267913858969319,-0.866899983078984,1,right
11.776,-0.04923291898418031,1.080517124678951,-0.10060588300962744,0.5168941058223584,-0.2707495118271093,-0.21638180775288418,-0.19581801434019508,-0.4280868090049745,-0.8763519095402196,1,right
11.783,-0.044616610642136595,1.086980386811402,-0.10021401609274293,0.5242689670343528,-0.26980875073485755,-0.2158542768449824,-0.19936919532522382,-0.4295459181635756,-0.8860826760793628,1,right
11.784,-0.03992552558563451,1.0935652197168846,-0.09979530505955375,0.5317802407727986,-0.2683416667103636,-0.2155024466308659,-0.20298162218906654,-0.4311650617862018,-0.8960982018861101,1,right
11.785,-0.03516581505789731,1.1002684437399486,-0.09934852470965365,0.5394847754053378,-0.2663248976852555,-0.21533575056511453,-0.20665654855354082,-0.43294035190450286,-0.9064043670737375,1,right
11.785,-0.030343845788582787,1.107086622243259,-0.09887247491465932,0.5474392299508584,-0.26373450316321934,-0.21536321185088977,-0.21039518838789698,-0.4348676703149544,-0.9170069943304605,1,right
11.790999999999999,-0.025466194213866252,1.1140160582743979,-0.09836598306713444,0.5556999795722685,-0.26054599047514915,-0.21559342649040059,-0.21419871218072317,-0.43694267483952687,-0.9279118304402388,1,right
11.790999999999999,-0.020539640289337156,1.1210527915322657,-0.09782790652577468,0.5643230219858797,-0.25673434300296627,-0.21603454757604898,-0.2180682431843947,-0.43916080569015026,-0.9391245276826067,1,right
11.793,-0.015571160880955597,1.1281925956423406,-0.09725713504287509,0.5733638848103719,-0.252274050364613,-0.2166942708223531,-0.2220048537067889,-0.44151729190418865,-0.9506506250919099,1,right
11.796,-0.010567922725170209,1.1354309757534156,-0.09665259316535069,0.5828775338791918,-0.24713914055100672,-0.21757982133932627,-0.2260095614131669,-0.4440071578057975,-0.9624955295404934,1,right
11.797,-0.0055372749588947735,1.1427631664698643,-0.09601324260299968,0.5929182825412755,-0.24130321400395072,-0.21869794164859613,-0.2300833256133176,-0.44662522946121264,-0.9746644966279717,1,right
11.799000000000001,-0.00048674122982283053,1.1501841301313782,-0.09533808455592613,0.6035397019761866,-0.23473947962213132,-0.2200548809441745,-0.23422704353086798,-0.44936614111940726,-0.9871626113896669,1,right
11.8,0.004575988595528704,1.1576885554487268,-0.0946261619874433,0.6147945325643122,-0.22742079267177157,-0.2216563855913559,-0.2384415465638637,-0.4522243416427031,-0.9999947688549129,1,right
11.8,0.009643067106377657,1.1652708565031484,-0.09387656182314456,0.6267345964202582,-0.21931969453338176,-0.22350769081248714,-0.2427275965483257,-0.4551941009348464,-1.0131656544901968,1,right
11.804,0.014706498385156674,1.1729251721204716,-0.09308841705684265,0.6394107113180173,-0.2104084541363528,-0.22561351342731056,-0.2470858820366873,-0.4582695163744105,-1.026679724563049,1,right
11.805,0.019758147382421456,1.180645365636874,-0.09226090875044529,0.652872606304287,-0.2006591108878543,-0.22797804547088205,-0.2515170146032216,-0.46144451926172186,-1.040541186463558,1,right
11.81,0.024789749588287002,1.188425025077489,-0.09139326792315193,0.6671688392322968,-0.1900435189433652,-0.2306049485581845,-0.2560215251887732,-0.46471288128783084,-1.0547539790213551,1,right
11.811,0.02979292094285957,1.1962574637711498,-0.09048477733131918,0.6823467163318466,-0.17853339274144145,-0.23349734894701205,-0.26059986049731465,-0.4680682210343472,-1.0693217528568988,1,right
11.814,0.03475916792123911,1.2041357214254338,-0.08953477314173773,0.6984522138675295,-0.16610035376602938,-0.23665783329684495,-0.2652523794570598,-0.471504010513248,-1.0842478508068907,1,right
11.815,0.03967989773483505,1.212052565684642,-0.0885426464991032,0.7155299019263106,-0.1527159785057685,-0.2400884451312685,-0.26997934975907417,-0.4750135817560335,-1.099535288464657,1,right
11.819,0.04454642860679291,1.2200004941884717,-0.08750784498673062,0.7336228703781622,-0.13835184757715732,-0.24379068201225007,-0.27478094448653584,-0.4785901334618568,-1.1151867348773548,1,right
11.82,0.04935000009883387,1.2279717371438832,-0.08642987398009346,0.7527726570561193,-0.12297959597580344,-0.24776549343535864,-0.279657238848013,-0.48222673771448155,-1.131204493442887,1,right
11.824000000000002,0.05408178348246069,1.2359582604208545,-0.08530829789528298,0.7730191782049066,-0.10657096441724768,-0.2520132794557851,-0.28460820702833767,-0.4859163467781361,-1.1475904830504498,1,right
11.824000000000002,0.05873289215482327,1.243951769184458,-0.08414274133694101,0.7944006612502031,-0.08909785172603661,-0.25653389005580046,-0.28963371917086933,-0.48965179998252323,-1.164346219509676,1,right
11.829,0.0632943920990287,1.251943712078029,-0.08293289015058102,0.8169535799436433,-0.07053236822882195,-0.2613266252650716,-0.29473353850515704,-0.4934258307074174,-1.1814727973144008,1,right
11.83,0.06775731238399467,1.2599252859732062,-0.08167849238512376,0.8407125919417997,-0.050846890104289146,-0.26639023604603734,-0.2999073186342224,-0.49723107347743367,-1.1989708717881156,1,right
11.834000000000001,0.07211265569387401,1.267887441303697,-0.08037935917881209,0.8657104788806483,-0.030014114639659237,-0.2717229259573296,-0.30515460099589947,-0.5010600711776829,-1.2168406416592568,1,right
11.835,0.07635140887438413,1.2758208880041357,-0.07903536559450589,0.8919780890103792,-0.008007116340370773,-0.2773223536090052,-0.31047481251288256,-0.5049052824011399,-1.2350818321155255,1,right
11.839,0.08046455348464848,1.283716102083938,-0.07764645143728627,0.9195442824588785,0.015200596163667977,-0.2831856359241306,-0.31586726344634153,-0.5087590889386391,-1.2536936783875057,1,right
11.84,0.08444307634774155,1.2915633328742089,-0.07621262207690413,0.9484358791957586,0.03963502247516165,-0.2893093522220344,-0.32133114546817987,-0.5126138034224824,-1.2726749099129175,1,right
11.843,0.08827798009833689,1.2993526109876536,-0.0747339492714994,0.9786776097724599,0.0653216121131225,-0.29568954913930684,-0.32686552996721596,-0.5164616771346875,-1.2920237351339068,1,right
11.844000000000001,0.0919602937297298,1.3070737570249844,-0.07321057196318627,1.0102920689176706,0.09228520558990269,-0.30232174640538223,-0.3324693666047778,-0.520294907990932,-1.3117378269808333,1,right
11.849,0.09548108314480849,1.314716391049844,-0.07164269700698893,1.0432996720711176,0.12054997495181269,-0.3092009434902883,-0.3381414821354046,-0.5241056487112511,-1.3318143090970802,1,right
11.85,0.09883146171658447,1.3222699428431965,-0.07003059980255906,1.0777186149426508,0.1501393638571699,-0.3163216271428811,-0.3438805795085528,-0.5278860151885237,-1.352249742860466,1,right
11.854000000000001,0.1020026008657936,1.3297236629400593,-0.06837462480929814,1.1135648361874873,0.1810760272692887,-0.32367777983860674,-0.34968523726740114,-0.5316280950657444,-1.3730401152578868,1,right
11.855,0.10498574066989118,1.3370666344457416,-0.06667518593055081,1.1508519832924766,0.2133817708456599,-0.331262889156541,-0.3555539092610478,-0.5353239565330087,-1.394180827670854,1,right
11.859000000000002,0.10777220053007676,1.3442877856249633,-0.06493276675530416,1.189591381772297,0.24707749010837027,-0.33906995810614937,-0.36148492468658244,-0.5389656573550574,-1.415666685630626,1,right
11.859000000000002,0.11035338993501981,1.351375903256173,-0.06314792065311225,1.2297920077785864,0.2821831094846823,-0.34709151642488534,-0.3674764884693155,-0.5425452541325887,-1.437491889584113,1,right
11.86,0.11272081936468711,1.3583196467457477,-0.06132127072842066,1.271460464229154,0.31871752131062475,-0.3553196328684027,-0.37352668194768635,-0.5460548117627997,-1.4596500266200767,1,right
11.862,0.11486611137511508,1.365107563001463,-0.059453509648874824,1.3146009605685742,0.3566985248944363,-0.3637459285157924,-0.3796334637540435,-0.549486412996758,-1.48213406293933,1,right
11.863,0.1167810119031239,1.3717281020677237,-0.05754539936834113,1.3592152962756672,0.3961427657407509,-0.37236159111287176,-0.38579467074072044,-0.5528321679534113,-1.5049363367609458,1,right
11.868,0.11845740183362519,1.3781696335234528,-0.05559777076949987,1.4053028482375745,0.4370656750405176,-0.3811573904771441,-0.3920080188429432,-0.5560842234874517,-1.5280485514501156,1,right
11.869000000000002,0.11988730887615581,1.3844204636391728,-0.053611523248336616,1.4528605620542898,0.47948140951652546,-0.39012369496671245,-0.3982711038457738,-0.5592347723757431,-1.5514617688210255,1,right
11.87,0.12106291979488515,1.3904688532869893,-0.051587624252930724,1.5018829470413517,0.5234027916222349,-0.3992504889064504,-0.4045814020643938,-0.5622760623243784,-1.575166402661704,1,right
11.873,0.12197659302836024,1.3963030365968547,-0.049527108779157454,1.55236207416195,0.5688412499223916,-0.40852739066810806,-0.41093627095557234,-0.5652004048056953,-1.5991522125472195,1,right
11.874,0.12262087172861535,1.4019112403504677,-0.04743107882209307,1.6042875758235315,0.6158067593918151,-0.4179436709919976,-0.4173329496783052,-0.5680001837342837,-1.6234082980084639,1,right
11.878,0.12298849724756418,1.407281704097301,-0.04530070278147643,1.6576466467785798,0.6643077814694482,-0.4274882712478862,-0.4237685596217474,-0.5706678639907043,-1.6479230931245987,1,right
11.879000000000001,0.12307242309630123,1.4124027009684734,-0.043137214816504094,1.7124240459140974,0.7143512038825748,-0.4371498215302952,-0.4302401049186892,-0.5731959998013034,-1.6726843616080471,1,right
11.882,0.12286582939394645,1.4172625591562646,-0.04094191413722973,1.7686020990188602,0.7659422803568694,-0.4469166585933283,-0.4367444729629453,-0.5755772429821506,-1.6976791924516845,1,right
11.883,0.12236213780845234,1.4218496840182175,-0.03871616420958646,1.8261607026816944,0.819084570351625,-0.456776843652423,-0.4432784349491379,-0.5778043510547471,-1.7228939962086283,1,right
11.887,0.12155502697702704,1.4261525807540865,-0.0364613918438102,1.8850773294781016,0.87377987896393,-0.4667181800807552,-0.4498386464534588,-0.5798701952407511,-1.7483145019757307,1,right
11.888,0.1204384483807704,1.4301598775942597,-0.034179086137364464,1.9453270346065707,0.9300281971500115,-0.4767282310283292,-0.4564216480740883,-0.581767768342546,-1.7739257551525487,1,right
11.892999999999999,0.1190066426368313,1.4338603494327233,-0.0318707972542604,2.0068824641398786,0.9878276424164104,-0.4867943369920513,-0.4630238661500347,-0.5834901925160326,-1.799712116048195,1,right
11.894,0.11725415616156813,1.4372429418369046,-0.029538135034944256,2.0697138650605815,1.0471744001381138,-0.496903633365321,-0.46964161357723183,-0.5850307269415671,-1.8256572594090674,1,right
11.898,0.11517585815023676,1.4402967953701127,-0.027182767433440027,2.133789097253714,1.108062665665229,-0.5070430679958665,-0.47627109074079865,-0.586382775398478,-1.8517441749409913,1,right
11.899000000000001,0.11276695781336774,1.4430112701680378,-0.024806418768579565,2.199073647633468,1.170484587384231,-0.5171994187807158,-0.4829083865824194,-0.5875398937480992,-1.8779551688998253,1,right
11.902000000000001,0.11002302180684351,1.4453759707163931,-0.022410867763101625,2.2655306465842777,1.2344302109042575,-0.5273593113273161,-0.48954947982184677,-0.5884957973297275,-1.9042718668250203,1,right
11.902999999999999,0.10693999179052102,1.447380770780499,-0.01999794533938057,2.33312088690031,1.2998874245433547,-0.5375092367098998,-0.49619024035156534,-0.5892443682733768,-1.9306752174910373,1,right
11.905999999999999,0.10351420204895058,1.4490158384396965,-0.017569532146827823,2.4018028454108227,1.3668419062939683,-0.5476355693502472,-0.5028264308236722,-0.5897796627326382,-1.9571454981518803,1,right
11.907,0.09974239710816732,1.4502716611804696,-0.01512755580755278,2.471532707482221,1.4352770724513573,-0.5577245850520007,-0.5094537084480454,-0.5900959180403794,-1.9836623211543063,1,right
11.912,0.09562174928434103,1.4511390710003187,-0.012673987873530575,2.542264394590895,1.505174028092937,-0.5677624792176613,-0.5160676270208677,-0.5901875597894221,-2.010204641995518,1,right
11.912,0.09114987610062612,1.4516092694677194,-0.01021084048449834,2.6139495951640423,1.5765115196008603,-0.5777353852773269,-0.52266363920256,-0.5900492088397201,-2.0367507689013378,1,right
11.915999999999999,0.0863248575040052,1.451673852672539,-0.007740162704976436,2.6865377988886965,1.6492658894243915,-0.5876293933581268,-0.5292370990641534,-0.5896756882529378,-2.0632783740009932,1,right
11.917,0.08114525280193526,1.4513248359881457,-0.0052640365108689606,2.759976334692046,1.7234110332828225,-0.5974305692231566,-0.5357832649210911,-0.5890620301546778,-2.0897645061747165,1,right
11.922,0.07561011721973676,1.4505546785527412,-0.0027845723986828007,2.8342104125988743,1.7989183600138146,-0.607124973508536,-0.5422973024733964,-0.5882034825239514,-2.11618560565037,1,right
11.923,0.06971901795600295,1.4493563073644466,-0.00030390460538844903,2.909183169674528,1.8757567542761113,-0.6166986812869804,-0.5487742882710838,-0.5870955159088072,-2.1425175204252556,1,right
11.925999999999998,0.06347204959024519,1.447723140876116,0.0021758140508419768,2.984835720264269,1.9538925423195614,-0.6261378019860121,-0.5552092135136935,-0.5857338300715869,-2.1687355245530417,1,right
11.927999999999999,0.05686984868681784,1.4456491119787551,0.004652417680426093,3.0611072107421387,2.0332894610392986,-0.635428499688633,-0.5615969881431889,-0.5841143605927898,-2.194814338155081,1,right
11.927999999999999,0.049913607446062644,1.4431286902760643,0.007123733145156109,3.137934878984585,2.1139086305347403,-0.6445570138439283,-0.5679324451001488,-0.5822332855089937,-2.2207281486902373,1,right
11.931,0.0426050862559755,1.4401569035602706,0.009587586146675747,3.2152541187860524,2.195708530397791,-0.6535096804146896,-0.5742103445635084,-0.5800870320857678,-2.246450632836534,1,right
11.932,0.03494662497679506,1.4367293583897442,0.012041807511052691,3.292998549435508,2.278644979958248,-0.6622729534887172,-0.5804253780435263,-0.5776722837995569,-2.2719549785180124,1,right
11.937000000000001,0.026941152764077738,1.4328422596546744,0.014484239570299543,3.3711000906744677,2.3626711227179316,-0.6708334273799955,-0.586572172286701,-0.5749859875545831,-2.2972139069346134,1,right
11.937000000000001,0.018592196228838592,1.4284924290132728,0.01691274251754388,3.4494890432584997,2.4477374152084135,-0.6791778592454321,-0.5926452930007473,-0.5720253611338331,-2.3221996946328103,1,right
11.937999999999999,0.009903885749233307,1.4236773220869572,0.01932520060044142,3.5280941752144255,2.5337916204723205,-0.6872931922209463,-0.5986392484174774,-0.5687879008771897,-2.3468841956902096,1,right
11.940999999999999,0.0008809597799562664,1.4183950443156792,0.021719528022612757,3.606842813231612,2.6207788061803168,-0.6951665789733327,-0.6045484927112318,-0.5652713895789833,-2.3712388640866138,1,right
11.942,-0.008471232955295852,1.4126443653906173,0.02409367444375679,3.685660937447856,2.7086413470551225,-0.7027854053714847,-0.6103674292902944,-0.5614739045964526,-2.39523477633327,1,right
11.947000000000001,-0.018146733470074727,1.406424732189146,0.026445629986993485,3.7644732772361107,2.797318931085785,-0.7101373138731275,-0.6160904139785005,-0.5573938261598109,-2.418842654431152,1,right
11.948,-0.028138974781577366,1.3997362801296394,0.028773429663943164,3.84320340625358,2.8867485692090544,-0.7172102263292939,-0.6217117581039987,-0.5530298458738099,-2.4420328892281757,1,right
11.950999999999999,-0.038440786480942644,1.3925798428515315,0.03107515712648325,3.9217738361936254,2.9768646084809784,-0.7239923661002611,-0.6272257315118733,-0.5483809753998901,-2.464775564244222,1,right
11.952,-0.049044401626641684,1.3849569601200535,0.03334894766281726,4.000106109335745,3.0675987489551395,-0.7304722794826889,-0.6326265655170544,-0.5434465553071928,-2.4870404800317223,1,right
11.956,-0.05994146594980587,1.3768698838543019,0.03559299037172874,4.078120890119641,3.1588800645242925,-0.7366388564682489,-0.6379084558136522,-0.5382262640798956,-2.5087971791383636,1,right
11.956,-0.07112304932869978,1.3683215821773371,0.03780552946733366,4.155738055968922,3.2506350279841376,-0.7424813508532051,-0.6430655653565429,-0.5327201272675147,-2.530014971737172,1,right
11.960999999999999,-0.08257965946047713,1.3593157413870243,0.03998486468780502,4.232876787589277,3.342787540579733,-0.7479893997175373,-0.6480920272307097,-0.5269285267639983,-2.550662961987885,1,right
11.962,-0.0943012576360966,1.349856765748592,0.04212935080811609,4.309455658965089,3.4352589662966175,-0.7531530422912984,-0.6529819475234983,-0.5208522102006148,-2.5707100751920344,1,right
11.966,-0.10627727651258506,1.339949775019135,0.04423739629036925,4.385392727277269,3.527968171160058,-0.7579627382249668,-0.6577294082145916,-0.5144923004368187,-2.590125085802634,1,right
11.967,-0.118496639777351,1.3296005996344462,0.04630746114296323,4.46060562296374,3.620831567806994,-0.762409385279597,-0.6623284700981275,-0.5078503051324578,-2.6088766463477175,1,right
11.972000000000001,-0.130947783610317,1.3188157735187922,0.04833805409556191,4.535011640142393,3.713763165596134,-0.7664843364515802,-0.6667731757509976,-0.500928126383869,-2.6269333173252547,1,right
11.972999999999999,-0.1436186798673994,1.3076025245153156,0.05032772922601143,4.60852782761447,3.8066746265223728,-0.7701794165458127,-0.6710575525609501,-0.49372807040559535,-2.644263598125144,1,right
11.975999999999999,-0.15649686092925819,1.2959687624768128,0.0522750821963136,4.6810710806642755,3.8994753272020986,-0.7734869382100279,-0.6751756158276968,-0.4862528572386481,-2.660835959032091,1,right
11.977,-0.16956944617705064,1.2839230651008258,0.05417874626704722,4.752558233868775,3.9920724271961796,-0.7763997174419812,-0.6791213719497792,-0.4785056304654327,-2.6766188743611683,1,right
11.981,-0.18282317006525653,1.2714746616332906,0.05603738826364187,4.822906155128103,4.084370943937338,-0.7789110885800843,-0.6828888217094895,-0.47048996691066114,-2.691580856775781,1,right
11.982000000000001,-0.19624441175572727,1.258633414595804,0.05784970466518302,4.892031841125203,4.176273834528301,-0.7810149187869753,-0.6864719636676634,-0.46220988630678267,-2.705690492835579,1,right
11.985,-0.2098192262573317,1.2454097997115108,0.05961441798031452,4.9598525144197625,4.26768208467654,-0.7827056220343808,-0.6898647976796666,-0.45366986090168554,-2.71891647981958,1,right
11.985999999999999,-0.223533376985869,1.231814884215679,0.06133027356941897,5.026285722378379,4.3584948050305306,-0.7839781725964677,-0.6930613285433848,-0.44487482498565084,-2.7312276638674224,1,right
11.99,-0.23737236962414077,1.2178603037409574,0.0629960370672575,5.091249438139346,4.448609335181335,-0.7848281180577192,-0.6960555697894985,-0.435830184313782,-2.742593079479219,1,right
11.99,-0.2513214871268666,1.2035582379641012,0.06461049254777929,5.154662163806711,4.537921355591883,-0.7852515918401781,-0.6988415476237756,-0.42654182539938784,-2.7529819904119264,1,right
11.995,-0.2653658256880471,1.188921385188494,0.06617244154485913,5.21644303606429,4.626325007714599,-0.7852453252537062,-0.7014133050289494,-0.41701612463161236,-2.7623639319691553,1,right
11.997,-0.27949033148623736,1.1739629360095198,0.06768070300194609,5.276511934396055,4.7137130225560515,-0.7848066590716919,-0.7037649060251567,-0.40725995706263546,-2.770708754486678,1,right
11.997,-0.293679838048851,1.1586965461709768,0.06913411417961852,5.33478959209492,4.799976857944939,-0.7839335546334169,-0.7058904400728888,-0.3972807045160059,-2.7779866674676112,1,right
12.0,-0.3079191040959358,1.1431363086941915,0.07053153250303286,5.391197710237219,4.885006844757158,-0.782624604473055,-0.7077840265937819,-0.38708626255973094,-2.7841682836264208,1,right
12.001,-0.3221928517085364,1.1272967253649204,0.07187183827079,5.445659074795263,4.968692342348754,-0.7808790424740427,-0.7094398195919549,-0.3766850459943446,-2.7892246622898518,1,right
12.004000000000001,-0.3364858046394771,1.111192677681279,0.0731539380725676,5.498097677055234,5.050921903444336,-0.7786967535463064,-0.7108520123723701,-0.3660859926985949,-2.7931273519453126,1,right
12.005999999999998,-0.35078272657658216,1.0948393973772845,0.07437676869562344,5.548438837502289,5.131583448724986,-0.7760782828225877,-0.7120148423600446,-0.3552985657820324,-2.7958484319160175,1,right
12.007,-0.3650684591791821,1.078252436637869,0.07553930126763056,5.596609333202967,5.210564451140566,-0.7730248443546921,-0.7129225960248542,-0.3443327540146385,-2.797360553177351,1,right
12.009,-0.37932795973154887,1.061447638110538,0.07664054540123641,5.642537528078227,5.287752128890828,-0.7695383292184523,-0.713569613915975,-0.3331990705030657,-2.7976369783256057,1,right
12.009,-0.39354633828646823,1.0444411047956466,0.07767955316181954,5.686153504318654,5.363033644077873,-0.7656213128075269,-0.7139502958092915,-0.3219085495825225,-2.796651620706861,1,right
12.014000000000001,-0.4077088941818305,1.0272491698806985,0.07865542273554281,5.727389192556206,5.436296302951394,-0.7612770610241235,-0.7140591059703664,-0.3104727418928234,-2.7943790827102672,1,right
12.015,-0.42180115178183974,1.0098883665906093,0.07956730171008607,5.7661784990313585,5.507427754739223,-0.7565095351442789,-0.7138905785348185,-0.298903707606643,-2.7907946932265024,1,right
12.019,-0.43580889524305083,0.9923753981405774,0.0804143899187216,5.8024574291236455,5.576316187987667,-0.7513233952615063,-0.7134393230071907,-0.2872140077775656,-2.785874544268486,1,right
12.020999999999999,-0.4497182020673536,0.974727107880541,0.0811959418592285,5.836164207237732,5.6428505244065805,-0.745724002282183,-0.712700029878608,-0.27541669377510397,-2.779595526747795,1,right
12.024000000000001,-0.4635154751906996,0.9569604497125199,0.08191126876549784,5.867239393156289,5.706920610423278,-0.7397174184589909,-0.7116674763627323,-0.26352529477347836,-2.7719353653964154,1,right
12.025,-0.4771874733661223,0.9390924588556648,0.08255974045768052,5.895625994963784,5.76841740664294,-0.7333104064475241,-0.7103365322487019,-0.25155380326060406,-2.762872652819652,1,right
12.029000000000002,-0.4907213396282783,0.9211402230327052,0.0831407871197744,5.921269578637853,5.827233175406426,-0.7265104268699908,-0.7087021658689249,-0.23951665853342563,-2.7523868826621123,1,right
12.03,-0.5041046276676251,0.9031208541552216,0.08365390115262576,5.944118374397439,5.883261666629287,-0.7193256343687677,-0.7067594501787471,-0.2274287281454666,-2.7404584818647066,1,right
12.034,-0.5173253259888447,0.8850514605921858,0.0840986392244441,5.964123379889112,5.93639830209844,-0.7117648721314193,-0.7045035689441604,-0.21530528727223533,-2.7270688419865943,1,right
12.035,-0.5303718797746693,0.8669491201140154,0.08447462459276565,5.981238460285119,5.986540358395227,-0.7038376648676632,-0.7019298230328467,-0.20316199595993942,-2.7122003495619014,1,right
12.039000000000001,-0.5432332104169431,0.8488308536099589,0.08478154971382783,5.995420445358706,6.033587148605574,-0.6955542102176617,-0.6990336368029648,-0.1910148742228162,-2.695836415456909,1,right
12.04,-0.5558987327059521,0.8307135996773681,0.08501917910187227,6.0066292235940795,6.077440202969701,-0.6869253685699408,-0.6958105645831898,-0.17888027495428557,-2.677961503189209,1,right
12.044,-0.5683583696843746,0.8126141901754175,0.08518735235644727,6.014827833380082,6.118003448615188,-0.6779626512661835,-0.6922562972366024,-0.16677485461707506,-2.6585611561660727,1,right
12.045,-0.5806025651761676,0.7945493268216675,0.08528598723848782,6.019982551328234,6.155183388508351,-0.6686782071691263,-0.6883666688000981,-0.15471554167745735,-2.637622023795002,1,right
12.049000000000001,-0.5926222939985787,0.7765355588882995,0.08531508264904586,6.022062977747271,6.188889279749701,-0.6590848075687956,-0.6841376631900482,-0.14271950274877607,-2.615131886415066,1,right
12.05,-0.6044090698620197,0.7585892620300745,0.08527472135605266,6.021042119297638,6.219033311329804,-0.6491958294013614,-0.6795654209639925,-0.13080410640952134,-2.591079678993276,1,right
12.052999999999999,-0.6159549509606218,0.7407266182529556,0.0851650723280988,6.016896468840707,6.245530781452157,-0.6390252367539655,-0.6746462461271815,-0.1189868846613483,-2.5654555135258095,1,right
12.054,-0.6272525432567773,0.7229635970122908,0.08498639256475103,6.00960608248861,6.268300274519725,-0.6285875606279918,-0.6693766129718115,-0.10728549199261475,-2.538250700079459,1,right
12.059000000000001,-0.6382950014655658,0.7053159374095571,0.08473902834841086,5.99915465385173,6.287263837871542,-0.617897876932403,-0.6637531729358092,-0.09571766201324594,-2.5094577664041853,1,right
12.059000000000001,-0.6490760277492178,0.6877991314316095,0.08442341587018896,5.985529585471873,6.302347158345324,-0.6069717826779548,-0.6577727614670262,-0.08430116162701677,-2.4790704760431463,1,right
12.062999999999999,-0.6595898681378851,0.6704284081435525,0.08404008119579293,5.968722057420178,6.313479738731343,-0.5958253703423384,-0.6514324048777004,-0.07305374270767472,-2.447083844862033,1,right
12.064,-0.6698313067019844,0.6532187187137297,0.08358963954190615,5.948727093029665,6.3205950741718775,-0.584475200375572,-0.6447293271726955,-0.06199309133444177,-2.413494155942101,1,right
12.065,-0.6797956575134217,0.636184722134452,0.08307279384020277,5.925543621723305,6.323630828549407,-0.5729382718142938,-0.6376609568323977,-0.05113677508652658,-2.3782989729123227,1,right
12.068,-0.6894787544493168,0.6193407715128614,0.08249033258739166,5.899174538889289,6.322529010895413,-0.5612319909729666,-0.6302249335271981,-0.0405021896953473,-2.3414971520355623,1,right
12.068,-0.6988769389189393,0.6027009008298687,0.08184312702579893,5.869626762746072,6.317236151840056,-0.5493741381794267,-0.6224191147378367,-0.030106506797359968,-2.3030888534946845,1,right
12.073,-0.707987045632411,0.586278812087957,0.08113212776366478,5.8369112880012475,6.307703479897767,-0.5373828325639468,-0.6142415822564511,-0.019966624087315813,-2.2630755521842945,1,right
12.074000000000002,-0.7168063865579515,0.5700878627911945,0.08035836099300944,5.801043235452514,6.293887096303823,-0.5252764951218649,-0.6056906485450207,-0.010099118373823603,-2.2214600480651097,1,right
12.075,-0.7253327332192486,0.5541410537253006,0.07952292446710969,5.762041895505827,6.27574814518261,-0.5130738106498661,-0.5967648629284596,-0.0005202015961208187,-2.1782464759977516,1,right
12.079,-0.7335642974881506,0.5384510170329093,0.07862698337748561,5.719930762930077,6.253252974748055,-0.5007936893669901,-0.5874630175988593,0.00875432022703972,-2.1334403149410113,1,right
12.08,-0.7414997110526935,0.5230300046102704,0.07767176625045669,5.6747375608052515,6.226373286292438,-0.48845522881973696,-0.577784153406315,0.017709085144699654,-2.087048396395054,1,right
12.084000000000001,-0.7491380037710227,0.5078898768796931,0.07665856095719614,5.626494252776071,6.195086269629796,-0.47607767628990233,-0.5677275654106911,0.026329210544684935,-2.039078911965427,1,right
12.085,-0.7564785811365751,0.4930420920082681,0.07558871088507964,5.575237043360871,6.159374724715635,-0.46368039171217845,-0.5572928081676037,0.03460032557488584,-1.9895414199191765,1,right
12.087,-0.7635212010823235,0.4784976956481241,0.0744636112674566,5.521006366185944,6.119227169365681,-0.45128281106611867,-0.54647970072081,0.04250860074051984,-1.9384468505998123,1,right
12.088,-0.7702659503508452,0.4642673112709412,0.07328470563564424,5.463846860006845,6.074637932983756,-0.43890441020694887,-0.5352883312721171,0.050040774702109624,-1.885807510563342,1,right
12.093,-0.7767132206506779,0.4503611311619553,0.07205348234747663,5.403807332369501,6.02560723619616,-0.42656466909965257,-0.5237190614988335,0.057184178297907194,-1.8316370852930883,1,right
12.094000000000001,-0.7828636848040746,0.43678890812929744,0.07077147115388108,5.34094071075542,5.9721412562772205,-0.4142830364207597,-0.5117725304876981,0.06392675581345396,-1.7759506403465346,1,right
12.097999999999999,-0.7887182730698119,0.4235599479774285,0.06944023977338637,5.275303981046901,5.914252178237908,-0.4020788944923185,-0.49944965825313914,0.07025708351988728,-1.7187646207830138,1,right
12.099,-0.7942781498043446,0.4106831027903236,0.06806139044192497,5.206958113139895,5.8519582314366945,-0.3899715245126444,-0.486751648806629,0.07616438550148881,-1.660096848716647,1,right
12.102,-0.7995446906099106,0.39816676506857,0.06663655639483462,5.135967973524026,5.7852837115590665,-0.37798007204860534,-0.4736799927428174,0.0816385467918195,-1.5999665188346042,1,right
12.104000000000001,-0.8045194601086716,0.38601886276096375,0.06516739823491534,5.062402224641352,5.714258987799449,-0.3661235127544275,-0.460236469307045,0.08667012383660354,-1.5383941917164405,1,right
12.107000000000001,-0.8092041904735785,0.374246855222483,0.06365560015553093,4.9863332108276746,5.63892049506663,-0.3544206182822793,-0.44642314790776333,0.09125035230030928,-1.4754017847860101,1,right
12.107999999999999,-0.813600760835262,0.36285773011516675,0.06210286601762369,4.907836830632591,5.55931071102121,-0.3428899223502273,-0.4322423890363128,0.095371152232133,-1.4110125607232724,1,right
12.110999999999999,-0.8177111776698406,0.35185800124890915,0.0605109153125768,4.826992395307119,5.475478117741137,-0.33154968693354403,-0.417696844555444,0.09902513060582063,-1.3452511131591463,1,right
12.112,-0.821537556259279,0.34125370734161203,0.05888147906934994,4.7438824732405465,5.387477147798975,-0.32041786854578724,-0.4027894573169053,0.1022055812464681,-1.2781433494725096,1,right
12.117,-0.8250821033079518,0.33105041166683236,0.05721629577978043,4.658592720121148,5.295368114522313,-0.3095120845765667,-0.38752346006736454,0.1049064821561222,-1.2097164705044199,1,right
12.118,-0.8283471007966124,0.3212532025523371,0.05551710741942522,4.57121169458873,5.199217126196606,-0.2988495796534586,-0.37190237360088635,0.10712249024866434,-1.1399989470006993,1,right
12.120999999999999,-0.8313348911534482,0.3118666946943518,0.05378565563257061,4.481830659140409,5.099095983957783,-0.2884471919961274,-0.3559300041151464,0.10884893350310108,-1.0690204925901585,1,right
12.122,-0.8340478638139893,0.30289503125901085,0.05202367812938029,4.390543366044831,4.99508206311015,-0.2783213197313623,-0.33961043972753563,0.11008180054300858,-0.9968120331019494,1,right
12.127,-0.8364884432214899,0.29434188675204404,0.05023290531455193,4.297445828013971,4.887258177593524,-0.2684878871384347,-0.3229480461062872,0.11081772764848702,-0.9234056720218288,1,right
12.128,-0.8386590782858137,0.28621047064738936,0.04841505713910066,4.20263607337598,4.7757124273121505,-0.25896231079492804,-0.3059474611707508,0.11105398320557607,-0.8488346518834997,1,right
12.133,-0.8405622332780551,0.27850353177347853,0.04657184014932116,4.106213885487017,4.660538028026781,-0.24975946559398593,-0.2886135888445449,0.11078844965696158,-0.7731333115181174,1,right
12.133,-0.8422003801042331,0.27122336345997633,0.04470494470382303,4.008280526114845,4.54183312350034,-0.24089365060476225,-0.27095159199735247,0.11001960331785794,-0.696337039733873,1,right
12.134,-0.843575991881655,0.2643718094465369,0.04281604233825806,3.9089384425220355,4.419700579576951,-0.23237855474874175,-0.2529668849855864,0.10874649296217974,-0.6184822271683127,1,right
12.137,-0.8446915377203986,0.2579502705514295,0.04090678327256032,3.8082909579720154,4.294247759863658,-0.2242272222655239,-0.2346651263542119,0.1069687183841565,-0.5396062187050678,1,right
12.138,-0.8455494785755464,0.2519597120935194,0.03897879407380576,3.7064419453768283,4.165586282674071,-0.21645201794263053,-0.21605221210805273,0.10468640983761937,-0.45974726819125983,1,right
12.142000000000001,-0.8461522640018667,0.24640067205422556,0.037033675505909476,3.603495484440093,4.033831759373915,-0.2090645921345256,-0.19713426968455028,0.10190020871107762,-0.37894449601472974,1,right
12.142999999999999,-0.8465023296414753,0.24127326995752724,0.035073000607877394,3.4995555058380585,3.8991035167120427,-0.20207584584518962,-0.17791765260601544,0.09861124949377406,-0.2972378494450344,1,right
12.142999999999999,-0.8466020953053041,0.23657721643830137,0.033098313040547264,3.3947254317259294,3.761524310126828,-0.19549589659626646,-0.15840893575791667,0.09482114302616426,-0.21466806550888307,1,right
12.145999999999999,-0.8464539635391062,0.23231182345924936,0.031111125734872805,3.2891078250466643,3.6212200374620527,-0.18933404605202467,-0.13861491123887149,0.09053196102681811,-0.13127663616797372,1,right
12.147,-0.8460603185750967,0.22847601512107873,0.029112919871582064,3.182804056923405,3.4783194600647867,-0.18359875012540705,-0.11854258472715168,0.08574622188629881,-0.04710577556459651,1,right
12.151,-0.8454235255760792,0.22506833899283393,0.02710514421946479,3.0759139956664283,3.3329539338140095,-0.1782975918440188,-0.09819917230767328,0.08046687771713566,0.03780161090210783,1,right
12.152000000000001,-0.8445459300960081,0.22208697787411022,0.025089214850956703,2.968535717730055,3.185257150167815,-0.17343725700799265,-0.0775920977026234,0.07469730264757467,0.12340195590870487,1,right
12.155999999999999,-0.8434298577024298,0.219529761889109,0.023066515239966428,2.8607652403143615,3.0353648868189675,-0.1690235126232711,-0.056728989848077324,0.06844128234536491,0.20965105819054655,1,right
12.157,-0.8420776137200569,0.21739418080336734,0.02103839673361726,2.7526962753048254,2.883414767541491,-0.1650611880950921,-0.03561768075818015,0.06170300475642189,0.2965041094191972,1,right
12.161,-0.8404914830592481,0.21567739644836875,0.019006179381535895,2.6444200042416504,2.729546030804309,-0.16155415916772733,-0.014266203617711288,0.054487052041801536,0.38391572022001713,1,right
12.163,-0.8386737300941285,0.21437625513937777,0.01697115310533098,2.536024874009373,2.573899306721612,-0.1585053345978045,0.00731720895688576,0.046798393695022075,0.47183994557757764,1,right
12.165,-0.8366265985583364,0.21348729997932694,0.014934579195099199,2.4275964129364977,2.416616401903749,-0.15591664554983892,0.029124126548638125,0.038642380820386256,0.5602303098783159,1,right
12.165999999999999,-0.8343523114328475,0.21300678295566475,0.012897692124407997,2.3192170669942955,2.257840091766923,-0.15378903770390628,0.051145922524662116,0.030024741551585164,0.6490398318414405,1,right
12.172,-0.8318530708069775,0.21293067675466446,0.010861701675308167,2.210966055783571,2.0977139198548627,-0.15212246606670196,0.0733737756362509,0.020951577588507752,0.7382210495905713,1,right
12.173,-0.8291310576989882,0.21325468623534025,0.008827795359394992,2.102919247998076,1.936382003720945,-0.15091589247855242,0.09579867169705819,0.01142936182883826,0.8277260461199323,1,right
12.175,-0.8261884318280479,0.21397425952159707,0.00679714111254193,1.9951490560534033,1.7739888469149538,-0.15016728581026662,0.11841140540262161,0.0014649370696985778,0.9175064754101244,1,right
12.175999999999998,-0.8230273313358772,0.21508459868755012,0.004770890232104179,1.8877243495705496,1.6106791566147947,-0.14987362484503747,0.14120258235506103,-0.008934484246715339,1.0075135894495666,1,right
12.182,-0.8196498724642243,0.21658067002833545,0.00275018051614431,1.7807103874039043,1.4465976664399989,-0.15003090384192283,0.16416262135735293,-0.019761319270843028,1.097698266418625,1,right
12.183,-0.8160581492037841,0.21845721392729728,0.0007361395540926188,1.6741687679042294,1.281888963980829,-0.15063414077874898,0.18728175704212077,-0.031007612995424653,1.188011040294242,1,right
12.186,-0.8122542329420726,0.2207087543485495,-0.001270111891589583,1.5681573971081588,1.1166973225741461,-0.15167738827358443,0.2105500429003937,-0.042665035546980125,1.2784021321335246,1,right
12.187000000000001,-0.8082401721507193,0.22332960799923654,-0.003267456480538952,1.462730474546933,0.9511665368549876,-0.15315374718522498,0.2339573547762706,-0.054724878550187706,1.3688214832952619,1,right
12.19,-0.8040179921631216,0.22631389321715487,-0.00525477693808361,1.3579384963684253,0.7854397616110047,-0.15505538289441034,0.2574933948938835,-0.06717805059745177,1.4592187908587113,1,right
12.190999999999999,-0.7995896950982101,0.229655538646339,-0.007230952819714067,1.2538282754680363,0.6196593534655163,-0.1573735442687543,0.2811476964834817,-0.08001507185712955,1.54954354549921,1,right
12.195,-0.7949572599843463,0.2333482917651253,-0.009194857466974083,1.1504429783256986,0.4539667149139613,-0.16009858531561283,0.30490962907385755,-0.09322606785504213,1.639745072080262,1,right
12.197000000000001,-0.7901226431305626,0.23738572732809848,-0.011145355220738172,1.0478221782480555,0.2885021402379687,-0.16321998952833416,0.32876840451870404,-0.10680076246502361,1.7297725732216718,1,right
12.2,-0.7850877787830569,0.2417612557766178,-0.013081298949780211,0.9460019247168259,0.12340466282110553,-0.1667263969325295,0.35271308382483446,-0.12072847014536502,1.8195751761030976,1,right
12.2,-0.7798545800953204,0.2464681316633945,-0.015001527941074323,0.8450148285464422,-0.041188096609385424,-0.1706056338401702,0.37673258482057975,-0.13499808748345968,1.9091019826278517,1,right
12.200999999999999,-0.7744249404307906,0.25149946212523694,-0.01690486618530326,0.7448901625562354,-0.20514008128989375,-0.17484474532045352,0.4008156905533538,-0.14959808423389118,1.9983021224003341,1,right
12.205,-0.7688007350071432,0.25684821542653374,-0.018790121078834546,0.6456539774647364,-0.36831694975078094,-0.17943003039748426,0.42495105803632854,-0.16451649425561773,2.08712480676215,1,right
12.205,-0.7629838228830641,0.26250722958606104,-0.020656082553078,0.5473292327160472,-0.5305862276422889,-0.18434707998588784,0.44912722681477046,-0.1797409068767777,2.1755193814602225,1,right
12.21,-0.7569760492837708,0.26846922108940163,-0.02250152263324705,0.4499359419507065,-0.6918174605267182,-0.1895808175765037,0.4733326269723786,-0.19525845909470016,2.26343537619022,1,right
12.210999999999999,-0.750779248260076,0.27472679367735625,-0.024325195420773826,0.3534913325769328,-0.8518823678652667,-0.1951155426189171,0.49755558646740566,-0.21105582880021723,2.3508225504652294,1,right
12.210999999999999,-0.7443952456748367,0.28127244719208305,-0.02612583748867985,0.2580100176052895,-1.0106549972248702,-0.20093497621662737,0.5217843378380683,-0.22711922909436383,2.437630935929301,1,right
12.217,-0.7378258625081184,0.2880985864612071,-0.027902168677515906,0.1635041755806892,-1.1680118755666136,-0.20702230815411457,0.5460070243467565,-0.2434344037420146,2.52381087536833,1,right
12.218,-0.7310729184684842,0.29519753019904327,-0.02965289327667041,0.06998373315292539,-1.3238321532734922,-0.21336024394401804,0.5702117056326035,-0.2599866238078091,2.609313058669195,1,right
12.22,-0.724138235894637,0.3025615198951066,-0.03137670156835982,-0.022543453874871944,-1.4779977377720335,-0.21993105091536863,0.5943863629419927,-0.2767606855204807,2.694088555976435,1,right
12.22,-0.7170236439297434,0.31018272864679763,-0.03307227170260327,-0.11407142284585985,-1.630393415759036,-0.22671660296203017,0.6185189040065614,-0.2937409094124268,2.778088848293917,1,right
12.224,-0.7097309829480587,0.3180532698837392,-0.034738271866010174,-0.20459593042491678,-1.7809069642407112,-0.2336984239031359,0.6425971676382096,-0.3109111407820379,2.8612658557770265,1,right
12.225,-0.7022621092084566,0.3261652059265804,-0.036373362706113396,-0.2941142829156809,-1.929429250826855,-0.24085772947435713,0.6666089281105351,-0.32825475152693845,2.94357196395881,1,right
12.229000000000001,-0.694618899703363,0.33451055631946747,-0.03797619997429073,-0.3826251709821185,-2.075854323717601,-0.24817546796945786,0.6905418993959931,-0.34575464339688494,3.0249600481512675,1,right
12.23,-0.6868032571681867,0.34308130587273666,-0.03954543735227948,-0.47012850903466896,-2.2200794918149054,-0.255632359552151,0.7143837393279276,-0.36339325271561057,3.1053834962606537,1,right
12.234000000000002,-0.6788171152195511,0.35186941235618713,-0.04107972942709231,-0.5566252795381262,-2.3620053953852014,-0.2632089342587829,0.7381220537564255,-0.38115255662140346,3.1847962302531183,1,right
12.234000000000002,-0.6706624435991958,0.3608668137986637,-0.04257773477269832,-0.6421173824955257,-2.501536067693638,-0.2708855687128256,0.7617444007667193,-0.39901408087665313,3.263152726504395,1,right
12.239,-0.6623412535069866,0.3700654353740351,-0.04403811908531802,-0.7266074903594099,-2.6385789880240145,-0.2786425215725575,0.7852382950286056,-0.4169589092969969,3.3404080352644736,1,right
12.24,-0.6538556030055386,0.3794571958780354,-0.04545955831206874,-0.8100989086189612,-2.773045126491918,-0.2864599677336547,0.8085912123450436,-0.4349676948510452,3.4165177994652924,1,right
12.244000000000002,-0.6452076024736402,0.38903401381806063,-0.04684074171806493,-0.8925954423086025,-2.9048489810516958,-0.2943180313087045,0.8317905944677684,-0.45302067248195527,3.491438273096449,1,right
12.245,-0.6363994200827862,0.3987878131481316,-0.048180374853146454,-0.9741012686807909,-3.0339086070907646,-0.3021968174058811,0.8548238542473856,-0.4710976737023632,3.565126339370763,1,right
12.249,-0.6274332872722105,0.408710528685667,-0.0494771823989791,-1.0546208162828599,-3.1601456399973493,-0.3100764427291985,0.877678381185004,-0.48917814301436563,3.637539528898248,1,right
12.25,-0.6183115042001468,0.4187941112472753,-0.050729910894464,-1.134158650674912,-3.2834853110801228,-0.3179370650228717,0.9003415474520258,-0.5072411562063692,3.7086360380836245,1,right
12.253,-0.6090364451517504,0.4290305325394274,-0.05193733134846355,-1.2127193670229126,-3.403856457210326,-0.32575891138237784,0.9228007144442376,-0.5252654405786943,3.778374747958962,1,right
12.254000000000001,-0.5996105638878356,0.43941178983778134,-0.05309824175180321,-1.2903074897983096,-3.521191524548847,-0.3335223054548092,0.9450432399358264,-0.5432293971498274,3.846715243659392,1,right
12.26,-0.590036398922517,0.44992991048618236,-0.054211469496458775,-1.3669273798126764,-3.635426566712441,-0.34120769355105796,0.9670564858984013,-0.5611111248951683,3.9136178347460393,1,right
12.261,-0.580316578720642,0.4605769562427621,-0.05527587370341585,-1.442583148813074,-3.7465012377247224,-0.3487956696922603,0.9888278270495131,-0.5788884470700013,3.9790435765764305,1,right
12.263,-0.5704538268080751,0.4713450274952674,-0.05629034745721025,-1.5172785818610315,-3.8543587800888846,-0.3562669996127597,1.010344660194538,-0.5965389396682528,4.042954292918611,1,right
12.264000000000001,-0.5604509667915236,0.48222626736023555,-0.057253819947009954,-1.5910170677152597,-3.95894600831017,-0.36360264374162554,1.0315944144251419,-0.6140399620683541,4.105312600001087,1,right
12.269,-0.5503109272903333,0.4932128656732815,-0.05816525851963689,-1.6638015374354498,-4.060213288187056,-0.3707837791844844,1.0525645622099218,-0.6313686898610615,4.166081932117696,1,right
12.27,-0.5400367467873669,0.5042970628749355,-0.0590236706551388,-1.735634411421739,-4.158114512180893,-0.3777918207270854,1.0732426312775307,-0.6485021495728633,4.225226568558395,1,right
12.270999999999999,-0.5296315784075161,0.5154711537989117,-0.05982810587808572,-1.8065175551016843,-4.252607071164341,-0.3846084408816332,1.0936162169495907,-0.6654172544926369,4.282711661013653,1,right
12.274000000000001,-0.5190986946357453,0.5267274913720005,-0.0605776576195332,-1.8764522434738384,-4.343651822839415,-0.3912155889964777,1.1136729944453332,-0.6820908405278698,4.338503260251811,1,right
12.275,-0.5084414919964602,0.5380584902321975,-0.061271465047346235,-1.9454391347142908,-4.43121305710628,-0.3975955094492526,1.1334007308136338,-0.6984997012970496,4.3925683412079,1,right
12.277999999999999,-0.4976634957253384,0.5494566302667192,-0.06190871488414628,-2.013478252884396,-4.515258458644275,-0.4037307589465405,1.1527872963894576,-0.7146206221697409,4.444874826236408,1,right
12.279000000000002,-0.4867683644629156,0.5609144600702431,-0.062488643230182175,-2.080568978948193,-4.595759066907084,-0.40960422297020016,1.1718206758053944,-0.7304304132460264,4.495391606619468,1,right
12.279000000000002,-0.4757598949869061,0.5724246003273962,-0.0630105374038576,-2.146710047816652,-4.672689233634745,-0.41519913144163645,1.190488978614927,-0.7459059413224024,4.544088562485705,1,right
12.284,-0.46464202698870705,0.5839797471264733,-0.06347373780762867,-2.211899548306173,-4.746026577925474,-0.4204990736922512,1.2087804495831045,-0.7610241608903867,4.590936581289938,1,right
12.285,-0.45341884789572484,0.5955726752086455,-0.06387763982216595,-2.276134923723031,-4.815751938949684,-0.4254880128099007,1.2266834786992669,-0.7757621442132084,4.635907574998794,1,right
12.288,-0.44209459774026566,0.6071962411518829,-0.06422169572579466,-2.339412972271356,-4.881849326467679,-0.43015029939859256,1.24418661096543,-0.790097110524987,4.678974496122055,1,right
12.289000000000001,-0.430673674071788,0.6188433864869961,-0.06450541662851733,-2.4017298473065156,-4.944305869351696,-0.434470684770145,1.2612785560128479,-0.8040064543957822,4.72011135272428,1,right
12.294,-0.4191606369037791,0.630507140744559,-0.06472837440205934,-2.4630810576184192,-5.003111762312577,-0.43843433358210704,1.277948197598161,-0.8174677733048027,4.75929322254582,1,right
12.294,-0.40756021368281,0.6421806244341824,-0.06489020358159975,-2.5234614679265235,-5.058260211020932,-0.4420268359352998,1.2941846030293882,-0.8304588944629057,4.796496266356879,1,right
12.297,-0.395877304265477,0.6538570519621655,-0.0649906032120464,-2.582865299765543,-5.109747375802184,-0.4452342189433589,1.3099770325708364,-0.8429579009242988,4.831697740662765,1,right
12.298,-0.38411698588674265,0.6655297344997297,-0.06502933861197041,-2.641286132938103,-5.157572314074418,-0.44804295778563324,1.3253149488747948,-0.8549431570260643,4.86487600987283,1,right
12.302999999999999,-0.37228451809896984,0.6771920828192931,-0.06500624303122371,-2.6987169077077784,-5.201736921687455,-0.45043998625372994,1.3401880264866326,-0.8663933331927808,4.896010558039916,1,right
12.304,-0.3603853476553882,0.6888376101192208,-0.06492121918311423,-2.755149927903158,-5.242245873311051,-0.4524127068008908,1.354586161468643,-0.8772874301421015,4.925082000271393,1,right
12.307,-0.3484251133070074,0.7004599348594029,-0.0647742406387487,-2.8105768651007463,-5.279106562009619,-0.4539490001022405,1.3684994811866757,-0.8876048025256735,4.95207209390706,1,right
12.309000000000001,-0.33640965047895155,0.7120527836313718,-0.0645653530798855,-2.8649887640516623,-5.312329038130351,-0.45503723413276537,1.3819183543022626,-0.8973251820382457,4.976963749553299,1,right
12.312000000000001,-0.32434499578989096,0.723609994086143,-0.06429467541628818,-2.9183760495142503,-5.341925947621136,-0.4556662727686644,1.3948334010115735,-0.9064287000262179,4.999741042056968,1,right
12.312999999999999,-0.3122373913755731,0.7351255179400523,-0.0639624007825579,-2.9707285346517907,-5.367912469884178,-0.4558254839164603,1.4072355035711557,-0.9148959096252238,5.020389221496524,1,right
12.317,-0.30009328897368664,0.7465934240744123,-0.06356879743712769,-3.0220354311516164,-5.390306255260791,-0.45550474717297257,1.4191158171489804,-0.9227078074546344,5.038894724261846,1,right
12.318,-0.2879193537219153,0.7580079017391963,-0.06311420959172322,-3.072285361218975,-5.409127362232415,-0.454694461017937,1.4304657810378838,-0.9298458548950854,5.055245184288171,1,right
12.323,-0.2757224676136442,0.7693632638641409,-0.0625990582006793,-3.1214663715960036,-5.424398194412556,-0.45338554953970744,1.4412771302670075,-0.9362919989733164,5.069429444503421,1,right
12.323,-0.2635097325461173,0.7806539504731116,-0.062023841734280466,-3.169565949753191,-5.436143437394013,-0.45156946869309744,1.4515419076453506,-0.9420286928767213,5.081437568542059,1,right
12.328,-0.25128847288426714,0.7918745321896982,-0.0613891369501938,-3.2165710423976495,-5.4443899955055155,-0.44923821208701453,1.4612524762700185,-0.9470389161180789,5.091260852772417,1,right
12.329,-0.23906623745017194,0.8030197138140206,-0.0606955996646666,-3.2624680764394594,-5.449166928521693,-0.44638431629810843,1.4704015325302155,-0.9513061943689403,5.098891838678228,1,right
12.333,-0.22685080083312098,0.8140843379428672,-0.05994396551241577,-3.3072429825542287,-5.450505388360176,-0.44300086570519964,1.4789821196364439,-0.9548146189781198,5.104324325628838,1,right
12.334000000000001,-0.2146501639002571,0.8250633885976407,-0.059135050673771776,-3.3508812214768797,-5.44843855578957,-0.4390814968377741,1.4869876417027996,-0.9575488661896457,5.107553384066293,1,right
12.339,-0.20247255337614292,0.8359519948174737,-0.05826975254232243,-3.393367813158473,-5.443001577162115,-0.43462040223033055,1.4944118784086233,-0.9594942160723947,5.108575369131228,1,right
12.34,-0.19032642035560723,0.8467454341708244,-0.05734905030640911,-3.434687368914671,-5.43423150117492,-0.42961233377284874,1.5012490002370182,-0.9606365711814128,5.107387934727687,1,right
12.34,-0.17822043762248674,0.8574391361429797,-0.056374005422250704,-3.4748241266911677,-5.422167215653936,-0.424052605546105,1.5074935841504404,-0.9609624750184791,5.103990047943523,1,right
12.341,-0.16616349566521768,0.8680286853684926,-0.05534576196262012,-3.513761989568102,-5.4068493843451115,-0.4179370961290088,1.513140629317739,-0.9604591304468105,5.098382003597677,1,right
12.341,-0.1541646972949647,0.8785098246844777,-0.054265546828605085,-3.551484567622124,-5.388320383687629,-0.4112622503635635,1.5181855723696847,-0.9591144182622742,5.090565438602106,1,right
12.347000000000001,-0.14223335077382723,0.888878457974459,-0.05313466981111075,-3.5879752232613797,-5.366624239534641,-0.40402508056147124,1.5226243017939776,-0.9569169160713524,5.080543345896999,1,right
12.347999999999999,-0.13037896135838123,0.8991306527623764,-0.05195452348582613,-3.6232171200773684,-5.341806563816342,-0.3962231671449628,1.5264531713231686,-0.9538559175341274,5.068320087850505,1,right
12.349,-0.11861122117017148,0.9092626425164467,-0.05072658292381779,-3.6571932749147593,-5.313914491324585,-0.3878546587636184,1.5296690123028487,-0.9499214519783479,5.053901409085112,1,right
12.352,-0.10693999732058865,0.9192708286322728,-0.049452405200738396,-3.689886612245873,-5.282996617137751,-0.37891827201875133,1.5322691450528523,-0.9451043043782483,5.037294448701865,1,right
12.353,-0.09537531823553505,0.9291517820690111,-0.04813362868835822,-3.721280019593569,-5.249102935389241,-0.3694132909760928,1.5342513892324616,-0.9393960356893006,5.018507751867338,1,right
12.357000000000001,-0.08392735814139521,0.9389022446019748,-0.04677197211049132,-3.751356403082026,-5.212284779880473,-0.35933956659510247,1.5356140732188515,-0.9327890035275789,4.997551280721964,1,right
12.357999999999999,-0.07260641969034913,0.9485191296379131,-0.04536923334417367,-3.7800987428020463,-5.172594766682056,-0.34869751611017763,1.5363560425062341,-0.9252763831798785,4.974436424562015,1,right
12.360999999999999,-0.061422914721857284,0.9579995225274109,-0.043927287949946894,-3.807490148013174,-5.130086738664612,-0.337488122346614,1.5364766671313974,-0.9168521889281771,4.9491760092412855,1,right
12.362,-0.050387343176306706,0.9673406803038588,-0.04244808742049436,-3.8335139122689785,-5.084815711853576,-0.32571293294237935,1.5359758481295482,-0.9075112956694401,4.921784305732328,1,right
12.366,-0.03951027019400554,0.976540030776459,-0.0409336571396497,-3.858153568548043,-5.03683782349409,-0.3133740594451298,1.5348540230225902,-0.8972494608091774,4.892277037780824,1,right
12.367,-0.028802301447916314,0.9855951709053086,-0.03938609404047113,-3.881392944469317,-4.986210281703983,-0.3004741762522719,1.5331121703401827,-0.8860633464045398,4.860671388580587,1,right
12.370999999999999,-0.018274056775187734,0.9945038643925714,-0.03780756393954025,-3.9032162176665373,-4.932991316584907,-0.28701651936024686,1.5307518131721431,-0.8739505415301111,4.826986006390536,1,right
12.372,-0.007936142196053906,1.0032640384371712,-0.03620029850508887,-3.9236079713924847,-4.877240132653932,-0.2730048848875967,1.5277750217489732,-0.8609095848369123,4.791241009008896,1,right
12.377,0.002200879558288205,1.0118737796198605,-0.03456659179633114,-3.942553250419793,-4.819016862450278,-0.2584436273347618,1.5241844150455055,-0.8469399872724728,4.7534579870138876,1,right
12.378,0.012126519847294556,1.0203313289076503,-0.032908796304174544,-3.960037617300972,-4.758382521164432,-0.24333765754195696,1.519983161400901,-0.8320422549271737,4.713660005674166,1,right
12.380999999999998,0.02183039605057639,1.028635075789807,-0.031229318437733588,-3.976047209046193,-4.6953989621296195,-0.22769244030488464,1.5151749781464403,-0.8162179119693955,4.671871605426387,1,right
12.382,0.031302264390203824,1.036783551582714,-0.029530613432198878,-3.9905687942732326,-4.630128833008506,-0.21151399160646447,1.5097641302308111,-0.799469523629342,4.628118800811387,1,right
12.385,0.040532053386880575,1.044775421967858,-0.02781517969112431,-4.003589830879769,-4.562635532501066,-0.19480887542119577,1.5037554278308258,-0.7818007191887463,4.582429077754725,1,right
12.386,0.049509897675336485,1.0526094788538176,-0.02608555261428195,-4.015098524283995,-4.492983167392829,-0.1775842000472216,1.4971542229337669,-0.7632162149310049,4.53483138907158,1,right
12.39,0.05822617189201552,1.0602846316774486,-0.02434429800175082,-4.025083886275235,-4.4212365097561355,-0.1598476139196321,1.489966404875827,-0.7437218370036343,4.485356148070374,1,right
12.390999999999998,0.06667152433468038,1.0677998982800831,-0.022594005165776473,-4.033535794511953,-4.347460954110634,-0.14160730085703246,1.4821983948193913,-0.7233245441423024,4.434035220123935,1,right
12.395999999999999,0.07483691007823022,1.0751543955086238,-0.020837279915728316,-4.040445052700182,-4.271722474343094,-0.12287197469191113,1.4738571391502155,-0.7020324502030592,4.38090191207152,1,right
12.397,0.08271362321766408,1.0823473296972084,-0.019076737596108336,-4.045803451481044,-4.194087580180547,-0.1036508732338726,1.464950101773861,-0.6798548464467796,4.32599095930965,1,right
12.401,0.09029332790239303,1.089377987184516,-0.017314996348471792,-4.049603830051615,-4.11462327300496,-0.0839537515133543,1.4554852552890907,-0.6568022235172392,4.269338510424391,1,right
12.402000000000001,0.09756808782784988,1.0962457250169881,-0.015554670742022976,-4.051840138538975,-4.033397000792021,-0.06379087425202577,1.445471071014272,-0.6328862930516772,4.210982109212515,1,right
12.405,0.10453039385946836,1.1029499619796381,-0.013798365886787749,-4.052507501142809,-3.950476611951141,-0.04317300750467422,1.4349165078412265,-0.6081200088601595,4.150960673933882,1,right
12.405999999999999,0.11117318948307764,1.1094901700827295,-0.012048672115557142,-4.051602280057477,-3.865930307838552,-0.022111409416013732,1.423830999911781,-0.5825175875651638,4.0893144736862,1,right
12.407,0.11748989381586862,1.1158658666122738,-0.01030816029543504,-4.049122140179951,-3.779826593710296,-0.0006178200345190536,1.412224443222878,-0.5560945283784482,4.026085102057651,1,right
12.41,0.12347442197293335,1.1220766068260954,-0.008579377804370384,-4.045066114605543,-3.6922342278770506,0.02129554987592175,1.4001071814664647,-0.5288676313084274,3.961315448692558,1,right
12.41,0.12912120263561092,1.1281219773527809,-0.006864845184112915,-4.039434670908809,-3.6032221688180517,0.0436160310870146,1.3874899915210144,-0.5008550128769937,3.8950496696698638,1,right
12.415,0.13442519269144138,1.1340015903331795,-0.00516705345928781,-4.032229778107855,-3.512859520121536,0.06633050925240883,1.374384068897878,-0.4720761186342547,3.8273331573204046,1,right
12.415,0.13938188883951444,1.139715078329884,-0.003488462092123855,-4.02345497373248,-3.4212154736879583,0.08942543923809027,1.360801013242283,-0.44255173213874494,3.7582125096200327,1,right
12.415,0.1439873361051028,1.1452620900150803,-0.00183149752418672,-4.013115429560205,-3.3283592526597476,0.11288686006535487,1.3467528138751923,-0.4123039802803052,3.6877354990221556,1,right
12.42,0.14823813327459745,1.1506422866281978,-0.00019855223530808414,-4.00121801410645,-3.234360056110605,0.13670040995084526,1.3322518353383983,-0.38135633486299936,3.6159510405352733,1,right
12.421,0.15213143533458928,1.1558553391687476,0.0014080157779359957,-3.987771350423876,-3.139287006950567,0.16085134107440982,1.3173108029038583,-0.34973361036330114,3.5429091588470296,1,right
12.425,0.15566495307578632,1.1609009262597825,0.0029858832260341887,-3.9727858686133146,-3.0432091034679463,0.1853245339679295,1.3019427880069414,-0.3174619577767074,3.4686609542924467,1,right
12.427,0.15883695009374862,1.1657787325923472,0.0045327615846518276,-3.9562738529174486,-2.9461951743528965,0.21010451156445376,1.2861611935619564,-0.2845688544639265,3.3932585674602094,1,right
12.429,0.16164623746958337,1.170488447847289,0.006046397118478125,-3.9382494833586517,-2.8483138369296355,0.23517545297699208,1.2699797391170642,-0.25108308990585565,3.316755142227298,1,right
12.43,0.16409216643896848,1.175029765989207,0.00752457099588362,-3.9187288718779563,-2.7496334583214557,0.26052120707723264,1.253412445804462,-0.21703474727469738,3.2392047870087755,1,right
12.435,0.16617461936148564,1.179402384836893,0.008965099606635066,-3.897730092927753,-2.6502221192699844,0.2861253059453402,1.2364736210405256,-0.18245518072678502,3.160662534006234,1,right
12.436,0.16789399929266569,1.1836060058325695,0.010365835175881973,-3.8752732084664725,-2.55014758032765,0.3119709782628208,1.2191778429294597,-0.14737698832098528,3.0811842962352487,1,right
12.439,0.16925121844626395,1.1876403339559565,0.011724666745595663,-3.8513802872992127,-2.449477250140019,0.3380411627212297,1.2015399443228914,-0.11183398046493473,3.0008268221091714,1,right
12.44,0.17024768581828317,1.1915050777572196,0.013039521571861503,-3.82607541870403,-2.3482781555325687,0.3643185215202393,1.1835749964867766,-0.07586114378984168,2.9196476473537545,1,right
12.445,0.17088529422688156,1.195199949513653,0.01430836696302364,-3.799384720279429,-2.246616913114553,0.3907854540292789,1.1652982923259698,-0.03949460035315641,2.837705044024407,1,right
12.446,0.17116640700146943,1.198724665546616,0.015529212560525538,-3.7713363399444657,-2.144559702110901,0.41742411068760094,1.1467253291158157,-0.0027715620670793716,2.7550579663953614,1,right
12.449000000000002,0.171093844528368,1.2020789467657078,0.01670011304535145,-3.741960452018827,-2.042172238131588,0.44421640721822414,1.1278717906891882,0.034269719750355136,2.6717659934876723,1,right
12.45,0.17067087082829965,1.2052625195338469,0.017819171242392306,-3.7112892473062686,-1.9395197475865589,0.47114403923174775,1.1087535290265087,0.07159000980601114,2.5878892680007737,1,right
12.455,0.169901180302843,1.2082751169664478,0.018884541591707823,-3.6793569171009075,-1.836666942453173,0.4981884972965226,1.0893865451954192,0.1091491493496121,2.5034884314102954,1,right
12.456,0.16878888474543108,1.21111648078752,0.019894433953013133,-3.646199631032038,-1.7336779951021777,0.5253310825521081,1.0697869695859847,0.14690612188525615,2.418624554993003,1,right
12.458,0.16733850067249695,1.213786363864858,0.020847117701929693,-3.6118555086594473,-1.6306165128874532,0.5525529229433304,1.0499710413865373,0.1848191241836103,2.3333590665380255,1,right
12.458,0.16555493699725785,1.2162845335375616,0.021740926064782947,-3.576364584727568,-1.5275455122042012,0.5798349901525924,1.0299550872445598,0.22284564270259263,2.247753672502048,1,right
12.464,0.16344348304504733,1.2186107758341604,0.02257426063153191,-3.5397687679833,-1.4245273917198529,0.6071581173083704,1.0097554990563413,0.2609425355249182,2.16187027536481,1,right
12.464,0.16100979689458061,1.220764900659961,0.023345595991269716,-3.5021117934589228,-1.321623904481766,0.6345030175480549,0.9893887108285131,0.29906611992133086,2.07577088594009,1,right
12.468,0.15825989402211305,1.2227467480092438,0.02405348444978641,-3.4634391681182395,-1.2188961286057485,0.6618503035134704,0.968871174553999,0.33717226564866865,1.9895175303964006,1,right
12.469000000000001,0.15520013622438006,1.2245561952322723,0.024696560805523536,-3.423798109760909,-1.1164044362495977,0.6891805078575233,0.9482193350443877,0.3752164940921105,1.9031721517407965,1,right
12.474,0.15183722080293163,1.2261931653589857,0.0252735471719177,-3.3832374790768958,-1.0142084605761725,0.716474104840492,0.9274496037078083,0.41315408318397784,1.8167965057328685,1,right
12.474,0.14817817000646336,1.2276576364545697,0.02578325783820792,-3.3418077047400283,-0.9123670604110196,0.7437115330944783,0.9065783314987172,0.4509401771461637,1.7304520522669176,1,right
12.475,0.14423032074746045,1.2289496519583922,0.026224604157157327,-3.2995607014269064,-0.8109382823002513,0.7708732196344903,0.8856217816935977,0.48852989850963074,1.644199845188516,1,right
12.479000000000001,0.14000131464070328,1.2300693319246443,0.02659659943539524,-3.2565497806447405,-0.7099793196752198,0.7979396051945207,0.8645961033839935,0.5258784589788638,1.558100424582943,1,right
12.48,0.13549908845812378,1.2310168850294352,0.026898363781065422,-3.212829554249222,-0.609546468831547,0.8248911709668267,0.8435173063402451,0.5629412665939767,1.4722137145016962,1,right
12.482999999999999,0.13073186514005877,1.2317926211497965,0.027129128844965374,-3.1684558305311663,-0.50969508143126,0.8517084668223959,0.8224012374710792,0.599674028236062,1.3865989271650805,1,right
12.484000000000002,0.12570814551652507,1.2323969642849872,0.0272882423901301,-3.123485502922518,-0.41047951342135286,0.8783721410258991,0.8012635588662351,0.6360328474059278,1.3013144736079358,1,right
12.485,0.12043670085792998,1.2328304656003122,0.02737517264386869,-3.0779764322403516,-0.31195307117976356,0.904862971136041,0.7801197273616096,0.6719743173826008,1.2164178805219015,1,right
12.488,0.11492656630128055,1.2330938164227836,0.027389512414175067,-3.0319873249518383,-0.21416795735050403,0.9311618952021226,0.758984975566292,0.7074556098670227,1.1319657130483927,1,right
12.488,0.10918703510295577,1.2331878610704703,0.027330982973163796,-2.9855776108115073,-0.11717521974765692,0.9572500420451329,0.7378742942908019,0.7424345592152956,1.0480135032774185,1,right
12.493,0.10322765356618964,1.2331136094198984,0.027199437706518573,-2.9388073223505025,-0.021024705793777666,0.9831087597332479,0.7168024163158194,0.7768697423646355,0.9646156842084711,1,right
12.494000000000002,0.09705821639138416,1.2328722491077975,0.026994865484295964,-2.8917369771299706,0.07423497668871304,1.0087196419407722,0.6957838014407272,0.8107205545538696,0.8818255289310046,1,right
12.498,0.09068876210558069,1.2324651572364709,0.0267173936281361,-2.844427462799409,0.16855649242844198,1.0340645522010186,0.6748326227513499,0.8439472809388755,0.7996950947834421,1,right
12.499,0.08412956814354894,1.231893911410508,0.02636729026407469,-2.796939924825743,0.2618938056744116,1.059125646127367,0.65396275404639,0.8765111642017969,0.7182751722512494,1,right
12.503,0.07739114508129513,1.231160299884906,0.025944965799170078,-2.7493356567580416,0.3542022014572974,1.0838853916760405,0.6331877583622065,0.9083744682511948,0.6376152383663533,1,right
12.503,0.07048422947420621,1.2302663305686925,0.02545097327393671,-2.7016759928920964,0.44543830141357543,1.1083265875233654,0.6125208775357813,0.9395005381085016,0.5577634143720743,1,right
12.507,0.063419774738063,1.2292142386225315,0.024886007430852584,-2.654022203198583,0.5355600744405178,1.1324323796294768,0.5919750227459498,0.9698538560742456,0.4787664274197818,1,right
12.509,0.05620893954595795,1.2280064924216387,0.024250902478346697,-2.606435390378173,0.6245268424471391,1.1561862760595558,0.5715627659732408,0.9994000942655001,0.4006695760656621,1,right
12.514000000000001,0.04886307331612271,1.2266457977146232,0.02354662866141057,-2.5589763889068187,0.7122992814631012,1.1795721601327767,0.5512963323189851,1.0281061636138997,0.32351669933830696,1,right
12.514000000000001,0.04139369854554986,1.2251350998699557,0.02277428781692921,-2.5117056659344508,0.7988394183643835,1.2025743019681798,0.5311875931246952,1.055940259411343,0.24735014915028203,1,right
12.517999999999999,0.033812489988737975,1.2234775841476435,0.021935108081153426,-2.4646832239005083,0.8841106234712127,1.2251773684956715,0.5112480598331062,1.0828719034881937,0.17221076582941913,1,right
12.519,0.026131250949550756,1.2216766739619631,0.02103043786274068,-2.417968504730097,0.9680775992703166,1.247366431999299,0.4914888785326804,1.1088719831063747,0.09813785654828333,1,right
12.523,0.01836188719471901,1.2197360271155686,0.02006173914629401,-2.3716202954751084,1.0507063655100308,1.2691269772588494,0.4719208251278355,1.1339127866472456,0.025169176433096734,1,right
12.524000000000001,0.010516379166500237,1.2176595299907829,0.019030580184942615,-2.3256966352653476,1.1319642409131419,1.2904449073546682,0.4525543010776382,1.1579680361715758,-0.046659087863651694,1,right
12.527999999999999,0.00260675324863205,1.2154512896880343,0.017938627689905645,-2.280254723435592,1.2118198217486083,1.3113065481994137,0.4333993296462242,1.1810129169262373,-0.11731233233962063,1,right
12.529000000000002,-0.0053549471737205185,1.2131156241139343,0.016787638712922857,-2.2353508286955655,1.290242957499463,1.3316986518592258,0.414465552608753,1.2030241038695013,-0.18675754777759696,1,right
12.532,-0.013356690206339419,1.21065705004926,0.015579452494977315,-2.1910401992110207,1.3672047238602578,1.3516083987255236,0.39576222735728456,1.2239797852839878,-0.25496333004531135,1,right
12.533,-0.0213864829745648,1.208080269270755,0.0143159825635248,-2.1473769734655126,1.4426773932933903,1.3710233985973317,0.3772982243515707,1.2438596835434192,-0.32189988876298536,1,right
12.539000000000001,-0.029432397833125755,1.205390152855587,0.01299920927412001,-2.104414091773981,1.516634403369539,1.3899316907326866,0.3590820248603899,1.2626450730963645,-0.3875390545380404,1,right
12.54,-0.03748259705749687,1.202591723856548,0.011631172841993444,-2.062203208320966,1.5890503231132391,1.4083217429262969,0.3411217189397158,1.280318795727129,-0.45185428496284136,1,right
12.542,-0.045525355941808204,1.199690138593056,0.010213966761607305,-2.0207946035981412,1.6599008175703545,1.4261824496691984,0.32342500359469384,1.2968652731508592,-0.5148206695677052,1,right
12.542,-0.05354908431045789,1.1966906668468882,0.008749731423325354,-1.9802370971178511,1.7291626108098457,1.4435031294447063,0.30599918108716817,1.3122705169962636,-0.5764149338725111,1,right
12.543,-0.061542346492907844,1.1935986712605697,0.00724064772502566,-1.9405779602815039,1.79681344756782,1.4602735212134648,0.2888511574215042,1.326522136223506,-0.6366154424506046,1,right
12.548,-0.06949387982944034,1.190419586208038,0.005688930523501746,-1.9018628292839668,1.862832053737341,1.47648378013888,0.2719874411686929,1.3396093420168333,-0.6954022005082924,1,right
12.548,-0.07739261179551946,1.187158896389835,0.004096821835322344,-1.8641356179375541,1.9271980959029291,1.4921244726026728,0.25541414285977176,1.3515229501855723,-0.7527568532534388,1,right
12.550999999999998,-0.08522767586815587,1.1838221154310475,0.0024665837527768123,-1.8274384304033386,1.9898921401646197,1.507186570578178,0.23913697511012366,1.3622553811064682,-0.8086626825485241,1,right
12.552999999999999,-0.09298842629191492,1.1804147647788281,0.0008004910842694337,-1.791811474328022,2.050895610744697,1.5216614455247335,0.22316125351054553,1.3718006572417611,-0.8631046007459882,1,right
12.552999999999999,-0.10066445191810339,1.176942353160726,-0.0008991762423556462,-1.7572929758014761,2.1101907493207017,1.5355408621400877,0.20749189825154282,1.3801543982666833,-0.9160691418254158,1,right
12.555,-0.10824558931137354,1.1734103568182188,-0.0026301409619809697,-1.723919098060822,2.1677605762764225,1.5488169724034155,0.1921334364341009,1.3873138138371917,-0.967544449993138,1,right
12.559000000000001,-0.11572193536494141,1.1698242007203647,-0.004390136384785579,-1.6917238653621853,2.2235888548048246,1.561482310242522,0.17709000502105005,1.3932776940253495,-1.0175202659006153,1,right
12.56,-0.12308385971028672,1.1661892409639782,-0.006176914387529958,-1.6607390925304049,2.2776600583367115,1.5735297869818856,0.16236535438401964,1.398046397446349,-1.0659879106337293,1,right
12.564,-0.13032201721200215,1.1625107485396422,-0.00798825343968287,-1.6309943201924502,2.3299593415110467,1.584952687629138,0.14796285240187054,1.4016218370977385,-1.1129402676208386,1,right
12.565,-0.13742736080130688,1.1587938945927814,-0.009821966621803235,-1.6025167556021327,2.380472514847286,1.5957446680363423,0.1338854890673969,1.4040074639279874,-1.1583717626031436,1,right
12.569,-0.14439115483833323,1.1550437372567677,-0.01167590958051997,-1.575331218967159,2.4291860232750193,1.6058997529706707,0.12013588156000533,1.4052082481480945,-1.2022783418065823,1,right
12.569,-0.15120498911577057,1.151265210087415,-0.013547988341712027,-1.5494600951931392,2.4760869286711342,1.6154123351272787,0.10671627974300324,1.4052306582965168,-1.2446574484501265,1,right
12.573,-0.15786079353272087,1.1474631120841208,-0.015436166881834655,-1.5249232909627912,2.521162896549576,1.6242771751153684,0.09362857204506124,1.4040826380642837,-1.2855079977209798,1,right
12.575,-0.1643508533830695,1.1436420992423382,-0.01733847434373276,-1.5017381970722987,2.564402187043628,1.6324894024465963,0.08087429168635574,1.401773580883756,-1.324830350342807,1,right
12.579,-0.1706678251218088,1.1398066775490512,-0.019253011778441752,-1.4799196559505388,2.605793650315415,1.6400445175531502,0.06845462321084482,1.3983143022811164,-1.3626262848587343,1,right
12.579,-0.17680475240002688,1.1359611973139594,-0.021177958296111705,-1.4594799342907312,2.6453267265220908,1.6469383948609428,0.056370409287083194,1.393717009989312,-1.398898968746475,1,right
12.583,-0.1827550820991537,1.1321098487277113,-0.023111576513423753,-1.4404287007279384,2.68299145046291,1.6531672869415082,0.04462215774093888,1.3879952718148383,-1.4336529284785462,1,right
12.585,-0.18851268005191318,1.1282566585514118,-0.025052217186743338,-1.4227730084997616,2.718778461026059,1.6587278297642938,0.03321004878453554,1.3811639812484526,-1.4668940186361612,1,right
12.589,-0.19407184611448422,1.124405487859928,-0.02699832291890692,-1.4065172830315367,2.752679015548797,1.6636170490691486,0.02213394240670638,1.3732393208066416,-1.4986293901810093,1,right
12.59,-0.1994273282530798,1.1205600307760328,-0.028948430830984317,-1.391663314391316,2.784685009199089,1.6678323678768872,0.011393385891210694,1.364238723087436,-1.5288674579847759,1,right
12.595,-0.20457433532781275,1.1167238141381028,-0.030901174108611935,-1.378210254563924,2.814788999481518,1.6713716151539018,0.0009876214299286382,1.354180829520984,-1.5576178677119075,1,right
12.595999999999998,-0.2095085482933816,1.1129001980408233,-0.032855282364970144,-1.3661546194973955,2.8429842359648396,1.6742330356448643,-0.009084406200785341,1.343085446792155,-1.5848914621468095,1,right
12.597999999999999,-0.21422612958210346,1.1090923771791212,-0.034809580798416694,-1.3554902958791204,2.8692646953231193,1.6764153008856173,-0.01882404193144686,1.3309735009093553,-1.6107002470523641,1,right
