time,gFx,gFy,gFz,ax,ay,az,wx,wy,wz,subject_number,foot
6.646,0.37835877976353727,1.0599823182920316,-0.12384293986963842,3.053642047878624,4.123931636706691,1.1230162232999747,-0.08467692307609435,-0.5978297298155839,1.8360055927114984,2,left
6.647,0.37531571913176986,1.0547727006306131,-0.12534401703081485,3.0711926374832825,4.106997319704998,1.10075980474263,-0.08542754610568391,-0.5698748328870108,1.8442785058886053,2,left
6.65,0.37200084584756643,1.0496587491439997,-0.12682650262264888,3.0899265402684457,4.088465040594002,1.077956832152678,-0.08597510184203015,-0.5416972276998938,1.8511148520010055,2,left
6.651,0.3684208411807127,1.0446408118011214,-0.1282911118083314,3.10976848918257,4.068378282700768,1.054614103418601,-0.08632937004889206,-0.5133244259973889,1.8565485930064558,2,left
6.654,0.3645829057472205,1.0397190867053643,-0.12973847999471053,3.130639514066924,4.046780613185328,1.0307391836230826,-0.08650013032452632,-0.48478393851717866,1.8606145471183657,2,left
6.655,0.360494734355548,1.0348936308525707,-0.13116914879565603,3.1524571041178406,4.023715645405024,1.006340399703088,-0.08649714702125226,-0.45610321934453346,1.863348328097713,2,left
6.659,0.3561644900051331,1.0301643688624933,-0.13258355368547065,3.1751353834182954,3.999227002761872,0.9814268323487126,-0.08633015442957169,-0.42730960874167073,1.864786284360596,2,left
6.66,0.35160077720474875,1.0255311016884745,-0.13398201345851768,3.1985852995986,3.973358283971026,0.9560083050722361,-0.08600884223225694,-0.3984302744629612,1.8649654379351377,2,left
6.6610000000000005,0.34681261477471487,1.0209935152806247,-0.13536472154974424,3.222714825688683,3.9461530296841496,0.9300953703773074,-0.08554284125782918,-0.36949215202252,1.8639234234074242,2,left
6.664,0.3418094082823767,1.016551189161378,-0.13673173922689755,3.2474291752269338,3.917654690397455,0.9036992929567133,-0.08494170960649217,-0.3405218852037048,1.8616984271900647,2,left
6.665,0.3366009222557483,1.0122036048644545,-0.1380829906328349,3.272631030692765,3.8879065955701853,0.8768320298457315,-0.08421491924565094,-0.3115457685571874,1.8583291275531388,2,left
6.671,0.33119725234627173,1.0079501541818754,-0.1394182596254689,3.2982207853320133,3.856951923875481,0.8495062074566522,-0.08337184314722174,-0.2825896931767049,1.8538546357439956,2,left
6.672000000000001,0.3256087976465997,1.0037901471631943,-0.14073718833113943,3.3240967984459697,3.8248336745018525,0.8217350954186654,-0.08242174299443585,-0.25367909621819407,1.848314438321347,2,left
6.672000000000001,0.31984623337991547,0.9997228198230211,-0.14203927730038535,3.3501556638991885,3.791594639436288,0.7935325772239522,-0.08137375746097163,-0.2248389141706029,1.84174834071602,2,left
6.675,0.3139204841545427,0.9957473415322496,-0.14332388714343333,3.3762924900173057,3.757277376738482,0.7649131180694783,-0.08023689106001267,-0.19609353979525132,1.834196412005598,2,left
6.676,0.30784269793459323,0.9918628220864254,-0.14459024152693023,3.402401186193734,3.721924184959846,0.7358917309846602,-0.07902000356052222,-0.16746678265074197,1.8256989308871203,2,left
6.68,0.30162422084291907,0.9880683184618427,-0.1458374314114033,3.428374749939568,3.6855770789396516,0.7064839427238124,-0.07773179996774288,-0.13898183312062362,1.8162963328290656,2,left
6.68,0.29527657290095327,0.9843628412913298,-0.14706442038521386,3.454105549696336,3.648277767125637,0.6767057605111122,-0.07638082106467459,-0.11066122986128038,1.8060291583810093,2,left
6.684,0.2888114247968134,0.9807453611158181,-0.14827005092663514,3.479485601584273,3.6100676304159482,0.646573640022712,-0.07497543451105394,-0.08252683058785988,1.7949380026166355,2,left
6.685,0.2822405757321547,0.9772148144878793,-0.14945305142729975,3.5044068398434858,3.570987702434464,0.6161044545995498,-0.07352382649615259,-0.05459978611645938,1.7830634656831714,2,left
6.689,0.2755759323343886,0.9737701100141315,-0.15061204383671878,3.528761381041699,3.531078651132444,0.5853154656053466,-0.07203399394153161,-0.026900517581259085,1.7704461044278463,2,left
6.689,0.2688294885514769,0.9704101344218498,-0.15174555182694938,3.5524417821212486,3.4903807616068216,0.5542242938432671,-0.0705137372497324,0.0005513032541743077,1.7571263850695928,2,left
6.694,0.26201330638310494,0.9671337587207458,-0.15285200942110758,3.575341292356696,3.4489339200229727,0.5228488919437485,-0.06897065359475102,0.027736770671596717,1.74314463688197,2,left
6.695,0.25513949725115986,0.9639398445069512,-0.153929770071578,3.5973540992927875,3.406777598527383,0.49120751763509046,-0.06741213075003302,0.0546377587383388,1.7285410068511462,2,left
6.6979999999999995,0.24822020377822057,0.9608272504279,-0.15497711620468457,3.618375568730559,3.3639508410333994,0.4593187078075244,-0.0658453414496378,0.08123693219192206,1.7133554152707693,2,left
6.699,0.24126758172691484,0.9577948387981089,-0.15599226926286267,3.6383024788271436,3.3204922497610734,0.4272012532806708,-0.06427723827815544,0.10751775454709657,1.6976275122336373,2,left
6.705,0.23429378185427757,0.9548414823283274,-0.15697340027361595,3.65703324837229,3.2764399724100857,0.39487417418352727,-0.06271454908491449,0.13346449350254225,1.68139663497831,2,left
6.707000000000001,0.22731093144958697,0.951966070904448,-0.15791864096206168,3.674468159301761,3.231831689842799,0.36235669585541747,-0.06116377291799446,0.15906222372361042,1.6647017660471206,2,left
6.709,0.22033111534673777,0.9491675183295891,-0.15882609540595877,3.6905095735046385,3.1867046041526828,0.32966822517567945,-0.05963117647355297,0.18429682707656972,1.6475814922104886,2,left
6.709,0.21336635622966024,0.9464447689258918,-0.1596938522096628,3.705062143978126,3.1410954269916354,0.2968283272292666,-0.0581227910559921,0.20915499038886196,1.630073964110992,2,left
6.715,0.20642859408019895,0.9437968038841782,-0.16051999714357965,3.7180330203797305,3.095040368028137,0.2638567022148894,-0.05664441004452283,0.23362420080887325,1.6122168565793216,2,left
6.716,0.19952966465174027,0.9412226472513049,-0.16130262615768304,3.7293320490226916,3.048575123406677,0.23077316250183383,-0.05520158686173753,0.2576927388376839,1.5940473295730195,2,left
6.718,0.19268127688816705,0.9387213714582892,-0.162039858637128,3.738871967356271,3.0017348640775063,0.1975976097411603,-0.053799633439869904,0.28134966910418097,1.575601989687786,2,left
6.72,0.18589498924576967,0.936292102317506,-0.16272985073300378,3.7465685929679724,2.954554223864493,0.16435001193660517,-0.05244361918050735,0.30458482895380184,1.5569168521901369,2,left
6.724,0.17918218491577215,0.933934023451666,-0.16337080857725217,3.75234100713995,2.9070672871376675,0.13105038038018915,-0.051138370403622395,0.32738881492002775,1.5380273035192957,2,left
6.725,0.17255404598823249,0.9316463801548539,-0.1639610011817326,3.7561117329868456,2.8593075759559805,0.09771874635727018,-0.04988847028190657,0.3497529671465652,1.5189680642054058,2,left
6.728,0.16602152664427258,0.9294284827203166,-0.16449877283074166,3.7578069081969776,2.8113080365448044,0.06437513752557264,-0.04869825925652171,0.3716693518269435,1.4997731521504647,2,left
6.729,0.15959532550651281,0.9272797092952145,-0.16498255480371415,3.757356452393308,2.7631010249718364,0.031039553872574996,-0.04757183592727018,0.39313074175770446,1.4804758462618781,2,left
6.729,0.1532858573008605,0.9251995083324266,-0.16541087630598741,3.754694229124853,2.7147182918842683,-0.002268056844453723,-0.04651305839405019,0.4141305952535185,1.4611086506484776,2,left
6.732,0.14710322398202086,0.9231874007039411,-0.16578237453220315,3.749758202493263,2.6661909661694074,-0.035527824271513096,-0.04552554599730459,0.4346630339474387,1.441703259985246,2,left
6.733,0.14105718548140966,0.9212429815338894,-0.1660958038278788,3.7424905884131277,2.6175495374003326,-0.06871998133974719,-0.04461268138906017,0.4547228201516184,1.4222905268731332,2,left
6.7379999999999995,0.13515713027644824,0.9193659218128942,-0.16635004394337313,3.7328380004982296,2.5688238369276553,-0.10182489095177837,-0.04377761288264265,0.4743053342990725,1.402900431799706,2,left
6.74,0.12941204602757667,0.9175559698598968,-0.16654410739228545,3.720751590455919,2.5200430175673074,-0.1348230735132952,-0.043023257058685,0.49340655270956213,1.3835620559094772,2,left
6.74,0.12383049053618118,0.9158129526901788,-0.16667714593444283,3.7061871823474917,2.471235532280222,-0.16769523507695874,-0.04235230162155475,0.512023025767903,1.3643035565722978,2,left
6.744,0.11842056324195768,0.9141367773318334,-0.1667484562026159,3.6891053991338993,2.4224291130428535,-0.20042229537307252,-0.04176720850380771,0.5301518565709445,1.3451521456941744,2,left
6.745,0.11318987745348713,0.9125274321189767,-0.16675748448828207,3.6694717794015568,2.3736507515535847,-0.23298541472761716,-0.04127021721650681,0.5477906800980851,1.3261340707150158,2,left
6.747999999999999,0.10814553352533579,0.9109849879816663,-0.16670383070178635,3.6472568826734877,2.324926682973736,-0.2653660191414274,-0.04086334844348381,0.5649376429587962,1.3072745982380432,2,left
6.749,0.1032940932305002,0.9095095997429284,-0.16658725152447512,3.6224363826355366,2.276282373098556,-0.29754582329624113,-0.04054840787786804,0.5815913837692314,1.2885980002359056,2,left
6.752000000000001,0.09864155559090784,0.9081015074182927,-0.16640766276876162,3.594991148117661,2.2277425089073875,-0.3295068515264181,-0.0403269902994586,0.597751014208586,1.2701275427789198,2,left
6.754,0.09419333442328834,0.9067610374958657,-0.16616514095448415,3.5649073117664285,2.179330992353083,-0.3612314568493098,-0.040200483891775315,0.6134161008044654,1.2518854772313088,2,left
6.757999999999999,0.08995423784871798,0.9054886041588723,-0.16585992409826375,3.5321763263373818,2.131070937250991,-0.3927023381466852,-0.040170074797886965,0.6285866474950994,1.233893033861836,2,left
6.757999999999999,0.08592845000440891,0.9042847103992014,-0.1654924117001873,3.4967950085284007,2.0829846691281166,-0.42390255558899104,-0.04023675191438377,0.6432630790148263,1.2161704178158221,2,left
6.763,0.08211951518330417,0.9031499489610939,-0.16506316390475784,3.4587655702676035,2.035093727893436,-0.4548155443935448,-0.04040131192313335,0.6574462251478453,1.1987368073961882,2,left
6.763999999999999,0.07853032460982763,0.9020850030503889,-0.164572899816859,3.418095637361775,1.9874188731907687,-0.48542512700703194,-0.04066436456073475,0.6711373058938231,1.181610354601876,2,left
6.767,0.0751631060379701,0.9010906467480542,-0.1640224949683757,3.3747982554036717,1.9399800922961226,-0.5157155238019008,-0.04102633812586398,0.6843379175875139,1.1648081878727798,2,left
6.767,0.07201941632915371,0.9001677450768636,-0.1634129779496808,3.3288918828289766,1.892796610421974,-0.5456713623754258,-0.04148748522498501,0.6970500200131426,1.1483464169911444,2,left
6.772,0.06910013713118923,0.8993172536844573,-0.1627455262353277,3.280400371006094,1.8458869032915692,-0.5752776855393382,-0.042047888757182884,0.7092759245528845,1.1322401400902649,2,left
6.773,0.06640547373734322,0.8985402181220445,-0.16202146124348663,3.229352931234448,1.7992687118470116,-0.6045199580870063,-0.04270746813915936,0.721018283407367,1.1165034527222584,2,left
6.777,0.06393495715844122,0.897837772715188,-0.1612422426754265,3.175784088519459,1.752959058955625,-0.6333840724241904,-0.04346598577171592,0.7322800799247183,1.1011494589376465,2,left
6.778,0.061687449393579424,0.8972111390404777,-0.16040946218576688,3.119733621984944,1.7069742679798778,-0.6618563531483895,-0.04432305374933394,0.7430646200732888,1.086190284330513,2,left
6.782,0.05966115183907354,0.8966616240357749,-0.1595248364373463,3.061246491776392,1.6613299830769785,-0.689923560660757,-0.04527814081474644,0.7533755250917854,1.0716370910040542,2,left
6.7829999999999995,0.05785361673317482,0.896190617778848,-0.15859019959849047,3.000372752301296,1.616041191095143,-0.7175728938934729,-0.04633057956067924,0.763216725349178,1.0575000944124442,2,left
6.787999999999999,0.05626176149761951,0.8957995909703063,-0.15760749534718071,2.9371674516456228,1.5711222449344677,-0.7447919922343392,-0.04747957388122295,0.772592455445366,1.04378858203606,2,left
6.787999999999999,0.05488188580667757,0.8954900921551232,-0.1565787684551343,2.8716905169985116,1.526586888241316,-0.7715689367291985,-0.048724206675577655,0.7815072505822361,1.0305109338482876,2,left
6.792000000000001,0.05370969118774299,0.895263744715161,-0.1555061560317651,2.804006625910446,1.4824482813061446,-0.7978922506415798,-0.050063447807192275,0.7899659442333882,1.017674644533312,2,left
6.792999999999999,0.05274030293175097,0.895122243663475,-0.1543918785118007,2.734185063203458,1.438719028035761,-0.8237508994477384,-0.05149616232159729,0.7979736671394759,1.0052863474155211,2,left
6.797000000000001,0.05196829406738044,0.8950673522694267,-0.15323823047103535,2.6622995633454027,1.3954112038721014,-0.8491342903439886,-0.05302111892650401,0.8055358476547816,0.9933518400623995,2,left
6.797999999999999,0.05138771113801576,0.8951008985404573,-0.15204757135011052,2.5884281380940166,1.352536384530759,-0.8740322713419245,-0.05463699872921314,0.8126582134272492,0.9818761115013152,2,left
6.7989999999999995,0.05099210153061972,0.8952247715801638,-0.15082231615315395,2.5126528892103406,1.3101056754336646,-0.8984351300257926,-0.05634240418263229,0.8193467941824797,0.9708633708782454,2,left
6.8,0.050774542140775515,0.8954409178335143,-0.14956492617002332,2.435059806035164,1.2681297417115318,-0.9223335920449117,-0.05813586811224689,0.8256079250021415,0.9603170771832078,2,left
6.801,0.05072766918180331,0.8957513372210811,-0.1482778997586746,2.3557385477164563,1.2266188386529266,-0.9457188194126469,-0.060015862652638814,0.8314482492755577,0.9502399695548287,2,left
6.806,0.05084370893547524,0.8961580791565887,-0.14696376322223123,2.2747822101754247,1.185582842490904,-0.9685824086860415,-0.06198080796641516,0.8368747207124154,0.9406340977914632,2,left
6.808,0.05111450923388858,0.8966632384366705,-0.14562506181482957,2.1922870794192852,1.1450312814835408,-0.9909163891188721,-0.06402908069788267,0.8418946041820868,0.931500852902193,2,left
6.808,0.05153157148803295,0.8972689509890998,-0.14426435090457967,2.1083523755500857,1.1049733673613595,-1.0127132209156162,-0.06615902215806285,0.8465154753542657,0.9228409976460256,2,left
6.811,0.05208608310738245,0.8979773894639832,-0.14288418731683958,2.023079993339895,1.0654180272800835,-1.033965793732432,-0.0683689462466891,0.8507452191565265,0.9146546970317052,2,left
6.811,0.052768950152630084,0.8987907586493883,-0.1414871208824254,1.9365742437125917,1.0263739363544726,-1.054667425549623,-0.07065714711706636,0.8545920270632413,0.9069415487518978,2,left
6.816,0.05357083004771344,0.8997112906909754,-0.14007568621983638,1.8489415977221533,0.9878495507350756,-1.0748118620023173,-0.0730219065899085,0.8580643932291492,0.8997006135268728,2,left
6.817,0.05448216417457742,0.9007412400982711,-0.13865239478324698,1.7602904330878337,0.9498531411271,-1.0943932762344235,-0.07546150132249808,0.8611711094797414,0.892930445334166,2,left
6.821000000000001,0.05549321018444421,0.9018828785283253,-0.1372197272088543,1.670730783037958,0.9123928266392545,-1.113406269335319,-0.07797420973973862,0.8639212591695372,0.8866291215020613,2,left
6.822,0.056594073873463796,0.9031384893475651,-0.13578012599150344,1.5803740872108147,0.875476608851913,-1.1318458714171291,-0.08055831873388843,0.866324209918241,0.8807942726460882,2,left
6.8260000000000005,0.05777474048590245,0.904510361981762,-0.1343359885212168,1.4893329443582162,0.8391124059954609,-1.1497075433888349,-0.08321213013998106,0.8683896052337252,0.875423112429081,2,left
6.827000000000001,0.059025105324462784,0.9060007860711413,-0.1328896605070639,1.3977208665946876,0.8033080871312303,-1.1669871794818223,-0.08593396699414681,0.8701273550297611,0.8705124671266944,2,left
6.831,0.06033500356489913,0.9076120454530663,-0.1314434298149339,1.305652034932951,0.7680715062289906,-1.183681110579831,-0.08872217958225496,0.8715476250454196,0.8660588049816057,2,left
6.832000000000001,0.06169423919095828,0.9093464119982883,-0.12999952074455798,1.2132410558444162,0.7334105360365454,-1.1997861084046086,-0.09157515128649739,0.8726608251720988,0.8620582653309683,2,left
6.836,0.06309261298550448,0.9112061393278896,-0.1285600887668938,1.1206027185817455,0.6993331016385961,-1.2152993906069,-0.09449130423772825,0.8734775966931907,0.8585066874930012,2,left
6.836,0.06451994953364883,0.9131934564374238,-0.12712721573486405,1.0278517529992495,0.6658472136036662,-1.2302186268107245,-0.09746910478156687,0.87400879844049,0.8553996393999113,2,left
6.841,0.06596612321321367,0.9153105612542317,-0.12570290556994027,0.9351025876058897,0.6329610006195292,-1.2445419456571967,-0.10050706876645571,0.8742654918705648,0.8527324459656485,2,left
6.8420000000000005,0.06742108316674635,0.9175596141541732,-0.1242890804162307,0.8424691075850108,0.600682741519264,-1.2582679428924561,-0.10360376666204782,0.8742589250634613,0.8505002171782812,2,left
6.845,0.06887487726715522,0.919942731463434,-0.12288757724370893,0.7500644125145982,0.5690208966017568,-1.2713956905425572,-0.10675782851647467,0.87400051564529,0.8486978759080541,2,left
6.846,0.07031767510499387,0.9224619789679408,-0.12150014487359469,0.658000573521863,0.5379841381521974,-1.2839247472164634,-0.1099679487612188,0.8735018326354571,0.8473201854234589,2,left
6.85,0.07173979003818814,0.9251193654474309,-0.12012844139211439,0.5663883896062877,0.5075813800698579,-1.2958551695765779,-0.1132328908724843,0.8727745772185443,0.8463617766088924,2,left
6.851,0.07313170035333266,0.9279168362447784,-0.11877403191430781,0.47533714286591855,0.47782180651221895,-1.3071875250145186,-0.11655149189812278,0.8718305624401227,0.8458171748787143,2,left
6.855,0.07448406959134257,0.9308562668749105,-0.11743838665833083,0.3849543523626691,0.4487148994663008,-1.317922905568134,-0.11992266685933459,0.8706816918250903,0.8456808267837335,2,left
6.855,0.0757877660895671,0.933939456672728,-0.11612287929445184,0.29534552636369305,0.420270465159881,-1.32806294311403,-0.12334541303652145,0.8693399369164718,0.84594712630736,2,left
6.861000000000001,0.07703388178737612,0.9371681224773973,-0.11482878554235303,0.20661391269749058,0.39249865922712746,-1.337609825868168,-0.12681881414882204,0.8678173137319927,0.8466104408498453,2,left
6.862,0.07821375033344563,0.9405438923507914,-0.113557282005011,0.11886024696533157,0.36541001054505134,-1.3465663162253763,-0.13034204443701267,0.8661258581351534,0.8476651369002053,2,left
6.8660000000000005,0.07931896452260348,0.9440682993284111,-0.11230944524486092,0.03218249835079418,0.339015443659089,-1.3549357699669091,-0.1339143726596039,0.8642776001169765,0.8491056053965832,2,left
6.867000000000001,0.08034139307986868,0.9477427752012981,-0.11108625112242622,-0.05332438722726571,0.313326299718054,-1.3627221568634869,-0.13753516601210924,0.8622845369840765,0.8509262867769415,2,left
6.867999999999999,0.08127319680036535,0.9515686443284351,-0.10988857442386905,-0.13756874687019668,0.2883543558406654,-1.3699300826995506,-0.14120389397165645,0.8601586054829171,0.8531216957010052,2,left
6.872000000000001,0.08210684404785146,0.9555471174808577,-0.10871718880152903,-0.22046246361228286,0.26411184283785066,-1.3765648127427872,-0.14492013202950602,0.8579116530631563,0.8556864453149968,2,left
6.872999999999999,0.08283512561266403,0.9596792857201724,-0.10757276704394385,-0.3019212327361653,0.24061146121705143,-1.3826322966812983,-0.14868356520263623,0.8555554087948368,0.8586152707329171,2,left
6.874,0.08345116893050702,0.9639661143147386,-0.10645588168377221,-0.3818648313040779,0.21786639540910618,-1.388139194963307,-0.1524939911759455,0.8531014546272876,0.8619030512987149,2,left
6.875,0.08394845166435352,0.9684084366966849,-0.10536700594655721,-0.46021738857066624,0.1958903262218073,-1.3930929060435109,-0.1563513229665062,0.8505611975037599,0.8655448313052377,2,left
6.876,0.08432081465170559,0.9730069484629391,-0.1043065150402534,-0.5369076510807678,0.17469744163693193,-1.397501593266112,-0.16025559107298457,0.8479458425332429,0.869535839045782,2,left
6.88,0.08456247421878797,0.9777622014226449,-0.10327468778444632,-0.6118692341077041,0.15430244613114416,-1.4013742096838127,-0.1642069451132231,0.8452663672471284,0.8738715041855772,2,left
6.881,0.08466803386238171,0.9826745976903677,-0.102271708579908,-0.685040853226562,0.134720568641949,-1.4047205195396166,-0.16820565496106699,0.8425334969334526,0.8785474734636575,2,left
6.885,0.08463249529816005,0.9877443838212284,-0.10129766972177147,-0.7563665336704474,0.11596756919156105,-1.4075511159091516,-0.17225211139365068,0.8397576810412217,0.8835596247365751,2,left
6.885,0.08445126886988912,0.9929716449833562,-0.10035257405937517,-0.8257957972562266,0.0980597441224165,-1.4098774344288356,-0.1763468262604963,0.8369490706471543,0.8889040793764019,2,left
6.888999999999999,0.08412018330643217,0.9983562991649504,-0.09943633800151666,-0.893283827089841,0.08101392988810904,-1.4117117631195197,-0.18049043218591204,0.8341174969770039,0.8945772130364422,2,left
6.888999999999999,0.0836354948047923,1.0038980914165379,-0.09854879485854516,-0.9587916102559798,0.06484750534591247,-1.4130672483137667,-0.184683681816316,0.8312724509735154,0.9005756647990478,2,left
6.894,0.08299389540923172,1.0095965881331936,-0.09768969850376956,-1.0222860586914724,0.04957839249948157,-1.4139578966934707,-0.18892744662425,0.8284230639029648,0.9068963447208812,2,left
6.895,0.08219252065000344,1.0154511713866423,-0.09685872732830268,-1.0837401084361875,0.035225055642801074,-1.4143985734431197,-0.19322271528098828,0.8255780889921699,0.9135364397919157,2,left
6.898,0.08122895640074201,1.0214610333234633,-0.09605548845761562,-1.1431327974495566,0.021806498858979072,-1.4144049965226235,-0.19757059160978893,0.8227458840878195,0.9204934183253971,2,left
6.899,0.08010124490991367,1.0276251706523982,-0.09527952219533387,-1.2004493221750643,0.009342261830060816,-1.4139937270622969,-0.20197229213198212,0.8199343953299512,0.9277650327969227,2,left
6.904,0.07880788995811375,1.0339423792487648,-0.09453030666069545,-1.255681073029202,-0.002147586083329546,-1.4131821558812987,-0.20642914321823547,0.8171511418314256,0.9353493211517012,2,left
6.905,0.07734786109138418,1.0404112489048414,-0.09380726258883303,-1.3088256489854742,-0.012642453531025149,-1.411988486129582,-0.21094257785749054,0.8144032013552768,0.9432446065999806,2,left
6.909,0.07572059688391679,1.047030158251361,-0.09310975826256294,-1.3598868514180897,-0.022121236666793682,-1.4104317120522092,-0.21551413205621758,0.8116971969818795,0.9514494959215238,2,left
6.91,0.07392600719215356,1.0537972698692568,-0.09243711453939192,-1.4088746573640054,-0.030562330479218667,-1.4085315938737406,-0.22014544088079532,0.8090392847579521,0.9599628763009201,2,left
6.914,0.07196447437474074,1.0607105256056772,-0.09178860993419137,-1.4558051723559933,-0.03794364199008825,-1.40630862879931,-0.2248382341559848,0.8064351423195146,0.9687839107164073,2,left
6.915,0.06983685346567632,1.067767642104925,-0.09116348572212529,-1.5007005629734427,-0.04424260534747495,-1.403784018127954,-0.22959433183263359,0.8038899584810436,0.9779120319057756,2,left
6.917999999999999,0.06754447129780375,1.0749661065626785,-0.09056095103498589,-1.5435889692516596,-0.04943619883770783,-1.4009796304727855,-0.23441563903791882,0.8014084237831985,0.9873469349338057,2,left
6.919,0.06508912457967254,1.0823031727104597,-0.0899801879276434,-1.5845043970845305,-0.05350096383739298,-1.3979179610816674,-0.2393041408216142,0.7989947219916514,0.9970885683865807,2,left
6.9239999999999995,0.06247307693300614,1.0897758570361904,-0.08942035638356918,-1.6234865907495828,-0.05641302572352807,-1.3946220872511803,-0.24426189661204764,0.796652522539717,1.0071371242188956,2,left
6.925,0.05969905490345601,1.0973809352449448,-0.08888059921360744,-1.6605808856787205,-0.058148116756580014,-1.3911156198258798,-0.24929103439560446,0.7943849739076636,1.0174930262818662,2,left
6.928999999999999,0.0567702429645927,1.1051149389619592,-0.08836004679147846,-1.6958380415922658,-0.058681600948151634,-1.387422650774096,-0.25439374463382397,0.7921946979317807,1.028156917558724,2,left
6.93,0.05369027754198492,1.1129741526786574,-0.08785782156997408,-1.7293140561083813,-0.057988500921550314,-1.3835676968308588,-0.25957227393233623,0.7900837850364781,1.039129646137664,2,left
6.933,0.05046324008793065,1.1209546109423123,-0.08737304233188233,-1.7610699589345493,-0.05604352677019025,-1.3795756391979253,-0.26482891847609086,0.7880537903829119,1.0504122499514983,2,left
6.933,0.0470936492368662,1.1290520957904382,-0.08690482814361196,-1.7911715867425149,-0.05282110691530697,-1.3754716592903546,-0.27016601724538025,0.7861057309301043,1.062005940323403,2,left
6.934,0.04358645206710475,1.1372621344319032,-0.08645230199230644,-1.8196893388229851,-0.048295420960938557,-1.3712811705186116,-0.2755859450265691,0.7842400834160458,1.0739120844022105,2,left
6.938,0.039947014489232956,1.145579997178368,-0.08601459409673512,-1.84669791361146,-0.04244043454053112,-1.367029746094782,-0.28109110523021197,0.7824567832868157,1.0861321866494709,2,left
6.939,0.03618111078221206,1.1540006956297864,-0.08559084488921435,-1.8722760261718137,-0.035229936145855706,-1.362743042851165,-0.2866839225286649,0.780755224613281,1.0986678695846734,2,left
6.944,0.032294912307733147,1.1625189811143664,-0.0851802076716915,-1.8965061071142364,-0.02663757591892243,-1.3584467211841733,-0.29236683532634145,0.7791342610238826,1.111520853952647,2,left
6.945,0.028294975442252655,1.1711293433806234,-0.08478185095348974,-1.9194739853924168,-0.016636906352472405,-1.3541663618608368,-0.29814228807746435,0.7775922076619306,1.124692938400172,2,left
6.946000000000001,0.0241882287666831,1.1798260095409805,-0.08439496048069832,-1.941268560971428,-0.0052014247844192835,-1.3499273815493094,-0.30401272346722336,0.7761268441647738,1.138185978706475,2,left
6.9479999999999995,0.019981959554410525,1.1886029432689846,-0.08401874096986536,-1.9619814753265243,0.007695382463643443,-1.3457549495592842,-0.30998057447266936,0.7747354186601878,1.1520018666045295,2,left
6.949,0.015683799608577402,1.1974538442514913,-0.08365241756144601,-1.9817067857568256,0.022079994426513455,-1.3416739076537336,-0.31604825631994143,0.7734146527755426,1.166142508231011,2,left
6.954,0.011301710512680389,1.2063721478976404,-0.08329523700660657,-2.0005406459438215,0.037978808384480096,-1.3377086936693057,-0.3222181583546969,0.7721607476555353,1.1806098022436686,2,left
6.955,0.006843968363857801,1.2153510253136712,-0.08294646859281077,-2.0185809932089227,0.055418091344817635,-1.3338832690583582,-0.32849263584289307,0.7709693909844859,1.1954056176458094,2,left
6.959,0.0023191480562503902,1.2243833835641014,-0.08260540480428379,-2.03592724252693,0.07442393015705129,-1.3302210503409566,-0.3348740017193568,0.7698357650093905,1.2105317713585204,2,left
6.96,-0.0022638928210383714,1.2334618662484844,-0.08227136170760507,-2.052679987349737,0.09502218030772568,-1.3267448444554972,-0.34136451830187153,0.7687545555601235,1.2259900055821937,2,left
6.962999999999999,-0.0068960304074813855,1.2425788544248118,-0.0819436790506223,-2.0689407072923047,0.11723841344483021,-1.3234767879970166,-0.3479663889888115,0.7677199620633524,1.2417819649898625,2,left
6.9639999999999995,-0.011567891252641469,1.251726467906865,-0.08162172006478623,-2.0848114827309585,0.141097863686536,-1.3204382903327168,-0.35468174995865986,0.7667257085469011,1.2579091737958057,2,left
6.968,-0.01626986919585155,1.2608965669571333,-0.08130487096839682,-2.1003947163623495,0.16662537277347245,-1.317649980584766,-0.3615126618900615,0.765765055631442,1.2743730127438306,2,left
6.968,-0.020992142392455924,1.2700807543915538,-0.08099254017962575,-2.115792861770014,0.19384533412841903,-1.3151316584710337,-0.3684611017213801,0.7648308135065284,1.2911746960606056,2,left
6.972,-0.02572469044562839,1.2792703781077879,-0.08068415725835877,-2.131108159044344,0.2227816358920081,-1.3129022489950757,-0.3755289544690553,0.7639153558880999,1.308315248420372,2,left
6.973,-0.030457311612627574,1.2884565340458791,-0.08037917160253752,-2.1464423775009562,0.2534576030078246,-1.3109797609773999,-0.3827180051243881,0.7630106349546852,1.325795481968336,2,left
6.977,-0.03517964006203377,1.297630069589957,-0.08007705093078385,-2.1618965655419102,0.2858959384351499,-1.3093812494208237,-0.3900299306487187,0.7621081972595993,1.34361597345101,2,left
6.978,-0.039881163164636316,1.3067815874216664,-0.07977727959080867,-2.177570807704,0.320118663572526,-1.3081227817035526,-0.39746629208730583,0.761199200616491,1.361777041502743,2,left
6.982,-0.04455123880462637,1.3159014498389943,-0.0794793567396386,-2.1935639889383802,0.3561470579803137,-1.3072194075944956,-0.4050285268225622,0.7602744319556232,1.3802787241386594,2,left
6.983,-0.049179112698007295,1.3249797835578707,-0.07918279444311639,-2.2099735661661435,0.39400159849547767,-1.30668513308626,-0.4127179409876561,0.7593243261482722,1.3991207565051986,2,left
6.987,-0.05375393570210776,1.3340064850181863,-0.07888711573810675,-2.2268953471550845,0.433701897836958,-1.306532898042244,-0.420535702061843,0.7583389857966173,1.418302548940431,2,left
6.9879999999999995,-0.05826478109569666,1.3429712262196027,-0.07859185269454248,-2.24442327676381,0.475266642805172,-1.3067745576552579,-0.42848283166925566,0.7573082019864417,1.437823165397296,2,left
6.992000000000001,-0.06270066180470077,1.3518634611143094,-0.07829654451006016,-2.262649230600536,0.5187135321844337,-1.3074208677161732,-0.436560198603245,0.7562214759998948,1.457681302283889,2,left
6.992999999999999,-0.06705054754500274,1.3606724325825497,-0.07800073567077569,-2.2816628161453925,0.5640592144623814,-1.308481473692182,-0.4447685120987316,0.7550680419854637,1.4778752677759053,2,left
6.996,-0.07130338185311935,1.3693871800122828,-0.07770397421766778,-2.3015511813867793,0.6113192254858539,-1.3099649036153873,-0.45310831537539936,0.7538368905821703,1.4984029616573074,2,left
6.997000000000001,-0.07544809897856726,1.3779965474986813,-0.07740581016466663,-2.3223988310243353,0.6605079261780639,-1.3118785647836022,-0.4615799794749384,0.7525167934948465,1.5192618557462656,2,left
7.005,-0.07947364061690318,1.3864891926753287,-0.07710579411685092,-2.344287450293317,0.7116384404473671,-1.3142287442764193,-0.4701836974089099,0.7510963289992979,1.5404489749537458,2,left
7.006,-0.08336897246827367,1.3948535961887683,-0.07680347613288052,-2.3672957364677076,0.764722593423425,-1.317020613290833,-0.4789194785991535,0.749563908266658,1.5619608789699397,2,left
7.007000000000001,-0.08712310061195538,1.4030780718306528,-0.07649840486611058,-2.3914992381021283,0.8197708501620925,-1.3202582353019225,-0.48778714352997044,0.7479078022352783,1.5837936444790106,2,left
7.007999999999999,-0.0907250876904944,1.4111507773440275,-0.07619012700838662,-2.416970202075589,0.8767922549659452,-1.3239445780553574,-0.4967863184966645,0.7461161686689334,1.605942847750434,2,left
7.007999999999999,-0.09416406889616273,1.4190597259190756,-0.0758781870531122,-2.4437774285033513,0.9357943714729589,-1.328081529399757,-0.5059164303704341,0.744177079129075,1.6284035475092862,2,left
7.0120000000000005,-0.0974292677500742,1.426792798389219,-0.07556212738876804,-2.4719861335655255,0.9967832236288913,-1.3326699169039518,-0.515176701363048,0.7420785457492178,1.6511702680844131,2,left
7.013,-0.10051001166426443,1.4343377561344424,-0.07524148872903011,-2.50165782019942,1.0597632374514927,-1.3377095308841793,-0.5245661438101497,0.739808547788427,1.6742369828874712,2,left
7.013999999999999,-0.10339574728016726,1.4416822546973753,-0.07491581088221608,-2.5328501564170134,1.1247371831168311,-1.343199149889216,-0.5340835549994161,0.7373550579583128,1.6975970982873485,2,left
7.017,-0.10607605558128169,1.4488138581163343,-0.07458463386224841,-2.56561686090768,1.1917061166906413,-1.3491365673714293,-0.543727512070172,0.7347060685174773,1.721243437945363,2,left
7.018,-0.10854066678277474,1.4557200539754895,-0.07424749934462445,-2.6000075956957627,1.2606693210463988,-1.35551861859434,-0.5534963670114298,0.7318496171268658,1.7451682276774807,2,left
7.021,-0.11077947500789025,1.4623882691678132,-0.07390395247036642,-2.636067865816396,1.3316242459010859,-1.3623412074068961,-0.5633882417856929,0.7287738124589488,1.7693630809106486,2,left
7.021,-0.11278255277016601,1.4688058863640403,-0.07355354399462012,-2.673838926082778,1.4045664471184123,-1.3695993328372562,-0.5734010236062246,0.7254668595531008,1.7938189848011554,2,left
7.026,-0.11454016528882446,1.4749602611796646,-0.07319583276477551,-2.7133576950437677,1.4794895254776024,-1.3772871155244015,-0.5835323603958399,0.7219170849089422,1.8185262870837322,2,left
7.027,-0.11604278467082686,1.4808387400313867,-0.07283038849992007,-2.7546566762355043,1.5563850651115718,-1.3853978240071683,-0.593779656455634,0.7181129613087845,1.8434746837208782,2,left
7.031000000000001,-0.11728110399817678,1.486428678675404,-0.07245679483236094,-2.7977638868356234,1.6352425718240229,-1.3939239008915378,-0.6041400683724063,0.7140431323596513,1.8686532074226458,2,left
7.032,-0.11824605136357438,1.4917174614223874,-0.07207465256376522,-2.8427027938336678,1.7160494115006757,-1.4028569889182532,-0.6146105011938777,0.709696436744656,1.8940502171078397,2,left
7.037000000000001,-0.11892880389952407,1.4966925210263151,-0.07168358308281339,-2.889492257836404,1.7987907488355102,-1.4121879569540492,-0.6251876049011347,0.7050619321727808,1.9196533883782774,2,left
7.037999999999999,-0.1193208018443511,1.5013413592457654,-0.07128323188656845,-2.9381464846319147,1.8834494865985327,-1.4219069259309702,-0.6358677712080543,0.7001289190153432,1.9454497050784187,2,left
7.041,-0.11941376268424259,1.5056515680771911,-0.07087327214320098,-2.988674984641621,1.9700062056771686,-1.432003294759415,-0.6466471307177831,0.6948869636166388,1.9714254520132932,2,left
7.041,-0.11919969540441605,1.5096108516601006,-0.07045340823093835,-3.041082540394669,2.058439106128937,-1.4424657662416973,-0.6575215504666468,0.689325921265423,1.9975662088982518,2,left
7.045,-0.11867091487550306,1.5132070488530207,-0.07002337918839731,-3.095369182164472,2.1487239494885726,-1.4532823730140152,-0.6684866318861629,0.6834359588130394,2.0238568456146164,2,left
7.046,-0.11782005639361291,1.5164281564753657,-0.06958296201220462,-3.1515301719125812,2.2408340025781945,-1.4644405035458126,-0.6795377092141153,0.6772075769231135,2.0502815188458205,2,left
7.05,-0.1166400903842038,1.5192623532028138,-0.06913197473479202,-3.2095559956904274,2.3347399830745235,-1.4759269282265628,-0.6906698483859202,0.6706316319368144,2.0768236701691,2,left
7.0520000000000005,-0.11512433727134197,1.5216980240925253,-0.06867027920878178,-3.269432364654884,2.430410007092444,-1.4877278255710178,-0.7018778464377712,0.6636993573367455,2.1034660256782294,2,left
7.055,-0.11326648250592143,1.523723785700592,-0.06819778352061033,-3.3311402248589608,2.527809539049463,-1.4998288085749498,-0.7131562314533024,0.6564023847915507,2.1301905972131783,2,left
7.055,-0.1110605917388198,1.5253285117389435,-0.0677144439612809,-3.3946557759842872,2.626901344080761,-1.512214951254353,-0.7244992630857355,0.6487327647623262,2.156978685272897,2,left
7.06,-0.10850112611816704,1.5265013592037169,-0.06722026649668525,-3.459950499187367,2.7276454432795956,-1.524870815401977,-0.7359009336876988,0.6406829866509062,2.1838108836877317,2,left
7.061,-0.10558295768482388,1.5272317948919578,-0.06671530769752539,-3.5269911942368055,2.8299990720427806,-1.5377804775959207,-0.747354970081105,0.6322459984690424,2.210667086128199,2,left
7.066,-0.10230138483588157,1.5275096222089917,-0.06619967510275043,-3.5957400261239254,2.9339166418058187,-1.5509275564958365,-0.7588548359996586,0.6234152260064287,2.2375264945270366,2,left
7.067,-0.0986521478205094,1.5273250081559997,-0.0656735269995404,-3.666154581334263,3.039349705457005,-1.564295240463065,-0.7703937352367368,0.6141845914744315,2.264367629491565,2,left
7.071000000000001,-0.09463144422555803,1.5266685103762228,-0.0651370716110836,-3.7381879339724624,3.1462469267244386,-1.5778663155417558,-0.7819646155315293,0.6045485316012728,2.2911683427834695,2,left
7.0729999999999995,-0.09023594440207623,1.5255311041308073,-0.06459056569344487,-3.811788721937969,3.25455405383437,-1.5916231938387018,-0.7935601732085902,0.594502015165149,2.317905831905262,2,left
7.0729999999999995,-0.0854628067815827,1.5239042090793724,-0.06403431255254181,-3.8869012333537007,3.364213897743646,-1.605547942340254,-0.8051728584966885,0.5840405600099381,2.344556656643402,2,left
7.074,-0.0803096930326194,1.5217797157565616,-0.06346865949959989,-3.9634655034545294,3.4751663152532295,-1.6196223122052642,-0.8167948812920759,0.5731602496937527,2.3710967570772845,2,left
7.075,-0.0747747830074105,1.5191500116464494,-0.0628939947740937,-4.041417422146871,3.587348197313804,-1.6338277685735363,-0.8284182170419901,0.5618577499787406,2.3975014723738965,2,left
7.079,-0.06885678942087639,1.5160080067496982,-0.06231074398464576,-4.120688852455054,3.7006934628383648,-1.6481455209297504,-0.8400346125136314,0.5501303253100223,2.423745559876926,2,left
7.079,-0.06255497219517155,1.5123471585282338,-0.061719366148001026,-4.201207760074256,3.8151330583403853,-1.6625565540632503,-0.8516355913747387,0.5379758553236835,2.4498032143394153,2,left
7.08,-0.05586915240018616,1.5081614961164593,-0.061120349431836384,-4.282898354019319,3.930594963630083,-1.6770416596438125,-0.8632124596012631,0.525392851363211,2.4756480873379254,2,left
7.084,-0.04879972572668629,1.5034456437065797,-0.060514206715519485,-4.365681237189986,4.047004203356576,-1.6915814683305694,-0.8747563107454945,0.5123804729706773,2.501253306943532,2,left
7.086,-0.04134767544177809,1.4981948430387717,-0.05990147107173147,-4.4494735635662215,4.164282863380358,-1.7061564821456643,-0.8862580310979458,0.49893854431775553,2.526591497724463,2,left
7.0889999999999995,-0.033514584791196574,1.4924049749426906,-0.059282691256504254,-4.534189197578103,4.282350110515396,-1.7207471067411604,-0.8977083047762348,0.4850675705404132,2.5516348011545587,2,left
7.09,-0.025302648826721164,1.4860725798782244,-0.05865842728540345,-4.61973887237042,4.401122214630925,-1.7353336832911488,-0.9090976187741066,0.47076875393990575,2.5763548965010643,2,left
7.093999999999999,-0.01671468564957647,1.4791948774149086,-0.05802924615456028,-4.706030345795494,4.520512572912012,-1.7498965199269687,-0.9204162680036165,0.4560440100114532,2.600723022264466,2,left
7.095,-0.007754147066218004,1.4717697845772602,-0.05739571772621801,-4.7929685541429,4.640431736528273,-1.76441592273676,-0.9316543603633471,0.44089598326075774,2.624709998242268,2,left
7.099,0.0015748713595948145,1.463795932967717,-0.056758410756766166,-4.8804557638516615,4.760787440051739,-1.7788722263712116,-0.9428018218653573,0.42532806276728685,2.6482862482876586,2,left
7.099,0.011267620911290552,1.455272684560873,-0.05611788902700652,-4.968391721452587,4.881484633966689,-1.793245824297292,-0.9538484018533573,0.4093443974520299,2.671421823833002,2,left
7.104,0.02131869109190933,1.4462001460486427,-0.05547470754880878,-5.056673801990303,5.0024255206157155,-1.8075171987416392,-0.9647836783443725,0.39294991100621757,2.694086428247005,2,left
7.105,0.0317220019473358,1.4365791816132234,-0.054829408857081374,-5.145197156176082,5.123509593927582,-1.821666950365091,-0.9755970635258963,0.3761503164362915,2.7162494420932175,2,left
7.109,0.04247079759470756,1.4264114240154084,-0.054182519430984524,-5.233854856523885,5.2446336832733955,-1.8356758277096037,-0.9862778094402448,0.35895213017921723,2.737879949356267,2,left
7.11,0.05355764126583126,1.4156992839068814,-0.05353454631123784,-5.32253804272297,5.365692001798303,-1.84952475645852,-0.996815013887505,0.34136268574105677,2.758946764700872,2,left
7.1129999999999995,0.0649744121986095,1.4044459573034713,-0.05288597398751016,-5.411136066501175,5.4865761995763265,-1.8631948685507906,-1.0071976265781157,0.32339014681055306,2.779418461827233,2,left
7.114,0.07671230469131068,1.39265543118922,-0.05223726162090591,-5.4995366362333,5.607175421936078,-1.8766675311893541,-1.0174144555657412,0.3050435197983369,2.7992634029848755,2,left
7.117999999999999,0.08876182958135949,1.3803324872525289,-0.05158884064612742,-5.5876259615491275,5.727376373304882,-1.8899243757834134,-1.0274541739906846,0.2863326657512437,2.8184497697053903,2,left
7.119,0.1011128183424609,1.3674827037776023,-0.05094111277501166,-5.675288898195368,5.847063386918338,-1.9029473268638457,-1.0373053271636443,0.2672683115901302,2.8369455948128226,2,left
7.122999999999999,0.11375442993428056,1.3541124557217623,-0.050294448403582846,-5.762409093405211,5.966118500741521,-1.9157186310104073,-1.0469563400191375,0.24786206061850574,2.854718795768643,2,left
7.124,0.12667516050153213,1.3402289130013438,-0.04964918540705496,-5.8488691320283195,6.084421539946889,-1.9282208858287768,-1.0563955249674093,0.22812640224825181,2.8717372094063514,2,left
7.127999999999999,0.13986285600339035,1.3258400369892147,-0.04900562828591303,-5.934550683672832,6.201850206292463,-1.9404370690148112,-1.0656110901731004,0.20807472088768625,2.8879686281087764,2,left
7.129,0.1533047278459418,1.3109545752020155,-0.048364047595538216,-6.019334651109387,6.318280174742034,-1.9523505675426642,-1.0745911482883737,0.18772130393625142,2.9033808374790664,2,left
7.1339999999999995,0.1669873715719387,1.2955820541326397,-0.04772467955119657,-6.103101320185313,6.433585197666989,-1.9639452070126462,-1.083323725667592,0.1670813488291592,2.9179416555541766,2,left
7.135,0.18089678862496655,1.2797327701687407,-0.04708772566428027,-6.18573051149485,6.547637216966833,-1.9752052811938892,-1.0917967720899935,0.14617096907442065,2.9316189736074305,2,left
7.138999999999999,0.1950184111603589,1.2634177785326837,-0.04645335226107672,-6.267101734048715,6.660306484442601,-1.9861155817959963,-1.0999981710091078,0.12500719919365488,2.944380798543125,2,left
7.14,0.2093371298454637,1.2466488801813946,-0.04582168977456002,-6.3470943411833805,6.771461690754127,-1.9966614285029591,-1.1079157503117971,0.10360799832640982,2.9561952966776355,2,left
7.14,0.22383732458217934,1.2294386066146485,-0.04519283177051462,-6.4255876889472,6.880970103288532,-2.0068286993016513,-1.1155372935057999,0.08199225198543834,2.9670308383279513,2,left
7.143,0.23850289806741115,1.2118002025579113,-0.04456683375549026,-6.50246129719685,6.988697713263325,-2.0166038611362143,-1.1228505512187275,0.060179771298807264,2.97685604241985,2,left
7.143,0.25331731205844404,1.1937476065122787,-0.0439437118994693,-6.577595013633652,7.094509392383128,-2.025974000918596,-1.1298432529257902,0.03819128922488233,2.9856398205312855,2,left
7.148,0.2682636261457726,1.1752954291964437,-0.043323441859361385,-6.65086918100499,7.198269059364355,-2.0349268569244248,-1.1365031188859513,0.016048453497126837,2.9933514201547515,2,left
7.149,0.2833245387904138,1.1564589299331494,-0.04270595788325916,-6.72216480759328,7.299839856453709,-2.0434508505383007,-1.142817872300459,-0.006226183794071289,2.9999604671655438,2,left
7.15,0.29848243038067684,1.1372539910412258,-0.042091152320285104,-6.791363740619324,7.399084335144458,-2.051535117991592,-1.1487752517138183,-0.028609180045664307,3.0054370075210968,2,left
7.153,0.3137194080977618,1.1176970902836092,-0.04147887559479477,-6.858348841298376,7.495864648638913,-2.0591695411589153,-1.1543630236763096,-0.05107621947586328,3.009751548213479,2,left
7.154,0.32901735239870805,1.0978052714153903,-0.04086893665590568,-6.923004159790967,7.59004274768282,-2.0663447761584086,-1.159568995686167,-0.0736021340116491,3.0128750974939704,2,left
7.159,0.3443579648899242,1.0775961128963478,-0.04026110389220058,-6.985215108775128,7.681480577307124,-2.0730522788194845,-1.1643810294285046,-0.09616092779412384,3.0147792043853876,2,left
7.1610000000000005,0.3597228173066332,1.057087694872032,-0.039655106502744564,-7.044868635243443,7.770040273655112,-2.079284326656169,-1.1687870543270162,-0.11872580536619023,3.015435997494497,2,left
7.162000000000001,0.3750934012818466,1.0362985645671485,-0.03905063632714323,-7.101853390612277,7.8555843609818705,-2.0850340373026524,-1.172775081423378,-0.14126920360721398,3.014818223133419,2,left
7.162999999999999,0.3904511785838891,1.0152477002719171,-0.03844735015084063,-7.156059899321669,7.937975949088455,-2.0902953834303,-1.1763332175981522,-0.1637628274794168,3.012899282755437,2,left
7.167000000000001,0.4057776315027768,0.9939544741427071,-0.03784487252012546,-7.207380726097003,8.01707893144488,-2.095063204164022,-1.1794496801458223,-0.18617768965076364,3.009653269707038,2,left
7.167999999999999,0.4210543130680367,0.9724386140791491,-0.03724279911641793,-7.255710642035946,8.09275818424738,-2.0993332130144924,-1.1821128117153916,-0.20848415405904433,3.005055005294355,2,left
7.172000000000001,0.43626289678759034,0.9507201649674647,-0.03664070072404406,-7.300946789676119,8.164879766646342,-2.1031020023413376,-1.1843110956267415,-0.23065198348170535,2.999080074158443,2,left
7.172999999999999,0.4513852256045446,0.9288194495848364,-0.03603812776621378,-7.3429888471907185,8.23331112237185,-2.106367044360962,-1.1860331715716763,-0.2526503911757599,2.9917048589500035,2,left
7.178,0.46640335976863634,0.9067570294450857,-0.03543461529934097,-7.381739191850703,8.297921282973963,-2.109126688711286,-1.1872678517072808,-0.2744480966517913,2.9829065742903063,2,left
7.178999999999999,0.48129962331259735,0.8845536658399378,-0.03482968828247621,-7.417103062883276,8.35858107288463,-2.1113801565842105,-1.1880041371478802,-0.2960133856456667,2.9726633000010794,2,left
7.182,0.49605664881849476,0.8622302812986358,-0.034222866906685225,-7.448988723847245,8.415163316497553,-2.1131275314351843,-1.188231234860528,-0.31731417435108783,2.960954013582145,2,left
7.183,0.5106574201623213,0.8398079216537232,-0.0336136717819823,-7.477307624636345,8.4675430474513,-2.1143697462778044,-1.18793857496754,-0.33831807797553126,2.9477586219114666,2,left
7.187,0.525085312939984,0.817307718863944,-0.033001628813474654,-7.5019745632119434,8.515597720289696,-2.115108567569917,-1.187115828458174,-0.3589924836814586,2.933057992138147,2,left
7.188,0.53932413230423,0.7947508547102649,-0.03238627363023792,-7.522907847156535,8.559207424661725,-2.1153465756962446,-1.1857529253100767,-0.3793046279739194,2.916833981734687,2,left
7.192,0.5533581479782045,0.7721585254523716,-0.03176715545585067,-7.540029455129181,8.598255102211185,-2.115087142051112,-1.1838400730196417,-0.3992216785948153,2.8990694676705626,2,left
7.193,0.5671721262548849,0.7495519075126467,-0.031143840337337317,-7.553265198293584,8.632626766293864,-2.114334402723399,-1.1813677755388867,-0.4187108209831462,2.8797483746648505,2,left
7.197,0.5807513588408922,0.7269521242420391,-0.030515913686910107,-7.562544881778767,8.662211724647271,-2.113093228784404,-1.17832685261492,-0.4377393493595205,2.85885570247125,2,left
7.1979999999999995,0.5940816884575939,0.7043802138150014,-0.029882982135781035,-7.567802466221392,8.68690280512486,-2.111369193177897,-1.1747084595264756,-0.45627476249207305,2.8363775521444476,2,left
7.202999999999999,0.6071495311699407,0.6818570982960741,-0.029244674739053986,-7.568976229427572,8.706596584593232,-2.1091685342101942,-1.1705041072103999,-0.47428486419970933,2.8123011512322735,2,left
7.204,0.6199418954693152,0.6594035539172899,-0.02860064359234743,-7.566008928180709,8.721193621077104,-2.10649811563671,-1.16570568276933,-0.4917378686472687,2.786614877833613,2,left
7.206,0.6324463981838194,0.6370401826012116,-0.027950563922148123,-7.558847960210318,8.730598689222697,-2.103365383340045,-1.1603054703322344,-0.5086025103061724,2.7593082834740996,2,left
7.207000000000001,0.6446512773183092,0.6147873847540369,-0.02729413370126537,-7.547445526325082,8.734721019135975,-2.099778318593302,-1.1542961721482097,-0.5248481575545463,2.730372114830207,2,left
7.207999999999999,0.6565454019354442,0.5926653333364928,-0.02663107282897418,-7.531758792701522,8.7334745386374,-2.095745387900974,-1.1476709296309493,-0.5404449272726913,2.6997983344774594,2,left
7.211,0.6681182791948943,0.5706939492078393,-0.02596112191244687,-7.511750053307585,8.726778118960075,-2.091275489408423,-1.1404233439799847,-0.5553637968900209,2.6675801409169866,2,left
7.212000000000001,0.6793600586850973,0.5488928777367428,-0.025284040695125985,-7.487386892428303,8.71455582390289,-2.0863778958696684,-1.1325474960926394,-0.5695767112358703,2.6337119880468096,2,left
7.216,0.6902615341998094,0.5272814666729158,-0.024599606189293566,-7.45864234699072,8.696737162138255,-2.0810621942681515,-1.1240379656401358,-0.5830566831612438,2.5981896040898196,2,left
7.218,0.7008141431114245,0.5058787452656445,-0.02390761057140962,-7.4254950670844755,8.673257340874873,-2.0753382227151453,-1.1148898492691066,-0.5957778877946838,2.561010009902519,2,left
7.218999999999999,0.711009963478435,0.4847034046022235,-0.0232078588886503,-7.387929470742855,8.644057516389909,-2.0692160062054494,-1.1050987779058714,-0.6077157504730325,2.5221715365672193,2,left
7.221,0.7208417090225269,0.4637737791287511,-0.022500166613968288,-7.345935887748214,8.609085035445451,-2.0627056933400465,-1.0946609331390225,-0.618847028385757,2.4816738421656455,2,left
7.222,0.7303027221380365,0.44310782931062587,-0.02178435708367251,-7.299510688501363,8.568293663071305,-2.0558174955929918,-1.0835730626540314,-0.6291498859693272,2.4395179276271364,2,left
7.232,0.739386965136151,0.4227231253862215,-0.021060258856331827,-7.248656396300937,8.521643794849972,-2.0485616297424465,-1.0718324946917395,-0.6386039640858919,2.395706151539866,2,left
7.233,0.7480890099542412,0.4026368321606199,-0.020327703043262084,-7.193381782654423,8.469102653306585,-2.040948263553426,-1.0594371515007417,-0.6471904430181838,2.3502422438087494,2,left
7.233,0.7564040265712683,0.38286569477919846,-0.019586520677207085,-7.133701945487493,8.410644468286504,-2.032987464692491,-1.0463855617518045,-0.6548920993102056,2.303131318038938,2,left
7.234,0.7643277703665936,0.36342602541737606,-0.018836540200864196,-7.0696383701055705,8.346250641186518,-2.024689152853561,-1.0326768718805872,-0.6616933564808173,2.254379882519048,2,left
7.237,0.7718565686439384,0.3443336908238658,-0.018077585164278268,-7.001218972748858,8.275909892888636,-2.016063055073002,-1.0183108563230523,-0.6675803296348533,2.203995849673532,2,left
7.239,0.7789873065170388,0.3256041006592487,-0.01730947221771486,-6.92847812656945,8.199618395228498,-2.007118664211142,-1.0032879266060715,-0.67254086399386,2.1519885438488644,2,left
7.242000000000001,0.7857174123214546,0.30725219657864566,-0.016532009473926926,-6.851456669846537,8.1173798858134,-1.9978652005763877,-0.987609139253846,-0.6765645673659643,2.0983687072935178,2,left
7.242999999999999,0.7920448426815875,0.28929244201641996,-0.015744995292117533,-6.770201896243233,8.02920576598786,-1.9883115766671955,-0.9712762024688698,-0.6796428365717552,2.043148504187002,2,left
7.246,0.7979680673294343,0.2717388126416141,-0.014948217510298446,-6.684767526896141,7.935115181727564,-1.9784663650062113,-0.9542914815442837,-0.6817688778404108,1.9863415225685868,2,left
7.249,0.8034860537489118,0.25460478746351056,-0.014141453127850524,-6.595213664116513,7.835135087225439,-1.9683377690400194,-0.936658002962581,-0.6829377211876078,1.927962774011704,2,left
7.251,0.8085982517107069,0.23790334057539358,-0.013324468416983709,-6.501606726469671,7.729300290916646,-1.9579335970770764,-0.9183794571337521,-0.6831462287840417,1.8680286908854198,2,left
7.252999999999999,0.813304577766285,0.22164693353011514,-0.012497019419861814,-6.404019364987409,7.61765348367222,-1.9472612392355595,-0.8994601997240792,-0.6823930973206578,1.8065571210398197,2,left
7.255,0.8176053997798064,0.20584750834372878,-0.01165885276883182,-6.30253036025626,7.500245248874223,-1.936327647372054,-0.8799052515249338,-0.6806788543739408,1.7435673197476376,2,left
7.256,0.8215015215856087,0.19051648112540528,-0.010809706754882652,-6.197224500112845,7.377134054068455,-1.925139317961205,-0.8597202968090787,-0.6780058487718604,1.6790799387299888,2,left
7.26,0.8249941678614199,0.17566473633545912,-0.009949312567731607,-6.088192437666158,7.248386223874129,-1.913702277895691,-0.8389116801201322,-0.6743782349583106,1.613117012089663,2,left
7.2620000000000005,0.8280849693015484,0.1613026216788246,-0.009077395638163923,-5.975530529355424,7.114075893813325,-1.9020220731751216,-0.8174864014390337,-0.6698019513511235,1.5457019389710605,2,left
7.266,0.8307759481599705,0.1474399436470448,-0.00819367702411333,-5.859340652741187,6.974284944706723,-1.8901037604517357,-0.7954521096695357,-0.6642846926859868,1.4768594627615703,2,left
7.267,0.8330695042129017,0.1340859637265034,-0.007297874793214685,-5.7397300037166215,6.829102917265893,-1.8779519014000494,-0.7728170943829614,-0.657835876335857,1.4066156466449444,2,left
7.272,0.8349684011688845,0.1212493952942824,-0.006389705366816494,-5.616810872815653,6.678626906496497,-1.8655705598769203,-0.7495902757606946,-0.6504666025927388,1.334997845313057,2,left
7.273,0.8364757535360932,0.1089384012250471,-0.005468884804676642,-5.490700400284325,6.522961435511011,-1.8529633018377891,-0.7257811926711223,-0.6421896088960007,1.262034672638337,2,left
7.274,0.8375950139427669,0.09716059223079802,-0.00453513002459838,-5.361520309572043,6.362218308334099,-1.8401331979742057,-0.7013999888160223,-0.6330192179887258,1.1877559651051421,2,left
7.275,0.8383299608968271,0.0859230259495663,-0.0035881599646849565,-5.2293966188898375,6.1965164412686,-1.8270828290370777,-0.6764573969302632,-0.6229712800994947,1.1121927409266386,2,left
7.276,0.8386846869652039,0.07523220679025486,-0.002627696704975957,-5.094459330473631,6.025981672375178,-1.8138142938094302,-0.6509647212698548,-0.6120631098370986,1.0353771554310836,2,left
7.279,0.8386635873511933,0.06509408653095286,-0.0016534665690738787,-4.956842097181671,5.850746548604111,-1.8003292196918197,-0.6249338190768688,-0.6003134195499832,0.9573424544877976,2,left
7.28,0.8382713488434396,0.055514065661198826,-0.0006652012290426941,-4.816681866046855,5.670950090103482,-1.786628775862929,-0.5983770819609813,-0.5877422514924066,0.878122928400622,2,left
7.284,0.8375129390987479,0.04649699545686198,0.000337361157549862,-4.674118498396604,5.486737531214149,-1.7727136889772144,-0.5713074178829658,-0.5743709105441265,0.797753868031862,2,left
7.2860000000000005,0.8363935962059421,0.03804718077565794,0.0013544747445912732,-4.529294366145231,5.2982600376483955,-1.758584261360882,-0.5437382339687988,-0.5602218981611511,0.716271523726057,2,left
7.287000000000001,0.8349188184648667,0.03016838355780899,0.0023863846964191143,-4.382353924637125,5.10567439992548,-1.7442403916252134,-0.5156834201286828,-0.5453188476400244,0.6337130669383174,2,left
7.289,0.8330943543088827,0.02286382701142618,0.003433325766385073,-4.233443266315456,4.909142706071616,-1.7296815974075879,-0.48715733340325323,-0.529686460657283,0.5501165543364275,2,left
7.289,0.8309261923034574,0.01613620045899373,0.004495520746711373,-4.082709666510496,4.708832001884362,-1.7149070395753927,-0.4581747829577997,-0.5133504450434899,0.46552089414271636,2,left
7.297999999999999,0.8284205511603971,0.009987664819438262,0.005573178798435251,-3.9303011365388976,4.5049139499965865,-1.6999155470193315,-0.42875101564393814,-0.49633745374908467,0.3799658144786117,2,left
7.2989999999999995,0.8255838697102612,0.004419858696321092,0.006666493688778022,-3.7763659953963042,4.297564496016858,-1.6847056413700916,-0.3989017020468181,-0.4786750249571979,0.2934918334718091,2,left
7.2989999999999995,0.8224227967808277,-0.0005660949642836607,0.00777564197981931,-3.6210524642945274,4.086963544707622,-1.6692755613462413,-0.36864292293463935,-0.46039152329655847,0.20614023088312103,2,left
7.3,0.8189441809428272,-0.0049695816894655,0.008900781223403069,-3.4645082843864445,3.8732946462051197,-1.6536232866486686,-0.3379911560259846,-0.4415160821056801,0.11795302100731725,2,left
7.303999999999999,0.8151550600999827,-0.008790487815641162,0.010042048221978031,-3.3068803572367176,3.656744691685806,-1.637746561357869,-0.3069632629892532,-0.4220785466976468,0.02897292659962747,2,left
7.305,0.8110626509119028,-0.012029192393259561,0.011199557413783002,-3.148314407592478,3.4375036178746448,-1.6216429167897437,-0.275576476587307,-0.4021094185730376,-0.060756646422940104,2,left
7.31,0.8066743380444676,-0.014686558708602564,0.012373399433445032,-2.988954668004586,3.21576411978187,-1.6053096937649483,-0.24384838787930999,-0.3816398005268315,-0.1511916337587113,2,left
7.31,0.8019976632451754,-0.01676392547178989,0.01356363988720537,-2.82894358484695,2.991721371046543,-1.5887440642461674,-0.21179693339066347,-0.3607013425935172,-0.24228733723241191,2,left
7.315,0.7970403142421061,-0.018263097720242892,0.014770318368461051,-2.668421545278707,2.765572751257487,-1.5719430522970577,-0.17944038216090927,-0.33932618877311116,-0.3339984492978612,2,left
7.316,0.7918101134650251,-0.019186337486310587,0.01599344772633076,-2.507526624691763,2.537517579615024,-1.5549035543159218,-0.14679732257849318,-0.31754692447934646,-0.4262790777919924,2,left
7.319,0.7863150065872531,-0.019536354276616912,0.017233013588568127,-2.3463943541843353,2.3077568542903317,-1.5376223584965298,-0.11388664891035259,-0.2953965246499521,-0.5190827712017966,2,left
7.32,0.780563050890454,-0.019316295408974178,0.01848897413086532,-2.1851575075996506,2.0764929968331716,-1.520096163467806,-0.08072754743341656,-0.2729083024576871,-0.6123625447075519,2,left
7.3229999999999995,0.7745624034627252,-0.018529736250241825,0.019761260077603322,-2.023945907667886,1.843929600973296,-1.5023215960634295,-0.047339482074284525,-0.2501158585596352,-0.7060709072673369,2,left
7.324,0.7683213092514776,-0.017180670394686744,0.02104977491385584,-1.862886250788749,1.6102711851559126,-1.484295228171697,-0.01374217946258106,-0.22705303082119904,-0.800159890009326,2,left
7.329,0.7618480890044793,-0.015273499816347834,0.02235439528433982,-1.702101949991781,1.375722948147295,-1.4660135926152924,0.02004438669722849,-0.2037538444502637,-0.8945810761997319,2,left
7.33,0.755151127145253,-0.012813025020929654,0.023674971552314395,-1.541712995611548,1.1404905270428838,-1.4474731980098905,0.05400001203143411,-0.18025246247612622,-0.9892856330554946,2,left
7.332999999999999,0.7482388596429023,-0.009804435214527497,0.025011328490479993,-1.3818358332152927,0.9047797570070836,-1.4286705425498096,0.08810427877656193,-0.15658313650701028,-1.084224345671899,2,left
7.334,0.7411197619490093,-0.0062532984990487026,0.026363266076186793,-1.2225832583214236,0.6687964320714046,-1.4096021266681817,0.12233657402975615,-0.1327801576993082,-1.1793476533362701,2,left
7.3389999999999995,0.733802337082436,-0.002165552097812433,0.027730560363307212,-1.0640643274483326,0.4327460663156271,-1.3902644645183724,0.15667610906756346,-0.10887780787111004,-1.2746056884996955,2,left
7.34,0.7262951039458987,0.0024525073899506014,0.029112964401130214,-0.9063842850345027,0.19683365475530532,-1.370654094222627,0.19110193983104806,-0.08491031069209823,-1.3699483186794024,2,left
7.343,0.7186065859559548,0.007594233710635393,0.030510209166945374,-0.7496445057726494,-0.03873656674187008,-1.35076758683316,0.22559298862730687,-0.06091178291606475,-1.4653251914313625,2,left
7.343999999999999,0.7107453000577454,0.013252640662864178,0.03192200447767309,-0.5939424519027388,-0.2737613631885152,-1.3306015539501246,0.26012806685663165,-0.036916185794834674,-1.5606857818651443,2,left
7.343999999999999,0.7027197461778775,0.019420411802718595,0.033348039848624916,-0.43937164501112924,-0.5080387445360777,-1.3101526539401243,0.29468589814077933,-0.01295727712325605,-1.6559794409710022,2,left
7.349,0.6945383971540169,0.02608991016520851,0.03478798526865613,-0.2860216518857747,-0.7413682127357347,-1.2894175966981227,0.32924514098686763,0.010931435462360565,-1.7511554423613513,2,left
7.35,0.6862096891760459,0.033253188022858135,0.036241491857540435,-0.13397808398040043,-0.9735510124763936,-1.2683931468948242,0.36378441036266995,0.03471673948277455,-1.8461630256966683,2,left
7.353,0.6777420127729296,0.040901996704214884,0.037708192370243185,0.016677390040197096,-1.2043903859047225,-1.2470761257030456,0.3982822979931834,0.05836576077269963,-1.94095143626794,2,left
7.354,0.6691437043713401,0.049027796494870914,0.039187701519870555,0.165867019618078,-1.43369182979114,-1.2254634112572191,0.43271739142947724,0.08184600483003195,-2.03546996087538,2,left
7.355,0.660423038438583,0.057621766641642966,0.040679616103041424,0.31351693717992807,-1.6612633502935032,-1.2035519385698688,0.46706829198899724,0.10512539642567985,-2.1296679602762363,2,left
7.36,0.6515882202115759,0.06667481547739447,0.04218351492223951,0.4595571146873042,-1.8869157086280863,-1.181338699889497,0.501313631666384,0.12817231754186292,-2.223494898473882,2,left
7.361000000000001,0.6426473790085893,0.0761775906786968,0.043698958508317905,0.6039213135477873,-2.1104626527913264,-1.1588207462220421,0.5354320891136809,0.1509556437062634,-2.3169003691196064,2,left
7.362,0.6336085621171897,0.0861204896599734,0.04522548865556983,0.7465470288150545,-2.331721133779737,-1.1359951902666547,0.5694024047885676,0.17344477878883738,-2.4098341192976034,2,left
7.3629999999999995,0.6244797292463192,0.09649367009637266,0.04676262779212445,0.8873754281812612,-2.5505115065881783,-1.1128592107542588,0.60320339536895,0.19560968832742662,-2.502246070962589,2,left
7.367000000000001,0.6152687475226366,0.10728706055481205,0.04830987821635947,1.02635128617632,-2.7666577166282758,-1.089410058124205,0.6368139675318744,0.2174209314475556,-2.594086340298267,2,left
7.367999999999999,0.6059833870023064,0.1184903711994558,0.049866721233075104,1.1634229139836743,-2.979987472202218,-1.0656450614734367,0.6702131311943095,0.2388496914409538,-2.68530525526351,2,left
7.372999999999999,0.5966313166603581,0.13009310452497122,0.05143261622251762,1.2985420852770106,-3.1903324036600855,-1.0415616367116989,0.7033800123128489,0.25986780506641444,-2.7758533715916243,2,left
7.374,0.5872201008120446,0.14208456605810163,0.053006999672375724,1.4316639584770388,-3.3975282098612603,-1.0171572958554205,0.7362938653388454,0.28044779063558467,-2.8656814875064227,2,left
7.377000000000001,0.5777571959162474,0.15445387495444973,0.05458928419733448,1.562746995822005,-3.6014147925524034,-0.9924296573919978,0.7689340854248793,0.3005628749451867,-2.954740657417048,2,left
7.377999999999999,0.5682499477119523,0.16718997440452565,0.05617885756519154,1.6917528796400059,-3.8018363792659033,-0.9673764576452847,0.8012802204777931,0.3201870191159891,-3.0429822048515573,2,left
7.382999999999999,0.5587055886453327,0.18028164175699452,0.0577750817504181,1.8186464262054314,-3.998641635333673,-0.9419955630721771,0.833311983152805,0.3392949433975923,-3.1303577348872214,2,left
7.3839999999999995,0.5491312355534554,0.19371749827338156,0.059377292049814186,1.9433954975560292,-4.191683765601671,-0.9162849834192548,0.8650092628824186,0.3578621509967565,-3.2168191463332696,2,left
7.388,0.5395338875749641,0.20748601844727163,0.060984796314472095,2.0659709116411062,-4.380820606420581,-0.8902428856675,0.8963521380330118,0.37586495098559336,-3.3023186439194787,2,left
7.388,0.5299204242552885,0.22157553884613898,0.06259687436590435,2.1863463511653345,-4.565914708477696,-0.86386760869218,0.927320888281077,0.3932804803444604,-3.3868087507414986,2,left
7.392,0.5202976038076942,0.2359742664582311,0.06421277766491823,2.3044982714864672,-4.746833411024267,-0.8371576785640273,0.9578960073001291,0.4100867251928454,-3.4702423212112024,2,left
7.393,0.5106720614886979,0.25067028654721957,0.06583172929073866,2.4204058079190354,-4.92344890804135,-0.8101118244169027,0.9880582158482797,0.4262625412599091,-3.552572554757573,2,left
7.397,0.5010503080513242,0.26565157003345874,0.06745292426935151,2.534050682789781,-5.095638306875608,-0.7827289948061692,1.0177884753453958,0.44178767364466875,-3.633753010520736,2,left
7.398,0.49143872825161444,0.2809059804328672,0.06907553026768787,2.6454171125841985,-5.263283679864505,-0.755008374481045,1.0470680020276426,0.45664277591405766,-3.71373762327873,2,left
7.402,0.48184357939756345,0.2964212803937783,0.07069868864730125,2.75449171551712,-5.426272109458011,-0.7269494014932341,1.0758782817660097,0.4708094285852846,-3.792480720843415,2,left
7.403,0.47227098993994404,0.31218513788064284,0.07232151585005893,2.86126341985378,-5.584495727331211,-0.6985517845631719,1.1042010856341944,0.4842701570370515,-3.8699370431586475,2,left
7.407,0.4627269581105165,0.3281851320622574,0.07394310507123497,2.965723373301253,-5.7378517479691755,-0.6698155206242508,1.1320184863099099,0.4970084488922656,-3.9460617633303805,2,left
7.4079999999999995,0.4532173506177863,0.34440875897128254,0.07556252816587834,3.067864853783593,-5.886242497192081,-0.6407409124644178,1.1593128753923447,0.5090087709129031,-4.020810510814808,2,left
7.412000000000001,0.4437479014158682,0.3608434370110249,0.0771788377350282,3.167683181907371,-6.029575436074902,-0.6113285863835657,1.1860669817170992,0.5202565854456602,-4.094139396986968,2,left
7.412000000000001,0.4343242105665426,0.3774765123931433,0.07879106934752936,3.26517563541769,-6.167763180702007,-0.5815795097841678,1.2122638907071772,0.5307383664273052,-4.16600504322727,2,left
7.412999999999999,0.4249517432141543,0.3942952645922308,0.08039824386614802,3.360341365938083,-6.3007235181827514,-0.5514950086116335,1.2378870645906306,0.5404416148182996,-4.236364611253885,2,left
7.417000000000001,0.41563582868811666,0.41128691189880195,0.08199936985756479,3.4531813182810476,-6.428379419339625,-0.5210767845598919,1.2629203629422465,0.5493548730822896,-4.305175834694764,2,left
7.417999999999999,0.40638165974733353,0.4284386171465027,0.08359344606900092,3.543698152609288,-6.550659048465769,-0.490326931956747,1.2873480627985876,0.5574677381886401,-4.372397050483274,2,left
7.422000000000001,0.39719429199059925,0.44573749368714743,0.08517946394869855,3.631896169721039,-6.667495770533648,-0.45924795424258175,1.3111548778005242,0.5647708727511764,-4.437987229062695,2,left
7.422000000000001,0.3880786434688416,0.4631706116852411,0.08675641017902383,3.717781239644063,-6.778828156141347,-0.4278427799643206,1.3343259761873658,0.571256014162845,-4.501906003110469,2,left
7.422999999999999,0.37903949453627506,0.48072500479775965,0.08832326918725689,3.8013607333055566,-6.884599984067013,-0.39611477825204006,1.356846997671438,0.5769159817219331,-4.564113694894085,2,left
7.426,0.37008148796748697,0.49838767729653993,0.08987902560226432,3.8826434562993413,-6.984760240565484,-0.36406777382825894,1.3787040692614647,0.5817446817708101,-4.624571342446935,2,left
7.4270000000000005,0.36120912935847943,0.5161456116821376,0.0914226666296995,3.9616395833544242,-7.079263114124771,-0.331706061645436,1.3998838201012869,0.5857371108658033,-4.683240724747699,2,left
7.432,0.3524267878295928,0.5339857768288123,0.09295318431950923,4.038360592513046,-7.168067984784686,-0.29903442119984186,1.420373395388585,0.5888893569944568,-4.740084386081857,2,left
7.432,0.3437386970506785,0.5518951366887357,0.09446957770103337,4.112819198758945,-7.251139407824606,-0.2660581304854754,1.4401604694363697,0.5911985988540323,-4.795065659758932,2,left
7.437,0.3351489566065202,0.5698606595695946,0.09597085476767281,4.185029287240662,-7.328447092011703,-0.23278297950435375,1.45923325793805,0.5926631032027143,-4.848148691353934,2,left
7.438,0.32666153371508255,0.5878693279848797,0.09745603430225204,4.255005846310308,-7.399965872664651,-0.199215283239332,1.4775805294949207,0.5932822202925692,-4.899298461636212,2,left
7.441,0.3182802653066196,0.6059081490617071,0.0989241475393735,4.322764900591737,-7.465675679771414,-0.16536189399473125,1.4951916164628813,0.5930563773908852,-4.9484808093435815,2,left
7.442,0.3100088604679682,0.6239641654786849,0.10037423966007851,4.388323444285579,-7.525561501383114,-0.1312302130091998,1.5120564251731559,0.5919870703941043,-4.995662453954163,2,left
7.445,0.30185090325130304,0.6420244668978125,0.10180537111061051,4.4516993749122085,-7.579613342489408,-0.09682820124438961,1.528165445579697,0.5900768535361195,-5.040811018602772,2,left
7.446000000000001,0.2938098558394162,0.6600762018500852,0.1032166187356839,4.512911427687324,-7.6278261795641145,-0.06216438925221328,1.543509760383846,0.5873293271902977,-5.0838950532831,2,left
7.4510000000000005,0.28588906205173914,0.678106590033872,0.10460707671855903,4.571979110718522,-7.670199910953087,-0.027247886022646755,1.558081053684673,0.5837491237621574,-5.124884058471135,2,left
7.452000000000001,0.27809175116872503,0.6961029349872927,0.10597585732214852,4.628922641204965,-7.70673930325961,0.007911613286731112,1.571871619201258,0.5793418916672234,-5.163748509299485,2,left
7.456,0.2704210420472167,0.7140526370981766,0.10732209142220335,4.683762882816016,-7.737453933865821,0.04330382083902271,1.584874368110973,0.5741142773861765,-5.200459880406263,2,left
7.457000000000001,0.2628799474953223,0.7319432069156522,0.10864492881383639,4.736521284418594,-7.76235812971189,0.0789178509244044,1.5970828365456082,0.5680739055870223,-5.234990671576266,2,left
7.46,0.2554713788717436,0.7497622787266999,0.10994353826200338,4.787219820316864,-7.781470902437959,0.1147422161856095,1.6084911927849483,0.5612293573016357,-5.267314434286008,2,left
7.461,0.24819815087176725,0.7674976243592203,0.11121710726313468,4.835880932161845,-7.794815879977083,0.15076482536415045,1.6190942441851304,0.5535901461416788,-5.297405799258008,2,left
7.466,0.24106298646042904,0.7851371671688443,0.11246484149002617,4.88252747268256,-7.802421234670785,0.18697298266956505,1.628887443876849,0.5451666925365578,-5.325240505123487,2,left
7.466,0.234068521912578,0.8026689961603768,0.11368596389961437,4.927182651384406,-7.804319607962157,0.2233533888745746,1.6378668972661667,0.5359702959737775,-5.350795428286272,2,left
7.472,0.22721731191974534,0.8200813801889573,0.11487971348918491,4.969869982354586,-7.8005480317049205,0.2598921442396099,1.646029368368381,0.5260131052197701,-5.374048614074294,2,left
7.473,0.2205118347245281,0.8373627821819225,0.11604534369038691,5.010613234308664,-7.791147846110364,0.2965747533706928,1.6533722860030755,0.5153080864970242,-5.394979309258599,2,left
7.475,0.21395449724341722,0.8545018733197013,0.11718212039158656,5.049436383006563,-7.776164614337676,0.3333861321151548,1.659893749876139,0.5038689895911225,-5.413567996013238,2,left
7.476,0.2075476401384194,0.871487547112393,0.11828931957826624,5.086363566160699,-7.7556480337169535,0.3703106166001272,1.6655925365721984,0.49171031185910946,-5.4297964273827715,2,left
7.48,0.20129354279830727,0.8883089333077882,0.11936622458194726,5.1214190409533416,-7.729651843577948,0.40733197451915015,1.670468105478555,0.47884726010846823,-5.44364766431751,2,left
7.482,0.19519442819318722,0.9049554115684518,0.12041212293261395,5.15462714427478,-7.6982337296416405,0.44443341877261566,1.6745206046421974,0.4652957103776764,-5.4551061142795305,2,left
7.483,0.18925246757063954,0.921416624865376,0.12142630281594236,5.186012255788432,-7.661455224915807,0.4815976235680842,1.6777508764732965,0.4510721659662559,-5.464157571164326,2,left
7.485,0.18346978496683303,0.9376824925531841,0.12240804914254594,5.21559876392365,-7.619381607020031,0.5188067430867908,1.6801604630517912,0.43619371463442236,-5.470789255823464,2,left
7.486000000000001,0.17784846151120198,0.9537432231028099,0.12335663924279443,5.24341103489168,-7.572081791850025,0.5560424328228861,1.6817516107055062,0.42067798620947217,-5.4749898562153545,2,left
7.49,0.17239053950899794,0.9695893264611286,0.12427133820998856,5.269473384814983,-7.51962822347575,0.5932858737021378,1.6825272736116819,0.4045431115151075,-5.476749566455709,2,left
7.4910000000000005,0.16709802629203468,0.9852116259942275,0.12515139392621583,5.293810055021459,-7.462096760282414,0.6305177990202454,1.682491116325885,0.38780768296380586,-5.476060124484993,2,left
7.4910000000000005,0.16197289783144295,1.0006012699701174,0.12599603181366237,5.316445190382512,-7.399566557997317,0.6677185239075186,1.6816475152257127,0.3704907168315011,-5.47291484831462,2,left
7.496,0.15701710210619935,1.0157497425482984,0.12680444935763255,5.337402820267326,-7.332119951398804,0.7048679764264135,1.6800015588715316,0.3526116171682662,-5.467308670856919,2,left
7.497000000000001,0.15223256222135065,1.0306488742505984,0.1275758104570288,5.356706841513244,-7.259842337137907,0.7419457290749074,1.6775590472841557,0.3341901412969616,-5.459238173336901,2,left
7.499,0.1476211792732084,1.0452908518797384,0.12830923968599706,5.374381002974794,-7.182822059439999,0.7789310298020841,1.674326490137048,0.3152463668501429,-5.448701617276751,2,left
7.5,0.14318483496328313,1.0596682278399792,0.12900381659174215,5.390448891510588,-7.101150299271594,0.8158028322424257,1.6703111038583343,0.2958006602939106,-5.435698975036948,2,left
7.504,0.1389253939648762,1.0737739288107204,0.12965857018929702,5.404933919430093,-7.014920966894636,0.8525398252085845,1.6655208076356218,0.2758736468858236,-5.420231958890827,2,left
7.505,0.13484470604478677,1.0876012637257118,0.13027247382728904,5.417859313451109,-6.924230597587214,0.8891204615488378,1.6599642183143573,0.2554861820125005,-5.402304048602306,2,left
7.51,0.1309446079371975,1.1011439310081133,0.13084444058269443,5.4292481052141595,-6.829178250296277,0.9255229864751021,1.6536506441781997,0.2346593238510904,-5.381920517469435,2,left
7.51,0.12722692495594382,1.1143960250011162,0.13137331930330848,5.439123123395453,-6.729865408974848,0.9617254654669963,1.6465900775976725,0.21341430729741354,-5.359088456789339,2,left
7.515,0.12369347231283227,1.1273520415162117,0.1318578913694056,5.447506987455603,-6.626395886343432,0.9977058118569945,1.6387931865311458,0.1917725191022494,-5.333816798693059,2,left
7.515,0.120346056082097,1.1400068823998315,0.13229686820746647,5.454422103056862,-6.518875729802751,1.0334418142011947,1.630271304860039,0.16975547415598746,-5.306116337291766,2,left
7.52,0.11718647371465676,1.1523558589984457,0.13268888957177177,5.459890659177295,-6.4074131292127605,1.0689111635396569,1.6210364215379776,0.14738479286065587,-5.27599974806876,2,left
7.52,0.11421651396277982,1.1643946943870633,0.1330325226192572,5.463934626946023,-6.292118326240911,1.1040914806496225,1.6111011685315357,0.12468217952720324,-5.24348160544469,2,left
7.523,0.11143795603099453,1.1761195242199338,0.1333262618349644,5.466575760219458,-6.173103524971022,1.138960343394231,1.6004788075281071,0.10166940173483092,-5.208578398436433,2,left
7.524,0.10885256772892848,1.187526896065306,0.13356852990958173,5.467835597914262,-6.050482803452806,1.1734953142685753,1.5891832153844003,0.07836827058815746,-5.1713085443231614,2,left
7.53,0.1064621023713954,1.1986137670961035,0.13375767971571056,5.467735468108727,-5.924372025861064,1.2076739682441138,1.5772288682870472,0.05480062180704365,-5.131692400226205,2,left
7.531000000000001,0.10426829415551131,1.2093775000239912,0.13389199756607154,5.466296493920178,-5.794888754922908,1.241473921011558,1.5646308245948408,0.030988297583015616,-5.089752272502497,2,left
7.5329999999999995,0.10227285175231797,1.2198158571877362,0.13396970795980626,5.4635396011620925,-5.662152164260998,1.2748728577214015,1.551404706330183,0.0069531291353949545,-5.045512423844557,2,left
7.534,0.10047744989117871,1.2299269927437881,0.13398898002781945,5.459485527780672,-5.5262829502907795,1.307848562320222,1.537566679285429,-0.0172830801005206,-4.998999077973278,2,left
7.537999999999999,0.09888371879406287,1.239709442964608,0.133947935860721,5.454154835066793,-5.38740324329997,1.3403789475798102,1.52313343170798,-0.04169857072158535,-4.95024042180307,2,left
7.539,0.09749323143094536,1.249162114731392,0.13384466082240848,5.447567920635445,-5.245636517329287,1.372442085915024,1.5081221515261585,-0.06627164311024238,-4.899266604952335,2,left
7.544,0.09630748870525542,1.2582842724056575,0.13367721580787956,5.439745033161075,-5.101107498464324,1.4040162410850496,1.492550502076145,-0.09098067276284616,-4.846109736465709,2,left
7.545,0.0953279028187802,1.2670755233613407,0.13344365120869542,5.430706288853558,-4.953942071139902,1.435079900871475,1.4764365962885604,-0.11580412526296348,-4.790803878608067,2,left
7.55,0.09455577918599485,1.2755358025348982,0.13314202214297105,5.420471689655897,-4.804267182049889,1.4656118108252365,1.4597989692916005,-0.1407205709701979,-4.7333850375839255,2,left
7.551,0.09399229734644914,1.2836653563858942,0.13277040435078336,5.409061143141263,-4.652210741247583,1.495591009173095,1.4426565494280805,-0.16570869947266278,-4.673891151063538,2,left
7.5520000000000005,0.09363849133404781,1.2914647266380046,0.13232691011778724,5.396494484083411,-4.497901520014136,1.5249968629728385,1.4250286278924387,-0.1907473337374996,-4.612362072560396,2,left
7.553,0.09349522991053967,1.2989347341004016,0.13180970367179423,5.382791497671145,-4.341469045065365,1.5538091056048695,1.406934827570685,-0.21581544368880515,-4.548839553004078,2,left
7.553999999999999,0.0935631970324598,1.3060764628027064,0.13121701559543322,5.367971944334071,-4.183043488660355,1.5820078756862612,1.3883950718750884,-0.2408921588284795,-4.483367220016054,2,left
7.56,0.09384287294816838,1.312891244645653,0.13054715583522886,5.352055586143602,-4.0227555541688975,1.609573757491707,1.3694295541537422,-0.2659567796297097,-4.415990555220566,2,left
7.561,0.09433451635781598,1.319380644745558,0.12979852492386657,5.335062214749872,-3.860736356648607,1.6364878229640993,1.350058707875376,-0.2909887876381904,-4.346756869611736,2,left
7.561,0.09503814804013114,1.3255464476031813,0.1289696231410597,5.317011680786123,-3.6971172981974347,1.6627316752983627,1.330303177578245,-0.3159678543302641,-4.27571527682282,2,left
7.564,0.09595353625839592,1.3313906441706338,0.1280590574857903,5.297923924539349,-3.5320299389444556,1.6882874935937073,1.3101837905286573,-0.34087384879994065,-4.202916664104179,2,left
7.564,0.0970801841501643,1.3369154198454787,0.127065546456661,5.27781900744958,-3.365605866521491,1.7131380771915947,1.2897215290335386,-0.36568684434666315,-4.128413660811156,2,left
7.568,0.09841731922177416,1.3421231433880816,0.12598792273742435,5.25671714386757,-3.197976567956087,1.7372668878281403,1.2689375033503247,-0.39038712403553444,-4.052260604197906,2,left
7.569,0.09996388501666433,1.3470163567256954,0.12482513399379318,5.23463873262728,-3.0292733068195865,1.760658088214348,1.2478529251364292,-0.4149551853015095,-3.974513502308143,2,left
7.5729999999999995,0.10171853497832667,1.3515977655710982,0.12357624210900346,5.211604388219878,-2.85962700647557,1.7832965765315463,1.2264890813795502,-0.43937174366879295,-3.895229993748911,2,left
7.574,0.10367962846515372,1.355870230748041,0.12224042129556584,5.18763497148279,-2.689168139167908,1.8051680168139657,1.204867308749155,-0.4636177356563568,-3.814469304128722,2,left
7.577000000000001,0.10584522880633095,1.3598367600826895,0.12081695559813561,5.1627516197404075,-2.518026620464061,1.8262588652856322,1.1830089683086173,-0.4876743209401135,-3.7322921989368405,2,left
7.577999999999999,0.10821310323140183,1.3635005006895426,0.11930523633339399,5.13697577633032,-2.3463317085665665,1.8465563927165727,1.1609354205266813,-0.5115228838418475,-3.6487609326360837,2,left
7.582000000000001,0.11078072446622515,1.3668647314532916,0.11770475998724513,5.110329219446273,-2.174211908003307,1.8660487028611377,1.1386680005261842,-0.5351450342145146,-3.5639391937372635,2,left
7.584,0.11354527376358003,1.3699328554904788,0.1160151270064457,5.082834090226406,-2.0017948772051923,1.8847247470389996,1.1162279935072905,-0.5585226077929786,-3.4778920456193276,2,left
7.587999999999999,0.1165036451260733,1.372708392374103,0.11423604179327121,5.054512920012771,-1.8292073394783057,1.9025743349171145,1.093636610281872,-0.5816376660786559,-3.390685862855377,2,left
7.587999999999999,0.11965245048185681,1.3751949699254553,0.1123673140616034,5.025388656705631,-1.6565749968763253,1.9195881415486176,1.0709149628551113,-0.604472495825889,-3.3023882628010335,2,left
7.593,0.12298802558837163,1.3773963154224471,0.11040886156285264,4.9954846901336065,-1.4840224464781915,1.9357577107222785,1.0480840399899114,-0.6270096081971686,-3.213068032198105,2,left
7.593999999999999,0.12650643646181023,1.3793162461406527,0.10836071405169409,4.964824876358358,-1.311673098575491,1.951075454673779,1.0251646826892549,-0.6492317376535671,-3.1227950485431717,2,left
7.597,0.13020348615779362,1.3809586592251182,0.10622301824455341,4.933433560830173,-1.1396490962739003,1.9655346502076678,1.002177559531289,-0.6711218406459478,-3.031640195967595,2,left
7.597,0.13407472176363,1.3823275209764694,0.10399604344359527,4.901335600308638,-0.968071236013257,1.9791294312764274,0.9791431417915896,-0.6926630941716524,-2.9396752753724944,2,left
7.604,0.1381154415057291,1.3834268557110871,0.10168018746545021,4.868556383460321,-0.797058888511406,1.9918547780606422,0.9560816782868115,-0.7138388942604701,-2.846972908559523,2,left
7.604,0.1423207019225631,1.3842607344115656,0.09927598252095636,4.8351218500433975,-0.6267299196379059,2.003706502591794,0.9330131698737304,-0.7346328544527361,-2.753606436095733,2,left
7.607,0.14668532509469254,1.384833263417206,0.09678410072328539,4.8010585085870074,-0.45720061072495033,2.0146812309567252,0.9099573435375503,-0.755028804331407,-2.6596498086484948,2,left
7.608,0.15120390595118374,1.385148573419622,0.09420535894000755,4.766393452471279,-0.2885855778244893,2.0247763821203204,0.8869336260032684,-0.7750107881689076,-2.5651774715243145,2,left
7.612,0.15587081968266162,1.385210809031935,0.09154072273866366,4.731154374312002,-0.12099768942248904,2.0339901434004464,0.8639611168038718,-0.7945630637484521,-2.4702642421434997,2,left
7.6129999999999995,0.16068022928411813,1.385024119195215,0.08879130920426923,4.695369578552165,0.04545201787643491,2.042321442626668,0.8410585607391733,-0.8136701014183968,-2.3749851801809143,2,left
7.617000000000001,0.16562609322916913,1.384592648672321,0.08595838843963508,4.659067992160829,0.21065442617815372,2.049769917011741,0.8182443197097836,-0.8323165834399118,-2.279415450368217,2,left
7.617999999999999,0.17070217325350964,1.3839205308507532,0.08304338360394438,4.622279173338168,0.37450242612312695,2.0563358787623462,0.7955363441638419,-0.8504874037016098,-2.1836301792848074,2,left
7.619,0.17590204220681585,1.3830118820352968,0.08004786939802618,4.5850333181239264,0.5368910101834008,2.0620202774529983,0.7729521448496907,-0.8681676678997556,-2.0877043098632457,2,left
7.622000000000001,0.18121909190913177,1.3818707973860085,0.07697356895430123,4.547361264805102,0.6977173699068538,2.066824659184528,0.7505087658209171,-0.8853426942959408,-1.99171245866719,2,left
7.622999999999999,0.18664654090792593,1.3805013486662119,0.07382234913456974,4.509294496017199,0.8568809975791566,2.0707511225459996,0.7282227593875022,-0.9019980151481565,-1.8957287796661528,2,left
7.626,0.19217744198401535,1.3789075839833902,0.0705962142916399,4.470865138432143,1.014283792769722,2.073802271396401,0.706110163251815,-0.9181193788835296,-1.7998268358314058,2,left
7.627999999999999,0.1978046892183164,1.3770935296997169,0.06729729860980699,4.432105959930461,1.1698301739116965,2.075981164591617,0.6841864798156069,-0.933692753064946,-1.7040794785440458,2,left
7.627999999999999,0.20352102442351253,1.3750631946550758,0.06392785717846758,4.393050364182946,1.3234271935025432,2.0772912633382252,0.6624666575940222,-0.9487043281993797,-1.6085587345396517,2,left
7.632000000000001,0.2093190427624459,1.3728205767995205,0.060490255960196596,4.3537323826178085,1.4749846527010033,2.077736377858527,0.640965074673131,-0.9631405224342054,-1.5133357001141816,2,left
7.632000000000001,0.21519119738429754,1.3703696722898198,0.056986960822440764,4.314186663777143,1.6244152095321722,2.0773206156072486,0.6196955241480373,-0.976987987186209,-1.4184804423162158,2,left
7.638999999999999,0.22112980289109227,1.3677144870683666,0.053420525843075425,4.27444846003688,1.7716344764655558,2.076048332719327,0.5986712014791995,-0.990233613746385,-1.324061906851287,2,left
7.64,0.2271270374378944,1.3648590509030731,0.04979358115846607,4.234553611611888,1.916561105930832,2.0739240893603155,0.5779046937052223,-1.0028645409019668,-1.2301478324249016,2,left
7.641,0.23317494331358882,1.361807433821518,0.046108820672832354,4.194538527738453,2.059116863888662,2.0709526090899386,0.5574079704510486,-1.0148681636154424,-1.1368046712519062,2,left
7.642,0.2392654259464041,1.3585637648228426,0.04236898998655528,4.154440164920045,2.1992266918792986,2.0671387422351466,0.5371923766711789,-1.026232142798575,-1.0440975154611059,2,left
7.645,0.24539025141286966,1.355132252686549,0.03857687491821619,4.114296002121862,2.3368187579651623,2.0624874332665786,0.5172686270682899,-1.0369444162176908,-0.9520900291254861,2,left
7.646,0.25154104269155164,1.3515172086044813,0.03473529096702606,4.074144012799248,2.4718244969767422,2.0570036921699093,0.49764680212839435,-1.0469932105646889,-0.8608443856500304,2,left
7.65,0.2577092750833882,1.3477230702347311,0.030847073981542864,4.0340226336449065,2.6041786404641685,2.0506925698011336,0.4783363457144899,-1.0563670547263924,-0.7704212102509462,2,left
7.651,0.26388627140000714,1.343754426615096,0.02691507218331578,3.993970729939645,2.733819236749575,2.043559137212438,0.4593460641614846,-1.0650547942829907,-0.6808795272621212,2,left
7.655,0.2700631976772857,1.3396160431903863,0.022942139564127877,3.9540275573914,2.860687661467944,2.035608468932916,0.4406841268160503,-1.0730456072644134,-0.5922767120068149,2,left
7.656000000000001,0.27623106028049416,1.3353128860292047,0.01893113055379996,3.9142327203473597,2.98472861897652,2.026845630186005,0.4223580679659496,-1.080329021191543,-0.5046684469749527,2,left
7.6610000000000005,0.2823807053066037,1.330850144169596,0.014884895762374404,3.8746261262642174,3.10589013500509,2.017275668023172,0.40437479010429933,-1.0868949314271974,-0.41810868204891494,2,left
7.662000000000001,0.2885028211406048,1.3262332489778152,0.010806278556786241,3.8352479363218888,3.224123540911465,2.0069036063510097,0.3867405684751768,-1.0927336208598186,-0.3326495985234088,2,left
7.665,0.29458794488247997,1.3214678894597345,0.006698112250755272,3.7961385120664626,3.3393834498983956,1.9957344448265841,0.36946105684793723,-1.0978357809407677,-0.24834157666786555,2,left
7.666,0.300626473146084,1.3165600226343739,0.0025632177660029902,3.7573383579686968,3.4516277255398746,1.9837731615935528,0.35254129446859483,-1.1021925340940646,-0.16523316658281084,2,left
7.672000000000001,0.30660867747045845,1.3115158783302734,-0.0015955982528323206,3.7188880597850096,3.5608174429563846,1.9710247198292699,0.3359857141376214,-1.105795457515331,-0.08337106210481568,2,left
7.672999999999999,0.31252472430763467,1.3063419580418218,-0.005775544751552832,3.680828218608718,3.6669168429701138,1.9574940780707974,0.31979815136453393,-1.108636608374571,-0.002800077517939022,2,left
7.675,0.3183646992780976,1.3010450277424734,-0.009973846790892409,3.6431993805001364,3.7698932795624955,1.9431862042854797,0.3039818545506746,-1.1107085504352847,0.07643687316698662,2,left
7.676,0.32411863512919314,1.2956321047870094,-0.014187745042723311,3.6060419615851744,3.869717160947677,1.9281060936494603,0.2885394961526318,-1.1120043821002559,0.15429879460029772,2,left
7.678999999999999,0.32977654261622497,1.2901104392567744,-0.018414494088594042,3.5693961685131796,3.966361884566636,1.9122587899952888,0.2734731847798065,-1.1125177658921508,0.23074662638003685,2,left
7.682,0.33532844338951373,1.2844874903122452,-0.022651359500720804,3.5333019141660165,4.0598037662977084,1.895649410887522,0.25878447818069394,-1.1122429593748717,0.3057432574646229,2,left
7.683,0.34076440394629776,1.2787708982975075,-0.0268956138662229,3.4977987285117265,4.150021964170233,1.87828317628301,0.24447439707352314,-1.1111748475193692,0.37925353893524666,2,left
7.687,0.34607456979241075,1.2729684534643266,-0.03114453205624725,3.4629256644975754,4.236998396858906,1.8601654407303543,0.23054343977797612,-1.1093089765153799,0.45124429532752636,2,left
7.688,0.3512491991180705,1.2670880622228027,-0.03539538609485566,3.4287211988788906,4.320717657227219,1.8413017290608344,0.21699159759865136,-1.106641588963407,0.521684334696922,2,left
7.688,0.3562786954802489,1.2611377117518636,-0.03964543995103701,3.395223127881781,4.401166921179129,1.8216977755209263,0.20381837087631444,-1.1031696600545953,0.5905444573237951,2,left
7.692,0.361153639157218,1.2551254336417568,-0.043891944507977954,3.3624684575996358,4.478335852068789,1.8013595662943727,0.19102278555979393,-1.098890933759947,0.6577974625018084,2,left
7.693,0.36586481695014533,1.249059267117755,-0.048132132920070354,3.330493289025228,4.552216500908788,1.780293385359634,0.17860341011676326,-1.0938039577236318,0.723418152594561,2,left
7.697,0.3704032502391496,1.24294722239393,-0.05236321657035769,3.299332697622271,4.622803202608021,1.7585058636264135,0.16655837263844037,-1.0879081158772281,0.7873833337951713,2,left
7.699,0.37476022110733864,1.236797244742774,-0.05658238184533157,3.269020607544309,4.690092468612994,1.73600403118324,0.15488537805859603,-1.0812036583733298,0.8496718134767338,2,left
7.699,0.3789272963779391,1.2306171798198329,-0.06078678790931036,3.2395896616205526,4.75408287707773,1.7127953719380193,0.14358172544404724,-1.0736917287590233,0.9102643942712392,2,left
7.702999999999999,0.3828963494680144,1.2244147406629489,-0.0649735655966061,3.2110710900477146,4.814774963047401,1.6888878789449782,0.132644325322029,-1.065374388372298,0.9691438650606699,2,left
7.704,0.38665958002625184,1.2181974766975596,-0.06913981747545543,3.183494581738814,4.8721711118920865,1.664290108161401,0.12206971701090517,-1.0562546379421307,1.026294989059166,2,left
7.707000000000001,0.39020953138895154,1.2119727450718663,-0.0732826190881154,3.1568881612729682,4.926275458456849,1.6390112289235081,0.11185408592173923,-1.046336436370674,1.0817044891602892,2,left
7.707999999999999,0.39353910597079245,1.2057476846555335,-0.07739902133929054,3.1312780725756943,4.977093793015406,1.6130610704152208,0.10199328079929727,-1.0356247166736554,1.1353610307185011,2,left
7.712000000000001,0.3966415788066443,1.1995291929920218,-0.08148605399118293,3.1066886694524745,5.024633474344462,1.5864501639495718,0.09248283087209724,-1.0241253990528032,1.1872552019290048,2,left
7.712000000000001,0.39951060956181383,1.1933239064006396,-0.08554073022514413,3.083142312899194,5.068903350074129,1.559189780990161,0.08331796288214832,-1.0118454010718114,1.2373794919651013,2,left
7.7170000000000005,0.40214025341530507,1.1871381833122705,-0.08956005223754401,3.060659275115946,5.109913684460443,1.5312919668381315,0.07449361796604358,-0.9987926449050895,1.2857282670271846,2,left
7.718,0.4045249712825823,1.1809780908103227,-0.09354101784070364,3.0392576501536,5.147676093716556,1.5027695699082457,0.0660044683600747,-0.9849760616262729,1.332297744452431,2,left
7.722,0.4066596398659324,1.174849394246617,-0.09748062803186357,3.018953271125545,5.182203489029828,1.4736362665157738,0.05784493390302952,-0.9704055925012393,1.3770859650291731,2,left
7.723,0.40853956198726793,1.1687575497229283,-0.10137589547193357,2.9997596339200547,5.213510027382614,1.4439065810940819,0.050009198311310975,-0.9550921872481483,1.4200927636548348,2,left
7.727,0.41016047756689594,1.1627076991852332,-0.10522385378370026,2.981687827351831,5.241611070285292,1.4135959017610091,0.04249122520197837,-0.939047799224837,1.461319738471212,2,left
7.728,0.41151857547367143,1.1567046678776307,-0.10902156753950129,2.9647464696944144,5.266523150520728,1.3827204911503748,0.03528477384025831,-0.9222853775017378,1.5007702186057585,2,left
7.732,0.4126105063086996,1.150752963943287,-0.11276614276146642,2.9489416515383633,5.288263946990159,1.3512974924232402,0.02838341458900225,-0.904818855776351,1.5384492306424284,2,left
7.733,0.41343339602282514,1.1448567800221638,-0.11645473770431056,2.9342768849232965,5.306852267741259,1.3193449303718905,0.02178054403848014,-0.8866631380832122,1.5743634639405164,2,left
7.7379999999999995,0.41398486013095986,1.1390199967512311,-0.12008457363775114,2.9207530586951402,5.322308041249968,1.2868817075278738,0.015469399795794134,-0.8678340812512269,1.6085212349148417,2,left
7.739,0.4142630181858613,1.1332461880957798,-0.12365294530468579,2.9083684000431913,5.334652316018612,1.2539275951838669,0.009443074914072246,-0.8483484740582302,1.6409324503855243,2,left
7.7410000000000005,0.41426650810913257,1.1275386284177327,-0.12715723071662505,2.8971184421748695,5.343907268543734,1.220503219237616,0.0036945319424592873,-0.8282240130306489,1.6716085701005492,2,left
7.742000000000001,0.4139944999392282,1.121900301124649,-0.13059489996878076,2.886995998089301,5.350096219698089,1.1866300407647388,-0.001783383421240154,-0.8074792748342093,1.700562568529263,2,left
7.746,0.41344670853614973,1.1163339086616584,-0.13396352281083496,2.8779911404141485,5.353243659562315,1.152330331225763,-0.006997929092593835,-0.7861336851997558,1.7278088960199385,2,left
7.746,0.4126234047749088,1.1108418835338405,-0.13726077478597717,2.8700911872733528,5.353375280732916,1.1176271422114283,-0.011956453793778523,-0.7642074843264026,1.7533634394095585,2,left
7.751,0.4115254247634037,1.1054264000022116,-0.14048444184096806,2.8632806941566877,5.35051802012438,1.0825442696289913,-0.01666638469377342,-0.7417216887024722,1.7772434821690273,2,left
7.752000000000001,0.41015417663925374,1.1000893860947318,-0.14363242340332757,2.8575414517652318,5.3447001092745445,1.0471062122310475,-0.021135215510506192,-0.7186980492829396,1.7994676641621148,2,left
7.756,0.40851164454582545,1.0948325356127724,-0.14670273400296097,2.8528524898100214,5.335951133153639,1.0113381243872326,-0.025370495083735938,-0.6951590060464617,1.8200559410829376,2,left
7.756,0.4066003894717554,1.0896573198834607,-0.14969350356500977,2.849190086744296,5.324302097468843,0.9752657629980671,-0.02937981639936276,-0.6711276393835656,1.8390295435887454,2,left
7.757000000000001,0.4044235467554776,1.0845649990915365,-0.1526029765124595,2.84652778541279,5.309785504447743,0.9389154284491985,-0.0331708059958757,-0.6466276195402079,1.8564109360622274,2,left
7.761,0.40198482018705944,1.0795566330962827,-0.15542950981737894,2.844836414604559,5.292435437075584,0.9023138995033412,-0.03675111365559928,-0.6216831557695449,1.8722237748896213,2,left
7.7620000000000005,0.39928847277825874,1.0746330916895195,-0.15817157015712266,2.844084116498756,5.2722876517529516,0.8654883620263469,-0.04012840231013051,-0.5963189464132315,1.886492866179507,2,left
7.766,0.39633931441322895,1.069795064290802,-0.16082773035623765,2.8442363800025925,5.249379679023661,0.8284663316203384,-0.04331033813801658,-0.5705601303580436,1.899244122920392,2,left
7.766,0.3931426866888098,1.0650430691104587,-0.1633966652980515,2.845256080018223,5.223750930471634,0.7912755711226279,-0.04630458085949866,-0.5444322398822394,1.9105045216139265,2,left
7.767,0.3897044452643211,1.060377461833906,-0.16587714747287138,2.8471035227404724,5.1954428071003225,0.7539440055242134,-0.04911877423804056,-0.5179611548188457,1.920302058424797,2,left
7.771,0.38603094001270294,1.0557984439016137,-0.16826804232479053,2.8497364971246446,5.164498802957419,0.7164996377475874,-0.051760536797799524,-0.4911730579619308,1.9286657048839824,2,left
7.772,0.38212899325553523,1.0513060704916066,-0.17056830357994934,2.8531103326314193,5.130964599302679,0.678970467836604,-0.05423745276565719,-0.46409439164085703,1.935625363177783,2,left
7.775,0.3780058763490096,1.0469002583434517,-0.17277696875388637,2.857177963295707,5.094888147386165,0.6413844165150268,-0.0565570632459118,-0.43675181538652785,1.941211821050835,2,left
7.775,0.3736692848333241,1.0425807935727978,-0.17489315501615885,2.861889998133883,5.056319739439536,0.6037692531835549,-0.05872685763523683,-0.40917216461272926,1.9454567063471928,2,left
7.782,0.36912731229564766,1.038347339608365,-0.17691605554900028,2.8671947978989887,5.015312067784155,0.5661525282475742,-0.06075426528503789,-0.3813824102348345,1.948392441209547,2,left
7.7829999999999995,0.3643884230693323,1.0341994453454078,-0.1788449364948973,2.8730385581954714,4.971920271952491,0.52856150966772,-0.0626466474178877,-0.35340961914738167,1.9500521959526878,2,left
7.784,0.35946142390567837,1.0301365535600655,-0.1806791345501354,2.879365398966904,4.926201973712116,0.49102312362525025,-0.06441128930428827,-0.32528091548135324,1.9504698426234854,2,left
7.785,0.3543554347927042,1.0261580095768805,-0.18241805522576685,2.88611746037179,4.878217299874629,0.4535638991942279,-0.06605539270560051,-0.29702344256138274,1.9496799082558853,2,left
7.79,0.34907985913901574,1.0222630701352124,-0.18406117176581682,2.8932350050641356,4.828028892764968,0.41620991691257836,-0.06758606858859313,-0.2686643254825894,1.9477175278257635,2,left
7.791,0.3436443535772347,1.018450912363881,-0.18560802468690615,2.9006565268968316,4.775701908219905,0.3789867611442439,-0.06901033011669572,-0.24023063422629223,1.9446183969069142,2,left
7.794,0.33805879766593394,1.014720642747398,-0.18705822188304663,2.908318866067112,4.72130400097802,0.34191947612488,-0.07033508592269443,-0.21174934723348696,1.9404187240259783,2,left
7.795,0.33233326378183037,1.011071305950714,-0.18841143922289427,2.916157330724411,4.664905297317102,0.30503252558383964,-0.07156713366728258,-0.1832473153546744,1.9351551827107483,2,left
7.7989999999999995,0.3264779874952497,1.0075018933641815,-0.18966742155528002,2.924105825061799,4.606578354788807,0.2683497558355691,-0.07271315388757256,-0.15475122609441683,1.9288648632230303,2,left
7.8,0.3205033387101938,1.0040113512391549,-0.19082598403475257,2.932096983912865,4.54639810889446,0.23189436223398185,-0.07377970413938932,-0.12628756806886107,1.9215852239640732,2,left
7.803999999999999,0.31441979382382007,1.0005985883078354,-0.19188701368326286,2.9400623138764277,4.484441806540127,0.19568885888389684,-0.0747732134368993,-0.0978825955944067,1.9133540425375246,2,left
7.805,0.3082379091177111,0.9972624828163964,-0.19285047111634582,2.9479323409917604,4.420788926103574,0.1597550515042104,-0.07569997699288109,-0.06956229332571495,1.9042093664519248,2,left
7.81,0.3019682955360417,0.994001888944365,-0.1937163923798343,2.9556367649871436,4.355521083940389,0.12411401333812408,-0.07656615126271543,-0.04135234086134637,1.8941894634419079,2,left
7.81,0.2956215949372537,0.9908156426313776,-0.19448489086151913,2.9631046201244726,4.288721927151454,0.0887860640064663,-0.07737774929496244,-0.013278077235483061,1.8833327713845458,2,left
7.815,0.2892084578315943,0.9877025668790819,-0.19515615925696253,2.9702644426623785,4.220477012429088,0.05379075120092529,-0.07814063639120154,0.014635534785565537,1.871677847784646,2,left
7.816,0.28273952254413565,0.9846614766336648,-0.19573047157962678,2.9770444449598426,4.150873670794543,0.019146835114849627,-0.07886052607763532,0.0423639446830587,1.8592633188003032,2,left
7.82,0.2762253956801513,0.9816911833763006,-0.1962081852135221,2.983372696241605,4.0800008580351435,-0.015127724489829098,-0.0795429763908015,0.06988305052231833,1.8461278277775997,2,left
7.82,0.26967663372386175,0.9787904995520573,-0.19658974300933832,2.9891773100457795,4.007948990645201,-0.04901577868004344,-0.08019338647959696,0.09716923572615618,1.8323099832610543,2,left
7.824,0.26310372557537187,0.9759582429545607,-0.1968756754194397,2.9943866383729945,3.934809767070953,-0.08250099731289108,-0.08081699352569363,0.12419940636483885,1.8178483064442417,2,left
7.8260000000000005,0.25651707582484934,0.9731932411579581,-0.19706660265580153,2.998929472555097,3.8606759740561136,-0.11556787465921439,-0.08141886998356003,0.1509510289820618,1.8027811780756187,2,left
7.8260000000000005,0.24992698857976411,0.9704943360544508,-0.1971632368463199,3.002735250859921,3.7856412778812545,-0.1482017327867747,-0.08200392113741661,0.1774021686780713,1.7871467850961027,2,left
7.827999999999999,0.24334365169492939,0.9678603885217549,-0.19716638416322382,3.005734272846949,3.7098000002871014,-0.18038872279918197,-0.08257688296554855,0.20353152663454208,1.770983067757324,2,left
7.829,0.23677712128385597,0.9652902832155937,-0.19707694689582533,3.007857920486752,3.6332468788689827,-0.21211582402554072,-0.08314232029854395,0.22931847596735613,1.7543276682311923,2,left
7.834,0.23023730639735146,0.9627829334575877,-0.19689592543076592,3.0090388860550035,3.556076811727081,-0.24337084125453068,-0.08370462526176976,0.25474309509022947,1.7372178814563308,2,left
7.835,0.22373395375419658,0.9603372861684548,-0.19662442009035438,3.0092114064868087,3.478384586687746,-0.2741424001060274,-0.08426801599918966,0.27978619830700774,1.7196906084911745,2,left
7.836,0.21727663241887435,0.9579523267855711,-0.19626363277433956,3.0083115022610194,3.400264598073717,-0.30441994063539307,-0.08483653567939889,0.30442936364713447,1.701782312378666,2,left
7.8389999999999995,0.21087471834228916,0.9556270841049789,-0.19581486835408,3.0062772159770406,3.3218105587957063,-0.3341937092702323,-0.08541405178550084,0.3286549580172878,1.6835289764734678,2,left
7.84,0.20453737869922128,0.9533606349908986,-0.19527953576962268,3.003048844170178,3.243115218200902,-0.36345474918136533,-0.08600425569045249,0.35244615974108906,1.6649660651814253,2,left
7.843,0.19827355596407825,0.9511521088924257,-0.19465914877245938,2.998569157522074,3.1642700934481054,-0.39219488918500833,-0.08661066251952013,0.37578697855763854,1.6461284870599064,2,left
7.843999999999999,0.19209195167177973,0.9490006921049935,-0.1939553262457216,2.9927836075239616,3.085365217381884,-0.4204067312656868,-0.0872366113015124,0.3986622731484347,1.6270505602266654,2,left
7.85,0.18600100982217335,0.9469056317233915,-0.19316979202600612,2.985640519260626,3.0064889032127957,-0.44808363680459246,-0.08788526541049375,0.42105776626098945,1.6077659800239708,2,left
7.851,0.18000889990459193,0.9448662392522955,-0.1923043741470757,2.97709127030208,2.927727525777384,-0.47521971159593057,-0.08855961329972753,0.4429600574961583,1.5883077888839612,2,left
7.854,0.17412349954151923,0.942881893863637,-0.19136100342688026,2.967090455686234,2.849165319151453,-0.5018097897322883,-0.0892624695296537,0.46435663382486925,1.5687083483404964,2,left
7.854,0.16835237677527395,0.9409520453150596,-0.19034171133014838,2.95559603897193,2.7708841903902264,-0.5278494164385199,-0.08999647609177115,0.4852358778985581,1.548999313132169,2,left
7.86,0.16270277204771905,0.9390762165689363,-0.1892486270614245,2.942569489337676,2.692963549169305,-0.5533348299320917,-0.09076410403036766,0.5055870742162019,1.529211607340658,2,left
7.861000000000001,0.15718157995071275,0.9372540061746403,-0.18808397387661313,2.9279759046972686,2.615480153100907,-0.5782629423862646,-0.09156765536412258,0.5254004132093933,1.5093754025081796,2,left
7.8629999999999995,0.15179533085607008,0.9354850904943699,-0.1868500646409074,2.911784120799201,2.5385079685006926,-0.60263132007091,-0.09240926530969591,0.5446669933054131,1.489520097677489,2,left
7.864,0.14655017256743505,0.9337692258616243,-0.18554929670111203,2.893966806272351,2.462118046381488,-0.6264381627441651,-0.09329090480951419,0.5633788210267414,1.4696743012976492,2,left
7.867999999999999,0.14145185216960382,0.9321062507600165,-0.1841841461736412,2.874500543575969,2.3863784134514723,-0.649682282366536,-0.09421438336606588,0.5815288091839098,1.4498658149386485,2,left
7.869,0.13650569828058542,0.930496088098975,-0.1827571617711818,2.8533658958073826,2.3113539778958696,-0.6723630812074457,-0.0951813521851287,0.5991107732170232,1.430121618757891,2,left
7.872999999999999,0.1317166039352357,0.9289387476435333,-0.18127095830075504,2.8305474593161883,2.237106449722839,-0.6944805294126172,-0.09619330763046473,0.61611942573969,1.4104678586616015,2,left
7.874,0.1270890103446447,0.9274343286291812,-0.17972820996511785,2.8060339020689704,2.1636942754561233,-0.7160351420990643,-0.0972515949926407,0.6325503693374881,1.3909298351043082,2,left
7.877999999999999,0.12262689178298224,0.9259830225603252,-0.17813164358831562,2.7798179877037934,2.091172586959071,-0.7370279560428455,-0.09835741257475385,0.6484000876714631,1.37153199346973,2,left
7.879,0.11833374185380346,0.9245851161540897,-0.1764840318653855,2.751896585208893,2.0195931641768503,-0.7574605060231194,-0.09951181609797355,0.6636659349355116,1.3522979159766695,2,left
7.882999999999999,0.11421256137919474,0.9232409943546681,-0.1747881867099622,2.7222706641551317,1.949004411586093,-0.7773348008844246,-0.10071572342994155,0.6783461237148422,1.3332503150538335,2,left
7.882999999999999,0.11026584813570663,0.9219511433129703,-0.173046952747351,2.690945275406902,1.8794513481437372,-0.7966532993774954,-0.10196991963920957,0.6924397112910415,1.3144110281279107,2,left
7.888,0.10649558863193476,0.9207161532052064,-0.17126320097813608,2.6579295172312647,1.810975610529548,-0.8154188858373134,-0.10327506237903297,0.7059465844375962,1.2958010137696963,2,left
7.888999999999999,0.10290325208725958,0.9195367207535105,-0.16943982262171484,2.623236486720228,1.7436154694796295,-0.8336348457554937,-0.10463168760398017,0.7188674427480398,1.277440349143595,2,left
7.893,0.09948978673200075,0.9184136513134645,-0.16757972314190792,2.586883216436197,1.6774058590112095,-0.8513048413025105,-0.1060402156152825,0.731203780549414,1.259348228713572,2,left
7.894,0.09625561850760371,0.9173478604097343,-0.16568581645491362,2.5488905961857737,1.6123784183420673,-0.8684328868536753,-0.10750095739259437,0.742957867513045,1.2415429641950098,2,left
7.895,0.0932006522054128,0.9163403746283901,-0.16376101931832457,2.5092832798222884,1.5485615463111724,-0.8850233245712079,-0.10901412110086083,0.754132728182762,1.2240419858069558,2,left
7.897,0.09032427504893091,0.9153923317999826,-0.16180824589683,2.4680895769726634,1.4859804681104007,-0.9010808000931674,-0.11057981862273819,0.7647321207000015,1.2068618449157438,2,left
7.898,0.08762536269635067,0.9145049804245201,-0.15983040249645816,2.4253413295795294,1.4246573141405816,-0.9166102383784587,-0.11219807200556306,0.7747605149425743,1.1900182181260675,2,left
7.903,0.08510228761119694,0.9136796783081892,-0.1578303824557942,2.381073773144868,1.3646112108086004,-0.9316168197555839,-0.11386881978113667,0.7842230701824052,1.1735259128121402,2,left
7.905,0.08275292971864037,0.9129178904091877,-0.1558110611811855,2.3353253828500935,1.305858382910515,-0.946105956235555,-0.11559192315514231,0.793125612304906,1.1573988740467682,2,left
7.905,0.08057468924514491,0.9122211859167765,-0.15377529131519663,2.2881377061889654,1.2484122663726827,-0.9600832682192653,-0.11736717207084478,0.8014746106187989,1.1416501928799798,2,left
7.9079999999999995,0.07856450163564835,0.9115912346042022,-0.15172589803248834,2.239555186384005,1.1922836285487375,-0.9735545618566108,-0.11919429115187055,0.8092771542835911,1.1262921159198651,2,left
7.9079999999999995,0.07671885443745197,0.9110298025094822,-0.14966567446302256,2.1896249823187897,1.1374806923974123,-0.9865258073845712,-0.12107294552901895,0.816540928380284,1.1113360561693244,2,left
7.912000000000001,0.0750338060158927,0.9105387470172692,-0.14759737724875807,2.1383967892484366,1.0840092617464974,-0.9990031186985852,-0.12300274655620318,0.8232741896493199,1.0967926050735086,2,left
7.912999999999999,0.07350500593592794,0.9101200114335758,-0.1455237222448508,2.085922661907918,1.0318728464298363,-1.0109927342816103,-0.12498325742076913,0.8294857419181958,1.0826715457338594,2,left
7.917000000000001,0.07212771682570118,0.9097756191521392,-0.14344738037570862,2.0322568401680674,0.9810727869646242,-1.0225009995424148,-0.12701399865358856,0.8351849112396306,1.068981867245805,2,left
7.917999999999999,0.07089683753292124,0.9095076675066829,-0.14137097364944035,1.9774555770922215,0.9316083786154059,-1.0335343505989631,-0.12909445354446897,0.8403815207596459,1.0557317801183546,2,left
7.922000000000001,0.06980692738332928,0.9093183213930053,-0.13929707132567684,1.9215769692428695,0.8834769946950044,-1.0440992995413494,-0.1312240734685688,0.8450858653334256,1.0429287327350445,2,left
7.922999999999999,0.06885223134870015,0.9092098067319305,-0.13722818622680566,1.8646807890842685,0.8366742089564407,-1.054202421207355,-0.1334022831296509,0.8493086859053463,1.0305794288169263,2,left
7.928,0.06802670592996406,0.9091844038300052,-0.1351667711849629,1.8068283193237138,0.7911939169337444,-1.0638503415023377,-0.1356284857261493,0.853061143668131,1.0186898458495486,2,left
7.928999999999999,0.06732404555972428,0.909244440681225,-0.13311521562686937,1.7480821890310727,0.7470284560933744,-1.0730497272938189,-0.1379020680461659,0.8563547940146631,1.0072652544371679,2,left
7.932,0.06673770932790539,0.9093922862418359,-0.13107584231099176,1.6885062113732658,0.7041687246617865,-1.0818072779098078,-0.14022240549765355,0.8592015602946139,0.996310238548726,2,left
7.933,0.06626094783555249,0.9096303437018581,-0.12905090423996962,1.6281652227976349,0.662604298998477,-1.0901297182685883,-0.1425888670801793,0.8616137073866911,0.9858287166214489,2,left
7.936,0.06588682998663413,0.909961043770762,-0.1270425817731711,1.5671249234955735,0.6223235493876086,-1.098023793666414,-0.14500082030479758,0.8636038150959929,0.9758239634892564,2,left
7.938,0.06560826953778474,0.9103868379896133,-0.12505297996146564,1.5054517189754133,0.5833137541250707,-1.1054962662482837,-0.1474576360686982,0.8651847513846759,0.9662986331045215,2,left
7.941,0.06541805124289397,0.9109101920773738,-0.12308412612158519,1.4432125625713643,0.545561211781546,-1.1125539131857198,-0.14995869349142546,0.8663696454428893,0.9572547820230752,2,left
7.942,0.06530885645351692,0.9115335793149085,-0.12113796766227261,1.3804747987133006,0.5090513515258401,-1.11920352658424,-0.15250338471959665,0.8671718606057225,0.948693893623722,2,left
7.946000000000001,0.06527328806514805,0.9122594739662337,-0.11921637016846813,1.3173060067803632,0.47376884139638037,-1.1254519151420055,-0.1550911197071755,0.8676049671207351,0.9406169030349054,2,left
7.947,0.06530389473010624,0.9130903447321564,-0.11732111574211954,1.2537738453597291,0.4396976944123983,-1.1313059075799354,-0.1577213309784848,0.867682714769502,0.9330242227425478,2,left
7.9510000000000005,0.06539319428642369,0.9140286482280658,-0.11545390158990854,1.1899458967304637,0.4068213724198812,-1.1367723578624007,-0.160393478381267,0.8674190053455093,0.9259157688544732,2,left
7.952000000000001,0.0655336963755409,0.9150768224777214,-0.11361633884295541,1.1258895113911351,0.37512288757090023,-1.141858152226468,-0.16310705383722504,0.8668278649896713,0.9192909879982103,2,left
7.956,0.06571792423874825,0.9162372804197026,-0.111809951594232,1.0616716524488257,0.344584901338402,-1.1465702180365207,-0.1658615860975989,0.8659234163837243,0.9131488848303633,2,left
7.957000000000001,0.06593843569488618,0.9175124034314217,-0.11003617614463684,0.9973587396863225,0.31518982097198317,-1.150915534479978,-0.16865664551145243,0.8647198508007691,0.9074880501371309,2,left
7.961,0.06618784331211142,0.9189045348839211,-0.10829636045480491,0.9330164931236162,0.28691989330354833,-1.1549011451187352,-0.17149184881446525,0.8632314000112952,0.9023066895069366,2,left
7.962000000000001,0.06645883379572519,0.920415973746155,-0.10659176380454866,0.8687097758893702,0.25975729581508644,-1.1585341723098792,-0.17436686394614165,0.8614723080421182,0.8976026525575268,2,left
7.962999999999999,0.06674418662213535,0.922048968258698,-0.10492355666448833,0.8045024362177468,0.23368422488408325,-1.1618218335081745,-0.17728141489514776,0.8594568028035791,0.8933734626762283,2,left
7.966,0.06703679195375355,0.9238057096939398,-0.10329282078398386,0.7404571483858936,0.20868298112531924,-1.164771459461788,-0.18023528653101614,0.857199067693417,0.8896163471082553,2,left
7.966,0.06732966786962322,0.9256883262145581,-0.1017005494956805,0.67663525240749,0.18473605175098426,-1.1673905143117016,-0.18322832930571475,0.8547132134539346,0.8863282670039773,2,left
7.971,0.06761597694695243,0.9276988768371451,-0.10014764823044205,0.6130965922980389,0.16182618987416925,-1.1696866176042755,-0.18626046366710292,0.8520132506522121,0.8835059469122424,2,left
7.971,0.06788904223430817,0.9298393455043666,-0.09863493522771916,0.5498993527280499,0.13993649068387604,-1.1716675682254494,-0.189331684067998,0.8491130630585587,0.8811459033333899,2,left
7.972,0.06814236266261138,0.9321116352656724,-0.09716314241702145,0.487099894111101,0.11905046442609882,-1.1733413701894317,-0.1924420625295461,0.8460263820287451,0.8792444721722732,2,left
7.975,0.06836962793710501,0.9345175625631797,-0.09573291644031404,0.4247525873255747,0.09915210614543395,-1.1747162598403453,-0.19559175175928978,0.8427667619010651,0.8777978350581407,2,left
7.976,0.06856473294329819,0.9370588516178658,-0.09434481978593443,0.3629096513416446,0.08022596217506586,-1.1758007333521696,-0.19878098783275536,0.8393475563999285,0.8768020445245871,2,left
7.981,0.0687217916899499,0.939737128911807,-0.092999332008352,0.30162099817722876,0.06225719338278338,-1.1766035730379842,-0.20201009244749613,0.8357818960371427,0.8762530480441042,2,left
7.981,0.06883515080506927,0.9425539177628307,-0.09169685100844918,0.24093408845691675,0.045231635166597055,-1.1771338713521151,-0.2052794747586396,0.8320826665015506,0.8761467109130671,2,left
7.986000000000001,0.06889940259286903,0.9455106329891625,-0.09043769434528626,0.18089379877752165,0.02913585416586256,-1.1774010521401714,-0.20858963280510168,0.8282624880272299,0.8764788379842849,2,left
7.987,0.06890939764835367,0.9486085756657056,-0.08922210054635923,0.1215423009344945,0.013957201639644526,-1.177414889064611,-0.2119411545357448,0.824333695730038,0.8772451942455336,2,left
7.99,0.06886025701349557,0.9518489279797369,-0.08805023038243669,0.06291895283495885,-0.00031613653661794654,-1.1771855212073723,-0.21533471844487337,0.8203083209019029,0.8784415242437523,2,left
7.99,0.06874738384632385,0.9552327481992716,-0.08692216807618461,0.005060200924977348,-0.013695093302410262,-1.1767234658503682,-0.21877109382657653,0.8161980732519121,0.8800635703558523,2,left
7.995,0.06856647456259139,0.9587609657701347,-0.08583792241955125,-0.052000506039366214,-0.0261896773150354,-1.1760396284338979,-0.22225114065754858,0.8120143240829399,0.8821070899083261,2,left
7.996,0.0683135294007135,0.9624343765576285,-0.08479742778118973,-0.10823279204539993,-0.037808933365128125,-1.1751453096923425,-0.2257758091181365,0.8077680903922744,0.8845678711490884,2,left
7.999,0.06798486235548055,0.9662536382474204,-0.08380054499192056,-0.1636094178679529,-0.04856090634324609,-1.1740522099658421,-0.22934613876148882,0.8034700198844597,0.8874417480761984,2,left
8.0,0.06757711042410104,0.9702192659191465,-0.08284706210423953,-0.2181063342679552,-0.05845260879345089,-1.1727724306860106,-0.23296325734080514,0.7991303768843588,0.8907246141293227,2,left
8.006,0.06708724210937526,0.9743316278040908,-0.08193669502982538,-0.27170272450703015,-0.06748999208727532,-1.1713184730331478,-0.23662837930481379,0.794759029138264,0.8944124347510032,2,left
8.006,0.06651256513002314,0.978590941234253,-0.08106908806459427,-0.3243810363371097,-0.0756779212489797,-1.1697032337618336,-0.24034280397173682,0.790365435490726,0.898501258825972,2,left
8.01,0.0658507332965817,0.9829972687847472,-0.08024381431474722,-0.37612700362158297,-0.08302015346052599,-1.1679399981912517,-0.2441079133921357,0.7859586344246587,0.9029872290079406,2,left
8.011000000000001,0.06509975252037054,0.9875505146049632,-0.07946037604177515,-0.4269296577419087,-0.08951932027224259,-1.1660424303560992,-0.24792516991116975,0.7815472334521824,0.9078665909444447,2,left
8.015,0.06425798593092799,0.9922504209267557,-0.07871820494932465,-0.4767813289409914,-0.09517691354270914,-1.1640245603134678,-0.2517961134409406,0.777139399343602,0.9131357014114838,2,left
8.016,0.06332415808347638,0.9970965647323289,-0.07801666243812785,-0.5256776377519493,-0.09999327512895978,-1.1619007686006602,-0.255722358453742,0.7727428491818807,0.9187910353708367,2,left
8.019,0.06229735824280472,1.0020883545625117,-0.07735503985601894,-0.5736174766582014,-0.10396759034567787,-1.15968576783852,-0.2597055907071847,0.7683648422299523,0.9248291919640582,2,left
8.02,0.06117704273467086,1.007225027446631,-0.07673255876863061,-0.6206029821280736,-0.10709788520963627,-1.1573945814745128,-0.2637475637123191,0.7640121725982266,0.9312468994582893,2,left
8.024,0.05996303636120379,1.0125056459352608,-0.0761483712732122,-0.666639497164388,-0.1093810274832171,-1.1550425196594858,-0.2678500949560395,0.7596911626996764,0.9380410191601194,2,left
8.025,0.05865553288253031,1.017929095215754,-0.07560156037592161,-0.7117355245067581,-0.11081273152842411,-1.152645152251775,-0.27201506188921565,0.755407657479938,0.9452085483148379,2,left
8.029,0.0572550945721354,1.0234940802894004,-0.07509114045537221,-0.7559026706215798,-0.11138756698037339,-1.150218278942114,-0.2762443976913728,0.7511670194129119,0.9527466220079981,2,left
8.03,0.05576265085682838,1.0291991231912216,-0.07461605783999321,-0.7991555806119832,-0.11109897124681178,-1.1477778964926184,-0.2805400868189433,0.7469741242672886,0.9606525140797542,2,left
8.031,0.05417949605365164,1.0350425602402615,-0.07417519152892554,-0.8415118641773247,-0.10993926583776475,-1.1453401630829947,-0.28490416033714017,0.7428333576762802,0.9689236370499351,2,left
8.033999999999999,0.052507286219653934,1.0410225393159929,-0.0737673540867644,-0.8829920127491256,-0.10789967652695041,-1.142921359757035,-0.28933869103171816,0.7387486125578133,0.9775575410453379,2,left
8.035,0.05074803513895311,1.047137017159783,-0.073391292743364,-0.9236193079277533,-0.10497035734411433,-1.1405378489624196,-0.29384578830104946,0.7347232874177224,0.9865519117293247,2,left
8.039,0.048904109480751086,1.053383756700247,-0.0730456907269264,-0.9634197214365098,-0.10114041836014319,-1.1382060302511898,-0.2984275928362874,0.7307602855418842,0.9959045672484304,2,left
8.04,0.04697822316508902,1.059760324402822,-0.07272916885022432,-1.0024218072820026,-0.0963979570503278,-1.1359422935799075,-0.30308627110156855,0.7268620150685381,1.0056134542192703,2,left
8.041,0.04497343096931264,1.066264087647924,-0.07244028736184747,-1.0406565876617218,-0.09073009270546491,-1.1337629713175388,-0.30782400962720513,0.7230303899292339,1.0156766427815815,2,left
8.044,0.04289312140499044,1.072892212145376,-0.07217754807065124,-1.0781574346320983,-0.08412300318393902,-1.131684290440859,-0.3126430091290346,0.7192668316470291,1.0260923207442612,2,left
8.044,0.04074100889843738,1.079641659393637,-0.0719393967493986,-1.1149599490733122,-0.07656196346926097,-1.1297223260257534,-0.31754547846731446,0.7155722719807401,1.036858786852287,2,left
8.05,0.038521125313381636,1.086509184192388,-0.07172422581871524,-1.1511018376304194,-0.0680313858080018,-1.1278929564741274,-0.3225336284587769,0.7119471564042434,1.0479744432034288,2,left
8.051,0.036237810854041846,1.0934913322182225,-0.07153037730468328,-1.186622787833555,-0.058514861374318466,-1.126211820544814,-0.3276096655556921,0.7083914484100178,1.0594377868446654,2,left
8.054,0.03389570438035666,1.1005844376758054,-0.07135614605623006,-1.22156434150301,-0.04799520343931691,-1.124694276182873,-0.3327757854060283,0.7049046346263134,1.0712474005792345,2,left
8.055,0.03149973315795057,1.1077846210400448,-0.07119978320545003,-1.2559697665430982,-0.03645449202071133,-1.1233553611420644,-0.3380341663090432,0.701485730737536,1.083401943016243,2,left
8.061,0.029055102056413772,1.1150877869077176,-0.07105949985549609,-1.289883927226943,-0.023874119985403792,-1.1222097553956936,-0.3433869625808933,0.6981332881976279,1.0959001378957662,2,left
8.062000000000001,0.02656728220198898,1.1224896219788925,-0.07093347098290012,-1.3233531530726537,-0.010234840574725785,-1.1212717453315104,-0.34883629784510684,0.6948454017264291,1.1087407627233623,2,left
8.064,0.02404199908532539,1.1299855931890066,-0.07081983953924607,-1.3564251064098305,0.004483183680851958,-1.120555189726837,-0.3543842582630311,0.6916197175791922,1.1219226367489095,2,left
