time,gFx,gFy,gFz,ax,ay,az,wx,wy,wz,subject_number,foot
10.066,-0.20826742100493184,1.1439459155963734,-0.032705645816037236,-0.37888806162681327,3.034144572391938,1.0288459857206045,0.07306540126419354,1.5343133513429659,-1.2891979900079031,3,right
10.071,-0.21730351539069603,1.140256497030603,-0.033759460872685144,-0.3317194347029938,3.061392411736223,1.0295519537530222,0.06020597475036894,1.5382107488806944,-1.3390488921229022,3,right
10.072000000000001,-0.22613757051219324,1.1365486930006015,-0.03483582104341226,-0.2877769181677438,3.086868379206216,1.0300717713375342,0.04771121332568721,1.5407359618218681,-1.3871655648110943,3,right
10.075,-0.23475880685994932,1.1328275362217084,-0.03593334072135239,-0.24710428927346684,3.1105799391162616,1.0303941770855063,0.03558351981058747,1.5418960872780312,-1.4335400019617874,3,right
10.076,-0.24315692064779468,1.1290979084125823,-0.037050752668211215,-0.20973998620567078,3.1325347694123087,1.0305080182285122,0.02382487687565068,1.5417001962685974,-1.4781660082676957,3,right
10.081,-0.25132210924589105,1.1253645321767545,-0.038186911863013304,-0.175717030525427,3.1527407953178668,1.0304022925684175,0.01243685088597061,1.540159280108361,-1.521039182537362,3,right
10.081,-0.25924509534152584,1.121631963825028,-0.039340797775562694,-0.14506295979648778,3.171206230202769,1.030066192431303,0.0014205961248987431,1.5372861907576094,-1.5621568996054813,3,right
10.086,-0.2669171492798176,1.1179045870346231,-0.040511515096938046,-0.11779977028979499,3.187939623737828,1.0294891506255326,-0.009223140632672083,1.533095575249141,-1.601518290948696,3,right
10.087,-0.2743301091296694,1.1141866072897935,-0.041698292969057006,-0.09394386966770052,3.2029499173934504,1.0286608884036361,-0.019494015206551238,1.5276038048768117,-1.6391242240062933,3,right
10.088,-0.28147639815562375,1.110482047090486,-0.042900482761886155,-0.07350603955988491,3.2162465073352715,1.0275714654270225,-0.02939208072955085,1.520828900859949,-1.6749772800146094,3,right
10.091000000000001,-0.2883490394943132,1.1067947419482482,-0.04411755446440027,-0.056491407952689504,3.227839314764908,1.0262113317318398,-0.038917781949598565,1.5127904587683845,-1.7090817300558045,3,right
10.091000000000001,-0.2949416679018092,1.1031283372157221,-0.04534909179271487,-0.042899431323353845,3.2377388637489557,1.024571381693584,-0.04807194908605257,1.5035095734149266,-1.741443509119732,3,right
10.096,-0.301248538485072,1.099486285812958,-0.046594786163482116,-0.03272388646045682,3.24595636657447,1.022643009987305,-0.05685579124500829,1.493008764884882,-1.7720701881581793,3,right
10.097000000000001,-0.30726453238482754,1.095871846912987,-0.04785442970913216,-0.02595287193658414,3.252503816407249,1.0204181694178367,-0.06527088941702218,1.481311905794412,-1.800970944208846,3,right
10.097999999999999,-0.31298515942460753,1.0922880856330623,-0.04912790750769666,-0.022568819283576565,3.2573940857394983,1.0178894298854406,-0.0733191890835528,1.4684441497511156,-1.8281565286820454,3,right
10.101,-0.31840655776774557,1.0887378737558373,-0.05041518916831575,-0.022548514064636118,3.2606410267957395,1.015050036656603,-0.08100299245735613,1.4544318609867202,-1.8536392338981298,3,right
10.101,-0.3235254906439316,1.0852238914838253,-0.05171631988174095,-0.025863127121847233,3.2622595687761238,1.0118939655006445,-0.08832495038101378,1.4393025451283357,-1.877432857958687,3,right
10.105,-0.3283393402366481,1.0817486302121062,-0.05303141103208861,-0.032478256212876006,3.2622658080964637,1.0084159728601583,-0.0952880539067194,1.4230847810713603,-1.8995526680296315,3,right
10.106,-0.3328460988633923,1.0783143962837862,-0.054360630456635785,-0.04235397812614085,3.260677090092447,1.0046116403172287,-0.10189562557940293,1.4058081539138463,-1.9200153621094227,3,right
10.111,-0.33704435762293167,1.0749233156658826,-0.05570419241595994,-0.05544491129880489,3.2575120819357277,1.0004774132247045,-0.10815131044423268,1.3875031889089215,-1.9388390293508013,3,right
10.111,-0.3409332927210366,1.0715773394506936,-0.05706234730529877,-0.0717002889565075,3.2527908367619514,0.9960106334925259,-0.11405906679850597,1.3682012863887467,-1.9560431089996166,3,right
10.115,-0.3445126497154664,1.0682782500511883,-0.05843537111950888,-0.09106404280310765,3.2465348490061925,0.99120956651817,-0.11962315670691774,1.3479346576104352,-1.971648348009575,3,right
10.115,-0.3477827259415773,1.0650276679204842,-0.05982355468911106,-0.11347489729793654,3.2387671009367494,0.9860734222493304,-0.1248481362981865,1.3267362614714235,-1.9856767573870235,3,right
10.12,-0.35074435139112387,1.0618270585910747,-0.061227192732799564,-0.1388664745671358,3.229512100373787,0.9806023703659963,-0.12973884586001855,1.3046397420389122,-1.9981515673152332,3,right
10.121,-0.3533988683186489,1.058677739808767,-0.06264657281520015,-0.16716741000457677,3.2187959095749026,0.9747975495681391,-0.134300399748404,1.2816793668352255,-2.0090971811030633,3,right
10.124,-0.35574810984467875,1.055580888537144,-0.06408196434777964,-0.19830147862659786,3.2066461652653464,0.9686610709542489,-0.1385381761262653,1.2578899658182647,-2.018539127998357,3,right
10.125,-0.357794377817121,1.0525375476339691,-0.06553360781454222,-0.2321877322533497,3.193092089786381,0.9621960154750085,-0.1424578065455188,1.2333068709936525,-2.026504014901952,3,right
10.13,-0.35954042018491533,1.0495486320495273,-0.06700170443248926,-0.2687406475978849,3.1781644933310393,0.955406425445434,-0.14606516538566522,1.207965856592686,-2.033019477013815,3,right
10.131,-0.36098940813021096,1.046614934459717,-0.06848640646446459,-0.3078702853522581,3.161895767232446,0.9482972900978577,-0.14936635916109514,1.18190307974783,-2.038114127438467,3,right
10.134,-0.36214491319418485,1.0437371303094651,-0.06998780838765874,-0.34948246036779834,3.144319868265838,0.940874525157193,-0.15236771570838203,1.1551550215952107,-2.0418175057726557,3,right
10.135,-0.36301088461729325,1.0409157822932233,-0.07150593908550228,-0.3934789230343665,3.1254722939214585,0.933144946418985,-0.155075773263939,1.127758428731388,-2.044160025694044,3,right
10.141,-0.36359162710065895,1.0381513443351669,-0.07304075517901244,-0.43975755197080424,3.105390048601676,0.9251162373098367,-0.1574972694415367,1.0997502549496132,-2.0451729215656145,3,right
10.142000000000001,-0.3638917791827162,1.03544416515175,-0.07459213555562175,-0.48821255814590436,3.084111600691901,0.9167969104089042,-0.15963913011831796,1.0711676031788115,-2.0448881940664974,3,right
10.144,-0.36391629241154966,1.0327944914837552,-0.07615987709872753,-0.5387347005560705,3.0616768304512454,0.90819626290827,-0.1615084582371039,1.0420476675466666,-2.043338554856016,3,right
10.145,-0.36367041147440066,1.030202471078129,-0.07774369157533029,-0.5912115135923879,3.038126968665307,0.8993243259891495,-0.1631125225319621,1.0124276754864248,-2.040557370273933,3,right
10.15,-0.36315965541747736,1.027668155488868,-0.07934320360444298,-0.6455275462360647,3.013504526000055,0.8901918080900507,-0.1644587461832052,0.9823448298053937,-2.036578604076142,3,right
10.151,-0.36238980004949517,1.025191502756086,-0.0809579496063459,-0.7015646132271414,2.98785321299243,0.880810032042204,-0.1655546954072063,0.9518362506315547,-2.0314367592014326,3,right
10.154,-0.3613668615751829,1.0227723800143416,-0.08258737762374531,-0.7592020583569693,2.9612178506101254,0.8711908660467942,-0.1664080679892992,0.9209389172133293,-2.025166818609126,3,right
10.154,-0.36009708146118574,1.020410566073318,-0.08423084791310273,-0.8183170300402406,2.9336442713098876,0.8613466484677866,-0.16702668178551627,0.8896896098464244,-2.017804185462541,3,right
10.155,-0.35858691250421726,1.0181057540051242,-0.08588763422350877,-0.8787847693272889,2.905179210520758,0.8512901064134203,-0.16741846325100057,0.858124852740863,-2.0093846233593755,3,right
10.158999999999999,-0.35684300604234437,1.0158575537671612,-0.08755692569484491,-0.940478910521973,2.875870188475835,0.8410342680787629,-0.16759143607045582,0.8262808589404133,-1.9999441975454442,3,right
10.161,-0.3548722002130737,1.013665494890141,-0.08923782930655902,-1.0032717945746972,2.8457653823134317,0.8305923688210731,-0.16755370994710056,0.7941934781053896,-1.9895192178064804,3,right
10.164,-0.3526815091235011,1.0115290292607704,-0.09092937280472004,-1.0670347949737022,2.8149134886416793,0.8199777511535783,-0.1673134695731377,0.761898147428499,-1.9781461833002056,3,right
10.165,-0.3502781127801406,1.0094475340215556,-0.09263050804261154,-1.131638653609778,2.7833635781366106,0.8092037599150363,-0.16687896378589873,0.7294298456523705,-1.9658617293493443,3,right
10.165,-0.34766934763273144,1.0074203145997134,-0.09434011468721439,-1.196953820039991,2.7511649462227536,0.7982836358021282,-0.16625849490957184,0.6968230500966697,-1.9527025761657113,3,right
10.168,-0.34486269758810556,1.0054466078702897,-0.09605700425785518,-1.2628507853273045,2.7183669652615547,0.7872304115235663,-0.16546040828184141,0.6641116966020961,-1.9387054794727854,3,right
10.169,-0.34186578532596756,1.0035255854557934,-0.09777992446612643,-1.3292004038868883,2.685018942292498,0.7760568137620105,-0.1644930819642087,0.6313291422980631,-1.9239071829915495,3,right
10.174,-0.3386863637191635,1.0016563571619816,-0.09950756382235229,-1.3958742008246618,2.6511699838886864,0.7647751721992517,-0.16336491663422922,0.5985081311004654,-1.9083443727518838,3,right
10.174,-0.33533230715429174,0.9998379745461162,-0.10123855647118332,-1.4627446645068023,2.616868868308456,0.7533973357874076,-0.16208432565739211,0.5656807618456337,-1.892053633189373,3,right
10.179,-0.331811602562857,0.9980694346125806,-0.10297148721850823,-1.5296855245505394,2.5821639248473365,0.741934596234056,-0.16065972533588088,0.5328784589663723,-1.8750714049850958,3,right
10.18,-0.3281323399949345,0.9963496836310758,-0.10470489671164582,-1.5965720154275052,2.5471029202932183,0.7303976186689242,-0.15909952533099248,0.5001319456158624,-1.857433944603776,3,right
10.183,-0.32430270259024563,0.9946776210714182,-0.10643728673443101,-1.663281125871462,2.511732952386301,0.7187963794594722,-0.15741211925555432,0.4674712191451937,-1.8391772854835629,3,right
10.184,-0.320330955824094,0.993052103644848,-0.10816712557923631,-1.7296918342824454,2.4761003501842147,0.7071401111424633,-0.15560587543226465,0.4349255288403596,-1.8203372008287428,3,right
10.189,-0.31622543592740676,0.9914719494363927,-0.10989285345971707,-1.795685330319206,2.4402505812317106,0.6954372544384011,-0.15368912781349217,0.40252335582470716,-1.8009491679547875,3,right
10.19,-0.31199453740294875,0.9899359421073759,-0.11161288793005902,-1.8611452228713223,2.4042281654333957,0.6836954173155242,-0.1516701670577061,0.37029239503308053,-1.7810483341333698,3,right
10.193999999999999,-0.3076466995852018,0.9884428351412134,-0.11332562927608217,-1.9259577346015158,2.368076595527259,0.6719213410698941,-0.14955723175736482,0.3382595391642236,-1.7606694838833017,3,right
10.195,-0.30319039221775657,0.9869913560997062,-0.11502946583960144,-1.9900118832474922,2.3318382640560933,0.660120873387971,-0.14735849981277546,0.3064508645184184,-1.7398470076517731,3,right
10.199,-0.29863410004794777,0.9855802108526185,-0.11672277923314653,-2.0531996498711207,2.295554396733425,0.6482989483579621,-0.14508207994614208,0.2748916186278268,-1.7186148718287992,3,right
10.2,-0.29398630646644447,0.9842080877415536,-0.11840394940359016,-2.1154161342408897,2.2592649921001846,0.6364595733961309,-0.14273600334974978,0.24360620958756923,-1.6970065900364009,3,right
10.203,-0.2892554762516819,0.9828736616411373,-0.12007135951425442,-2.1765596975314314,2.223008767368113,0.6246058230541783,-0.14032821546198626,0.21261819699621776,-1.6750551956327822,3,right
10.205,-0.28445003751335723,0.981575597887531,-0.12172340063281484,-2.2365320925213967,2.1868231103457454,0.6127398396737432,-0.1378665678646782,0.181950284415094,-1.6527932153705776,3,right
10.208,-0.27957836296312816,0.9803125560557326,-0.12335847622919958,-2.2952385814682037,2.1507440373428133,0.6008628408540181,-0.13535881029502037,0.1516243132565484,-1.6302526441471639,3,right
10.208,-0.2746487506729443,0.9790831935797636,-0.124975006497037,-2.352588041835092,2.1148061569489887,0.5889751336984304,-0.13281258276519695,0.1216612580122494,-1.6074649207840526,3,right
10.213,-0.2696694045100002,0.9778861692200367,-0.12657143251214195,-2.4084930600425642,2.0790426395830974,0.5770761358063063,-0.1302354077826407,0.09208122273342878,-1.5844609047714744,3,right
10.214,-0.2646484144588715,0.9767201463887212,-0.1281462202349389,-2.462870013412667,2.043485192709226,0.5651644029753969,-0.12763468266374162,0.06290343867600987,-1.5612708539134692,3,right
10.218,-0.25959373705292893,0.9755837963474645,-0.12969786435394348,-2.5156391404706726,2.0081640416165607,0.5532376635811145,-0.12501767193370716,0.03414626302458626,-1.5379244028080892,3,right
10.219,-0.25451317613728563,0.9744758012927631,-0.13122489195597936,-2.566724599764583,1.973107915660282,0.5412928595982955,-0.12239149980518632,0.00582717861031679,-1.5144505420966923,3,right
10.222000000000001,-0.249414364173393,0.9733948573430269,-0.13272586599887903,-2.6160545173584935,1.938344039861434,0.5293261942312648,-0.11976314273550494,-0.02203720545063004,-1.4908775984412799,3,right
10.222999999999999,-0.24430474426630633,0.9723396774387225,-0.13419938855899272,-2.663561023151241,1.9038981317643666,0.5173331861179314,-0.11713942209882779,-0.0494311522181743,-1.4672332153158936,3,right
10.222999999999999,-0.2391915530529207,0.9713089941634032,-0.13564410382985784,-2.7091802761669443,1.8697944034510965,0.5053087300735953,-0.1145269970752637,-0.07633979441407793,-1.44354433492727,3,right
10.23,-0.2340818045575505,0.9703015624902975,-0.13705870085551458,-2.752852478958995,1.8360555686127775,0.49324716434007704,-0.11193235789543834,-0.10274913080409306,-1.4198371817071849,3,right
10.231,-0.22898227511661615,0.9693161624577284,-0.1384419159894613,-2.7945218812638397,1.8027028545793775,0.4811423443057071,-0.10936181954255708,-0.12864602139896383,-1.3961372476911833,3,right
10.232000000000001,-0.2238994894773369,0.96835160177572,-0.13979253507969355,-2.834136773139445,1.7697560191591188,0.46898772249871784,-0.1068215159482854,-0.15401818148907112,-1.3724692798687326,3,right
10.232999999999999,-0.21883970816139742,0.9674067183643075,-0.1411093953906795,-2.871649468337606,1.7372333718876563,0.4567764338419636,-0.10431739468230969,-0.17885417457814506,-1.3488572694622465,3,right
10.232999999999999,-0.21380891615765116,0.9664803828219528,-0.1423913872806418,-2.9070162795892545,1.7051517988333607,0.44450138369065134,-0.10185521212820721,-0.20314340429041366,-1.3253244430669582,3,right
10.238999999999999,-0.20881281298703774,0.9655715008207826,-0.14363745565785493,-2.940197487995868,1.673526789853614,0.4321553353601114,-0.09944052913834046,-0.22687610532405045,-1.3018932555836973,3,right
10.24,-0.20385680417358323,0.9646790154239944,-0.14484660124455126,-2.971157308194219,1.6423724674508648,0.4197309946649841,-0.09707870716059452,-0.2500433335222458,-1.27858538487679,3,right
10.243,-0.19894599414671033,0.9638019093196837,-0.1460178816777108,-2.9998638500197856,1.611701616833167,0.4072210904571316,-0.0947749048298963,-0.27263695513165664,-1.2554217280895283,3,right
10.243,-0.1940851805834943,0.9629392069643175,-0.14715041246997693,-3.026289076868063,1.581525717037857,0.3946184509638913,-0.09253407501759045,-0.2946496353163938,-1.2324223995499435,3,right
10.247,-0.18927885017764892,0.9620899766280229,-0.1482433678454632,-3.0504087608426134,1.5518549730289006,0.3819160758909623,-0.09036096233189832,-0.3160748259940822,-1.2096067301999718,3,right
10.247,-0.18453117580065412,0.9612533323334684,-0.14929598145942444,-3.072202434772291,1.522698348679827,0.3691072042539729,-0.08826010106285205,-0.3369067530588837,-1.1869932684815099,3,right
10.252,-0.17984601500211012,0.9604284356812698,-0.15030754700916507,-3.0916533411734797,1.4940636005555787,0.35618537790250954,-0.08623581356527713,-0.35714040305470524,-1.164599782613335,3,right
10.253,-0.1752269097810991,0.9596144975579859,-0.15127741874534123,-3.108748378226606,1.465957312408069,0.3431445007001017,-0.08429220907359004,-0.3767715093601284,-1.1424432641933848,3,right
10.255999999999998,-0.17067708754776073,0.9588107797275459,-0.15220501189615987,-3.1234780428294835,1.4383849303016965,0.32997889332335356,-0.08243318294238548,-0.3957965379448941,-1.1205399330614703,3,right
10.257,-0.16619946318491396,0.9580165963126512,-0.15308980302014905,-3.135836370783349,1.4113507982865767,0.3166833436430869,-0.08066241630700632,-0.41421267275605955,-1.0989052433581321,3,right
10.261,-0.1617966421135936,0.9572313151787365,-0.15393133030531259,-3.145820874160675,1.384858194538755,0.30325315265002173,-0.07898337615852172,-0.4320178007902139,-1.0775538907160218,3,right
10.262,-0.1574709242628827,0.9564543592384802,-0.15472919383247283,-3.1534324758970564,1.3589093678882078,0.2896841758871604,-0.07739931582778035,-0.4492104969064019,-1.056499820520921,3,right
10.267000000000001,-0.15322430884207494,0.9556852076983214,-0.1554830558167749,-3.1586754416426808,1.3335055746569737,0.2759728603506719,-0.07591327587345979,-0.4657900084326541,-1.035756237180279,3,right
10.267999999999999,-0.1490584998120954,0.9549233972699069,-0.15619264083317574,-3.161557308902047,1.3086471157313149,0.2621162768206856,-0.07452808536929513,-0.4817562396172707,-1.015335614337961,3,right
10.273,-0.14497491195525497,0.9541685233696006,-0.15685773602092445,-3.162088813483827,1.284333373793366,0.248112147583006,-0.07324636358594325,-0.49710973597424724,-0.9952497059747547,3,right
10.274000000000001,-0.1409746774489419,0.9534202413280698,-0.15747819125163942,-3.1602838132759388,1.2605628506392943,0.2339588695023549,-0.07207052206321937,-0.5118516685704703,-0.975509558335069,3,right
10.276,-0.13705865285817534,0.9526782676288267,-0.1580539192385884,-3.156159209354129,1.237333204512558,0.21965553240732813,-0.07100276706873268,-0.5259838183005514,-0.9561255226211903,3,right
10.277000000000001,-0.13322742647250493,0.951942381190042,-0.1585848955626525,-3.1497348644256338,1.2146412873824104,0.20520193274683426,-0.07004510243924396,-0.5395085601934083,-0.9371072683974144,3,right
10.280999999999999,-0.12948132592504524,0.951212424699633,-0.15907115859311965,-3.141033518602759,1.1924831820993624,0.19059858247735445,-0.06919933280137211,-0.5524288477929462,-0.9184637976473725,3,right
10.283,-0.12582042604505525,0.9504883060095053,-0.15951280928774222,-3.130080702494574,1.1708542393608603,0.1758467131399332,-0.06846706716858654,-0.564748197653443,-0.9002034594288839,3,right
10.286,-0.12224455690696512,0.9497699995897151,-0.1599100108636022,-3.1169046475983215,1.149749114421984,0.1609482750853801,-0.06784972291173827,-0.5764706739884975,-0.8823339650717231,3,right
10.287,-0.11875331204539288,0.949057548037313,-0.16026298833383376,-3.101536193965592,1.1291618034875015,0.14590593180573347,-0.06734853010070337,-0.5876008735106643,-0.8648624038647574,3,right
10.292,-0.11534605680920973,0.9483510636287361,-0.1605720279021223,-3.0840086951118617,1.1090856797231348,0.13072304932961185,-0.06696453621503831,-0.5981439104971746,-0.8477952591800196,3,right
10.292,-0.11202193683165515,0.9476507298997172,-0.16083747619943298,-3.064357920131611,1.0895135288253928,0.11540368063865994,-0.06669861121562827,-0.6081054021040638,-0.8311384249854504,3,right
10.294,-0.10877988659877334,0.9469568032344213,-0.16105973934215947,-3.042621952974944,1.0704375840908162,0.09995254506188364,-0.06655145293840148,-0.6174914538924985,-0.8148972227144741,3,right
10.297,-0.10561863810351686,0.9462696144459405,-0.16123928179069513,-3.018841088835435,1.0518495609269476,0.08437500260426625,-0.06652359271528567,-0.6263086454271235,-0.7990764184892426,3,right
10.298,-0.10253672957678775,0.9455895703300383,-0.1613766249882721,-2.993057727592837,1.0337406907487794,0.06867702316566796,-0.06661540109668022,-0.634564015747755,-0.7836802407108465,3,right
10.300999999999998,-0.09953251428984743,0.9449171551716049,-0.16147234575956285,-2.965316264322033,1.0161017542217838,0.052865150712449085,-0.06682709358129939,-0.642265048570917,-0.7687123980156942,3,right
10.302,-0.09660416942510662,0.9442529321822687,-0.16152707445100434,-2.9356629772425147,0.9989231138936043,0.03694646299797793,-0.0671587363158182,-0.6494196571783759,-0.754176097570962,3,right
10.302,-0.09374970501447748,0.943597544850683,-0.1615414928024232,-2.9041459141406216,0.9821947464011199,0.020928528389185727,-0.06761025175833724,-0.656036169005038,-0.7400740636679516,3,right
10.306,-0.0909669729475475,0.942951718191655,-0.1615163315500317,-2.8708147786599336,0.9659062745205237,0.0048193618900870296,-0.06818142430627427,-0.6621233099483512,-0.7264085565703621,3,right
10.307,-0.08825367605562996,0.9423162598839082,-0.16145236777322514,-2.835720817480946,0.9500469992497953,-0.011372618081203642,-0.06887190588963568,-0.6676901884197816,-0.713181391575723,3,right
10.311,-0.08560737727940738,0.9416920612899237,-0.16135042201264485,-2.798916708742101,0.9346059319709881,-0.027638631567059004,-0.06968122153096387,-0.6727462791573909,-0.7003939582494834,3,right
10.312000000000001,-0.0830255089264656,0.9410800983556507,-0.16121135520169697,-2.7604564516802714,0.9195718266614351,-0.04396957753597302,-0.07060877487360114,-0.6773014068170224,-0.6880472397925024,3,right
10.315999999999999,-0.08050538202193784,0.9404814323906459,-0.16103606546088584,-2.720395257389991,0.9049332121082889,-0.06035607298573805,-0.07165385368025223,-0.681365729358106,-0.6761418325039471,3,right
10.317,-0.07804419575016354,0.9398972107290183,-0.16082548480034772,-2.678789440595836,0.8906784240820126,-0.07678849073087342,-0.07281563530416954,-0.6849497212386296,-0.6646779653028632,3,right
10.32,-0.07563904697671613,0.9393286672694628,-0.16058057576527937,-2.635696312327572,0.8767956374256098,-0.09325699592119979,-0.07409319213562378,-0.6880641564323846,-0.6536555192729527,3,right
10.321,-0.07328693983110258,0.9387771228895304,-0.1603023280471818,-2.5911740733831152,0.8632728980175143,-0.10975158133861254,-0.07548549702666071,-0.6907200912801829,-0.643074047196358,3,right
10.325,-0.0709847953251755,0.9382439857255528,-0.15999175507342767,-2.5452817084599015,0.8500981545671635,-0.12626210151923895,-0.07699142869747952,-0.6929288471853647,-0.6329327930435171,3,right
10.325999999999999,-0.06872946098219855,0.9377307513063385,-0.15964989058230583,-2.4980788808309984,0.8372592902033509,-0.14277830574826728,-0.0786097771281004,-0.6947019931625689,-0.6232307113874286,3,right
10.33,-0.0665177204547291,0.9372390025271092,-0.15927778519419225,-2.449625827438183,0.8247441538164814,-0.15928986997481068,-0.08033924893931903,-0.6960513282474178,-0.6139664867119224,3,right
10.331,-0.0643463031131125,0.936770409450438,-0.15887650299881576,-2.3999832542702833,0.8125405911168575,-0.17578642769421368,-0.08217847276727129,-0.6969888637734895,-0.6051385525848053,3,right
10.335,-0.06221189358757153,0.9363267289224887,-0.1584471181862227,-2.349212231891303,0.8006364753720868,-0.19225759984522614,-0.08412600463625443,-0.697526805521694,-0.5967451106680037,3,right
10.335999999999999,-0.06011114124432508,0.9359098039951274,-0.1579907117508427,-2.297374090979277,0.7890197377876326,-0.20869302376945542,-0.08618033333477015,-0.6976775357459579,-0.5887841495380881,3,right
10.341,-0.058040669571881635,0.9355215631475244,-0.1575083682940956,-2.2445303177333673,0.7776783974954231,-0.22508238128046498,-0.08833988580007021,-0.6974535950779349,-0.5812534632918144,3,right
10.342,-0.055997085451264285,0.9351640193042607,-0.15700117294281996,-2.190742449003494,0.7666005911162982,-0.24141542588981396,-0.09060303251679584,-0.6968676643123163,-0.5741506699125662,3,right
10.344000000000001,-0.05397698828505297,0.9348392686496975,-0.1564702083913352,-2.1360719669937076,0.7557746018628921,-0.2576820092372303,-0.09296809293560916,-0.6959325460731994,-0.5674732293748239,3,right
10.345,-0.051976978963434575,0.9345494892403513,-0.1559165520681821,-2.08058019338763,0.7451888881503492,-0.2738721067719776,-0.09543334091801703,-0.6946611463608996,-0.5612184614650204,3,right
10.35,-0.04999366864841982,0.9342969394185556,-0.15534127342660767,-2.0243281827415784,0.734832111683023,-0.28997584273231436,-0.0979970102138851,-0.6930664559775491,-0.555383563298375,3,right
10.350999999999999,-0.04802368735836445,0.9340839560312335,-0.15474543135843896,-1.9673766149884588,0.7246931649860322,-0.30598351446975364,-0.10065729997843237,-0.6911615318288249,-0.5499656265125166,3,right
10.355,-0.046063692334244725,0.9339129524569001,-0.15413007173126086,-1.9097856868931316,0.7147611983512425,-0.3218856161646115,-0.10341238033578458,-0.688959478098181,-0.5449616541199217,3,right
10.356,-0.044110376168229194,0.9337864164434732,-0.15349622504981034,-1.8516150022977964,0.7050256461678948,-0.33767286197908525,-0.10626039799644738,-0.6864734272890324,-0.5403685770023993,3,right
10.36,-0.04216047467445837,0.9337069077601725,-0.15284490424587058,-1.792923460993911,0.6954762526087311,-0.353336208693827,-0.10919948193633754,-0.6837165211294447,-0.5361832700320515,3,right
10.360999999999999,-0.04021077448144293,0.9336770556676911,-0.15217710260418632,-1.733769146055338,0.686103096643065,-0.36886687787367445,-0.11222774913815477,-0.680701891347592,-0.5324025678011417,3,right
10.362,-0.03825812032609396,0.9336995562104035,-0.15149379183134318,-1.6742092094657255,0.6768966163488028,-0.38425637760787257,-0.11534331036050405,-0.677442640398206,-0.5290232799285473,3,right
10.365,-0.03629942203166628,0.9337771693330601,-0.15079592027067548,-1.6142997558716532,0.6678476324959666,-0.3994965238697634,-0.118544275836288,-0.6739518223504781,-0.5260422058829614,3,right
10.366,-0.034331661154064885,0.9339127158244477,-0.1500844112622511,-1.5540957242917253,0.6589473713747674,-0.41457946154054204,-0.12182876076650528,-0.6702424242199131,-0.5234561492482391,3,right
10.369000000000002,-0.03235189728215435,0.9341090740929267,-0.1493601616441502,-1.4936507678002093,0.6501874868529547,-0.42949768511350295,-0.12519489051148144,-0.6663273479531524,-0.5212619313733688,3,right
10.369000000000002,-0.030357273980032743,0.9343691767811693,-0.1486240403897221,-1.4330171321507066,0.6415600817035656,-0.4442440589559413,-0.12864080544595596,-0.6622193931431049,-0.5194564043793749,3,right
10.37,-0.02834502436370753,0.9346960072270956,-0.14787688737567703,-1.3722455360106895,0.6330577283453441,-0.4588118367555204,-0.13216466548032893,-0.6579312404783146,-0.5180364635125302,3,right
10.373,-0.026312476309532415,0.9350925957762319,-0.1471195122775016,-1.3113850564249299,0.6246734891944505,-0.4731946796386101,-0.13576465425773346,-0.6534754359153463,-0.516999058837568,3,right
10.374,-0.024257057296102186,0.9355620159499456,-0.1463526935915536,-1.2504830221774188,0.616400936770514,-0.4873866725864436,-0.13943898303682875,-0.6488643755624134,-0.5163412062657006,3,right
10.379000000000001,-0.022176298885803934,0.936107380473323,-0.14557717778672696,-1.1895849160147671,0.6082341735997294,-0.5013823390243275,-0.14318589427043324,-0.6441102912619592,-0.5160599979133567,3,right
10.38,-0.020067840857838436,0.9367318371637983,-0.14479367858954656,-1.1287342857459328,0.60016785190209,-0.515176653597443,-0.14700366489033584,-0.6392252368594145,-0.5161526117886538,3,right
10.383,-0.01792943501155214,0.9374385646775595,-0.14400287640171594,-1.0679726640434184,0.5921971930389771,-0.528765053173997,-0.1508906093088367,-0.6342210751449145,-0.5166163208037077,3,right
10.384,-0.015758948666927137,0.9382307681071099,-0.1432054178409753,-1.007339496771084,0.5843180066976355,-0.5421434461159171,-0.15484508214777773,-0.629109465454343,-0.5174485011119648,3,right
10.388,-0.013554367897094678,0.9391116744205997,-0.1424019153910896,-0.9468720796638627,0.5765267097893509,-0.5553082198567099,-0.1588654807060267,-0.623901851915694,-0.5186466397708194,3,right
10.389000000000001,-0.011313800534389603,0.9400845277315392,-0.14159294714779766,-0.8866055031849083,0.5688203450384243,-0.5682562468255072,-0.16295024717657752,-0.6186094523264034,-0.5202083417308404,3,right
10.394,-0.009035478995751883,0.9411525843868892,-0.1407790566519378,-0.8265726053860741,0.561196599239298,-0.580984888755728,-0.16709787062462325,-0.6132432476469886,-0.5221313361539943,3,right
10.395,-0.006717762975432734,0.9423191078627393,-0.1399607528046781,-0.7668039325980914,0.5536538211594485,-0.5934919994161642,-0.17130688873814842,-0.6078139720960618,-0.5244134820642994,3,right
10.399000000000001,-0.00435914205320971,0.9435873634593294,-0.13913850986028387,-0.7073277077773872,0.5461910390658989,-0.6057759258016857,-0.17557588936277133,-0.6023321038315359,-0.5270527733353945,3,right
10.4,-0.0019582382636305295,0.9449606127901762,-0.13831276748857368,-0.648169806337151,0.5388079778534498,-0.6178355078201213,-0.17990351183274844,-0.5968078562026303,-0.530047343020541,3,right
10.404000000000002,0.00048619133496416645,0.946442108062483,-0.13748393089364036,-0.5893537392910089,0.5315050757529552,-0.6296700765112451,-0.18428844811022965,-0.5912511695571036,-0.5333954670316097,3,right
10.405,0.002975252063684637,0.9480350861466157,-0.136652370970483,-0.530900643538504,0.5242835005982072,-0.6412794508331521,-0.1887294437450241,-0.5856717035879853,-0.5370955671746301,3,right
10.408,0.005509908983795177,0.9497427624306839,-0.13581842448009934,-0.4728292791224881,0.5171451656302173,-0.6526639330506674,-0.193225298667307,-0.5800788302039608,-0.5411462135505033,3,right
10.41,0.008090984212147328,0.951568324453268,-0.13498239422846728,-0.41515603328950695,0.5100927448179219,-0.6638243027597835,-0.197774867825861,-0.5744816269074651,-0.5455461263304893,3,right
10.413,0.010719154196291707,0.9535149253059165,-0.13414454924517313,-0.3578949311852987,0.5031296876745661,-0.6747618095814806,-0.20237706168460695,-0.5688888706644785,-0.5502941769170996,3,right
10.413,0.013394946957310213,0.9555856767996268,-0.13330512496938712,-0.3010576530186192,0.4962602335492686,-0.6854781645576323,-0.20703084659033763,-0.5633090322499767,-0.555389388502025,3,right
10.418,0.016118739309764298,0.9577836423953019,-0.13246432345924627,-0.2446535575277428,0.4894894253735128,-0.695975530281064,-0.21173524502472157,-0.557750271052975,-0.5608309360337385,3,right
10.419,0.018890754070570174,0.9601118299041742,-0.1316223136420875,-0.18868971158516837,0.4828231228425722,-0.7062565097911843,-0.2164893357537957,-0.5522204303251179,-0.5666181456084092,3,right
10.423,0.021711057272747775,0.9625731839685364,-0.13077923161775276,-0.13317092577727327,0.4762680150121453,-0.7163241342659827,-0.22129225388831317,-0.5467270328568035,-0.5727504932987647,3,right
10.424000000000001,0.024579555404423362,0.9651705783357669,-0.12993518101930188,-0.07809979579689508,0.4698316322907627,-0.7261818495405533,-0.22614319086845971,-0.5412772770648888,-0.5792276034365301,3,right
10.43,0.02749599269660235,0.9679068079403262,-0.12909023342924927,-0.023476749488083475,0.4635223578088306,-0.7358335014816854,-0.2310413943822621,-0.5358780334777734,-0.5860492463611419,3,right
10.431,0.030459948484498428,0.9707845808094243,-0.1282444288463526,0.03069990061646351,0.4573494381454949,-0.7452833202474528,-0.23598616820549498,-0.5305358416120869,-0.5932153356287864,3,right
10.432,0.03347083466616269,0.9738065098073373,-0.1273977761972209,0.08443389942348231,0.45132299339485477,-0.7545359034601252,-0.24097687191204678,-0.5252569072503187,-0.6007259246414571,3,right
10.433,0.03652789327949728,0.9769751042307594,-0.12655025388793156,0.13773098622966684,0.44545402655342065,-0.7635961983201389,-0.24601292038218373,-0.5200471001371996,-0.6085812026370737,3,right
10.433,0.039630194216769166,0.9802927612654281,-0.12570181039340597,0.1905988266502748,0.4397544322111048,-0.7724694826882834,-0.25109378305794255,-0.5149119521044799,-0.6167814900023375,3,right
10.437000000000001,0.04277663309477889,0.9837617573143393,-0.12485236488546901,0.24304693973141295,0.4342370045146221,-0.78116134517753,-0.25621898293399803,-0.5098566556189467,-0.6253272329063345,3,right
10.437999999999999,0.045965929296942376,0.9873842392093728,-0.12400180790190204,0.2950866207064461,0.42891544430346334,-0.7896776643695511,-0.26138809529414,-0.5048860627403862,-0.6342189972735236,3,right
10.439,0.04919662420042393,0.991162215319863,-0.12315000205677194,0.34673086031672407,0.42380436519458375,-0.7980245874039577,-0.2666007462079547,-0.5000046844747554,-0.6434574621196693,3,right
10.443,0.052467079599192265,0.995097546573664,-0.12229678278789916,0.39799426187172,0.41891929832330677,-0.8062085082619366,-0.2718566108024333,-0.4952166905080477,-0.6530434122752696,3,right
10.443,0.05577547633442533,0.9991919374082838,-0.12144195913322176,0.4488929569664025,0.4142766955176771,-0.8142360459912902,-0.2771554113233554,-0.4905259093065835,-0.6629777305220252,3,right
10.448,0.05911981314685124,1.0034469266703254,-0.12058531452577083,0.49944452031155306,0.40989393080860964,-0.8221140229858811,-0.28249691500142293,-0.4859358285697143,-0.6732613891688889,3,right
10.448,0.062497905769416405,1.0078638784805016,-0.1197266075968337,0.5496678838755495,0.40578930024800186,-0.8298494433578404,-0.2878809317382404,-0.48144959602118986,-0.683895441095237,3,right
10.452,0.0659073862814512,1.0124439730802832,-0.11886557297826,0.5995832504838724,0.40198202002151046,-0.8374494714256165,-0.29330731162736495,-0.4770700205257241,-0.6948810102897037,3,right
10.452,0.06934570274645892,1.0171881976754844,-0.11800192209811364,0.6492120070215949,0.39849222284344116,-0.8449214103405099,-0.29877594232576943,-0.47279957351757856,-0.7062192819142208,3,right
10.457,0.07281011915453005,1.0220973372914388,-0.11713534396872513,0.6985766373831787,0.39534095262200136,-0.8522726808739316,-0.3042867462911855,-0.46864039072828256,-0.717911491923816,3,right
10.457,0.07629771568767657,1.0271719656542315,-0.11626550597106641,0.7477006353130166,0.3925501573840219,-0.8595108003872328,-0.30983967790091466,-0.4645942742009134,-0.7299589162737304,3,right
10.462,0.07980538932297622,1.032412436113786,-0.11539205464264844,0.7966084172793381,0.3901426804491678,-0.8666433620055888,-0.3154347204678171,-0.46066269457867387,-0.7423628597464293,3,right
10.463,0.08332985478478343,1.0378188726275237,-0.11451461647665416,0.845325235523342,0.38814224984463286,-0.8736780140170692,-0.32107188316930985,-0.45684679365582237,-0.7551246444320974,3,right
10.468,0.08686764585322278,1.043391160826536,-0.11363279873750516,0.8938770914247273,0.3865734659523498,-0.8806224395177057,-0.32675119790532536,-0.45314738717933584,-0.7682455978972307,3,right
10.469000000000001,0.09041511703121975,1.0491289391886587,-0.11274619029524027,0.9422906493241764,0.38546178738185116,-0.8874843363230629,-0.3324727161013047,-0.4495649678900129,-0.7817270410769622,3,right
10.470999999999998,0.09396844556628035,1.0550315903446257,-0.11185436248189871,0.9905931509427985,0.384833515063087,-0.8942713971665373,-0.3382365054724185,-0.44609970879205724,-0.7955702759277838,3,right
10.472000000000001,0.09752363381679181,1.06109823254462,-0.11095686997796213,1.038812330538064,0.3847157745547483,-0.9009912902043515,-0.34404264676533153,-0.4427514666405157,-0.809776572878361,3,right
10.475999999999999,0.10107651194692577,1.067327711312602,-0.11005325174279032,1.0869763309353702,0.38513649656495796,-0.9076516398469721,-0.3498912304939468,-0.43951978563627847,-0.8243471581171715,3,right
10.477,0.10462274093015687,1.0737185913156866,-0.10914303200593213,1.1351136205740566,0.38612439568258405,-0.9142600079364636,-0.3557823536856883,-0.4364039013186879,-0.8392832007567389,3,right
10.481,0.1081578158390583,1.0802691484765552,-0.10822572133265816,1.183252911706454,0.38770894731889693,-0.9208238752891031,-0.3617161166550005,-0.4334027446461351,-0.8545857999152738,3,right
10.482000000000001,0.1116770693972106,1.0869773623574621,-0.10730081776768094,1.2314230798883878,0.38992036286083986,-0.9273506236224014,-0.36769261982086826,-0.4305149462553594,-0.8702559717575841,3,right
10.485999999999999,0.11517567576621324,1.0938409088436856,-0.1063678080527453,1.2796530848994851,0.39278956303881657,-0.9338475178855319,-0.37371196058527917,-0.42773884089049796,-0.8862946365381623,3,right
10.487,0.1186486545374744,1.100857153152553,-0.10542616891268317,1.3279718932316376,0.39634814951361036,-0.940321689012041,-0.3797742302896752,-0.42507247199325976,-0.9027026056904138,3,right
10.491,0.12209087489734505,1.1080231431921188,-0.10447536840823078,1.3764084022840641,0.400628374688856,-0.9467801171136047,-0.38587951126656356,-0.4225135964459255,-0.919480569007043,3,right
10.491,0.12549705993692253,1.1153356032912842,-0.10351486735634309,1.4249913664035863,0.4056631097573741,-0.9532296151335073,-0.39202787400357764,-0.4200596894591939,-0.9366290819576755,3,right
10.495999999999999,0.12886179108392476,1.1227909283205297,-0.10254412081858419,1.4737493249089864,0.4114858109916609,-0.959676812978463,-0.3982193744310172,-0.41770794959966945,-0.9541485531769548,3,right
10.497,0.13217951264208444,1.1303851782201002,-0.10156257965696258,1.5227105322386554,0.4181304842908995,-0.9661281421473386,-0.40445405131208223,-0.4154553039643938,-0.9720392320879333,3,right
10.498,0.1354445364313325,1.1381140729514752,-0.10056969215423477,1.571902890361158,0.42563164799902825,-0.972589820875329,-0.41073192365765315,-0.4132984135322623,-0.9903011965015687,3,right
10.501,0.13865104652651603,1.1459729878877656,-0.09956490569231034,1.6213538835888441,0.4340242940106677,-0.9790678398121142,-0.4170529880556572,-0.41123367873475875,-1.0089343399647186,3,right
10.502,0.14179310409259313,1.1539569496576838,-0.09854766847935702,1.6710905159352192,0.4433438471840669,-0.9855679482525457,-0.42341721583712105,-0.40925724527642604,-1.027938358699575,3,right
10.507,0.1448646523128795,1.1620606324564702,-0.09751743131344269,1.721139251157449,0.4536261230826949,-0.9920956409384393,-0.4298245500586207,-0.4073650102136284,-1.047312738103619,3,right
10.508,0.14785952140731798,1.1702783548379136,-0.09647364936690889,1.7715259555638485,0.4649072840555234,-0.9986561454457941,-0.43627490231290034,-0.40555262828812433,-1.0670567388497274,3,right
10.508,0.15077143374091007,1.178604077004722,-0.09541578397282774,1.8222758433556594,0.4772237935980149,-1.0052544101503234,-0.4427681493859416,-0.40381551850976355,-1.0871693826410234,3,right
10.511,0.15359400902663178,1.1870313986180847,-0.09434330439590904,1.873413423712891,0.49061236881134507,-1.011895092725558,-0.4493041297788908,-0.4021488709828644,-1.1076494376761254,3,right
10.512,0.15632076962961433,1.1955535571502598,-0.09325568957415642,1.9249624485236019,0.5051099307095593,-1.0185825491063785,-0.4558826401133728,-0.4005476539710528,-1.1284954038815134,3,right
10.515999999999998,0.15894514597983717,1.2041634268065327,-0.09215242982049404,1.9769458599684033,0.5207535521980378,-1.0253208228724358,-0.46250343143884615,-0.3990066211955638,-1.1497054979687877,3,right
10.517000000000001,0.1614604821020741,1.212853518044276,-0.09103302847393854,2.029385737733514,0.5375804036769724,-1.0321136350447528,-0.4691662054607733,-0.3975203193622074,-1.1712776383756505,3,right
10.52,0.16386004127687254,1.221615977715404,-0.08989700348890914,2.0823032459382294,0.5556276962974476,-1.0389643743104195,-0.4758706107085051,-0.39608309591238605,-1.1932094301504894,3,right
10.522,0.16613701185475976,1.2304425898541616,-0.08874388894953592,2.135718579926191,0.5749326229151417,-1.0458760876947502,-0.48261623866189857,-0.39468910699372584,-1.215498149841494,3,right
10.525,0.16828451325663873,1.2393247771269185,-0.08757323649269683,2.189650913071144,0.5955322967900691,-1.0528514717004236,-0.489402619855806,-0.3933323256460398,-1.2381407304522656,3,right
10.525,0.17029560220425652,1.2482536029559022,-0.08638461661985689,2.2441183437492436,0.617463688084289,-1.0598928639332938,-0.49622921998169717,-0.39200655019848163,-1.2611337465269246,3,right
10.53,0.17216327923124242,1.2572197743252804,-0.08517761987750523,2.2991378426314064,0.6407635582131175,-1.0670022352347321,-0.5030954360057894,-0.3907054128738717,-1.2844733994287316,3,right
10.530999999999999,0.17388049552476909,1.2662136452784791,-0.0839518578934046,2.35472520045067,0.6654683921091015,-1.0741811823405425,-0.5100005923231817,-0.38942238859628564,-1.3081555028772673,3,right
10.536,0.17544016014233138,1.2752252211238562,-0.0827069642711761,2.410894976401073,0.6916143284618351,-1.0814309210866855,-0.5169439369676012,-0.38815080399808216,-1.332175468810212,3,right
10.537,0.1768351476411809,1.2842441633808706,-0.08144259536339725,2.4676604473261468,0.719237088000633,-1.0887522801822351,-0.5239246378964868,-0.38688384662261854,-1.3565282936367653,3,right
10.540999999999999,0.17805830615221713,1.2932597955143168,-0.08015843095524147,2.5250335578567307,0.748371899891107,-1.0961456955701954,-0.5309417793712434,-0.385614574318953,-1.3812085449507283,3,right
10.542,0.1791024659273572,1.3022611095139096,-0.07885417489205034,2.5830248716595126,0.7790534263208346,-1.1036112053970053,-0.5379943584526129,-0.3843359248248684,-1.406210348772241,3,right
10.546,0.1799604483903389,1.311236773377517,-0.07752955567833446,2.6416435239593796,0.811315685353548,-1.1111484456117633,-0.5450812816312124,-0.3830407255345597,-1.431527377388122,3,right
10.547,0.1806250757236672,1.3201751395489822,-0.07618432706945233,2.700897175500427,0.845191972135614,-1.1187566462164142,-0.5522013616133964,-0.3817217034473261,-1.4571528378616987,3,right
10.549000000000001,0.1810891810247178,1.329064254349169,-0.07481826867215832,2.760791968112235,0.880714778543019,-1.1264346281883415,-0.559353314282701,-0.3803714952935781,-1.4830794612839355,3,right
10.549000000000001,0.1813456190588926,1.3378918684261263,-0.07343118656333425,2.8213324820498307,0.9179157113616107,-1.1341808010970167,-0.5665357558572257,-0.37898265783442364,-1.509299492838577,3,right
10.555,0.18138727762763826,1.3466454482399581,-0.07202291392767196,2.88252169527756,0.956825409097984,-1.1419931614365593,-0.5737472002634051,-0.3775476783310275,-1.5358046827549023,3,right
10.556,0.1812070895556529,1.3553121885905084,-0.07059331170864948,2.9443609448689516,0.9974734575231285,-1.1498692916962614,-0.5809860567467126,-0.37605898517984937,-1.5625862782225584,3,right
10.56,0.1807980452861968,1.3638790261899725,-0.06914226926667004,3.0068498906964853,1.0398883040557687,-1.157806360191324,-0.5882506277399256,-0.3745089587097555,-1.5896350163437747,3,right
10.56,0.18015320605866342,1.3723326542772518,-0.06766970504495948,3.069986481587055,1.0840971710972405,-1.165801121676244,-0.5955391070096664,-0.37288994213686416,-1.6169411181990834,3,right
10.564,0.17926571763151034,1.3806595382678615,-0.06617556725306556,3.133766924120772,1.130125968434736,-1.1738499187634717,-0.602849578094491,-0.3711942526716924,-1.6444942840764996,3,right
10.565,0.17812882450921844,1.3888459324348006,-0.06465983458150275,3.1981856542526224,1.1779992048348205,-1.1819486841701317,-0.610180013010282,-0.3694141927672936,-1.6722836897800608,3,right
10.565,0.17673588463500464,1.3968778976210354,-0.0631225169569935,3.263235311938331,1.227739898954278,-1.1900929438157668,-0.6175282711310989,-0.3675420614866175,-1.7002979836917027,3,right
10.569,0.17508038451641686,1.4047413199876948,-0.0615636563411911,3.328906718947661,1.2793694897005683,-1.1982778207942204,-0.6248920981161157,-0.36557016596140124,-1.7285252841263294,3,right
10.569,0.17315595475246323,1.4124219307997803,-0.059983327570823336,3.3951888600501774,1.3329077461794685,-1.2064980402429082,-0.6322691247909218,-0.3634908329203607,-1.7569531766554407,3,right
10.574000000000002,0.17095638592992343,1.419905327246444,-0.058381639232497964,3.4620688676924414,1.3883726773699778,-1.2147479351205175,-0.639656865959178,-0.361296420274446,-1.7855687113179834,3,right
10.575999999999999,0.16847564485784064,1.427176994291685,-0.05675873456020915,3.529532009947888,1.4457804416576605,-1.223021452842515,-0.6470527191582616,-0.35897932875233957,-1.81435839977253,3,right
10.575999999999999,0.16570789111310275,1.4342223275529644,-0.055114792341466934,3.597561680911346,1.50514525633731,-1.2313121626127783,-0.654453963380084,-0.3565320135802078,-1.843308212472422,3,right
10.578,0.16264749387284863,1.44102665720226,-0.053450027821999715,3.6661393923723917,1.5664793071870329,-1.2396132632279795,-0.6618577577783017,-0.3539469961993852,-1.8724035759460511,3,right
10.579,0.15928904900941834,1.4475752728736822,-0.05176469360858714,3.7352447659428667,1.6297926582357423,-1.2479175911931835,-0.6692611403831583,-0.35121687601531865,-1.9016293702649587,3,right
10.584000000000001,0.15562739642296192,1.4538534495509279,-0.050059080582097785,3.804855525426592,1.6950931618774432,-1.2562176290983489,-0.6766610268452147,-0.34833434217072545,-1.9309699267828815,3,right
10.585,0.1516576375879338,1.4598464744041817,-0.04833351884277855,3.8749474895603404,1.7623863695056643,-1.2645055142672081,-0.6840542092292291,-0.3452921853355231,-1.960409026229296,3,right
10.588,0.14737515329150586,1.4655396745488494,-0.04658837871045208,3.9454945653245366,1.8316754428499369,-1.2727730477023669,-0.6914373548794505,-0.3420833095056713,-1.9899298972413857,3,right
10.589,0.14277562154255233,1.4709184457014062,-0.04482407179183408,4.01646874202361,1.9029610662019223,-1.2810117033504518,-0.6988070053775731,-0.33870074380263115,-2.019515215418686,3,right
10.595999999999998,0.1378550356296702,1.4759682817049111,-0.04304105211078615,4.087840086337299,1.9762413597245103,-1.2892126377110964,-0.7061595756145866,-0.3351376542646864,-2.0491471029849375,3,right
10.597000000000001,0.13260972230704487,1.4806748048869098,-0.04123981728108673,4.159576738545503,2.05151179404294,-1.2973666998134952,-0.7134913529977217,-0.3313873556208929,-2.0788071291419183,3,right
10.597999999999999,0.12703636008701288,1.4850237971980558,-0.039420909687885065,4.231644910130524,2.1287651063227213,-1.3054644415841785,-0.7207984968136565,-0.3274433230379256,-2.10847631120021,3,right
10.599,0.12113199761515878,1.4890012320652233,-0.03758491763401594,4.3040088829616385,2.2079912180448655,-1.313496128629543,-0.7280770377690963,-0.32329920382957156,-2.138135116571978,3,right
10.603,0.11489407209724155,1.4925933068812844,-0.03573247640135778,4.3766310102680235,2.2891771546946362,-1.3214517514565463,-0.7353228777297824,-0.3189488291180826,-2.167763465710929,3,right
10.604000000000001,0.10832042774031174,1.4957864760450408,-0.03386426917339373,4.4494717196069855,2.3723069675857333,-1.3293210371548032,-0.7425317896789106,-0.3143862254360424,-2.1973407360846413,3,right
10.607999999999999,0.10140933416511196,1.4985674844564767,-0.03198102775817367,4.5224895180352975,2.4573616580474718,-1.3370934615631387,-0.749699417915861,-0.3096056262568312,-2.226845767264424,3,right
10.609000000000002,0.09415950474120148,1.5009234013623087,-0.030083533040001356,4.595640999692174,2.5443191042081508,-1.344758261943427,-0.7568212785160459,-0.3046014834411766,-2.25625686721777,3,right
10.614,0.0865701147859678,1.5028416544351948,-0.02817261507974555,4.668880856003059,2.63315399061338,-1.3523044501843031,-0.7638927600725757,-0.2993684785866714,-2.2855518198883344,3,right
10.615,0.07864081954923086,1.504310063959256,-0.026249152785803222,4.742161888713889,2.723837740923651,-1.3597208265570473,-0.7709091247403218,-0.2939015342665134,-2.3147078941481447,3,right
10.618,0.07037177187399675,1.5053168769874508,-0.02431407309417106,4.815435025965869,2.8163384539409155,-1.3669959940456442,-0.7778655096028286,-0.2881958251430794,-2.343701854206487,3,right
10.619000000000002,0.06176363938432243,1.5058508013353102,-0.02236834962491392,4.888649341621074,2.9106208432192937,-1.3741183732726647,-0.7847569283823764,-0.2822467889412907,-2.3725099715595768,3,right
10.624,0.052817621011626424,1.5059010392808467,-0.020413000818443636,4.961752078049274,3.0066461805203666,-1.3810762180422558,-0.7915782735133426,-0.27605013726605293,-2.401108038564719,3,right
10.624,0.04353546263895015,1.5054573208483366,-0.018449087592230375,5.034688672586381,3.1043722433787013,-1.3878576315211082,-0.7983243185988342,-0.26960186624737076,-2.429471383722202,3,right
10.629000000000001,0.033919471622593476,1.5045099365591241,-0.016477710589748007,5.107402787874711,3.2037532670483704,-1.3944505830778426,-0.8049897212703772,-0.26289826699603763,-2.457574888747626,3,right
10.63,0.023972529943860475,1.503049769533494,-0.014500007113496046,5.179836346294966,3.3047399011062337,-1.4008429258007733,-0.8115690264702469,-0.25593593585209123,-2.485393007516777,3,right
10.632,0.013698105750016341,1.5010683268249545,-0.012517147843750853,5.2519295686993335,3.4072791709926253,-1.4070224147135058,-0.8180566701758082,-0.2487117844075013,-2.512899786964461,3,right
10.633,0.0031002630613346563,1.4985577698652284,-0.010530333446787067,5.323621017654467,3.511314444774834,-1.4129767257072803,-0.8244469835767203,-0.24122304928726884,-2.5400688899755357,3,right
10.634,-0.007816330548980505,1.4955109439019247,-0.00854079116766048,5.394847645402302,3.6167854054233683,-1.4186934752084028,-0.8307341976742061,-0.23346730168958535,-2.5668736200933,3,right
10.638,-0.01904639845737519,1.4919214063217539,-0.006549771483390527,5.465544846745673,3.723628028895455,-1.4241602405984843,-0.836912448196785,-0.22544245671593482,-2.5932869474874716,3,right
10.639000000000001,-0.030584051801412895,1.4877834537525254,-0.004558544876174098,5.535646517064563,3.8317745683245032,-1.4293645814045666,-0.8429757806851872,-0.21714678253847636,-2.6192815354107544,3,right
10.642000000000001,-0.04242278871333267,1.4830921478134134,-0.002568398784279753,5.605085115667442,3.9411535446183934,-1.4342940612755348,-0.8489181556402727,-0.20857890943406426,-2.644829766584209,3,right
10.642999999999999,-0.05455549607373636,1.4778433393522257,-0.0005806347934739107,5.673791734607209,4.051689743733204,-1.4389362707420403,-0.8547334537020017,-0.19973783868250564,-2.6699037693325534,3,right
10.642999999999999,-0.06697445385424736,1.472033690999858,0.0014034338676581902,5.7416961727222535,4.163304220691908,-1.4432788506641367,-0.8604154808685801,-0.1906229513086636,-2.694475443501553,3,right
10.648,-0.07967134208448601,1.4656606978879323,0.003382484468766658,5.8087270140001905,4.275914310059647,-1.447309516103977,-0.8659579737728381,-0.18123401664379166,-2.718516486230842,3,right
10.65,-0.09263725044720056,1.4587227063861816,0.005355186492596932,5.874811708992437,4.389433642389633,-1.4510160802678198,-0.8713546050325344,-0.1715712006806989,-2.7419984176541385,3,right
10.652000000000001,-0.10586269047124698,1.451218930701536,0.007320202850011121,5.939876658372782,4.5037721663577175,-1.4543864782530027,-0.8765989886908943,-0.16163507419656123,-2.764892606597385,3,right
10.652999999999999,-0.11933761025682378,1.4431494671597533,0.009276190516744878,6.003847298391624,4.618836176667903,-1.4574087905007207,-0.8816846857632933,-0.15142662061640758,-2.7871702963438123,3,right
10.658,-0.13305141163951562,1.434515305988062,0.011221800525278795,6.066648188342134,4.734528348014595,-1.4600712659467743,-0.8866052099055718,-0.1409472435895228,-2.808802630533334,3,right
10.659,-0.14699296968396586,1.4253183404341974,0.013155677268634428,6.128203100225061,4.85074777542982,-1.462362344879947,-0.8913540332190355,-0.13019877425022602,-2.8297606792619634,3,right
10.662,-0.16115065439321988,1.4155613730835659,0.015076457101224884,6.188435110795826,4.967390021345777,-1.4642706815166726,-0.8959245922067349,-0.11918347813370157,-2.850015465445194,3,right
10.663,-0.17551235452245387,1.4052481192673572,0.01698276625448358,6.247266696174118,5.084347169704839,-1.4657851662996062,-0.9003102938951469,-0.10790406171678106,-2.8695379915074284,3,right
10.665999999999999,-0.19006550339099618,1.394383207488296,0.018873218126391245,6.304619829192687,5.201507887450656,-1.4668949479266646,-0.9045045221348869,-0.09636367855280503,-2.8882992664576004,3,right
10.669,-0.20479710658690692,1.3829721768250673,0.02074641006161781,6.360416079658171,5.318757493735205,-1.4675894551159918,-0.9085006440935653,-0.08456593496892534,-2.9062703334091093,3,right
10.669,-0.21969377144567118,1.3710214713100672,0.02260091981580436,6.414576717692819,5.435978037177534,-1.4678584181111756,-0.9122920169533758,-0.07251489529345248,-2.923422297600092,3,right
10.674000000000001,-0.23474173815396873,1.3585384313077182,0.024435301989248537,6.467022820321691,5.553048381510534,-1.4676918899298834,-0.9158719948254471,-0.060215086580103334,-2.939726354967862,3,right
10.675,-0.2499269122820735,1.345531281948592,0.02624808480881346,6.517675381465436,5.669844299952291,-1.4670802673578882,-0.9192339358924251,-0.04767150279526614,-2.9551538213290818,3,right
10.68,-0.26523489849232623,1.3320091186934309,0.028037767692763893,6.566455425494107,5.7862385786385255,-1.466014311689236,-0.9223712097901631,-0.03488960843367307,-2.9696761622148813,3,right
10.681,-0.2806510351241115,1.3179818901125475,0.029802819985622966,6.6132841244924645,5.902101129452143,-1.4644851692120566,-0.9252772052387894,-0.02187534152715719,-2.983265023407694,3,right
10.684000000000001,-0.2961604293416805,1.3034603779764817,0.03154168106764392,6.658082919382142,6.017299112585156,-1.4624843914382384,-0.9279453379327961,-0.008635116010471044,-2.995892262224073,3,right
10.685,-0.31174799256392505,1.2884561747663144,0.03325276178971332,6.700773645040618,6.1316970691670685,-1.4600039550738901,-0.9303690586991468,0.004824176592539175,-3.007529979585138,3,right
10.687999999999999,-0.32739847596491584,1.2729816587251606,0.0349344469840581,6.741278659551355,6.245157064292269,-1.4570362817261762,-0.9325418619317397,0.018495166199776692,-3.0181505529136343,3,right
10.689,-0.34309650591172713,1.2570499665851966,0.03658509873576174,6.779520977713637,6.3575388407770825,-1.4535742573407597,-0.9344572943098736,0.03237000395677515,-3.027726669893823,3,right
10.694,-0.35882661926315296,1.240674964120675,0.0382030601474644,6.815424408934565,6.468699983974816,-1.4496112513627117,-0.936108963807667,0.046440362816266643,-3.0362313631275644,3,right
10.695,-0.37457329847710735,1.223871214702377,0.039786659404520225,6.848913699619428,6.578496097974439,-1.4451411356123478,-0.9374905490006592,0.06069743895069304,-3.043638045717051,3,right
10.698,-0.39032100647041856,1.206653946063926,0.04133421399191028,6.879914680170121,6.686780993505428,-1.4401583028660296,-0.9385958086750801,0.07513195403750131,-3.0499205478016473,3,right
10.7,-0.40605422115411155,1.1890390155277948,0.04284403493379375,6.908354416694599,6.793406887867808,-1.4346576851305353,-0.9394185917445204,0.08973415845762432,-3.055053154073199,3,right
10.7,-0.42175746954525123,1.1710428739619116,0.04431443095425724,6.934161367523418,6.89822461720248,-1.4286347715981456,-0.9399528474696963,0.10449383544254934,-3.0590106422549503,3,right
10.703,-0.43741536135244546,1.1526825287247717,0.045743712503134415,6.9572655446222615,7.0010838614126065,-1.4220856262681205,-0.940192635934886,0.11940030617821286,-3.061768322345497,3,right
10.704,-0.4530126219536854,1.1339755058105416,0.04713019563814966,6.977598679981979,7.101833382042029,-1.4150069052187495,-0.9401321386594358,0.13444243582463025,-3.0633020761010648,3,right
10.709000000000001,-0.46853412471394607,1.1149398113685285,0.048472205790772174,6.9950943968547525,7.200321273123367,-1.407395873501094,-0.9397656691805872,0.1496086403829481,-3.0635883960455788,3,right
10.71,-0.48396492260930823,1.0955938927641118,0.04976808146471543,7.009688384670159,7.29639522356209,-1.3992504215661088,-0.9390876834843455,0.1648868943697,-3.0626044234749745,3,right
10.71,-0.49929027914201657,1.0759565993404718,0.0510161779212174,7.021318574608335,7.389902787023516,-1.3905690810310907,-0.9380927902346219,0.1802647393082456,-3.0603279852435654,3,right
10.713,-0.5144956985524645,1.0560471430277354,0.0522148708979725,7.029925311772261,7.480691653842427,-1.381351039531978,-0.9367757607913233,0.19572929307540143,-3.056737629297136,3,right
10.713,-0.5295669553489857,1.0358850589545363,0.053362560398152174,7.035451520919883,7.568609920908834,-1.371596154464379,-0.9351315390154283,0.2112672601471265,-3.0518126589498906,3,right
10.719000000000001,-0.5444901231763345,1.015490166232428,0.0544576745780394,7.037842864556934,7.653506358069306,-1.3613049655189113,-0.9331552508581809,0.22686494278741165,-3.045533165898671,3,right
10.72,-0.5592516030269736,0.9948825290762449,0.0554986737612926,7.037047893209637,7.735230671016203,-1.3504787059727839,-0.9308422137306067,0.24250825322477,-3.0378800619640858,3,right
10.724,-0.5738381507652845,0.9740824183988387,0.056484054618853106,7.03301818789306,7.813633760917061,-1.3391193127096073,-0.92818794564862,0.2581827268609343,-3.028835109544354,3,right
10.725,-0.5882369038884838,0.9531102739962072,0.05741235457255762,7.025708494781879,7.888567981027677,-1.3272294349378626,-0.925188174148031,0.27387353655654,-3.018380950763796,3,right
10.729000000000001,-0.6024354073990028,0.9319866674281067,0.05828215650012486,7.015076852081152,7.959887390523362,-1.314812441576937,-0.9218388449628023,0.28956550803870135,-3.0065011352939313,3,right
10.73,-0.6164216386200494,0.9107322657023011,0.05909209383224081,7.001084709085439,8.02744800577327,-1.3018724272781,-0.9181361304589164,0.3052431364754769,-2.99318014682117,3,right
10.732000000000001,-0.630184030753597,0.889367795885235,0.05984085613097407,6.983697037405186,8.091108049272743,-1.2884142170462665,-0.9140764378152321,0.3208906042622683,-2.978403428131037,3,right
10.732999999999999,-0.6437114949584254,0.8679140107793508,0.060527195215890846,6.962882434329728,8.150728196438257,-1.2744433694268908,-0.9096564169416976,0.33649180006519636,-2.962157404774751,3,right
10.739,-0.6569934407145472,0.8463916558163981,0.06114993185843954,6.9386132182866636,8.20617182045874,-1.2599661782208236,-0.9048729681242752,0.3520303391664595,-2.9444295072798785,3,right
10.74,-0.6700197942414464,0.8248214373103736,0.06170796300347388,6.910865516347552,8.257305235385845,-1.244989672688485,-0.8997232493849097,0.36748958515658964,-2.9252081918625676,3,right
10.742,-0.6827810147538474,0.8032239921929046,0.06220026941520845,6.87961934372012,8.303997937634149,-1.2295216162032325,-0.8942046835438346,0.3828526730183889,-2.9044829595946733,3,right
10.743,-0.695268108370359,0.7816198593202399,0.06262592359879919,6.844858675157171,8.346122846050285,-1.2135705033123483,-0.8883149649704697,0.39810253364714937,-2.882244373974818,3,right
10.748,-0.7074726395341301,0.760029452397037,0.06298409781950493,6.806571508202467,8.383556540697588,-1.1971455551626402,-0.8820520660081091,0.4132219198515302,-2.8584840768481556,3,right
10.75,-0.7193867398537522,0.7384730345110212,0.06327407201901508,6.764749918183759,8.416179500490143,-1.1802567132462398,-0.8754142430565445,0.4281934338791882,-2.833194802615266,3,right
10.753,-0.7310031143158264,0.7169706942154794,0.06349524140906704,6.719390104853119,8.443876339796963,-1.1629146314207912,-0.8684000422956948,0.44299955651093503,-2.8063703906662867,3,right
10.754000000000001,-0.7423150448478013,0.6955423230312893,0.06364712351419473,6.670492430564528,8.466536044123597,-1.1451306661568716,-0.8610083050322528,0.45762267776681625,-2.778005795972005,3,right
10.758,-0.7533163912236046,0.6742075941742163,0.06372936444513416,6.618061449868606,8.484052204964618,-1.1269168649641466,-0.8532381726502712,0.4720451292670843,-2.7480970977592545,3,right
10.759,-0.7640015893228211,0.6529859422725988,0.06374174421143287,6.562105930394151,8.49632325390634,-1.1082859529464661,-0.8450890911455399,0.48624921829056217,-2.7166415061935356,3,right
10.762,-0.7743656467921148,0.6318965438503018,0.06368418093109013,6.502638864876048,8.503252696044592,-1.089251317434839,-0.8365608152225154,0.5002172635723661,-2.6836373669873765,3,right
10.763,-0.7844041362101902,0.6109582984082513,0.06355673387404809,6.439677474178927,8.504749342767699,-1.0698269906459887,-0.8276534119314817,0.5139316328823834,-2.6490841638485025,3,right
10.767999999999999,-0.7941131859025716,0.5901898100188149,0.0633596053698587,6.3732432011558595,8.500727543939664,-1.0500276303129996,-0.818367263822531,0.5273747824252704,-2.6129825186774482,3,right
10.769,-0.8034894685706644,0.5696093694206367,0.06309314168147323,6.30336169517131,8.491107419503304,-1.0298684982334003,-0.8087030715918634,0.5405292981020587,-2.5753341894198045,3,right
10.769,-0.8125301878890255,0.5492349366455836,0.06275783297233832,6.230062787107495,8.475815090507425,-1.0093654366789164,-0.7986618562020749,0.5533779386021564,-2.5361420655324154,3,right
10.773,-0.8212330631972116,0.5290841242157469,0.062354312476271906,6.153380454663383,8.454782909546324,-0.9885348426100464,-0.7882449604932774,0.5659036799408735,-2.495410161311305,3,right
10.774000000000001,-0.8295963123865409,0.5091741809283121,0.06188335494084544,6.073352777745617,8.427949690583839,-0.9673936396375834,-0.7774540503660978,0.578089760421601,-2.4531436078519113,3,right
10.777000000000001,-0.8376186330761226,0.48952197622476007,0.06134587438093878,5.990021883868504,8.395260937863812,-0.945959247719726,-0.7662911156527834,0.5899197246480161,-2.4093486447006724,3,right
10.777999999999999,-0.8452991821867387,0.4701439851312811,0.06074292116270756,5.903433884108452,8.356669072322456,-0.9242495508200191,-0.7547584707552987,0.6013774655636378,-2.3640326119596815,3,right
10.777999999999999,-0.8526375540421286,0.4510562737534704,0.060075678434809085,5.813638801297116,8.312133651615333,-0.9022828631780512,-0.7428587550629401,0.6124472641302532,-2.3172039430744955,3,right
10.782,-0.8596337571620205,0.4322744853085955,0.05934545792543172,5.720690492766025,8.26162157858489,-0.8800778950815227,-0.73059493312466,0.6231138266085892,-2.268872158237877,3,right
10.783,-0.8662881899741778,0.41381382668745853,0.05855369512670763,5.6246465693081005,8.205107294247512,-0.8576537187899799,-0.7179702945429737,0.633362319474112,-2.2190478582793136,3,right
10.786,-0.872601615743723,0.3956890555477359,0.05770194388924655,5.5255683108638385,8.142572953648106,-0.835029734832195,-0.7049884535552725,0.643178401999722,-2.167742718905807,3,right
10.787,-0.878575137063305,0.3779144679405007,0.05679187044843645,5.423520578792877,8.074008584183016,-0.8122256386609539,-0.6916533482673187,0.6525482565359523,-2.1149694851551044,3,right
10.792,-0.8842101702581371,0.3605038864634338,0.055825246903971365,5.318571724455168,7.999412226228893,-0.7892613876008729,-0.6779692395026636,0.661458616518084,-2.0607419659182753,3,right
10.793,-0.8895084200434805,0.3434706489269529,0.05480394417691092,5.210793493817273,7.918790055897859,-0.7661571680242977,-0.663940709230702,0.6698967922283459,-2.0050750283842693,3,right
10.797,-0.8944718547363187,0.32682759751679885,0.05372992447804596,5.100260927790753,7.832156489721978,-0.7429333626898118,-0.6495726585350666,0.6778506943400857,-1.9479845922548802,3,right
10.798,-0.8991026822745912,0.31058706843617817,0.0526052333440118,4.987052258001355,7.739534271052765,-0.7196105181774338,-0.6348703050830597,0.6853088552694869,-1.8894876235743698,3,right
10.802,-0.9034033272448361,0.2947608820094253,0.051431991332893646,4.871248797679499,7.640954537944162,-0.6962093123541703,-0.6198391800558323,0.692260448359041,-1.8296021280138677,3,right
10.802,-0.9073764090701008,0.27936033322853654,0.05021238550452451,4.752934827354725,7.536456872270138,-0.6727505218032562,-0.6044851244980475,0.6986953049156026,-1.7683471434465823,3,right
10.807,-0.9110247214697246,0.26439618272859666,0.04894866082306243,4.6321974750290575,7.426089329810918,-0.6492549891501246,-0.5888142850448044,0.7046039291244294,-1.7057427316458091,3,right
10.808,-0.9143512132736463,0.24987864819165637,0.04764311160216592,4.509126590496792,7.309908451024724,-0.6257435902179264,-0.5728331089826525,0.7099775108591534,-1.6418099689337478,3,right
10.811,-0.9173589706543351,0.2358173962008169,0.04629807307392484,4.383814613470996,7.187979252204934,-0.6022372009452536,-0.5565483386006037,0.7148079364061513,-1.5765709356051985,3,right
10.811,-0.9200512008230348,0.22222153459331687,0.04491591311685118,4.256356435170094,7.060375196705731,-0.5787566639986153,-0.5399670047861369,0.7190877971202649,-1.5100487039463368,3,right
10.815999999999999,-0.9224312172173338,0.2090996053882564,0.04349902413727682,4.126849253011168,6.92717814590264,-0.5553227550121682,-0.5230964198203001,0.7228103960272969,-1.4422673246649569,3,right
10.818,-0.9245024261802779,0.19645957838824457,0.04204981506982573,3.9953924180501894,6.788478289537798,-0.5319561483872199,-0.5059441693251433,0.7259697523871353,-1.3732518115448142,3,right
10.82,-0.9262683150965909,0.1843088455728763,0.0405707034518346,3.862087274803262,6.6443740550836035,-0.5086773825840963,-0.4885181033158651,0.728560604229794,-1.3030281241330222,3,right
10.821,-0.9277324419119753,0.17265421641229187,0.03906410753536512,3.727036993077018,6.494971995742285,-0.4855068248390971,-0.47082632630922255,0.7305784088750452,-1.231623148265835,3,right
10.825999999999999,-0.9288984259230925,0.16150191422859714,0.03753243842586785,3.5903463914307614,6.340386656683155,-0.46246463523945935,-0.45287718643895014,0.7320193414447127,-1.1590646742346136,3,right
10.827,-0.9297699396959377,0.15085757372265168,0.03597809227239384,3.452121751887638,6.180740419103793,-0.43957073008949865,-0.4346792635281423,0.7328802913750555,-1.0853813723902945,3,right
10.83,-0.9303507019547123,0.14072623976663615,0.03440344257090676,3.312470625507075,6.0161633216862285,-0.41684474450140746,-0.416241356067795,0.733158856935032,-1.0106027659812988,3,right
10.831,-0.930644471284042,0.13111236754091063,0.032810832669188446,3.1715016284260624,5.846792859004302,-0.39430599414456086,-0.3975724670499614,0.7328533377545766,-0.9347592010164973,3,right
10.835,-0.9306550405017329,0.12201982406787905,0.031202568573095252,3.0293242279724084,5.672773756423852,-0.37197343608760314,-0.37868178860326357,0.7319627253653577,-0.8578818129416252,3,right
10.835999999999999,-0.9303862315813041,0.11345189116763263,0.02958091215003975,2.8860485184490368,5.494257721023248,-0.34986562866807114,-0.35957868541942567,0.7304866917896545,-0.7800024900373229,3,right
10.837,-0.9298418910290204,0.10541126983380149,0.027948074809725124,2.7417849861845895,5.311403168048027,-0.32800069032484747,-0.34027267716690307,0.7284255763855173,-0.701153834058575,3,right
10.84,-0.9290258856448083,0.09790008600579905,0.026306211719509663,2.5966442634421307,5.124374922400044,-0.30639625732932874,-0.3207734204615743,0.7257803714682648,-0.6213691197387259,3,right
10.841,-0.9279420986109278,0.09091989769229825,0.024657416591815175,2.4507368707746027,4.933343894648641,-0.28506944035183623,-0.30109069117192194,0.7225527074008977,-0.5406822553930264,3,right
10.845,-0.9265944258516268,0.08447170337542292,0.023003717069465374,2.304172947412838,4.738486731038921,-0.2640367798004965,-0.2812343676274761,0.7187448376701224,-0.45912774623923164,3,right
10.845999999999998,-0.9249867725999987,0.07855595159723909,0.02134707072614228,2.1570619692694133,4.539985436960188,-0.24331419987056452,-0.2612144149242115,0.7143596241494339,-0.3767406609437051,3,right
10.845999999999998,-0.9231230501059524,0.07317255160780214,0.01968936168675778,2.0095124547316123,4.338026974040282,-0.22291696133242617,-0.24104087031198906,0.7094005225748311,-0.29355660128424227,3,right
10.850999999999999,-0.9210071724246116,0.06832088494726174,0.018032397859488323,1.8616316613757586,4.132802834591169,-0.2028596135346995,-0.22072382960702314,0.7038715682222327,-0.2096116746954052,3,right
10.853,-0.9186430532340112,0.0639998178433799,0.0163779087633749,1.7135252820632172,3.9245086035477335,-0.18315594690495213,-0.2002734345718826,0.6977773617740041,-0.12494246945976799,3,right
10.854000000000001,-0.9160346026362319,0.06020771431116578,0.01472754393247413,1.5652971518379848,3.7133435216024715,-0.16381894767882516,-0.17969986120509512,0.6911230553603552,-0.03958603230618566,3,right
10.855,-0.9131857238934039,0.05694244982845774,0.013082871876650404,1.4170489740839463,3.4995100596587414,-0.1448607561419886,-0.159013308882011,0.6839143387597394,0.046420151825986175,3,right
10.86,-0.910100310047055,0.05420142544339255,0.011445379579954534,1.26888006906962,3.283213508289369,-0.12629262886515932,-0.13822399028819957,0.6761574257407544,0.13303817809987298,3,right
10.862,-0.9067822403735466,0.05198158216459555,0.00981647251880713,1.1208871450469704,3.0646615823085415,-0.10812490496612508,-0.11734212208629803,0.6678590405264437,0.2202297384163901,3,right
10.864,-0.9032353766383832,0.0502794154915546,0.008197475180039776,0.9731640914786215,2.844064039843141,-0.09036697634433719,-0.09637791625690775,0.6590264043603006,0.30795613661886967,3,right
10.865,-0.8994635591242701,0.04909098995350451,0.006589632051950421,0.8258017939680322,2.621632315282611,-0.07302726183475297,-0.07534157205383765,0.6496672221517094,0.3961783025157542,3,right
10.869000000000002,-0.8954706024200192,0.048411953538221454,0.004994109051858489,0.6788879704676897,2.397579165479952,-0.056113185228757,-0.0542432685137288,0.639789669176997,0.4848568049717501,3,right
10.87,-0.8912602909683999,0.04823755190835785,0.003411995344054269,0.5325070283411483,2.172118328570599,-0.03963115711116541,-0.03309315745985764,0.6294023778107394,0.5739518643193737,3,right
10.875,-0.8868363743804611,0.048562642322836,0.0018443054957445898,0.38673994185577154,1.9454641947706448,-0.023586560463517005,-0.011901356939707924,0.6185144242604534,0.6634233643442421,3,right
10.876,-0.8822025625325487,0.049381707202838826,0.000291981916948708,0.24166414968431255,1.7178314885112214,-0.007983739985075245,0.009322054964276705,0.6071353152763179,0.7532308640987726,3,right
10.88,-0.8773625204708763,0.050688867304504365,-0.0012441024683076895,0.09735347199499444,1.4894349612618178,0.007174004915795726,0.03056704601149611,0.5952749748061017,0.8433336098001525,3,right
10.880999999999998,-0.8723198631571115,0.052477894483939594,-0.002763141369970126,-0.046121953288491724,1.2604890943918783,0.021884423505963518,0.051823635428409884,0.5829437305640434,0.933690547069517,3,right
10.884,-0.867078150096093,0.05474222406410728,-0.004264392148655087,-0.1886957154736769,1.0312078114172145,0.03614631353238402,0.07308189934311393,0.5701523004810136,1.024260333770244,3,right
10.885,-0.861640879892585,0.05747496683473961,-0.005747172751738406,-0.33030515774710706,0.8018041989755714,0.04995951749102135,0.09433197609028714,0.5569117790019104,1.1150013537041155,3,right
10.888,-0.8560114847884978,0.06066892073343655,-0.007210858620055939,-0.470891385895263,0.572490235874107,0.06332491540208776,0.11556407144755122,0.5432336231948866,1.2058717314248288,3,right
10.889000000000001,-0.8501933252360545,0.06431658226785385,-0.008654879613076604,-0.610399259508048,0.3434765295505823,0.07624441413257371,0.13676846386429184,0.5291296386356875,1.2968293484289535,3,right
10.894,-0.844189684565775,0.06841015774575596,-0.010078716993689264,-0.7487773660715228,0.11497205928970058,0.08872093330575173,0.15793550974396578,0.5146119650290861,1.3878318609849125,3,right
10.895,-0.8380037638108935,0.07294157438231282,-0.011481900507410613,-0.8859779783536365,-0.112816074463707,0.10075838783605333,0.17905564884086733,0.4996930615281472,1.47883671986095,3,right
10.898,-0.8316386767522472,0.07790249135211273,-0.012864005586774401,-1.0219569954836099,-0.33968289535209534,0.11236166712643952,0.20011940983224757,0.4843856917108305,1.5698011922132862,3,right
10.9,-0.8250974452498193,0.08328431084686974,-0.014224650707977658,-1.1566738681223943,-0.5654257915692048,0.12353661096411522,0.2211174161265734,0.4687029081722546,1.6606823858957982,3,right
10.902999999999999,-0.8183829949287638,0.0890781891902119,-0.015563494921247851,-1.290091508118249,-0.7898447521945794,0.13428998214917823,0.2420403919685786,0.45265803668978966,1.7514372764525634,3,right
10.904000000000002,-0.8114981512878959,0.09527504804979062,-0.01688023556888785,-1.4221761830379824,-1.0127426000498951,0.14462943588954869,0.26287916890159685,0.4362646599170346,1.8420227370544908,3,right
10.905,-0.8044456362946478,0.10186558577479687,-0.018174606196747045,-1.5528973959607846,-1.2339252217251677,0.1545634859942961,0.283624692621853,0.4195366005864443,1.9323955715176249,3,right
10.908,-0.7972280655192202,0.10884028887543759,-0.019446374658066996,-1.6822277509178467,-1.4532017954191094,0.16410146789627203,0.30426803013104503,0.4024879043232894,2.022512549923332,3,right
10.909,-0.7898479458438795,0.11618944365182529,-0.020695341405363738,-1.8101428043571532,-1.6703850172335448,0.17325349853376915,0.32480037686267565,0.38513282239574553,2.112330445249477,3,right
10.913,-0.7823076737697789,0.12390314797178464,-0.02192133796510979,-1.9366209032379775,-1.8852913262679227,0.18203043317686032,0.34521306332919793,0.36748579484890415,2.2018060688040713,3,right
10.914000000000001,-0.7746095343375026,0.1319713231899773,-0.023124225589088086,-2.061643011500975,-2.0977411274097633,0.19044381956841303,0.36549756096487257,0.3495614343456196,2.290896302869162,3,right
10.915,-0.7667557006736043,0.14038372619682604,-0.024303894075178804,-2.1851925287173337,-2.3075590081103345,0.19850585026252765,0.3856454870695491,0.3313745108131133,2.3795581300724717,3,right
10.919,-0.7587482341721693,0.14912996158179648,-0.025460260747697697,-2.3072551058616573,-2.5145739439835904,0.20622931432754965,0.4056486088863662,0.3129399368694609,2.4677486596203453,3,right
10.92,-0.7505890853210904,0.15819949388633903,-0.026593269581125855,-2.4278184620037337,-2.7186194895040905,0.21362754929428523,0.4254988468716257,0.2942727539785032,2.555425150647829,3,right
10.924000000000001,-0.7422800951849842,0.16758165991067128,-0.027702890443795435,-2.5468722036485048,-2.9195339526725954,0.2207143937151813,0.4451882772147011,0.2753881192809662,2.6425450329405047,3,right
10.924000000000001,-0.7338229975561517,0.17726568103238963,-0.028789118434442613,-2.6644076473039253,-3.117160553954733,0.22750414041378159,0.4647091336654291,0.256301293048865,2.7290659252813283,3,right
10.929,-0.7252194217818935,0.18724067549485734,-0.029851973285499808,-2.780417645623041,-3.3113475700785555,0.23401149044574196,0.4840538087259886,0.23702762670959915,2.814945651674251,3,right
10.93,-0.7164708962726947,0.1974956706272674,-0.030891498811434312,-2.894896417462273,-3.5019484632678206,0.2402515077917944,0.5032148542638147,0.21758255138552063,2.9001422556948078,3,right
10.932,-0.7075788526925424,0.2080196149638122,-0.031907762386545045,-3.0078393821935383,-3.688821996478404,0.24623957480219624,0.5221849816016105,0.1979815668941771,2.9846140132161336,3,right
10.933,-0.6985446308299902,0.21880139023493828,-0.032900854442074315,-3.119242998603473,-3.871832335195367,0.25199134841139087,0.5409570611400094,0.17824023115389534,3.0683194437570207,3,right
10.939,-0.6893694841447622,0.22982982320891923,-0.03387088797666156,-3.229104608708595,-4.050849136337931,0.2575227171408392,0.5595241215679201,0.15837414993887733,3.1512173206966834,3,right
10.94,-0.6800545859784124,0.24109369736579697,-0.03481799807786543,-3.3374222868108734,-4.225747624808893,0.2628497589072574,0.5778793487150335,0.13839896692753456,3.2332666805987977,3,right
10.943,-0.6706010364113981,0.25258176438595215,-0.03574234145620244,-3.444194694113716,-4.396408658213953,0.2679886996528192,0.5960160841004037,0.11833035398738234,3.314426831885197,3,right
10.944,-0.6610098697477712,0.26428275543355767,-0.03664409599651782,-3.549420939213983,-4.5627187802649365,0.27295587281324607,0.6139278232304273,0.098184001639458,3.394657363097275,3,right
10.947000000000001,-0.6512820626141826,0.27618539221730787,-0.037523460331120057,-3.653100444781193,-4.7245702633691105,0.27776767963912513,0.6316082136989355,0.07797560964491318,3.4739181509807118,3,right
10.948,-0.6414185426674781,0.2882783978214707,-0.03838065343108213,-3.7552328207306345,-4.881861140894599,0.2824405503852514,0.6490510531414881,0.05772087765616245,3.552169368626594,3,right
10.953,-0.6314201979079102,0.30055050731570215,-0.03921591420062412,-3.8558177441926893,-5.034495229589437,0.2869909063823001,0.6662502870953099,0.03743549587474675,3.62937149389932,3,right
10.954,-0.6212878865907954,0.31299047816437575,-0.04002950105504655,-3.954854846576194,-5.182382142618995,0.2914351230046862,0.6832000068156476,0.01713513565789239,3.7054853183788974,3,right
10.958,-0.6110224477221999,0.32558710046127276,-0.04082169146898531,-4.052343608019242,-5.325437293673428,0.2957894935480717,0.6998944470986447,-0.0031645599843872834,3.780471957042348,3,right
10.959000000000001,-0.6006247121175797,0.3383292070143644,-0.04159278149219017,-4.14828325951638,-5.463581892583414,0.30007019402962726,0.7163279841601272,-0.02344798605988813,3.854292858905912,3,right
10.962,-0.5900955139964108,0.35120568330068497,-0.04234308523712638,-4.242672693006712,-5.596742932868874,0.30429324892385035,0.7324951336189829,-0.043699585490793266,3.926909818846626,3,right
10.963,-0.5794357030801104,0.3642054773044343,-0.043072934343822145,-4.3355103797029555,-5.724853171631424,0.3084744978464839,0.7483905486330779,-0.06390385929451489,3.9982849908186036,3,right
10.967,-0.5686461571552841,0.37731760924347174,-0.04378267742308277,-4.4267942969370635,-5.847851102187283,0.312629563198867,0.7640090182349109,-0.08404537710703527,4.068380902676009,3,right
10.968,-0.5577277950598601,0.39053118118198593,-0.044472679472044606,-4.516521863793566,-5.965680919823008,0.31677381878488337,0.7793454659134346,-0.1041087881068909,4.137160472811249,3,right
10.972000000000001,-0.5466815900457962,0.40383538652153333,-0.0451433212499103,-4.604689885797315,-6.078292481041971,0.320922359412554,0.7943949484876978,-0.12407883239780822,4.2045870288133464,3,right
10.972999999999999,-0.5355085834692591,0.41721951935894364,-0.045794998599557546,-4.691294508917884,-6.185641256654773,0.32508997149224134,0.8091526553043502,-0.14394035287502485,4.270624328275188,3,right
10.972999999999999,-0.5242098987589229,0.4306729836994994,-0.046428121703188094,-4.776331183148347,-6.287688279052006,0.3292911046434051,0.8236139077261654,-0.1636783074361361,4.335236581511659,3,right
10.977,-0.5127867556151955,0.4441853025177087,-0.04704311426585155,-4.859794635911742,-6.384400083982748,0.33353984432185757,0.8377741587625791,-0.18327778110189183,4.398388475293463,3,right
10.979000000000001,-0.5012404843949131,0.4577461266591244,-0.04764041262764858,-4.941678855543977,-6.475748647147115,0.3378498854795229,0.8516289926283256,-0.20272399744808745,4.460045196334571,3,right
10.982999999999999,-0.48957254063564265,0.4713452435707339,-0.04822046481280713,-5.021977084898315,-6.561711315911607,0.34223450726854754,0.865174124079479,-0.2220023289133077,4.520172453630034,3,right
10.984000000000002,-0.47778451967345414,0.48497258584346153,-0.048783729530474766,-5.100681824116246,-6.642270736519135,0.34670654880048934,0.8784053974906797,-0.2410983058420313,4.578736499389982,3,right
10.984000000000002,-0.46587817131028064,0.4986182395554962,-0.04933067514612195,-5.177784839812611,-6.717414777291345,0.35127838596922384,0.8913187857005214,-0.2599976242861346,4.635704148674293,3,right
10.987,-0.45385541449063194,0.5122724524107509,-0.049861778644856976,-5.2532771769225075,-6.787136448383818,0.35596190934516525,0.9039103886640019,-0.2786861526201452,4.691042797900563,3,right
10.988,-0.4417183519495421,0.5259256416642428,-0.05037752461082261,-5.3271491704486955,-6.851433818560798,0.36076850314990455,0.9161764319500382,-0.29714993702507125,4.744720442393567,3,right
10.991,-0.4294692847922857,0.5395684018209437,-0.050878404247174776,-5.399390456136055,-6.910309929299379,0.365709025322916,0.9281132651211358,-0.3153752058950699,4.796705693139782,3,right
10.992,-0.41711072696079415,0.553191512093994,-0.05136491445410004,-5.469989980090768,-6.963772706439159,0.3707937886935598,0.9397173600313741,-0.33334837322061084,4.846967792905881,3,right
10.995999999999999,-0.40464541953174865,0.5667859436111456,-0.051837556968769766,-5.538936007556438,-7.01183486956205,0.3760325432722119,0.9509853090779397,-0.35105604100114773,4.895476631875321,3,right
10.997,-0.3920763447780347,0.5803428663611934,-0.05229683755594087,-5.606216131054635,-7.054513839271397,0.3814344596747369,0.9619138234404889,-0.36848500073962415,4.94220276295232,3,right
11.002,-0.37940673991111556,0.5938536558739224,-0.052743265224904363,-5.671817278092668,-7.091831642524033,0.387008113694931,0.97249973134167,-0.3856222340704173,4.98711741687752,3,right
11.003,-0.3666401104093783,0.6073098996283057,-0.05317735143907536,-5.735725718636618,-7.123814816153374,0.3927614720400057,0.9827399763611656,-0.4024549125715609,5.030192517294652,3,right
11.007,-0.353780242827218,0.6207034031836491,-0.05359960927843352,-5.7979270725428735,-7.150494308706188,0.3987018792446478,0.9926316158346444,-0.4189703968112871,5.071400695902361,3,right
11.008,-0.34083121697140706,0.6340261960258389,-0.05401055251193809,-5.8584063171365965,-7.171905380700319,0.40483604577968435,1.0021718193680258,-0.43515623467809106,5.11071530782015,3,right
11.011,-0.327797417325947,0.6472705371170028,-0.054410694537495766,-5.917147795120699,-7.18808750339531,0.41117003737189833,1.0113578674964694,-0.4510001590426471,5.1481104472921375,3,right
11.012,-0.3146835436049858,0.6604289201343111,-0.05480054715134334,-5.974135222993957,-7.1990842561526325,0.4177092655520715,1.0201871505164974,-0.4664900847989931,5.183560963846963,3,right
11.015,-0.30149462031536184,0.6734940783826332,-0.05518061911643596,-6.029351700151976,-7.204943222447131,0.4244584794488919,1.028657167518653,-0.4816141053314555,5.217042479026692,3,right
11.015999999999998,-0.2882360052151027,0.6864589893652763,-0.05555141451016405,-6.082779718839741,-7.205715884576248,0.4314217588469327,1.0367655256470751,-0.4963604884528038,5.248531403792124,3,right
11.020999999999999,-0.27491339656142244,0.6993168789970489,-0.055913430844377617,-6.134401175119404,-7.201457517098731,0.43860250852749755,1.0445099396113513,-0.5107176718581068,5.278004956706275,3,right
11.022,-0.2615328390523766,0.7120612254447456,-0.05626715696316487,-6.184197381011899,-7.192227079019764,0.4460034539117305,1.0518882314749751,-0.5246742581377134,5.305441182992177,3,right
11.025,-0.24810072838102362,0.7246857625813943,-0.05661307073476672,-6.2321490779658255,-7.1780871047248604,0.4536266380260015,1.0588983307436943,-0.5382190093916945,5.330818974555393,3,right
11.026,-0.23462381433853174,0.7371844830420204,-0.05695163656338249,-6.278236451801875,-7.159103593650407,0.4614734198102016,1.0655382747759943,-0.5513408414869673,5.3541180910558746,3,right
11.030999999999999,-0.22110920242130724,0.7495516408706882,-0.05728330275374919,-6.3224391492757865,-7.135345898664497,0.46954447379021297,1.0718062095369083,-0.5640288179971692,5.375319182107946,3,right
11.032,-0.2075643539159864,0.7617817537517783,-0.057608498765398024,-6.364736296397547,-7.106886613117532,0.47783979113645614,1.0777003907152884,-0.5762721438641711,5.394403810681247,3,right
11.035,-0.1939970844545005,0.7738696048237139,-0.05792763239550439,-6.4051065186391964,-7.073801456508264,0.4863586821310579,1.0832191852236064,-0.5880601588188985,5.411354477769555,3,right
11.036,-0.18041556104851486,0.7858102440806293,-0.05824108693129225,-6.44352796315817,-7.036169158697125,0.4950997800668257,1.0883610730982904,-0.5993823305978876,5.426154648388331,3,right
11.040999999999999,-0.1668282976277235,0.7975989893746395,-0.058549218316499306,-6.479978323157643,-6.994071342585305,0.5040610466018574,1.0931246498175209,-0.6102282479907273,5.43878877895579,3,right
11.042,-0.15324414911793466,0.809231427036123,-0.05885235238098832,-6.514434864499801,-6.947592405164667,0.5132397785942552,1.0975086290429297,-0.6205876137769074,5.449242346073206,3,right
11.043,-0.1396723040974059,0.8207034121319464,-0.05915078218377179,-6.546874454682363,-6.89681939683058,0.5226326164420518,1.1015118457434898,-0.6304502377326784,5.457501876549314,3,right
11.045,-0.12612227606211446,0.8320110683827383,-0.0594447655146928,-6.577273594283016,-6.841841898836912,0.5322355539540845,1.105133259574091,-0.6398060301093017,5.463554978211015,3,right
11.046,-0.1126038933236567,0.8431507877587372,-0.059734522594765485,-6.605608450970708,-6.782751898759862,0.5420439497781784,1.1083719583331357,-0.6486449961060899,5.467390370871616,3,right
11.050999999999998,-0.09912728756808942,0.8541192297680821,-0.06002023401526814,-6.631854896176934,-6.7196436638249475,0.5520525404136151,1.1112271613694635,-0.6569572317367942,5.468997916986253,3,right
11.052999999999999,-0.0857028811138152,0.8649133204448022,-0.060302038955857916,-6.65598854452077,-6.652613612052465,0.5622554548095079,1.113698222892532,-0.6647329212642925,5.468368651814225,3,right
11.052999999999999,-0.07234137290720949,0.8755302510414237,-0.060580033715490915,-6.677984796107963,-6.581760181730166,0.5726462304215298,1.11578463518574,-0.6719623362536323,5.465494813066312,3,right
11.056,-0.059053723285016825,0.8859674764326494,-0.060854270578693824,-6.697818881876773,-6.507183700727742,0.5832178303664337,1.1174860317310953,-0.678635836267285,5.460369870041664,3,right
11.057,-0.04585113752757348,0.8962227132343403,-0.06112475702993226,-6.7154659121896545,-6.428986257721713,0.5939626611845935,1.118802190252327,-0.684743871224929,5.452988552252435,3,right
11.06,-0.032745048237010035,0.9062939376312512,-0.06139145532352652,-6.730900928831275,-6.347271576823098,0.6048725908511016,1.1197330356824304,-0.6902769854485091,5.443346877527903,3,right
11.062000000000001,-0.019747096591749433,0.9161793828922429,-0.06165428241457546,-6.744098960508747,-6.2621448960721064,0.6159389669100538,1.1202786430605358,-0.6952258234117221,5.431442179583333,3,right
11.064,-0.0068691125410339495,0.9258775365382552,-0.0619131102548343,-6.755035081911182,-6.173712849688509,0.6271526347369205,1.1204392403618813,-0.6995811372114558,5.417273135032373,3,right
11.065,0.005876905991354733,0.9353871371148793,-0.062167766453405646,-6.76368447637288,-6.082083353843144,0.6385039559603246,1.1202152112635617,-0.7033337957770552,5.400839789815282,3,right
11.069,0.018478814824366,0.9447071705062967,-0.062418035293406275,-6.770022502178,-5.987365495706263,0.6499828270749979,1.1196070978476242,-0.7064747958316147,5.382143585008783,3,right
11.07,0.03092434608982232,0.9538368657133707,-0.06266365908308465,-6.77402476253807,-5.889669425518886,0.6615786982781094,1.1186156032419707,-0.7089952746177856,5.361187381976834,3,right
11.074000000000002,0.043201131589017124,0.9627756900083563,-0.062904339805484,-6.775667179267156,-5.7891062514241876,0.6732805925615528,1.1172415941984248,-0.7108865243988627,5.337975486815131,3,right
11.075999999999999,0.05529672687028514,0.9715233433721872,-0.06313974101786404,-6.774926070172815,-5.6857879367870545,0.6850771250931458,1.1154861036062205,-0.7121400087441528,5.312513674035613,3,right
11.08,0.06719863596251023,0.9800797521178284,-0.06336948994492153,-6.771778230174292,-5.579827199721401,0.6969565229200306,1.113350332938062,-0.7127473806058459,5.284809209430798,3,right
11.081,0.07889433670003808,0.9884450616060266,-0.0635931797112408,-6.766201016152626,-5.471337414536566,0.7089066450278663,1.1108356546248153,-0.7127005021928052,5.254870872051267,3,right
11.084000000000001,0.09037130657573172,0.9966196279700805,-0.06381037166848941,-6.758172435530493,-5.360432514806263,0.7209150027896765,1.1079436143537835,-0.7119914666448598,5.222708975223174,3,right
11.085,0.10161704906134969,1.0046040087869539,-0.06402059779024663,-6.747671238572688,-5.247226897755907,0.7329687808384526,1.1046759332844407,-0.7106126215093252,5.188335386526215,3,right
11.089,0.11261912033804447,1.0123989526640522,-0.06422336312861163,-6.734677014391165,-5.131835329656924,0.7450548583978156,1.101034510174399,-0.7085565940196009,5.1517635466460625,3,right
11.089,0.1233651563840031,1.020005387750343,-0.06441814834668436,-6.71917029063155,-5.014372851909653,0.7571598311052044,1.0970214234073068,-0.7058163181737919,5.113008487008917,3,right
11.094000000000001,0.13384290037002666,1.0274244092214275,-0.06460441235624964,-6.701132636810898,-4.894954687489916,0.7692700333621908,1.0926389329132937,-0.7023850636093767,5.072086846099441,3,right
11.095,0.14404023031623828,1.0346572658275626,-0.06478159510035984,-6.68054677126932,-4.7736961474279935,0.781371561246613,1.087889481971506,-0.6982564662680005,5.029016884357047,3,right
11.099,0.1539451869630115,1.0417053456302576,-0.06494912052656605,-6.657396671690924,-4.650712536982826,0.7934502960212698,1.0827756988832107,-0.6934245608425076,4.98381849753926,3,right
11.1,0.1635460018053387,1.0485701610851796,-0.06510639979878574,-6.631667689142164,-4.526119061168613,0.8054919282739383,1.0773003985028813,-0.687883814996341,4.9365132284346185,3,right
11.103,0.1728311252312977,1.0552533336549204,-0.06525283479619061,-6.603346665568486,-4.40003072928575,0.8174819827234472,1.071466583613629,-0.6816291653434372,4.887124276801436,3,right
11.104000000000001,0.18178925469119797,1.0617565781542515,-0.06538782194880799,-6.572422054682672,-4.272562258103016,0.8294058437264733,1.0652774461322931,-0.6746560551747233,4.8356765074026296,3,right
11.109000000000002,0.1904093628044961,1.068081687043167,-0.06551075646287992,-6.538884046171002,-4.143827973333358,0.8412487815196255,1.0587363681284703,-0.6669604739152861,4.782196456000758,3,right
11.11,0.19868072529191438,1.0742305148868756,-0.06562103699246247,-6.502724693135801,-4.0139417090412906,0.8529959792312247,1.0518469226457365,-0.6585389982381813,4.726712333193243,3,right
11.110999999999999,0.2065929486126907,1.080204963188187,-0.06571807081240416,-6.46393804268554,-3.8830167046159807,0.8646325606970061,1.044612874337349,-0.6493888344784857,4.66925402607072,3,right
11.114,0.21413599719403784,1.086006965765784,-0.06580127953948159,-6.422520269576121,-3.7511654989404404,0.8761436191137301,1.0370381799727828,-0.6395078614846001,4.609853097871702,3,right
11.115,0.22130022013790582,1.0916384748244585,-0.06587010543788538,-6.378469812799451,-3.618499821383943,0.8875142465644192,1.0291269888955046,-0.6288946727614283,4.5485427859099,3,right
11.12,0.2280763772594986,1.097101447856984,-0.06592401833435832,-6.331787515007884,-3.4851304792417928,0.8987295644486158,1.0208836434863526,-0.6175486170382619,4.485357997935951,3,right
11.120999999999999,0.2344556642709697,1.1023978355124489,-0.06596252314878029,-6.282476764655537,-3.3511672412439135,0.9097747548506973,1.0123126796408273,-0.6054698368966314,4.4203353068936915,3,right
11.120999999999999,0.24042973690291922,1.1075295705395987,-0.06598516801427287,-6.230543640543663,-3.2167187169863523,0.9206350928481833,1.0034188272425826,-0.5926593053715719,4.353512943916694,3,right
11.123,0.24599073376899633,1.112498557871928,-0.06599155292999838,-6.175997057518348,-3.0818922333126006,0.9312959796080367,0.9942070106094492,-0.5791188604937125,4.284930789383651,3,right
11.123,0.251131297817198,1.1173066658801938,-0.0659813388695269,-6.118848910384752,-2.9467937107846334,0.9417429758421859,0.9846823488873749,-0.5648512377374905,4.21463036184587,3,right
11.129000000000001,0.2558445962458299,1.1219557187809133,-0.06595425724235525,-6.059114212163261,-2.8115275445570065,0.9519618350394794,0.9748501563667478,-0.5498601003386926,4.142654804635033,3,right
11.13,0.2601243387731457,1.1264474901513117,-0.06591011955667737,-5.996811223736741,-2.6761964927914303,0.961938536044201,0.9647159426946439,-0.5341500674424342,4.069048869954258,3,right
11.134,0.2639647941566614,1.1307836974633354,-0.06584882706492243,-5.931961573607126,-2.5409015736337417,0.9716593148269382,0.954285412955654,-0.5177267400405938,3.993858900250638,3,right
11.135,0.2673608048823067,1.1349659975193758,-0.065770380109831,-5.864590367403494,-2.405741970599877,0.9811106954464327,0.943564467593055,-0.500596724655649,3.9171328066625493,3,right
11.137,0.2703077999760693,1.138995982655661,-0.06567488684261119,-5.794726286962697,-2.2708149459822984,0.990279520231042,0.9325592021412238,-0.482767654725795,3.8389200443304126,3,right
11.138,0.27280180591487385,1.142875177577327,-0.06556257096989997,-5.722401678796304,-2.1362157618884234,0.9991529792077112,0.9212759067393437,-0.4642482096441805,3.7592715843549898,3,right
11.142999999999999,0.2748394556242977,1.1466050367015317,-0.06543377821185395,-5.647652631750396,-2.002037608522979,1.0077186388055746,0.9097210653956169,-0.4450481314030659,3.6782398821829116,3,right
11.144,0.2764179955518419,1.1501869419083819,-0.06528898121470007,-5.570519043657554,-1.868371539326889,1.0159644698605022,0.8979013549703829,-0.4251782387917062,3.595878842194864,3,right
11.148,0.2775352908033019,1.153622200628756,-0.06512878274220527,-5.491044676773368,-1.735306412586215,1.0238788749460521,0.885823643845741,-0.4046504390947771,3.5122437782677394,3,right
11.149000000000001,0.27818982833511513,1.1569120442288732,-0.06495391705321658,-5.409277201782804,-1.602928839125901,1.0314507150554137,0.8734949902484987,-0.3834777372362114,3.4273913700780856,3,right
11.152999999999999,0.27838071821327337,1.1600576266799152,-0.06476524944128739,-5.325268230154966,-1.471323135704517,1.038669335658001,0.8609226401925071,-0.36167424231139034,3.341379614910363,3,right
11.154000000000002,0.2781076929794168,1.163060023523662,-0.06456377396293007,-5.239073334618007,-1.3405712837279322,1.0455245921534109,0.8481140250056983,-0.33925517144874623,3.2542677747298807,3,right
11.158,0.2773711052017508,1.165920231160432,-0.06435060942007209,-5.15075205751945,-1.210752892901813,1.0520068747444735,0.8350767584064277,-0.31623685093998466,3.166116318276776,3,right
11.159,0.27617192332571733,1.1686391664949716,-0.06412699369853929,-5.060367906830658,-1.0819451694450528,1.058107132750111,0.8218186330930187,-0.29263671457632234,3.076986857934076,3,right
11.162,0.2745117259715386,1.1712176669815606,-0.0638942765999709,-4.967988339547993,-0.9542228884886935,1.063816898377677,0.8083476168097296,-0.268473299126372,2.986942081119709,3,right
11.163,0.27239269485037804,1.1736564911127387,-0.06365391133592228,-4.873684732237083,-0.8276583702875672,1.0691283099733788,0.7946718478517079,-0.2437662368895868,2.896045675949389,3,right
11.169,0.26981760648871966,1.1759563193976206,-0.06340744487554448,-4.7775323384606665,-0.7023214598747903,1.0740341347682898,0.7807996299708625,-0.21853624525750676,2.8043622509144392,3,right
11.169,0.26678982296294,1.178117755877838,-0.06315650734755855,-4.679610232824815,-0.5782795097923564,1.0785277911363365,0.7667394266439717,-0.19280511321343488,2.711957248316034,3,right
11.174000000000001,0.2633132818527813,1.1801413302346087,-0.06290280068875487,-4.580001241372763,-0.4555973655343873,1.0826033703795017,0.7524998546637571,-0.1665956846996103,2.6188968511948607,3,right
11.175,0.2593924856229261,1.18202750055037,-0.06264808670646649,-4.478791858050312,-0.3343373533431331,1.0862556580543266,0.7380896770130939,-0.13993183877944673,2.525247883492976,3,right
11.177,0.25503249063259464,1.183776656798724,-0.06239417469099676,-4.376072146961675,-0.214559270001517,1.0894801548526043,0.7235177950020676,-0.11283846656032745,2.431077703402999,3,right
11.177999999999999,0.2502388959461794,1.1853891251388833,-0.062142908683445984,-4.271935630129796,-0.09632037426992884,1.0922730970479644,0.7087932397475131,-0.08534144503788142,2.3364540909602396,3,right
11.179,0.2450178320764083,1.1868651730832853,-0.06189615447866826,-4.1664791604706,0.02032462038095283,1.094631476518828,0.6939251632549568,-0.05746760837561001,2.241445132915837,3,right
11.183,0.23937594975903095,1.1882050156001296,-0.06165578643105806,-4.059802779686277,0.13532355208527652,1.0965530603569928,0.6789228294628539,-0.029244717329306735,2.1461191090298204,3,right
11.183,0.2333204088499716,1.189408822214462,-0.061423674136484335,-3.9520095607786585,0.24862681628462302,1.098036410069859,0.6637956055081426,-0.0007014273277502222,2.050544382819375,3,right
11.187999999999999,0.22685886743650754,1.1904767251738595,-0.061201669073412124,-3.843205435200915,0.3601873710336165,1.099080900333019,0.6485529532909439,0.02813274463417806,1.95478929781231,3,right
11.189,0.21999947124285835,1.1914088287367746,-0.06099159128391771,-3.733499006267069,0.46996074152203093,1.0996867369984085,0.6332044213154121,0.05722745433160568,1.8589220792524945,3,right
11.19,0.2127508433915642,1.192205219624729,-0.0607952161614079,-3.6230013533242404,0.5779050223468686,1.0998549736114822,0.617759636763306,0.08655156595694437,1.7630107409828442,3,right
11.190999999999999,0.2051220745760995,1.1928659786605513,-0.060614261400773486,-3.5118258327944116,0.6839808754655807,1.0995875254393639,0.6022282977565071,0.11607318916109588,1.6671229972309332,3,right
11.192,0.19712271371820153,1.1933911935919104,-0.06045037416716304,-3.400087880585143,0.7881515223537792,1.0988871802609153,0.5866201657644179,0.14575971757210293,1.571326179021972,3,right
11.196,0.1887627592130728,1.1937809730635982,-0.06030511854483627,-3.2879048174777834,0.8903827299606821,1.0977576056188947,0.5709450581118907,0.17557786887541688,1.4756871549437707,3,right
11.197000000000001,0.18005265088825753,1.1940354616501814,-0.06017996333080961,-3.1753956574950073,0.9906427906474838,1.0962033524833905,0.5552128405430897,0.20549372654051973,1.380272255988374,3,right
11.202,0.1710032628100211,1.1941548557993475,-0.06007627024337027,-3.0626809189269344,1.0889024964078275,1.0942298553245264,0.5394334197964714,0.23547278327911006,1.2851472041953116,3,right
11.202,0.16162589706197159,1.1941394204769682,-0.059995282628501886,-2.9498824376938186,1.1851351076639962,1.0918434285912018,0.5236167361458721,0.2654799863204396,1.1903770448218625,3,right
11.208,0.1519322785852139,1.1939895062621888,-0.059938114768033256,-2.837123182722353,1.2793163169267803,1.0890512595914144,0.5077727558625316,0.2954797845896665,1.0960260817663716,3,right
11.209000000000001,0.14193455109447153,1.1937055666286098,-0.05990574191965052,-2.724527073012057,1.3714242076012366,1.0858613977685116,0.49191146355274235,0.3254361778752713,1.0021578159714921,3,right
11.210999999999999,0.13164527397064513,1.1932881751671274,-0.0598989912481946,-2.612218796067974,1.4614392082147376,1.0822827403665265,0.47604285432570975,0.3553127680716624,0.9088348865352407,3,right
11.210999999999999,0.12107741989797352,1.192738042540016,-0.05991853383764194,-2.5003236273760123,1.5493440423378222,1.0783250144765966,0.46017692574612895,0.3850728125830738,0.8161190142589594,3,right
11.217,0.11024437288532504,1.1920560329813832,-0.059964878000514754,-2.3889672505977426,1.6351236744624065,1.0739987554553223,0.4443236695259348,0.4146792799747348,0.7240709473626569,3,right
11.218,0.09915992619150063,1.1912431801664467,-0.06003836411725515,-2.2782755781622908,1.7187652520959045,1.0693152817048044,0.4284930629096597,0.44409490795705897,0.6327504090997739,3,right
11.220999999999998,0.08783827956103273,1.190300702266189,-0.06013916122819427,-2.16837457193415,1.800258044323757,1.0642866658030126,0.4126950597078433,0.4732822637882659,0.5422160470051541,3,right
11.222000000000001,0.07629403507412273,1.1892300159930018,-0.06026726555471713,-2.0593900636372844,1.8795933770867619,1.0589257019720826,0.3969395809329719,0.5022038071804064,0.45252538351192,3,right
11.225999999999999,0.0645421908366848,1.188032749433195,-0.06042250104514629,-1.9514475747178155,1.9567645654134604,1.0532458698711136,0.3812365049924928,0.5308219557932143,0.363734767675039,3,right
11.227,0.05259813171019768,1.1867107534567254,-0.060604521941468814,-1.8446721353298352,2.0317668428416713,1.0472612946990465,0.3655956573935412,0.5590991533995521,0.27589932774162446,3,right
11.231,0.04047761634092637,1.1852661114890288,-0.060812817276544716,-1.739188102131541,2.1045972882570627,1.0409867035922515,0.3500267999141405,0.5869979408054511,0.18907292431043546,3,right
11.232000000000001,0.02819675991571814,1.1837011474187276,-0.061046717163498396,-1.6351189745818686,2.1752547503704505,1.0344373783005414,0.33453961919578495,0.614481029606881,0.10330810382562089,3,right
11.235999999999999,0.01577201233354476,1.1820184314046298,-0.061305400728378645,-1.532587209431155,2.2437397700492734,1.027629104124447,0.31914371471249503,0.6415113788643971,0.01865605215249717,3,right
11.237,0.0032201317956350997,1.180220783353317,-0.06158790554804343,-1.4317140331030658,2.3100545007124644,1.0205781150957633,0.30384858607163995,0.6680522747757345,-0.06483345201395638,3,right
11.24,-0.00944184586634445,1.178311273876266,-0.06189313847560545,-1.3326192516690945,2.3742026269917034,1.0133010353825866,0.2886636196020584,0.6940674134252176,-0.14711208415415417,3,right
11.241,-0.022196641527973005,1.1762932225976617,-0.0622198877478614,-1.2354210581213396,2.4361892818557926,1.0058148168993186,0.2735980741852695,0.7195209866875606,-0.2281330215855883,3,right
11.245999999999999,-0.035026769992792965,1.1741701937524494,-0.06256683625214372,-1.1402358366540468,2.496020962388668,0.9981366731014172,0.25866106631890057,0.7443777712282093,-0.3078509919134296,3,right
11.247,-0.04791457927923384,1.1719459890685655,-0.06293257579227292,-1.0471779636694867,2.553705444405334,0.990284008944026,0.24386155456700165,0.7686032198708045,-0.38622232186161415,3,right
11.247,-0.0608422912684891,1.1696246379624455,-0.06331562215740479,-0.9563596052292025,2.609251696083814,0.9822743469830154,0.22920832384966894,0.7921635533946186,-0.46320498510533187,3,right
11.251,-0.07379204312653992,1.1672103851110587,-0.06371443075228064,-0.8678905106774276,2.6626697907850074,0.9741252495964109,0.21470997018999374,0.8150258501530355,-0.5387586471848458,3,right
11.252,-0.0867459289379195,1.1647076755176617,-0.06412741248549467,-0.7818778021695857,2.7139708192261907,0.9658542373036924,0.20037488637152256,0.8371581315724008,-0.6128447061139546,3,right
11.255,-0.09968604100089727,1.1621211372623146,-0.06455294958275841,-0.6984257598452129,2.763166801167748,0.9574787031599896,0.18621124866242467,0.8585294427947744,-0.6854263282594667,3,right
11.255999999999998,-0.11259451033206372,1.1594555622088583,-0.06498941103228051,-0.6176356023913844,2.8102705967666144,0.9490158232018033,0.17222700459778023,0.8791099283961819,-0.7564684796011987,3,right
11.255999999999998,-0.1254535460816322,1.1567158850077877,-0.06543516744823634,-0.5396052630419482,2.855295817838387,0.9404824631103612,0.15842986177882604,0.8988709032438774,-0.8259379525852484,3,right
11.26,-0.1382454736998731,1.1539071607561378,-0.0658886052102421,-0.46442916252607386,2.8982567397368078,0.9318950822075889,0.14482727764848757,0.9177849185539497,-0.8938033887789747,3,right
11.261,-0.1509527717958921,1.151034541644102,-0.06634813978245561,-0.3921979831167915,2.9391682154043317,0.9232696376079278,0.13142645020304095,0.9358258232083281,-0.9600352975316986,3,right
11.264000000000001,-0.1635581076971791,1.1481032528931532,-0.06681222812568409,-0.32299844939897654,2.9780455936143118,0.9146214922981979,0.11823430960028528,0.9529688203879003,-1.0246060708406233,3,right
11.265,-0.17604437176751028,1.1451185683197953,-0.0672793800930858,-0.25691311992357124,3.0149046429466155,0.9059653299683778,0.10525751062516443,0.969190519576021,-1.0874899946168715,3,right
11.27,-0.18839471059036175,1.1420857858997702,-0.06774816867877574,-0.19402019129375078,3.049761482181578,0.8973150777075596,0.09250242597435603,0.9844689839841818,-1.1486632565418458,3,right
11.270999999999999,-0.20059255918251134,1.1390102037016836,-0.0682172390123857,-0.13439331477659044,3.082632517318574,0.8886838367300991,0.07997514032194451,0.9987837734490431,-1.2081039506993507,3,right
11.275,-0.2126216724581317,1.135897096512766,-0.06868531607902205,-0.07810142525055717,3.113534385325125,0.880083821107127,0.06768144512891319,1.0121159828473771,-1.265792079164075,3,right
11.276,-0.22446615619835752,1.1327516934259176,-0.06915121127718016,-0.025208582308309305,3.142483904716712,0.8715263044785965,0.05562683415982627,1.0244482760727724,-1.3217095507221215,3,right
11.28,-0.23611049777904636,1.1295791566125826,-0.06961382806553812,0.024226176656339245,3.169498033061759,0.8630215747211001,0.04381649967072591,1.0357649156151807,-1.3758401768942972,3,right
11.280999999999999,-0.2475395968632868,1.1263845614716088,-0.07007216703662011,0.07014897153886403,3.194593831500597,0.854578896546774,0.032255329232939715,1.0460517877815674,-1.4281696654278502,3,right
11.284,-0.25873879617776074,1.1231728783140376,-0.0705253307432261,0.1125112029437042,3.217788436361611,0.8462064820087283,0.02094790315817996,1.0552964235930606,-1.47868561141725,3,right
11.285,-0.2696939123750516,1.119948955708636,-0.07097252848685086,0.15126966407506268,3.2390990379522115,0.8379114688885918,0.009898492491017187,1.0634880153910782,-1.5273774862094904,3,right
11.289000000000001,-0.2803912668559456,1.1167175055662213,-0.07141308110598057,0.18638664123065163,3.258542866596754,0.8296999069419352,-0.0008889424644739931,1.0706174291819552,-1.5742366242442085,3,right
11.29,-0.29081771630702147,1.113483089982359,-0.07184642564956242,0.21783000301998565,3.2761371859880843,0.821576751977535,-0.011410753116371075,1.07667721274661,-1.619256207973721,3,right
11.295,-0.3009606826159807,1.110250109794989,-0.07227211973180829,0.24557327841848398,3.2918992939139584,0.8135458677466657,-0.021663603086595196,1.0816615995387568,-1.6624312510028385,3,right
11.295,-0.3108081817695884,1.1070227947576086,-0.07268984533598098,0.2695957237581946,3.305846530414239,0.8056100356188364,-0.03164446827361962,1.0855665083921333,-1.7037585795830537,3,right
11.299000000000001,-0.32034885131862384,1.1038051951917138,-0.07309941184213858,0.2898823787454116,3.3179962934194447,0.7977709720206482,-0.04135063650641438,1.0883895390541363,-1.7432368125904227,3,right
11.3,-0.32957197600723115,1.1006011749713227,-0.07350075807851908,0.3064241115848396,3.328366061915969,0.7900293536147053,-0.0507797068190742,1.0901299635601773,-1.7808663401111675,3,right
11.305,-0.33846751120330476,1.0974144057070596,-0.07389395323178358,0.31921765327928414,3.3369734266780804,0.782384850195788,-0.059929588374796304,1.0907887134599699,-1.8166493007537117,3,right
11.307,-0.34702610382303833,1.0942483620326164,-0.07427919649839934,0.32826562116312547,3.343836128601631,0.7748361652817682,-0.06879849906708609,1.0903683629038572,-1.8505895578005676,3,right
11.309000000000001,-0.35523911050825124,1.0911063179447842,-0.07465681542048866,0.33357653171708945,3.348972104669318,0.7673810843770286,-0.07738496382527339,1.0888731075941815,-1.8826926743081736,3,right
11.31,-0.36309861288403267,1.0879913441984022,-0.07502726292169529,0.33516480270107335,3.3523995415722467,0.7600165308864193,-0.08568781265062074,1.0863087396035933,-1.9129658872574868,3,right
11.312999999999999,-0.3705974297924652,1.0849063067970492,-0.07539111312974314,0.33305074463103734,3.3541369370075604,0.7527386296580652,-0.09370617840849828,1.0826826180591023,-1.9414180808528487,3,right
11.314,-0.3777291264596087,1.081853866640556,-0.07574905612241527,0.32726054161524937,3.354203168666924,0.7455427781335981,-0.10143949439705242,1.0780036357457004,-1.9680597590431126,3,right
11.314,-0.38448802059898335,1.078836480388452,-0.07610189174381435,0.31782622155449025,3.352617570925748,0.7384237250846519,-0.10888749169079434,1.072282181970894,-1.9929030172425741,3,right
11.318,-0.3908691854810381,1.0758564025773076,-0.07645052260743543,0.304785615700202,3.3494000192381916,0.7313756569147001,-0.11605019621858251,1.0655301025514654,-2.015961513059834,3,right
11.32,-0.3968684500106266,1.072915688996477,-0.07679594635539325,0.2881823075540147,3.344571022238165,0.7243922915055554,-0.12292792551346891,1.057760658071333,-2.037250435746315,3,right
11.323,-0.40248239586295603,1.070016201284149,-0.07713924720213801,0.2680655710816308,3.3381518215418264,0.717466979588067,-0.1295212850922458,1.0489884812658186,-2.0567864741622026,3,right
11.324000000000002,-0.4077083517345946,1.0671596126561234,-0.07748158676038627,0.24449029824830765,3.330164498951641,0.7105928133693387,-0.13583116445984653,1.0392295338616397,-2.074587783216637,3,right
11.324000000000002,-0.41254438476650046,1.0643474146393592,-0.07782419412833023,0.21751691609599544,3.3206320893037296,0.7037627409119102,-0.14185873275412236,1.0285010629084541,-2.090673948825096,3,right
11.328,-0.4169892891934434,1.061580924664047,-0.0781683552187266,0.18721129397358174,3.3095786945790504,0.696969682533778,-0.14760543404993823,1.0168215565767889,-2.1050659514401437,3,right
11.329,-0.4210425722801077,1.0588612943513729,-0.07851540133653824,0.15364464174481057,3.2970295934407314,0.6902066442612097,-0.15307298234071628,1.0042106993943585,-2.1177861282067156,3,right
11.333,-0.42470443762685167,1.0561895182971412,-0.07886669706263674,0.11689339956565284,3.283011341809156,0.683466824603502,-0.15826335621474633,0.9906893268899909,-2.1288581337882038,3,right
11.334000000000001,-0.4279757659630834,1.053566443113567,-0.07922362757501535,0.07703911941187094,3.2675518626986646,0.6767437131456688,-0.16317879324277526,0.9762793796116509,-2.138306899904727,3,right
11.339,-0.43085809358501986,1.0509927764818878,-0.07958758562251739,0.03416833830512206,3.2506805249891375,0.6700311806922021,-0.1678217840925868,0.9610038564823797,-2.146158593620185,3,right
11.34,-0.4333535886344401,1.0484690959868606,-0.07995995843285264,-0.011627556867801035,3.2324282110922584,0.6633235609425294,-0.1721950663854868,0.9448867674553539,-2.152440574409951,3,right
11.343,-0.4354650254558932,1.045995857538137,-0.08034211486364468,-0.06025247305689553,3.212827373468097,0.656615723678841,-0.17630161830881996,0.9279530854267166,-2.1571813500364154,3,right
11.344000000000001,-0.43719575731092086,1.0435734032269037,-0.08073539308577828,-0.11160576339500033,3.1919120799436254,0.6499031394469919,-0.18014465199786261,0.9102286973623516,-2.1604105312549766,3,right
11.349,-0.43854968776791386,1.0412019685157574,-0.08114108903132965,-0.16558238831932626,3.1697180477807927,0.6431819357111977,-0.18372760669966046,0.8917403545923523,-2.1621587853686033,3,right
11.349,-0.43953124112192715,1.0388816887103678,-0.08156044576325934,-0.22207308560793448,3.146282666437931,0.6364489444632463,-0.187054141730616,0.8725156222245983,-2.1624577886446406,3,right
11.353,-0.4401453322247024,1.0366126047070752,-0.08199464385490075,-0.2809645494784615,3.1216450089644807,0.6297017412669301,-0.19012812923887212,0.8525828276265752,-2.161340177603208,3,right
11.354000000000001,-0.44039733611766635,1.0343946680475347,-0.08244479282243489,-0.34213961890391503,3.095845831965361,0.6229386757183892,-0.19295364678179397,0.8319710079223891,-2.1588394991822795,3,right
11.357000000000001,-0.4402930578596178,1.03222774533897,-0.0829119236365829,-0.40547747530758066,3.0689275640677405,0.6161588933030125,-0.1955349697281118,0.8107098564498065,-2.1549901597803705,3,right
11.357999999999999,-0.4398387029263101,1.0301116221161324,-0.08339698234071966,-0.47085384980596545,3.040934282819529,0.6093623486295144,-0.19787656349356625,0.7888296681201228,-2.149827373173702,3,right
11.362,-0.43904084853006414,1.0280460062286334,-0.08390082480637334,-0.5381412401752584,3.011911679945559,0.6025498100217543,-0.19998307561818102,0.766361283621709,-2.143387107300719,3,right
11.363,-0.43790641616333414,1.026030530836791,-0.08442421265014978,-0.6072091377229929,2.9819070148842224,0.5957228554488243,-0.20185932769258838,0.7433360324062256,-2.135706029902997,3,right
11.367,-0.4364426456115287,1.0240647570936332,-0.08496781031050991,-0.6779242642524455,2.9509690565242495,0.5888838597738804,-0.20351030714014415,0.7197856743947134,-2.1268214530077656,3,right
11.368,-0.43465707060944586,1.0221481765835811,-0.08553218323940086,-0.7501508193127887,2.9191480130583525,0.5820359733021507,-0.2049411588608944,0.6957423403390838,-2.116771276233645,3,right
11.372,-0.4325574962372753,1.0202802135824938,-0.08611779711351518,-0.8237507379331248,2.8864954498676507,0.5751830916085143,-0.20615717674279405,0.6712384707729301,-2.105593928897592,3,right
11.373,-0.430151978074609,1.0184602272010808,-0.08672501793000804,-0.8985839590432525,2.8530641953481006,0.5683298166250095,-0.20716379504493163,0.6463067534840773,-2.093328310897631,3,right
11.377,-0.42744880306300076,1.0166875134741462,-0.08735411283537109,-0.9745087047883583,2.8189082345876293,0.5614814089686089,-0.20796657965688187,0.6209800594398681,-2.080013732342566,3,right
11.378,-0.4244564719737191,1.0149613074592025,-0.08800525154560329,-1.0513817709487636,2.7840825908002875,0.5546437314895839,-0.20857121923769104,0.5952913770948633,-2.0656898518966624,3,right
11.383,-0.4211836833407085,1.013280785405058,-0.08867850824346893,-1.1290588286793979,2.7486431944214997,0.547823184020783,-0.20898351624174427,0.5692737450964,-2.050396613868075,3,right
11.384,-0.41763931870747845,1.0116450670403387,-0.08937386387561408,-1.2073947377868013,2.712646739766403,0.5410266293081628,-0.20920937785990285,0.5429601838372874,-2.0341741843865107,3,right
11.385,-0.4138324290491174,1.0100532180151003,-0.09009120880937599,-1.286243871764182,2.6761505291513545,0.5342613101029421,-0.20925480694283638,0.5163836270868327,-2.0170628875881738,3,right
11.387,-0.4097722222406971,1.0085042525128574,-0.09083034583733186,-1.3654604548073592,2.6392123043769224,0.5275347573958004,-0.20912589299464665,0.4895768553654154,-1.9991031430429607,3,right
11.388,-0.40546805143030584,1.0069971360403307,-0.09159099353307415,-1.4448989110363208,2.6018900654690698,0.5208546897736115,-0.20882880330262088,0.4625724322920038,-1.9803354053365,3,right
11.392000000000001,-0.40092940415583783,1.005530788395379,-0.09237278996590194,-1.5244142256284268,2.564241876968129,0.5142289041501029,-0.20836977422932754,0.43540264435030673,-1.9608001061416145,3,right
11.392999999999999,-0.39616589204757796,1.0041040868068583,-0.09317529677879072,-1.6038623149695432,2.526325664025434,0.5076651594759879,-0.20775510267104264,0.40809944408361437,-1.9405375987916378,3,right
11.392999999999999,-0.3911872409812675,1.002715869234684,-0.0939980036259492,-1.6831003982485655,2.4881990041151543,0.5011710574715317,-0.20699113768166658,0.38069439664082133,-1.9195881053017594,3,right
11.397,-0.38600328155922653,1.0013649378139378,-0.09484033295206769,-1.7619873603201992,2.449918922139506,0.494753925778715,-0.20608427226082687,0.35321862959565,-1.8979916657823654,3,right
11.398,-0.3806239397836213,1.0000500624206836,-0.09570164507221997,-1.8403840982614896,2.4115416947331805,0.4884207075762896,-0.20504093530441408,0.3257027859607068,-1.8757880901862507,3,right
11.402999999999999,-0.3750592277624199,0.9987699843293126,-0.09658124348248667,-1.9181538487284577,2.373122666023439,0.48217785926393997,-0.20386758371537003,0.2981769803177115,-1.8530169123296067,3,right
11.404000000000002,-0.36931923427604785,0.9975234199245724,-0.09747838030513442,-1.9951624958189969,2.3347160751303435,0.4760312564679414,-0.2025706946721373,0.2706707579850341,-1.8297173461248353,3,right
11.408,-0.36341411503339993,0.9963090644275452,-0.0983922617553667,-2.071278859666952,2.296374895296989,0.46998610835013305,-0.20115675805178662,0.24321305714355893,-1.805928243961481,3,right
11.409,-0.3573540824541285,0.9951255955937383,-0.09932205351165584,-2.1463749659904976,2.2581506845394905,0.46404688020228585,-0.1996322690044652,0.215832173841866,-1.7816880571699563,3,right
11.411,-0.3511493948286528,0.9939716773433841,-0.1002668858788531,-2.2203262968157675,2.2200934477065033,0.45821722430821793,-0.19800372067545444,0.18855572980177282,-1.7570347985012063,3,right
11.412,-0.3448103447296721,0.9928459632896175,-0.10122585865299985,-2.293012022594113,2.1822515098382462,0.4524999190563021,-0.19627759707078932,0.16141064294541932,-1.7320060065540595,3,right
11.415999999999999,-0.33834724657962895,0.9917471001392855,-0.10219804562675219,-2.3643152159284595,2.144671400715327,0.4468968162853102,-0.1944603660620739,0.13442310056529783,-1.706638712080706,3,right
11.418,-0.33177042331519313,0.9906737309522594,-0.10318249870683661,-2.434123047120944,2.107397750488143,0.4414087968468543,-0.19255847252582808,0.10761853505892745,-1.6809694060995675,3,right
11.421,-0.3250901921288978,0.9896244982561644,-0.10417825164054416,-2.502326961750378,2.0704731962782525,0.4360357343680039,-0.19057833161242188,0.08102160215024906,-1.655034009743734,3,right
11.422,-0.3183168493066442,0.9885980470229941,-0.10518432336210644,-2.5688228404841422,2.033938299643853,0.43077646719798457,-0.18852632213938944,0.0546561615202677,-1.6288678457721752,3,right
11.425999999999998,-0.3114606542149331,0.9875930275210717,-0.10619972097327025,-2.6335111413248096,1.9978314748023773,0.42562877852319286,-0.18640878010367423,0.02854525976999284,-1.6025056116700596,3,right
11.427,-0.3045318125213765,0.9866080980595807,-0.10722344237101113,-2.696297024487207,1.9621889275042264,0.4205893846350885,-0.18423199230712947,0.002711115639322293,-1.5759813542637524,3,right
11.431,-0.29754045875748464,0.9856419276442137,-0.10825447853454233,-2.757090460096724,1.927044604452761,0.4156539313358519,-0.18200219008939342,-0.022824892593821627,-1.5493284457754022,3,right
11.432,-0.29049663835657197,0.9846931985625411,-0.10929181548501576,-2.8158063188945004,1.89243015316691,0.41081699846701114,-0.1797255431620698,-0.04804223760906549,-1.5225795612414523,3,right
11.435,-0.2834102893223886,0.9837606089168294,-0.11033443593345708,-2.8723644461296605,1.858374892184075,0.40607211254655234,-0.17740815353797348,-0.07292125150803618,-1.4957666572189587,3,right
11.436,-0.27629122370450543,0.9828428751201868,-0.11138132063574888,-2.9266897188130603,1.824905791502436,0.401411767500323,-0.17505604954904863,-0.09744313232100432,-1.4689209517032107,3,right
11.440999999999999,-0.2691491090737008,0.9819387343692536,-0.11243144947862407,-2.978712086501046,1.7920474631632874,0.39682745347382065,-0.17267517994643264,-0.12158994862812013,-1.442072905179886,3,right
11.442,-0.26199345020338455,0.9810469471036424,-0.11348380232594811,-3.028366595771535,1.7598221618756307,0.39230969371071833,-0.1702714080760219,-0.14534464236667174,-1.4152522027347798,3,right
11.447000000000001,-0.254833571169015,0.9801662994593168,-0.11453735965640746,-3.0755933985483392,1.7282497955869238,0.38784808948472155,-0.1678505061227945,-0.1686910298947725,-1.3884877371440516,3,right
11.447000000000001,-0.24767859807428785,0.9792956057194884,-0.11559110302007304,-3.1203377444230354,1.69734794590565,0.38343137307156616,-0.16541814941706354,-0.1916138013808074,-1.361807592867927,3,right
11.45,-0.24053744259790197,0.9784337107620854,-0.11664401533387166,-3.162549957116887,1.6671318982831673,0.37904746874815703,-0.1629799108008711,-0.21409851859055315,-1.3352390308939952,3,right
11.450999999999999,-0.23341878652324413,0.9775794924986803,-0.11769508102863584,-3.2021853952183847,1.6376146818641808,0.37468356180600626,-0.16054125507820272,-0.23613161116125148,-1.3088084744920268,3,right
11.450999999999999,-0.22633106736951067,0.9767318642967302,-0.11874328605648456,-3.2392043973248246,1.6088071189170976,0.37032617556625647,-0.15810753361860014,-0.25770037148407066,-1.282541496150608,3,right
11.456,-0.21928246520834646,0.9758897773737387,-0.11978761776838913,-3.2735722117090997,1.5807178837574904,0.36596125638366783,-0.15568397920925184,-0.27879294833367096,-1.256462806081836,3,right
11.457,-0.21228089073924342,0.9750522231477198,-0.12082706467733455,-3.3052589106254833,1.5533535710798971,0.36157426662700365,-0.15327570122512083,-0.29939833936375587,-1.2305962425650814,3,right
11.460999999999999,-0.205333974694057,0.9742182355253282,-0.12186061612997465,-3.3342392896077597,1.5267187734507301,0.3571502854133962,-0.15088768114075146,-0.3195063825527909,-1.204964764193171,3,right
11.462,-0.19844905862590337,0.9733868931097276,-0.12288726191534619,-3.3604927533409517,1.5008161668947035,0.3526741158248943,-0.14852476838190745,-0.33910774666416715,-1.179590443969247,3,right
11.462,-0.19163318711286853,0.9725573213139592,-0.12390599184093037,-3.384003191904044,1.475646602028876,0.34813039544649094,-0.14619167651013346,-0.35819392077998147,-1.1544944651800453,3,right
