time,gFx,gFy,gFz,ax,ay,az,wx,wy,wz,subject_number,foot
10.062999999999999,0.3498060395341034,1.0796321879707198,-0.13842862478942222,3.0833864551487444,4.458548056352492,1.0880122573067215,-0.05187791943716581,-0.6498537882531392,1.6967252163225164,2,left
10.065,0.34868705658225774,1.074588230446119,-0.14047812537688964,3.071716577522736,4.462971181008934,1.0487413505812637,-0.0543493081952629,-0.6266968193664983,1.713369771517785,2,left
10.068,0.34731498899323215,1.0696211436911574,-0.14247140982908296,3.0608402427090375,4.465476717935549,1.009130185115988,-0.05668866716890693,-0.6032812361010169,1.7285904438737816,2,left
10.068999999999999,0.34569295772710706,1.0647326197590223,-0.1444078653472721,3.0507414588614457,4.466069305839207,0.9692004376884551,-0.05890265290108886,-0.5796299676247172,1.7424103852647486,2,left
10.074,0.3438246729872305,1.0599241416892193,-0.14628694840268056,3.041402380224455,4.464753952583655,0.9289739710482424,-0.060997789004729595,-0.5557660651477329,1.7548536880904997,2,left
10.075,0.3417144146691678,1.0551969896943034,-0.14810817731096784,3.0328032825598417,4.46153612018284,0.888472833137934,-0.06298046160893243,-0.5317126657778449,1.7659453423729665,2,left
10.079,0.33936701035693395,1.0505522472424937,-0.14987112469653577,3.0249225374003426,4.456421817725959,0.8477192565803514,-0.06485691579205839,-0.5074929555118145,1.7757111929793696,2,left
10.08,0.33678781137595637,1.0459908072364592,-0.15157541008233683,3.0177365851035556,4.4494177022304635,0.8067356583165101,-0.06663325299234144,-0.4831301313428218,1.7841778970065092,2,left
10.08,0.3339826673090506,1.0415133784547612,-0.1532206928128039,3.01121990668132,4.44053118741381,0.765544639278002,-0.06831542930986137,-0.45864736270784645,1.791372881350255,2,left
10.085,0.3309578992651744,1.0371204923710466,-0.15480666546634503,3.0053449943818715,4.429770560369239,0.7241689839767784,-0.06990925447554908,-0.43406775293767275,1.7973243004687562,2,left
10.086,0.3277202721104875,1.0328125104191073,-0.15633304786444183,3.0000823210040886,4.417145106125526,0.6826316598946444,-0.07142039118603465,-0.40941430161586245,1.8020609943376282,2,left
10.087,0.3242769658520869,1.0285896317393544,-0.15779958175325381,2.9954003081257086,4.402665239764915,0.6409558165565465,-0.07285435457945445,-0.3847098685086229,1.8056124465982524,2,left
10.088,0.32063554636446523,1.0244519014153495,-0.15920602620937005,2.991265294432599,4.386342644266995,0.5991647841830091,-0.07421651176491656,-0.3599771392878928,1.8080087429085145,2,left
10.089,0.31680393562824755,1.0203992191792377,-0.16055215379389176,2.9876415071439317,4.368190409538746,0.5572820718378552,-0.07551208139466203,-0.3352385930256877,1.8092805295083412,2,left
10.092,0.3127903816396102,1.0164313485288032,-0.16183774745457452,2.984491040533127,4.348223166584577,0.5153313649987629,-0.07674613328305319,-0.3105164713887828,1.8094589720103063,2,left
10.093,0.30860342818229186,1.0125479261540127,-0.16306259815853275,2.9817738445426545,4.326457212265997,0.47333652246606656,-0.0779235880763131,-0.28583274946273257,1.8085757144222525,2,left
10.097999999999999,0.30425188470985476,1.0087484715244952,-0.16422650322669188,2.979447724686216,4.302910622797412,0.43132157250370284,-0.07904921697674909,-0.2612091081342067,1.8066628384056542,2,left
10.099,0.2997447966244538,1.005032396454901,-0.165329265335581,2.977468353429842,4.277603355620488,0.38931070809420115,-0.08012764152501604,-0.23666690796067025,1.8037528227702961,2,left
10.102,0.29509141624965024,1.0013990144494813,-0.16637069214969424,2.9757892930440044,4.2505573395946055,0.34732828118712944,-0.08116333344381214,-0.21222716445654483,1.799878503202805,2,left
10.103,0.29030117478405504,0.9978475496320159,-0.16735059654263934,2.974362029919969,4.221796553435785,0.3053987958203508,-0.08216061454625073,-0.18791052472515993,1.7950730322236068,2,left
10.107000000000001,0.28538365549167766,0.9943771450929731,-0.1682687973545061,2.9731360203446,4.191347092331448,0.2635468999934561,-0.08312365671201594,-0.1637372453660358,1.7893698393640196,2,left
10.107999999999999,0.28034856833471394,0.9909868705300601,-0.16912512061973295,2.9720587477286933,4.159237222653356,0.2217973761728221,-0.08405648193428669,-0.13972717158733386,1.7828025915524246,2,left
10.113,0.2752057261903933,0.9876757291147352,-0.16991940119140558,2.9710757912846177,4.125497424686172,0.18017513030789542,-0.08496296244030302,-0.1158997174536634,1.7754051536957816,2,left
10.113,0.2699650227248511,0.9844426635782436,-0.17065148468879782,2.970130906149644,4.090160423284219,0.13870517923852638,-0.08584682088834972,-0.09227384719984312,1.7672115494401799,2,left
10.116,0.2646364119324878,0.9812865615688234,-0.17132122970308722,2.9691661149517423,4.053261206364276,0.09741263637347151,-0.08671163064384575,-0.06886805754168564,1.758255922091633,2,left
10.118,0.25922988929290003,0.9782062603804933,-0.17192851020654817,2.968121810814899,4.01483703113754,0.056322695520548485,-0.08756081613715132,-0.045700360915395186,1.7485724956759299,2,left
10.123,0.2537554744495948,0.9752005511896066,-0.17247321812105612,2.9669368718011206,3.9749274179793272,0.015460612749365905,-0.08839765330563921,-0.02278826957774799,1.7381955361140902,2,left
10.123,0.24822319527534534,0.9722681829562598,-0.17295526601405847,2.965548786786226,3.9335741318305844,-0.025148313831940616,-0.08922527012252257,-0.00014878049985523175,1.7271593124877636,2,left
10.128,0.24264307315933148,0.9694078661524705,-0.17337458990512444,2.9638937927662887,3.890821151020916,-0.0654787665039519,-0.09004664721488541,0.022201639012008164,1.7154980583668298,2,left
10.129,0.2370251093320988,0.9666182764689548,-0.1737311521809036,2.961907023591192,3.8467146233985696,-0.10550543268451967,-0.09086461857332664,0.04424706503429264,1.7032459331694663,2,left
10.132,0.23137927203564415,0.963898058630895,-0.17402494462593315,2.959522670121176,3.801302809648673,-0.1452030321152361,-0.09168187235560149,0.06597213014778285,1.6904369835230486,2,left
10.133,0.2257154843466681,0.9612458304241573,-0.17425599157710114,2.9566741518014803,3.754636013677008,-0.18454634660162259,-0.09250095178662611,0.08736203602709856,1.6771051045924583,2,left
10.136000000000001,0.220043612469074,0.9586601870000575,-0.17442435319975583,2.9532942996492326,3.706766499932716,-0.22351025242196912,-0.09332425615720101,0.10840256556138539,1.6632840013406767,2,left
10.137,0.21437345432403282,0.9561397054910918,-0.17453012886753758,2.949315550645591,3.6577483975395886,-0.2620697555188108,-0.09415404192380643,0.12908009456857358,1.6490071496849397,2,left
10.141,0.20871472828089307,0.9536829499345737,-0.1745734606125606,2.944670153524808,3.607637591101998,-0.30020002958601005,-0.09499242391182783,0.14938160316462187,1.6343077575102285,2,left
10.142000000000001,0.20307706188978172,0.951288476469537,-0.17455453660171644,2.939290385950373,3.5564915980480585,-0.3378764571633238,-0.09584137662458171,0.1692946868481608,1.6192187255004606,2,left
10.145,0.19746998049519077,0.9489548387474475,-0.1744735945893552,2.933108783066647,3.504369432369335,-0.3750746738491731,-0.09670273566052989,0.18880756735990858,1.6037726077464423,2,left
10.146,0.19190289562679935,0.9466805934816762,-0.17433092529596744,2.9260583774124975,3.451331454613261,-0.4117706157411001,-0.09757819924061899,0.2079091033521315,1.5880015721323686,2,left
10.147,0.18638509308022883,0.9444643060585431,-0.17412687566622992,2.918072950181344,3.39743920798146,-0.4479405702120953,-0.09846932984533342,0.22658880078719426,1.5719373607212581,2,left
10.151,0.18092572061802242,0.9423045561423705,-0.1738618519646543,2.9090872938097037,3.342755240384375,-0.4835612301296028,-0.09937755595680288,0.2448368227758982,1.555611250754174,2,left
10.152000000000001,0.17553377523560107,0.9401999432153588,-0.17353632266589086,2.8990374858738415,3.2873429122999718,-0.5186097516225698,-0.10030417389896686,0.2626439984500129,1.5390540170968765,2,left
10.156,0.17021808994396012,0.938149091992675,-0.17315082108833477,2.8878611738340605,3.2312661907071085,-0.5530638153617984,-0.10125034977122215,0.28000183057730776,1.5222958967469773,2,left
10.156,0.16498732002563185,0.9361506576545283,-0.17270594771555012,2.8754978679763963,3.1745894314882355,-0.5869016906242736,-0.10221712147531052,0.2969025018333518,1.5053665556184281,2,left
10.157,0.15984992872967532,0.9342033308496265,-0.17220237215819556,2.861889235961957,3.1173771565214814,-0.6201023001631015,-0.10320540083763523,0.31333887975819646,1.4882950575997878,2,left
10.161,0.1548141723836962,0.932305842441523,-0.17164083472059455,2.8469793902040283,3.059693833806606,-0.6526452832099773,-0.10421597582972672,0.329304520447789,1.471109835838189,2,left
10.162,0.14988808491295974,0.9304569679833724,-0.17102214753929387,2.8307151614765487,3.0016036668412265,-0.6845110546283398,-0.10524951288963663,0.34479367102865255,1.4538386662004357,2,left
10.166,0.1450794617704842,0.9286555319206616,-0.17034719525800182,2.8130463560904646,2.943170395634736,-0.715680859480943,-0.10630655934710115,0.3598012709630353,1.4365086428622458,2,left
10.166,0.1403958433007197,0.9269004115391702,-0.16961693520314536,2.7939259961576206,2.884457109619619,-0.746136822966688,-0.10738754595537796,0.3743229522303829,1.4191461559763385,2,left
10.171,0.13584449758269546,0.9251905406935533,-0.1688323970314958,2.7733105428953535,2.8255260722934126,-0.7758619958182192,-0.10849278953272716,0.3883550384296183,1.4017768713698016,2,left
10.172,0.13143240282383034,0.9235249133655933,-0.16799468183594166,2.751160102920946,2.7664385574236015,-0.8048403952497857,-0.10962249571657375,0.4018945428453328,1.3844257122210146,2,left
10.175,0.127166229400872,0.9219025871077569,-0.16710496071520847,2.727438617480904,2.7072546966468973,-0.8330570415428254,-0.11077676183345765,0.4149391655195969,1.367116842666304,2,left
10.176,0.12305232166817728,0.9203226864265033,-0.16616447283411379,2.7021140345557555,2.648033338293754,-0.86049799035463,-0.11195557988794687,0.427487289369696,1.349873653286489,2,left
10.18,0.11909667967446351,0.918784406151522,-0.16517452301919183,2.675158463776659,2.5888319172685033,-0.8871503608333045,-0.11315883967375938,0.43953797539067996,1.3327187484235214,2,left
10.181000000000001,0.11530494094622272,0.917287014823829,-0.164136478948373,2.6465483140856074,2.529706335815207,-0.9130023596200512,-0.11438633201040947,0.4510909569801983,1.3156739352775504,2,left
10.185,0.11168236250896389,0.9158298581195446,-0.16305176800302087,2.616264414066419,2.470710854999237,-0.9380433008175805,-0.11563775210876485,0.46214663342166484,1.29876021473492,2,left
10.187000000000001,0.10823380332720352,0.9144123623087808,-0.16192187385783066,2.5842921148690237,2.4118979967346257,-0.9622636220011885,-0.11691270306897067,0.47270606256037123,1.2819977738778714,2,left
10.191,0.10496370735114734,0.9130340377323384,-0.16074833288945325,2.5506213756448184,2.3533184561874534,-0.9856548963467441,-0.1182106995142661,0.4827709527057376,1.265405980127025,2,left
10.192,0.1018760873616248,0.9116944822647024,-0.15953273048592687,2.5152468314060616,2.295021024385907,-1.0082098409475002,-0.11953117136428762,0.4923436537914628,1.2490033769681002,2,left
10.196,0.09897450980497315,0.9103933847202038,-0.1582766973342806,2.4781678432174346,2.2370525208681635,-1.0299223213892916,-0.12087346775152044,0.5014271478239132,1.232807681214758,2,left
10.197000000000001,0.09626208080686131,0.9091305281500794,-0.15698190575388069,2.4393885306230336,2.1794577361999283,-1.0507873526512987,-0.12223686108462593,0.5100250386476679,1.2168357817599447,2,left
10.2,0.09374143354777585,0.9079057929728851,-0.15565006612930135,2.3989177862071713,2.122279384194242,-1.0708010963971586,-0.12362055126243651,0.5181415410557271,1.2011037397686544,2,left
10.2,0.09141471717152502,0.9067191598807098,-0.15428292347937006,2.3567692721824747,2.065558063667139,-1.0899608547187878,-0.12502367004247308,0.5257814692704854,1.1856267902656186,2,left
10.205,0.0892835873817375,0.9055707124688498,-0.15288225418114113,2.3129613988938975,2.009332229563785,-1.108265060392847,-0.12644528556789966,0.5329502248201798,1.1704193450720772,2,left
10.205,0.08734919886123417,0.9044606395462575,-0.15144986285288026,2.2675172851224166,1.9536381732909287,-1.125713263707337,-0.12788440705688803,0.5396537838341368,1.1554949970464694,2,left
10.21,0.08561219962594027,0.9033892370968142,-0.1499875793900757,2.220464700067366,1.898510012092802,-1.1423061159133627,-0.1293399896584218,0.5458986837787804,1.140866525584612,2,left
10.211,0.08407272739872806,0.9023569098750527,-0.14849725614050524,2.1718359868816166,1.8439796873090237,-1.1580453493546474,-0.13081093947862119,0.5516920096550068,1.1265459033357097,2,left
10.215,0.08273040806014349,0.9013641726322213,-0.14698076519643669,2.1216679676291075,1.7900769713545928,-1.1729337543249234,-0.13229611877725886,0.55704137967524,1.11254430409141,2,left
10.216000000000001,0.08158435620527997,0.9004116509774648,-0.14543999577668965,2.070001829529628,1.7368294832636633,-1.186975152700869,-0.1337943513118761,0.5619549304323896,1.0988721118062528,2,left
10.217,0.08063317781223751,0.8995000818837293,-0.1438768516717611,2.016882992351237,1.6842627126405192,-1.2001743683958115,-0.1353044277667961,0.5664413015630264,1.085538930709275,2,left
10.219,0.07987497500658051,0.8986303138515023,-0.1422932487293266,1.9623609568062876,1.632400051862959,-1.2125371946769774,-0.1368251111820647,0.5705096199010403,1.07255359646774,2,left
10.22,0.07930735288406178,0.8978033067484299,-0.14069111236149726,1.9064891338027303,1.5812628363851784,-1.224070358386636,-0.13835514231969373,0.5741694831215723,1.0599241883646067,2,left
10.225,0.07892742833023218,0.8970201313476048,-0.13907237505997838,1.8493246543982038,1.530870392989194,-1.2347814811050637,-0.13989324494477257,0.5774309428823928,1.0476580424518083,2,left
10.226,0.0787318407535351,0.8962819685883416,-0.13743897391169857,1.7909281603004035,1.4812400958358627,-1.2446790372908654,-0.14143813102135172,0.5803044874734776,1.0357617656421103,2,left
10.226,0.07871676463189806,0.895590108579266,-0.13579284811281978,1.7313635751655874,1.4323874300632833,-1.2537723095056992,-0.1429885058274911,0.5828010239853167,1.0242412507032859,2,left
10.23,0.07887792376791848,0.8949459493560601,-0.13413593648059874,1.6706978590045831,1.3843260621557385,-1.2620713411976328,-0.14454307299388874,0.5849318600053486,1.0131016921193827,2,left
10.231,0.0792106071551771,0.8943509953981669,-0.1324701749602022,1.6090007517122997,1.337067915360335,-1.269586888180163,-0.1461005394705254,0.5867086848507975,1.00234760278492,2,left
10.235,0.07970968636192147,0.8938068559013054,-0.13079749411839872,1.5463445137946088,1.2906232479039756,-1.2763303703111564,-0.14765962042577566,0.5881435503451109,0.9919828314989322,2,left
10.236,0.0803696343240459,0.8933152427952239,-0.1291198166106495,1.4828036703021037,1.2450007322923218,-1.2823138245041563,-0.1492190440824493,0.589248851144142,0.9820105812268666,2,left
10.238999999999999,0.08118454541612193,0.8928779684902763,-0.12743905460722496,1.4184547602670934,1.2002075349228953,-1.287549859537108,-0.15077755649523358,0.5900373046172105,0.9724334280994519,2,left
10.24,0.08214815665254585,0.8924969433351354,-0.12575710717022015,1.353376091876245,1.1562493957735591,-1.292051612751802,-0.1523339262740131,0.5905219302871869,0.9632533411187669,2,left
10.244000000000002,0.08325386986248419,0.8921741727708962,-0.12407585758273984,1.2876475031964991,1.113130708035329,-1.2958327086612538,-0.15388694925754393,0.5907160288328059,0.9544717025428687,2,left
10.245,0.08449477467790799,0.891911754170966,-0.12239717063874275,1.2213501282695758,1.0708545975608559,-1.2989072194800877,-0.15543545314195698,0.5906331606554993,0.9460893289214717,2,left
10.249,0.08586367217191528,0.8917118733604426,-0.12072288990787884,1.154566168388283,1.0294230020023019,-1.301289627590891,-0.15697830206855862,0.5902871240121718,0.9381064927563085,2,left
10.25,0.0873530989855453,0.8915768008140303,-0.11905483499626346,1.087378668365985,0.9888367495147522,-1.302994789957426,-0.1585144011753877,0.5896919327145043,0.9305229447609469,2,left
10.253,0.08895535178694151,0.8915088875369886,-0.11739479882853342,1.01987129760895,0.9490956369037182,-1.3040379044935642,-0.160042701116975,0.5888617933945779,0.9233379366959839,2,left
10.255,0.0906625119168003,0.8915105606370818,-0.11574454497556001,0.9521281357999074,0.9101985070977103,-1.3044344783948219,-0.16156220255673476,0.5878110823358542,0.9165502447566831,2,left
10.259,0.09246647008590216,0.8915843185976393,-0.11410580504735934,0.8842334629999807,0.8721433258292884,-1.3042002984374248,-0.16307196063639895,0.586554321867832,0.9101581934912689,2,left
10.26,0.09435895100177483,0.8917327262650324,-0.1124802761652873,0.8162715539752453,0.8349272574104217,-1.3033514032479334,-0.1645710894268826,0.5851061563220286,0.9041596802292328,2,left
10.263,0.09633153781228025,0.8919584095682679,-0.11086961852335211,0.7483264765534867,0.7985467394904109,-1.301904057544602,-0.166058766364943,0.5834813275462956,0.8985522000001512,2,left
10.264000000000001,0.09837569626559532,0.8922640499924385,-0.1092754530461364,0.680481893816297,0.7629975566870462,-1.2998747283498329,-0.16753423667996836,0.5816946499738923,0.8933328709246461,2,left
10.267999999999999,0.10048279849906758,0.8926523788313284,-0.10769935915088047,0.6128208699314529,0.72827491298408,-1.2972800631713228,-0.1689968178152007,0.5797609852431889,0.8884984600602501,2,left
10.269,0.10264414638233292,0.8931261712484903,-0.1061428726233774,0.5454256794305687,0.6943735027904949,-1.294136870147778,-0.17044590384766461,0.577695216363362,0.8840454096860642,2,left
10.273,0.10485099435110942,0.8936882401795971,-0.10460748362008863,0.47837761973730264,0.6612875805594335,-1.2904621001534056,-0.17188096991103952,0.5755122214209827,0.879969864011204,2,left
10.274000000000001,0.10709457167688066,0.8943414301094896,-0.10309463481133314,0.41175682675192227,0.6290110288670275,-1.2862728308537636,-0.17330157662567572,0.5732268468219739,0.8762676962931412,2,left
10.279000000000002,0.10936610412496997,0.8950886107546145,-0.10160571968176597,0.3456420932987955,0.597537424853728,-1.2815862527039747,-0.1747073745399156,0.5708538800630353,0.8729345363531379,2,left
10.279000000000002,0.11165683496039318,0.8959326706770134,-0.10014208100315598,0.28011069024436813,0.5668601049330726,-1.2764196568787844,-0.17609810858684205,0.5684080220262957,0.8699657984770585,2,left
10.283,0.11395804526888277,0.8968765108506717,-0.09870500948990107,0.21523819009441467,0.5369722276751565,-1.2707904251224684,-0.177473622560534,0.5659038587906607,0.8673567096909125,2,left
10.283,0.11626107357019862,0.8979230381953388,-0.09729574264055654,0.15109829288079787,0.5078668347743769,-1.2647160215051616,-0.1788338636092598,0.5633558329800376,0.8651023383785099,2,left
10.284,0.11855733471099042,0.8990751590880531,-0.09591546376110731,0.08776265414964629,0.4795369100133075,-1.258213986070802,-0.18017888670995963,0.5607782148032476,0.8631976230944735,2,left
10.288,0.12083833803308491,0.900335772859571,-0.09456530116099701,0.025300714864746224,0.4519754361368303,-1.2513019303605581,-0.1815088590288596,0.558185073182983,0.8616374012195677,2,left
10.289000000000001,0.12309570481903753,0.9017077652816122,-0.09324632751131481,-0.03622046695795363,0.425175449552895,-1.2439975347943288,-0.18282406403997817,0.555590247505873,0.8604164369911432,2,left
10.292,0.12532118502047218,0.9031940020510654,-0.09195955935216392,-0.09673638289446346,0.39913009280049455,-1.2363185478559724,-0.184124905306281,0.5530073203908021,0.8595294485576762,2,left
10.293,0.12750667327704499,0.9047973222788636,-0.09070595673181109,-0.1561852381824387,0.37383266483757477,-1.2282827868482604,-0.1854119098876616,0.5504495916298668,0.8589711339146948,2,left
10.295,0.12964422423560112,0.9065205319928279,-0.08948642295630681,-0.2145081108121449,0.34927666940165797,-1.2199081396611386,-0.18668573137291894,0.5479300533215151,0.8587361956955399,2,left
10.298,0.13172606718133162,0.908366397664146,-0.08830180442451555,-0.27164910237123824,0.3254558618080494,-1.2112125668173068,-0.18794715253947097,0.545461366188476,0.8588193648144004,2,left
10.299000000000001,0.13374461999585,0.9103376397666969,-0.08715289051844223,-0.3275554782331337,0.30236429444272317,-1.202214103236601,-0.18919708764450202,0.5430558370731595,0.8592154229600049,2,left
10.302999999999999,0.13569250246018488,0.912436926378187,-0.08604041351622677,-0.3821777962240343,0.2799963610112418,-1.1929308594809662,-0.19043658435120583,0.5407253976033184,0.8599192239392883,2,left
10.302999999999999,0.13756254892302566,0.9146668668323268,-0.08496504849969964,-0.4354700237605991,0.2583468394972529,-1.183381022419385,-0.19166682529374898,0.5384815840209021,0.8609257138712567,2,left
10.308,0.139347820355692,0.9170300054322337,-0.08392741323762835,-0.48738964361874887,0.23741093376421354,-1.1735828552869458,-0.19288912928454832,0.5363355181672222,0.8622299502321793,2,left
10.308,0.14104161581502778,0.9195288152370057,-0.08292806803365482,-0.5378977484904239,0.21718431373607486,-1.163554697111426,-0.19410495216742593,0.5342978896177586,0.863827119754119,2,left
10.312000000000001,0.1426374833351929,0.9221656919348279,-0.08196751553233456,-0.5869591244812987,0.19766315409472288,-1.1533149614799925,-0.19531588732017782,0.5323789389601818,0.8657125551796799,2,left
10.312000000000001,0.144129230270995,0.9249429478155959,-0.081046200480675,-0.6345423236985195,0.17884417143402323,-1.1428821346179117,-0.19652366581007158,0.5305884422094536,0.8678817508767097,2,left
10.317,0.14551093311917215,0.9278628058534345,-0.0801645094492471,-0.6806197260734862,0.16072465981235554,-1.1322747727505016,-0.19773015620576853,0.5289356963541698,0.8703303773175355,2,left
10.318,0.14677694684827683,0.9309273939043159,-0.07932277052631605,-0.7251675905605502,0.14330252464755167,-1.1215114987189498,-0.19893736404915355,0.5274295060286587,0.87305429442814,2,left
10.324000000000002,0.14792191376947403,0.9341387390164858,-0.07852125300768775,-0.7681660958482637,0.12657631490016982,-1.110610997820065,-0.20014743099054547,0.5260781713057071,0.8760495638134976,2,left
10.324000000000002,0.14894077197744182,0.93749876184358,-0.07776016711001514,-0.8095993707154964,0.11054525349304747,-1.099592012839531,-0.20136263359075882,0.5248894766051875,0.8793124598661001,2,left
10.327,0.14982876338346096,0.9410092711440261,-0.07703966373447992,-0.8494555141603519,0.09520926591708119,-1.0884733382477856,-0.20258538179348937,0.5238706807142763,0.8828394797654834,2,left
10.328,0.15058144135384732,0.9446719583456021,-0.07635983430374699,-0.8877266054253721,0.08056900697518135,-1.0772738135272462,-0.20381821707150424,0.5230285079153993,0.8866273523773569,2,left
10.332,0.15119467795732597,0.9484883921507233,-0.07572071069108871,-0.9244087040380309,0.06662588561834887,-1.0660123155992707,-0.2050638102501333,0.5223691402185029,0.8906730460616978,2,left
10.333,0.15166467081518,0.9524600131570345,-0.075122265257501,-0.9595018399809973,0.05338208782981902,-1.0547077503189548,-0.20632495901157946,0.5218982106947413,0.8949737753999368,2,left
10.337,0.15198794953819822,0.9565881284694473,-0.07456441101046993,-0.9930099941020994,0.040840597515218034,-1.0433790430056278,-0.20760458508359583,0.5216207979091717,0.8995270068521108,2,left
10.338,0.15216138172491986,0.9608739062827844,-0.07404700189613538,-1.0249410688693705,0.029005215358682012,-1.0320451279767426,-0.20890573111611319,0.5215414214505767,0.9043304633555972,2,left
10.341,0.15218217848745857,0.9653183704181222,-0.07356983323411162,-1.0553068495719964,0.01788057560689907,-1.0207249370527212,-0.2102315572494474,0.5216640385570708,0.9093821278777815,2,left
10.342,0.15204789946556826,0.9699223948005353,-0.07313264230262209,-1.0841229560634438,0.007472160745054244,-1.0094373870002538,-0.21158533737776974,0.5219920418367056,0.9146802459357316,2,left
10.347999999999999,0.15175645728715162,0.9746866978704682,-0.07273510908370545,-1.1114087851385213,-0.002213685969312617,-0.9982013658815341,-0.2129704551115844,0.5225282580828521,0.9202233270966736,2,left
10.347999999999999,0.15130612143439212,0.9796118369257674,-0.07237685718371617,-1.1371874436316418,-0.011169750146482325,-0.9870357182769497,-0.21439039944302876,0.5232749481847216,0.9260101454737787,2,left
10.352,0.15069552147969445,0.9846982023973964,-0.07205745494826402,-1.1614856723191078,-0.01938793810865207,-0.9759592293488423,-0.21584876011789314,0.5242338081339718,0.9320397392324766,2,left
10.353,0.14992364966355323,0.9899460120676618,-0.0717764167879238,-1.1843337607038558,-0.02685927096576074,-0.9649906077141016,-0.2173492227183466,0.5254059711289447,0.9383114091232181,2,left
10.353,0.14898986279415596,0.995355305243558,-0.07153320472125767,-1.2057654527567698,-0.03357388094875475,-0.9541484670935566,-0.2188955634620578,0.5267920107671528,0.9448247160571183,2,left
10.357000000000001,0.14789388345444068,1.0009259368997199,-0.07132723013018259,-1.2258178436844351,-0.03952101002388374,-0.9434513067063839,-0.22049164373152316,0.5283919452595831,0.9515794777406714,2,left
10.357999999999999,0.14663580050728856,1.0066575718061375,-0.07115785571480465,-1.2445312677890386,-0.044689010809468,-0.9329174903780653,-0.22214140436195814,0.5302052424972181,0.9585757643847236,2,left
10.360999999999999,0.14521606889328664,1.0125496786554784,-0.07102439763049276,-1.2619491774820635,-0.04906534981440373,-0.9225652243307856,-0.22384885972424998,0.532230825743127,0.9658138935026442,2,left
10.362,0.14363550871703248,1.0186015242042519,-0.07092612778719001,-1.278118013509472,-0.05263661301546554,-0.9124125336255828,-0.2256180916316032,0.5344670797817537,0.973294423814273,2,left
10.363,0.1418953036181252,1.0248121674418937,-0.07086227629138891,-1.2930870665842342,-0.05538851378421269,-0.9024772372658445,-0.2274532430842398,0.536911857461421,0.9810181482746109,2,left
10.365,0.13999699842333208,1.0311804538024618,-0.07083203401617885,-1.3069083313283831,-0.05730590315196509,-0.8927769221713655,-0.22935851185867112,0.5395624866243323,0.9889860862478604,2,left
10.366,0.13794249607751097,1.0377050094347267,-0.07083455529081834,-1.319636354701263,-0.05837278236288485,-0.8833289165911197,-0.23133814394663227,0.5424157774304936,0.9971994748483065,2,left
10.372,0.13573405385405168,1.044384235547161,-0.07086896070338508,-1.3313280817972295,-0.058572317642779155,-0.8741502637226176,-0.23339642684896045,0.5454680300825718,1.0056597594702286,2,left
10.373,0.13337427885282213,1.0512163028442925,-0.07093434000584468,-1.3420427011827305,-0.05788685712890549,-0.8652576961073042,-0.2355376827298994,0.5487150429592965,1.0143685835297371,2,left
10.376,0.13086612280417087,1.0581991460707187,-0.07102975510201733,-1.3518414906615053,-0.056297949939730696,-0.8566676110138012,-0.2377662614375262,0.5521521211655951,1.023327777442131,2,left
10.377,0.12821287620832392,1.0653304586793129,-0.071154243089929,-1.3607876636436167,-0.053786367381166184,-0.8483960468224853,-0.2400865333962227,0.5557740855082198,1.0325393468590836,2,left
10.380999999999998,0.12541816184760698,1.0726076876396018,-0.07130681932402676,-1.368946216149232,-0.05033212628727041,-0.8404586603858885,-0.24250288237735243,0.5595752819061844,1.0420054601906814,2,left
10.383,0.12248592771248512,1.080028028399759,-0.07148648045937649,-1.3763837744754386,-0.04591451449081271,-0.8328707053402784,-0.24501969815455363,0.563549591245873,1.051728435438055,2,left
10.386,0.11942043938128648,1.0875884200127843,-0.07169220743796695,-1.3831684435519311,-0.0405121184164404,-0.8256470113446925,-0.24764136905032472,0.567690439691215,1.06171072636307,2,left
10.387,0.1162262718893948,1.0952855404368205,-0.07192296837661094,-1.3893696560091566,-0.03410285278648122,-0.8188019642246537,-0.250372274380852,0.5719908094598313,1.0719549080222772,2,left
10.39,0.11290830111925225,1.103115802020643,-0.07217772131787026,-1.3950580219804245,-0.026663992426644655,-0.8123494869988032,-0.25321677680632,0.5764432500765548,1.0824636616930574,2,left
10.390999999999998,0.10947169474036371,1.1110753471863208,-0.07245541681125611,-1.4003051796576227,-0.01817220615605466,-0.8063030217677308,-0.25617921459424425,0.581039890116207,1.0932397592206442,2,left
10.395999999999999,0.10592190272988825,1.1191600443221665,-0.07275500030160725,-1.40518364661851,-0.008603592743152956,-0.8006755124453662,-0.25926389380368264,0.5857724494479674,1.1042860468154594,2,left
10.398,0.10226464750781028,1.1273654839020604,-0.07307541431307639,-1.4097666719420767,0.002066281093947373,-0.7954793883144251,-0.2624750803985045,0.5906322519941094,1.1156054283309544,2,left
10.4,0.0985059137236285,1.1356869748525167,-0.07341560042742885,-1.4141280891272048,0.01386234066710404,-0.7907265483885692,-0.26581699229823796,0.595610239016291,1.1272008480529232,2,left
10.4,0.09465193773369382,1.1441195411955072,-0.07377450106130916,-1.4183421698287977,0.026809961305324165,-0.7864283465651374,-0.2692937913753662,0.6006969829429742,1.1390752730320215,2,left
10.405999999999999,0.0907091968108564,1.152657919001232,-0.07415106104779244,-1.4224834784247078,0.04093492438018474,-0.7825955775535511,-0.2729095754083058,0.605882701751918,1.1512316749920206,2,left
10.407,0.08668439813098726,1.1612965536885558,-0.07454422902553003,-1.4266267274261473,0.05626337140343653,-0.7792384635657615,-0.276668369999678,0.6111572739220229,1.1636730118471121,2,left
10.41,0.08258446758457558,1.170029597710371,-0.07495295863837151,-1.4308466337438555,0.07282175623404193,-0.7763666417564135,-0.28057412046986807,0.6165102539691185,1.1764022088623798,2,left
10.411,0.07841653846731457,1.1788509086572339,-0.07537620955047054,-1.4352177758220697,0.09063679543528047,-0.7739891524017416,-0.28463068373626976,0.6219308885805721,1.1894221394923685,2,left
10.415,0.07418794010999177,1.1877540478068833,-0.07581294828295691,-1.4398144516523737,0.10973541682601337,-0.772114427807572,-0.2888418201890205,0.6274081333638453,1.2027356059334977,2,left
10.417,0.06990618651045061,1.1967322791415194,-0.07626214887573936,-1.4447105376796991,0.1301447062737325,-0.7707502819381988,-0.2932111855744566,0.6329306702243541,1.2163453194268916,2,left
10.42,0.06557896502581863,1.2057785688502587,-0.07672279337511867,-1.4499793486132015,0.15189185278062978,-0.7699039007593265,-0.29774232289794955,0.6384869253881819,1.230253880349036,2,left
10.42,0.06121412517251173,1.2148855853314966,-0.07719387214955403,-1.455693498155374,0.17500409191761018,-0.7695818332897073,-0.3024386543571019,0.6440650880679376,1.2444637581280016,2,left
10.421,0.05681966756724988,1.2240456997089968,-0.07767438404149188,-1.4619247606636203,0.19950864766493812,-0.7697899833575702,-0.30730347331110286,0.6496531296831053,1.2589772710212679,2,left
10.424000000000001,0.0524037330272335,1.233250986876127,-0.07816333636791203,-1.4687439337595818,0.2254326727220484,-0.7705336020594242,-0.3123399362823682,0.6552388233895811,1.273796565787429,2,left
10.425,0.04797459183568981,1.2424932270834488,-0.07865974478474942,-1.4762207019027862,0.252803187352977,-0.7718172809203254,-0.31755105498142944,0.6608097635860769,1.2889235972823785,2,left
10.43,0.04354063317267456,1.2517639080842609,-0.07916263303303393,-1.4844235009466744,0.28164701683786453,-0.7736449457562147,-0.3229396883521542,0.6663533851521789,1.30436010801399,2,left
10.431,0.039110354707985885,1.2610542278512782,-0.0796710325887269,-1.4934193837532634,0.31199072759843766,-0.776019851242524,-0.32850853464501395,0.6718569823295847,1.3201076076948046,2,left
10.431,0.034692352350172956,1.2703550978778961,-0.08018398224175075,-1.5032738872272347,0.343860562036404,-0.778944576205057,-0.3342601235322481,0.6773077272450795,1.336167352835672,2,left
10.435,0.030295310143336685,1.2796571470799185,-0.08070052762987055,-1.5140509016410306,0.3772823720682994,-0.7824210196691678,-0.3401968082804101,0.6826926880911496,1.3525403264246891,2,left
10.436,0.025927990303233558,1.2889507263154865,-0.08121972075037326,-1.525812543407459,0.41228155131150807,-0.7864503977150962,-0.3463207579962993,0.6879988469800158,1.3692272177366853,2,left
10.439,0.021599223385566316,1.2982259135404657,-0.08174061946842297,-1.5386190321761342,0.4488829659136867,-0.7910332411786315,-0.3526339499628064,0.6932131174867175,1.386228402319383,2,left
10.44,0.017317898580743524,1.307472519615431,-0.08226228703518618,-1.5525285726240006,0.4871108840819081,-0.7961693942194039,-0.3591381620817314,0.6983223618966888,1.403543922203276,2,left
10.444,0.01309295413013525,1.3166800947801338,-0.08278379162329866,-1.5675972410303796,0.5269889044054947,-0.8018580137704318,-0.36583496544117045,0.7033134081730417,1.4211734663831639,2,left
10.444,0.008933367858855217,1.3258379358117098,-0.08330420588696319,-1.5838788766734595,0.5685398830777416,-0.8080975698820883,-0.3727257170256127,0.7081730666585072,1.439116351620175,2,left
10.45,0.0048481478190333565,1.3349350938832367,-0.08382260656015045,-1.6014249780883056,0.6117858601263977,-0.8148858469752412,-0.3798115525874344,0.7128881465266851,1.4573715036140311,2,left
10.450999999999999,0.0008463230353795198,1.3439603831384732,-0.08433807411434678,-1.6202846042297923,0.6567479847675136,-0.822219946019905,-0.3870933796990315,0.7174454719969078,1.4759374385961885,2,left
10.454,-0.0030630656573834565,1.3529023899957624,-0.08484969250158043,-1.6405042805873442,0.7034464400020695,-0.8300962876573228,-0.39457187100538904,0.721831898326656,1.4948122453954025,2,left
10.455,-0.006870974696534125,1.3617494831894823,-0.08535654900729878,-1.6621279103019957,0.7519003665796598,-0.8385106162849769,-0.4022474576974437,0.7260343275950375,1.5139935680281529,2,left
10.458,-0.01056836680363561,1.3704898245519312,-0.08585773423315829,-1.6851966903400482,0.8021277864584448,-0.8474580051255853,-0.410120323227161,0.7300397242903965,1.5334785888672624,2,left
10.459000000000001,-0.014146219937513242,1.3791113805327944,-0.08635234222621395,-1.7097490327815068,0.854145525895563,-0.8569328623027035,-0.41819039728581175,0.7338351307146251,1.553264012442924,2,left
10.463,-0.01759553619928167,1.3876019344483883,-0.0868394707714976,-1.7358204912855004,0.9079691383072354,-0.866928937947092,-0.42645735006749685,0.7374076822162207,1.5733460499312346,2,left
10.464,-0.020907350703174687,1.3959490994500687,-0.08731822186681633,-1.7634436927990407,0.9636128270428912,-0.8774393323595429,-0.4349205868405383,0.7407446222635686,1.5937204043862032,2,left
10.469000000000001,-0.024072740430636386,1.4041403322008366,-0.08778770239459317,-1.7926482745797288,1.0210893682227788,-0.888456505257368,-0.4435792428499183,0.7438333173693262,1.6143822567720632,2,left
10.47,-0.02708283308962878,1.4121629472505202,-0.08824702499315283,-1.8234608266073769,1.0804100337937155,-0.8999722861332522,-0.45243217857451345,0.7466612718761407,1.6353262528535704,2,left
10.472999999999999,-0.029928816005720962,1.4200041321020527,-0.08869530911531952,-1.8559048394639626,1.1415845149628514,-0.911977885756648,-0.46147797536343566,0.7492161426132636,1.6565464910028058,2,left
10.474,-0.03260194507638745,1.4276509629637613,-0.08913168225332935,-1.8900006577658675,1.2046208461745893,-0.9244639088493438,-0.47071493147635063,0.7514857534329066,1.6780365109818294,2,left
10.479000000000001,-0.03509355382521145,1.4350904211850108,-0.08955528130684882,-1.9257654392369714,1.269525329801089,-0.9374203679682686,-0.480141058553204,0.7534581096344344,1.699789283761336,2,left
10.48,-0.037395062597235754,1.4423094103745842,-0.08996525407120502,-1.963213119515845,1.3363024617221158,-0.9508366986299994,-0.4897540785393359,0.7551214122837104,1.721797202436261,2,left
10.484000000000002,-0.039497987939399085,1.449294774201827,-0.09036076082340151,-2.0023543827950285,1.4049548579753324,-0.9647017757128247,-0.4995514210925166,0.7564640724340879,1.7440520743000563,2,left
10.485,-0.04139395221125625,1.456033314879559,-0.09074097598444068,-2.0431966383951674,1.4754831826634933,-0.9790039311735559,-0.5095302214989765,0.757474725254687,1.7665451141401076,2,left
10.488,-0.04307469347152807,1.4625118123264094,-0.09110508983725046,-2.0857440033816066,1.5478860773103866,-0.993730973117606,-0.5196873191260404,0.7581422440707121,1.7892669388175038,2,left
10.489,-0.04453207568421318,1.4687170440060393,-0.09145231027922564,-2.129997291335901,1.62216009186274,-1.0088702062621429,-0.5300192564265235,0.7584557543264907,1.8122075631720147,2,left
10.489,-0.04575809928229161,1.4746358054424626,-0.09178186458865466,-2.1759540073995813,1.698299617540699,-1.024408453833374,-0.5405222784456635,0.7584046475152124,1.8353563971785858,2,left
10.495999999999999,-0.046744912118608234,1.480254931413704,-0.09209300118595373,-2.2236083497124017,1.7762968217448625,-1.040332080940246,-0.55119233266504,0.7579785951800053,1.858702244074858,2,left
10.497,-0.04748482082682325,1.4855613178271774,-0.09238499136989932,-2.272951217372196,1.8561415852332337,-1.0566270194680192,-0.5620250689535328,0.7571675631242242,1.8822332990646142,2,left
10.498,-0.047970302612942196,1.490541944276594,-0.09265713100304251,-2.3239702250483454,1.9378214417868007,-1.0732787945363231,-0.5730158394607638,0.7559618259335228,1.9059371483178835,2,left
10.498,-0.04819401749759246,1.49518389727368,-0.09290874211364511,-2.37664972438574,2.0213215205877866,-1.090272552567413,-0.5841596984057799,0.7543519818495662,1.9298007681964557,2,left
10.499,-0.048148821028055455,1.4994743941427184,-0.09313917438096421,-2.430970832222932,2.1066244914870396,-1.1075930909600953,-0.5954514017791033,0.7523289679998797,1.953810524749326,2,left
10.503,-0.047827777476339955,1.5034008075644874,-0.09334780647802549,-2.4869114650628648,2.1937105130779186,-1.125224889109299,-0.6068854069897146,0.749884075980351,1.9779521735461354,2,left
10.504000000000001,-0.047224173535486795,1.506950690757259,-0.09353404725570669,-2.5444463781771,2.2825571830233673,-1.1431521400504994,-0.6184558724889682,0.7470089677857426,2.0022108599171333,2,left
10.507,-0.046331532522178746,1.5101118032803544,-0.09369733675716221,-2.603547207139064,2.3731394898236573,-1.1613587817526116,-0.6301566574038677,0.7436956920823808,2.0265711196686036,2,left
10.509,-0.045143629090688774,1.5128721374360974,-0.09383714705088772,-2.6641825101765853,2.4654297654817916,-1.1798285273403972,-0.6419813212125355,0.7399367008159846,2.0510168803430737,2,left
10.512,-0.04365450446014442,1.5152199452320494,-0.09395298286837038,-2.7263178108008046,2.559397639004481,-1.1985448939900125,-0.6539231234951012,0.7357248661463544,2.0755314630939683,2,left
10.513,-0.04185848215278178,1.5171437658517857,-0.09404438203189966,-2.789915640763144,2.6550099909459814,-1.2174912304986676,-0.6659750237936091,0.7310534976993867,2.100097585244644,2,left
10.517000000000001,-0.03975018423554446,1.5186324535693003,-0.09411091565885828,-2.8549355835144485,2.7522309092598505,-1.2366507435814127,-0.6781296816148994,0.7259163601256023,2.124697363602004,2,left
10.517999999999999,-0.03732454805149533,1.519675206028496,-0.09415218812911198,-2.9213343183447185,2.851021646728499,-1.256006522948788,-0.6903794566107531,0.7203076909530719,2.1493123185950753,2,left
10.523,-0.03457684342088243,1.5202615927961844,-0.09416783680371263,-2.989065665386047,2.9513405802451245,-1.2755415652197253,-0.7027164089699063,0.7142222187213079,2.173923379309081,2,left
10.524000000000001,-0.031502690283590665,1.5203815840857378,-0.0941575314885827,-3.0580806316654536,3.053143172227233,-1.295238796724709,-0.7151323000568365,0.7076551813813521,2.1985108894856387,2,left
10.527000000000001,-0.02809807674451749,1.5200255795387716,-0.09412097364605064,-3.1283274583982608,3.1563819344454673,-1.3150810952547596,-0.7276185933324908,0.7006023449459348,2.2230546145597527,2,left
10.527999999999999,-0.024359377471668876,1.5191844369434748,-0.09405789536851013,-3.1997516697164743,3.2610063945558245,-1.3350513108123243,-0.7401664555923825,0.6930600223722136,2.2475337498042642,2,left
10.533,-0.020283372384312225,1.517849500761108,-0.09396805814038245,-3.272296123030334,3.3669630656276173,-1.355132285420623,-0.7527667585577029,0.6850250926582182,2.2719269296523446,2,left
10.534,-0.015867265555356433,1.516012630328157,-0.09385125142490788,-3.3459010612247018,3.474195418963648,-1.3753068720484112,-0.7654100808553007,0.6764950201327309,2.296212238268497,2,left
10.537,-0.011108704239176821,1.5136662276006103,-0.09370729112017498,-3.420504166895353,3.58264386051304,-1.3955579527074988,-0.7780867104225534,0.6674678739169306,2.3203672214383406,2,left
10.538,-0.006005797926740762,1.5108032643077596,-0.09353601793539376,-3.4960406188334425,3.69224571118098,-1.4158684557806671,-0.7907866473733111,0.6579423475347109,2.3443688998472054,2,left
10.542,-0.0005571373274324709,1.5074173083857751,-0.09333729574460804,-3.572443150969466,3.8029351913433094,-1.436221372637907,-0.8034996073612108,0.6479177786471658,2.368193783817257,2,left
10.543,0.005238186817916201,1.5035025495661365,-0.09311100997722149,-3.6496421139908777,3.914643409877357,-1.4565997735991187,-0.8162150254767565,0.6373941688853051,2.3918178895724918,2,left
10.546,0.011380565177900596,1.4990538239984597,-0.09285706609439552,-3.727565539850228,4.0272983580237405,-1.4769868233015842,-0.8289220607146255,0.6263722037536348,2.4152167571004988,2,left
10.547,0.0178698516009914,1.4940666377877472,-0.09257538817145841,-3.806139209383147,4.140824908396964,-1.4973657955306376,-0.8416096010477013,0.6148532725758055,2.4383654696793817,2,left
10.552,0.02470534529094829,1.488537189320703,-0.09226591756483922,-3.8852867232577952,4.25514481946556,-1.517720087572046,-0.8542662691443359,0.6028394884520974,2.4612386751376576,2,left
10.552999999999999,0.03188577347554481,1.4824623902460006,-0.09192861160667497,-3.964929576479474,4.370176745825249,-1.538033234144627,-0.866880428765322,0.5903337081970835,2.4838106089142906,2,left
10.557,0.0394092746781401,1.4758398849660774,-0.09156344225985906,-4.044987236675954,4.485836254591086,-1.5582889209716149,-0.8794401918648972,0.5773395522007536,2.5060551189464086,2,left
10.558,0.047273382717568944,1.4686680685040367,-0.09117039468308262,-4.125377226390717,4.602035848236801,-1.5784709980492082,-0.891933426359507,0.5638614240368264,2.527945692216933,2,left
10.558,0.05547501156774003,1.4609461026296264,-0.09074946568649614,-4.206015209612734,4.71868499421165,-1.5985634926706207,-0.9043477644190154,0.5499045294279066,2.549455482443364,2,left
10.562000000000001,0.06401044122543065,1.4526739301461047,-0.09030066209141395,-4.286815082772591,4.835690161666808,-1.6185506222637867,-0.9166706110743911,0.5354748940576038,2.570557338193508,2,left
10.562999999999999,0.07287530478330481,1.4438522872438293,-0.0898239990343759,-4.367689070435709,4.952954865624938,-1.6384168071006675,-0.9288891529962109,0.5205793798364815,2.5912238309074236,2,left
10.565999999999999,0.08206457697021226,1.434482713829572,-0.0893194982697022,-4.448547825924132,5.070379718927842,-1.658146682935844,-0.9409903674070093,0.5052256994399846,2.611427282653905,2,left
10.567,0.09157256447255409,1.4245675617570643,-0.08878718652300784,-4.5293005370988135,5.187862492298091,-1.6777251136317801,-0.9529610311507437,0.48942242905328154,2.6311397936431544,2,left
10.567,0.1013928983707336,1.4141100009098562,-0.08822709393713853,-4.60985503741231,5.305298182749083,-1.6971372038086845,-0.9647877299544496,0.4731790192802444,2.650333269554961,2,left
10.573,0.11151852900093615,1.4031140231105323,-0.08763925263895488,-4.690117921730721,5.422579090067211,-1.7163683114609711,-0.9764568679168192,0.4565058041724807,2.66897944874036,2,left
10.574000000000002,0.1219417234901951,1.3915844438456169,-0.08702369544392911,-4.76999466532345,5.539594900169927,-1.7354040603099021,-0.9879546772580636,0.4394140083330368,2.6870499293533463,2,left
10.575999999999999,0.13265406614924857,1.3795269018082297,-0.08638045470896598,-4.849389743807766,5.6562327736321665,-1.754230351565987,-0.9992672283650061,0.42191575204813286,2.704516196467709,2,left
10.577,0.14364646186796193,1.3669478562769808,-0.08570956134673328,-4.928206752445335,5.772377438184301,-1.772833374869735,-1.0103804401648961,0.40402405439905714,2.721349649232503,2,left
10.582,0.15490914262307176,1.3538545823661834,-0.0850110440278821,-5.006348524286725,5.887911284904133,-1.7911996183507561,-1.0212800908609454,0.38575283430514296,2.737521628117997,2,left
10.582,0.16643167716117982,1.3402551641915554,-0.08428492861180745,-5.083717247269533,6.0027144683355225,-1.8093158778401661,-1.031951829062055,0.36711690944759007,2.7530034423022243,2,left
10.585999999999999,0.17820298387849556,1.3261584859948123,-0.0835312378463904,-5.160214580496343,6.1166650108670435,-1.8271692652896976,-1.042381185338626,0.3481319930227632,2.7677663972464206,2,left
10.587,0.19021134690138053,1.3115742212613284,-0.08274999135428553,-5.235741769916793,6.229638911702314,-1.844747216450259,-1.0525535842357356,0.32881468827250976,2.7817818225057525,2,left
10.59,0.20244443537292436,1.2965128198511442,-0.08194120588248612,-5.31019976363579,6.3415102607515355,-1.8620374978619534,-1.062454356774306,0.30918248073799526,2.7950210998197442,2,left
10.591,0.2148893259500822,1.2809854931508247,-0.08110489574008806,-5.383489327067424,6.452151357771314,-1.8790282132068163,-1.0720687534701923,0.28925372818255324,2.80745569152476,2,left
10.595,0.22753252849663363,1.2650041972450827,-0.08024107329228668,-5.455511158151335,6.561432837077049,-1.8957078090747448,-1.0813819579003816,0.26904764812809423,2.819057169328735,2,left
10.597000000000001,0.24036001491893516,1.248581614101207,-0.0793497493345857,-5.526166002845222,6.6692237981489875,-1.9120650801922638,-1.090379100844718,0.24858430294871545,2.8297972434861256,2,left
10.600999999999999,0.25335725104513307,1.23173113075535,-0.07843093317377163,-5.595354771103805,6.775391942449496,-1.9280891741629114,-1.0990452750307314,0.22788458246430177,2.8396477924087464,2,left
10.602,0.266509231402687,1.2144668164916073,-0.07748463231650449,-5.66297865355095,6.879803716765233,-1.943769595767137,-1.1073655505083049,0.20697018397611533,2.848580892745757,2,left
10.605,0.27980051670497985,1.1968033980182395,-0.07651085179640041,-5.728939239047692,6.982324463383544,-1.9590962108686814,-1.1153249906799845,0.18586358968563277,2.856568849963585,2,left
10.606,0.2932152738151026,1.1787562326711982,-0.07550959330042505,-5.79313863335473,7.082818577407844,-1.9740592499734433,-1.1229086690118002,0.1645880414372118,2.863584229454035,2,left
10.61,0.30673731791717235,1.1603412797082944,-0.07448085433061707,-5.855479579083416,7.181149671511597,-1.9886493114858617,-1.130101686448466,0.1431675127245545,2.869599888196177,2,left
10.610999999999999,0.32035015659877936,1.141575069791457,-0.07342462763962683,-5.91586557712454,7.277180748425136,-2.0028573647068186,-1.1368891895557942,0.12162667790038299,2.8745890069949094,2,left
10.615,0.334037035534975,1.1224746727855082,-0.07234090112577105,-5.974201009739122,7.370774381443718,-2.0166747526160287,-1.1432563894120744,0.09999087852826127,2.878525123316284,2,left
10.615,0.3477809854625319,1.1030576640287815,-0.07122965829848023,-6.030391265490083,7.461792903239001,-2.0300931944808087,-1.149188581269053,0.07828608681507984,2.8813821647368245,2,left
10.62,0.3615648701397522,1.0833420892539691,-0.07009087935858094,-6.0843428661880825,7.55009860324951,-2.043104788332025,-1.1546711650019763,0.056538866062377256,2.8831344830211045,2,left
10.620999999999999,0.3753714349986048,1.0633464283571845,-0.06892454289382316,-6.13596359601887,7.635553933918685,-2.0557020133468935,-1.1596896663669591,0.0347763280744005,2.8837568888388447,2,left
10.625,0.3891833562085794,1.0430895582303692,-0.06773062816546258,-6.185162633013405,7.718021726041665,-2.067877732177165,-1.164229759082688,0.013026087460609062,2.883224687129681,2,left
10.625,0.40298328988644994,1.0225907148829034,-0.06650911794859775,-6.231850683015505,7.79736541347419,-2.0796251932600573,-1.1682772877298606,-0.008683787171686984,2.8815137130984465,2,left
10.626,0.41675392121565596,1.0018694550669303,-0.06526000188399086,-6.275940116295132,7.873449267448841,-2.0909380331481042,-1.1718182913488426,-0.030324824848380463,2.8786003687099395,2,left
10.629000000000001,0.43047801328414975,0.9809456175856475,-0.0639832803005649,-6.317345106948468,7.946138640735197,-2.1018102788928905,-1.1748390274137896,-0.05186820587415142,2.8744616593496506,2,left
10.630999999999998,0.44413845547408026,0.9598392844445933,-0.06267896846856658,-6.355981775218694,8.015300221871586,-2.112236350516402,-1.1773259957484805,-0.0732848163927771,2.8690752302029083,2,left
10.635,0.45771831121228607,0.9385707420340798,-0.06134710123503705,-6.391768332863959,8.080802299686678,-2.1222110636024776,-1.1792659620592443,-0.09454530305269164,2.8624194020120846,2,left
10.636,0.47120086484971374,0.917160442571036,-0.059987737975970276,-6.424625231562386,8.14251503799038,-2.1317296320093675,-1.1806459809597194,-0.11562012749098796,2.8544732060671554,2,left
10.636,0.4845696674333707,0.8956289660246043,-0.05860096778369128,-6.454475313691407,8.200310758657853,-2.1407876705520317,-1.1814534184722483,-0.1364796206392173,2.8452164183919595,2,left
10.64,0.49780858116742316,0.873996982702106,-0.057186914800115354,-6.481243963650313,8.254064228358116,-2.1493811972295576,-1.1816759740114497,-0.15709403691199858,2.834629593106996,2,left
10.640999999999998,0.5109018223772716,0.8522852166328855,-0.05574574359485763,-6.5048592572418436,8.303652942522413,-2.157506634420688,-1.1813017018539076,-0.17743360833891625,2.822694094945886,2,left
10.645,0.5238340027573222,0.830514409886246,-0.05427766445999095,-6.525252107264635,8.348957401781647,-2.1651608086202003,-1.1803190320962662,-0.19746859869956568,2.8093921308988654,2,left
10.645999999999999,0.5365901686310858,0.8087052879654444,-0.05278293846523852,-6.542356404619789,8.389861379052483,-2.1723409485595115,-1.1787167911023506,-0.21716935772090235,2.7947067809528536,2,left
10.652000000000001,0.5491558379247274,0.7868785263987186,-0.05126188211040187,-6.5561091548703,8.426252177085251,-2.179044681704632,-1.1764842214382076,-0.23650637539526084,2.778622027893778,2,left
10.652999999999999,0.5615170345559836,0.7650547186070644,-0.04971487142797873,-6.566450610311798,8.458020876603502,-2.185270029153447,-1.1736110012922225,-0.2554503364765348,2.7611227861328955,2,left
10.654000000000002,0.5736603199564477,0.743254345085956,-0.0481423454182584,-6.573324397603614,8.485062575152513,-2.191015398952947,-1.170087263375685,-0.2739721752110495,2.7421949295149,2,left
10.654000000000002,0.5855728214739035,0.7214977439026549,-0.04654480873313065,-6.576677640999531,8.507276616761045,-2.196279577855663,-1.1659036132973677,-0.29204313035861357,2.7218253180615695,2,left
10.659,0.5972422574471908,0.6998050824841326,-0.04492283355953876,-6.576461081207813,8.524566812507366,-2.2010617215331827,-1.161051147403845,-0.30963480055810916,2.7000018236006516,2,left
10.66,0.6086569588103327,0.6781963306527046,-0.043277060689033774,-6.572629189900162,8.536841652067048,-2.205361343263258,-1.155521470075405,-0.32671920009076577,2.676713354225587,2,left
10.663,0.6198058871567503,0.6566912348568488,-0.04160819979382572,-6.565140279879108,8.544014506306105,-2.2091783011056148,-1.1493067104655206,-0.3432688150929707,2.6519498775275263,2,left
10.664000000000001,0.6306786492633182,0.6353092935442208,-0.03991702895473094,-6.553956610903114,8.546003820968968,-2.2125127835802063,-1.1423995386699186,-0.35925666026909103,2.625702442536928,2,left
10.669,0.6412655081271935,0.6140697336327012,-0.03820439349774783,-6.5390444911583145,8.542733301496355,-2.2153652938602666,-1.134793181309347,-0.374656336153328,2.5979632003078086,2,left
10.669,0.6515573906064523,0.5929914880502851,-0.03647120419653298,-6.520374374355272,8.534132088993498,-2.2177366324911185,-1.1264814365081708,-0.3894420869680866,2.568725423073487,2,left
10.674000000000001,0.6615458917861922,0.5720931743297473,-0.0347184348948706,-6.497920952418565,8.520134927354244,-2.2196278786443253,-1.117458688248939,-0.403588859124734,2.5379835218984095,2,left
10.675,0.67122327621977,0.551393074253283,-0.03294711960224201,-6.471663243726305,8.500682321531496,-2.2210403699153782,-1.1077199200810572,-0.4170723604109304,2.5057330627463474,2,left
10.68,0.6805824762199062,0.5309091145430511,-0.03115834911834389,-6.441584676845884,8.47572068692916,-2.2219756806717363,-1.0972607281596782,-0.42986911990695204,2.4719707808809703,2,left
10.68,0.689617087396889,0.5106588485873864,-0.029353267245674115,-6.407673169701409,8.445202489875214,-2.2224355989566544,-1.0860773335888798,-0.44195654867159645,2.436694593510462,2,left
10.685,0.6983213616648327,0.49065943918327465,-0.027533066648761408,-6.3699212040973645,8.409086379119957,-2.2224221019528576,-1.0741665940411422,-0.4533130012363522,2.3999036105835327,2,left
10.686,0.7066901979633414,0.4709276422673874,-0.025698984413645473,-6.328325895512062,8.367337308287588,-2.221937330008756,-1.0615260146230712,-0.4639178379445469,2.3615981436398363,2,left
10.689,0.7147191309651415,0.4514797916033301,-0.02385229735570947,-6.282889058063445,8.319926649193373,-2.2209835592285234,-1.0481537579552325,-0.4737514881701506,2.3217797126134347,2,left
10.689,0.7224043180511217,0.4323317843916002,-0.02199431712371676,-6.233617264538775,8.266832295922573,-2.219563172626008,-1.0340486534318771,-0.48279551444881463,2.2804510504836437,2,left
10.693,0.7297425248286858,0.4134990677686378,-0.02012638515746526,-6.180521901368744,8.208038759551128,-2.2176786298410853,-1.0192102056242394,-0.49103267755156726,2.2376161056631982,2,left
10.693,0.7367311094484336,0.39499662616091497,-0.018249867573013275,-6.123619218415474,8.143537253371855,-2.2153324354157164,-1.003638601800135,-0.4984470024249543,2.1932800420630603,2,left
10.695,0.7433680059373974,0.37683896945898065,-0.01636615005960983,-6.062930373432883,8.073325768473609,-2.212527105625643,-0.9873347185862122,-0.5050238443970237,2.1474492370372404,2,left
10.698,0.7496517067206627,0.35904012197502205,-0.014476632868089133,-5.998481471046937,7.997409139504477,-2.2092651338623037,-0.9703001278974069,-0.5107499541064254,2.100131277889865,2,left
10.699000000000002,0.7555812444706296,0.3416136121491099,-0.012582725962824394,-5.930303596092361,7.915799100433711,-2.205548954558243,-0.9525371023117786,-0.5156135390874169,2.051334957890814,2,left
10.702,0.7611561734164166,0.3245724629765911,-0.010685844407538104,-5.858432841053228,7.82851433014224,-2.201380905726289,-0.9340486200110705,-0.5196043204632821,2.001070272473552,2,left
10.703,0.7663765502415004,0.30792918313727763,-0.008787404047735245,-5.782910326952608,7.735580487812868,-2.1967631905731566,-0.914838369304938,-0.5227135841380437,1.9493484158013485,2,left
10.704,0.7712429146759858,0.291695758811397,-0.006888817531080024,-5.703782216321132,7.637030238358682,-2.191697839351836,-0.8949107526989669,-0.524934226395995,1.8961817776154062,2,left
10.707,0.7757562698677158,0.2758836461732304,-0.004991490682008452,-5.621099716472271,7.532903268269534,-2.186186673007519,-0.8742708904533769,-0.5262607939204975,1.841583940220532,2,left
10.708,0.7799180626134131,0.26050376456617896,-0.0030968192267464955,-5.534919071693116,7.423246292082623,-2.18023126977884,-0.8529246235772348,-0.5266895182409609,1.7855696754597912,2,left
10.712,0.7837301635405356,0.24556649037611625,-0.001206185848097603,-5.445301543653702,7.308113049383328,-2.1738329352099015,-0.8308785162009408,-0.5262183446143721,1.7281549415254391,2,left
10.713,0.787194847339232,0.23108165162586966,0.0006790424642335888,-5.35231337971919,7.18756429206878,-2.1669926756355777,-0.8081398572677088,-0.5248469553451776,1.6693568794493188,2,left
10.718,0.790314773149562,0.2170585233143932,0.0025575168105982267,-5.256025768917451,7.061667761559289,-2.1597111751230145,-0.7847166614827313,-0.5225767875447449,1.6091938091118452,2,left
10.719000000000001,0.7930929652134117,0.20350582352457053,0.004427908573989679,-5.156514785304765,6.930498155627001,-2.1519887758509246,-0.7606176694567136,-0.5194110453290496,1.5476852246046748,2,left
10.724,0.7955327939020505,0.1904317103249597,0.006288911461054443,-5.053861318462646,6.7941370844956195,-2.1438254619070403,-0.7358523469784704,-0.5153547064506512,1.4848517887781894,2,left
10.725,0.797637957226511,0.17784377949224323,0.00813924344589214,-4.948150990849351,6.652673015849697,-2.1352208464828073,-0.7104308833493166,-0.5104145233584442,1.4207153268010018,2,left
10.728,0.7994124629260411,0.16574906308187193,0.009977648667404112,-4.8394740617203835,6.506201208376848,-2.1261741624431294,-0.6843641887100426,-0.5045990186760988,1.3552988185548345,2,left
10.729000000000001,0.800860611209901,0.15415402887397986,0.011802899322129974,-4.727925317323268,6.354823633451363,-2.1166842562477175,-0.6576638902893513,-0.4979184750875548,1.2886263896843106,2,left
10.732999999999999,0.8019869782038866,0.1430645807199222,0.013613797581508654,-4.613603947063126,6.19864888455301,-2.106749585199319,-0.6303423275007525,-0.4903849196153935,1.2207233011174605,2,left
10.734000000000002,0.8027964001280397,0.1324860598121194,0.01540917754613208,-4.496613405327048,6.0377920740004996,-2.0963682179928393,-0.6024125458130538,-0.482012102275405,1.151615936869073,2,left
10.739,0.8032939582061405,0.12242324689686802,0.017187907231010807,-4.377061258647037,5.872374716564956,-2.085537838538087,-0.5738882893177766,-0.4728154690881849,1.0813317899354127,2,left
10.74,0.8034849642815323,0.11288036544657971,0.018948890558072595,-4.255059017873311,5.702524599515011,-2.0742557530276016,-0.5447839919150329,-0.46281212942614736,1.0098994460852915,2,left
10.743,0.8033749470899659,0.10386108580407474,0.02069106931981639,-4.130721955022136,5.528375638631668,-2.062518900219735,-0.5151147670376618,-0.45202081767193547,0.9373485653490298,2,left
10.744000000000002,0.8029696391212833,0.09536853030583306,0.022413425074607626,-4.004168904454974,5.350067719718025,-2.050323864905868,-0.4848963958317111,-0.4404618491618467,0.8637098610034578,2,left
10.748,0.8022749639904493,0.08740527938235952,0.024114980938470993,-3.875522048038718,5.167746525116202,-2.0376668945293437,-0.45414531370968964,-0.42815707038557627,0.7890150758478174,2,left
10.748,0.8012970242350838,0.0799733786226513,0.025794803246733937,-3.744906683930087,4.9815633447315015,-2.0245439189223964,-0.42287859519139104,-0.4151298034113216,0.7132969555622091,2,left
10.752,0.8000420894582839,0.0730743467777837,0.027452003068440804,-3.612450978620883,4.791674871051868,-2.0109505731260318,-0.3911139369455165,-0.40140478450308903,0.6365892189371097,2,left
10.753,0.7985165847383077,0.06670918466673789,0.029085737565119413,-3.4782857018748192,4.598242977639232,-1.9968822232564907,-0.3588696389437925,-0.3870080968949052,0.5589265247594537,2,left
10.755999999999998,0.79672707922928,0.060878384936017244,0.03069521119221978,-3.3425439441809672,4.401434480558195,-1.9823339953805894,-0.3261645836378014,-0.37196709768456254,0.4803444351378302,2,left
10.757,0.7946802748809564,0.05558194261367207,0.03227967674724322,-3.205360816343598,4.201420882196942,-1.9673008073608746,-0.2930182130673123,-0.3563103388075255,0.400879375046512,2,left
10.761,0.7923829952121527,0.05081936638903224,0.03383843627478348,-3.066873130823278,3.9983780969250238,-1.951777403630171,-0.2594505038075242,-0.34006748204969955,0.3205685878652873,2,left
10.762,0.7898421740818979,0.04658969054420294,0.035370841844408654,-2.9272190644395635,3.7924861580230216,-1.9357583928537114,-0.22548193972363934,-0.3232692082052845,0.23945008683178073,2,left
10.763,0.7870648444144184,0.042891487465779095,0.036876296219691934,-2.786537802041503,3.5839289053098873,-1.9192382884356585,-0.19113348281156484,-0.3059471212310096,0.15756260303218,2,left
10.765999999999998,0.7840581268477071,0.03972288067417763,0.038354253435211504,-2.644969160748396,3.3728936528850535,-1.9022115518254086,-0.15642654296329672,-0.28813364959068616,0.07494553183503166,2,left
10.767999999999999,0.7808292182879027,0.03708155831403657,0.039804219295377904,-2.502653194359928,3.159570836394238,-1.884672638577647,-0.12138294780603463,-0.2698619477292618,-0.008361119617783722,2,left
10.772,0.777385380360075,0.034964787046714706,0.041225751806163564,-2.3597297782847395,2.944153639871195,-1.8666160470471596,-0.08602491345134032,-0.2511657998672143,-0.09231678196275878,2,left
10.774000000000001,0.7737339277499751,0.03336942628389109,0.04261846154748922,-2.2163381790984267,2.7268376054554975,-1.848036369240315,-0.050375016428658624,-0.23207952696039622,-0.17688036959228232,2,left
10.774000000000001,0.7698822164330071,0.03229194270773732,0.043982011989322965,-2.0726166196159284,2.5078202351386776,-1.8289283426999263,-0.01445616676490749,-0.21263789692228086,-0.2620103231548557,2,left
10.776,0.7658376317891386,0.0317284250306834,0.04531611974823139,-1.928701854125982,2.2873005969400086,-1.8092869019410687,0.021708417891388596,-0.19287603805497527,-0.34766464881909603,2,left
10.776,0.7616075766073828,0.03167459894670509,0.0466205547730452,-1.7847287646695014,2.0654789446528135,-1.7891072283115779,0.0580952372037851,-0.17282935563424492,-0.43380095454436585,2,left
10.780999999999999,0.7571994589898093,0.03212584221906379,0.04789514043974809,-1.640829982466689,1.8425563544384516,-1.768384797793162,0.09468053224255914,-0.15253345159277504,-0.5203764836024938,2,left
10.782,0.7526206801711935,0.03307719984428077,0.049139753529261705,-1.4971355348326427,1.6187343782859074,-1.7471154266151652,0.1314403088441469,-0.13202404724497468,-0.6073481455965574,2,left
10.786,0.7478786222770838,0.034523399231382375,0.05035432405931742,-1.3537725171681483,1.3942147137001806,-1.725295314623004,0.16835036033985537,-0.11133690899581106,-0.6946725452240827,2,left
10.787,0.7429806360511486,0.03645886533764818,0.05153883494319881,-1.2108647896125502,1.169198888979512,-1.7029210863417363,0.20538628975889647,-0.09050777697544632,-0.7823060090332761,2,left
10.790999999999999,0.7379340285907858,0.03887773570564898,0.052693321452029734,-1.0685326979461822,0.9438879634388984,-1.6799898296736548,0.24252353161129225,-0.06957229654083597,-0.8702046104220413,2,left
10.792,0.7327460511368074,0.04177387535074001,0.053817870460729084,-0.9268928183307799,0.7184822419353483,-1.6564991321672116,0.27973737335663185,-0.04856595258493701,-0.9583241931305475,2,left
10.796,0.7274238869695887,0.04514089145321131,0.05491261946001933,-0.7860577254775967,0.4931810030488979,-1.6324471147929964,0.31700297666502114,-0.027524006593766373,-1.0466203934790002,2,left
10.796,0.7219746394715533,0.04897214781481925,0.05597775532067697,-0.6461357838345951,0.2681822402725624,-1.6078324631608854,0.3542953985768577,-0.0064814363912435976,-1.1350486616030315,2,left
10.8,0.7164053204233667,0.053260779045475305,0.057013512804906595,-0.5072309613860603,0.04368241556412008,-1.5826544561108726,0.3915896126682825,0.014527121488451636,-1.2235642819397572,2,left
10.800999999999998,0.7107228386071612,0.057999704451547535,0.05802017283351869,-0.3694426656602871,-0.18012377538707358,-1.5569129916084918,0.42886053032930904,0.03546742686137985,-1.3121223932180526,2,left
10.805,0.7049339887939615,0.06318164160094665,0.05899806053222851,-0.23286560154360839,-0.40304362682418143,-1.5306086098741085,0.46608302226170734,0.05630568844757502,-1.4006780082069883,2,left
10.806,0.6990454411936111,0.0687991195421735,0.05994754308978507,-0.09758965050193903,-0.6248866361623975,-1.5037425136737563,0.5032319403037253,0.07700861397828897,-1.4891860334766063,2,left
10.811,0.6930637314424779,0.07484449165643511,0.06086902746196951,0.03630022918578672,-0.8454647074463983,-1.476316585697571,0.5402821396886619,0.09754345791683015,-1.5776012894253446,2,left
10.812000000000001,0.6869952511967444,0.08130994812442062,0.06176295795087692,0.16872408157444221,-1.0645923456657118,-1.4483334029502586,0.5772085018441686,0.1178780668527878,-1.6658785308284105,2,left
10.815,0.6808462393880899,0.08818752799164792,0.06262981368286252,0.2996070119682276,-1.2820868425648937,-1.4197962480764208,0.6139859578389447,0.13798092262904477,-1.7539724681612632,2,left
10.815,0.6746227741846279,0.09546913081690964,0.0634701060047045,0.42887922598933936,-1.497768454581775,-1.3907091175419577,0.6505895125832074,0.15782118326050137,-1.8418377899521041,2,left
10.82,0.6683307656844069,0.10314652788585985,0.06428437581536953,0.556476049180047,-1.711460573542882,-1.361076726591168,0.68699426988896,0.17736872170285786,-1.9294291864168744,2,left
10.821,0.6619759493550791,0.11121137296633664,0.06507319084707162,0.6823379275140187,-1.9229898907404441,-1.3309045108975723,0.7231754584956602,0.19659416252913925,-2.0167013746297293,2,left
10.825999999999999,0.6555638802253673,0.11965521257569353,0.06583714290492491,0.8064104091881207,-2.1321865550102066,-1.3001986248249096,0.7591084591663855,0.21546891657089373,-2.1036091254813103,2,left
10.825999999999999,0.6490999278321926,0.1284694957266657,0.06657684507591108,0.9286441080611145,-2.3388843254235545,-1.2689659362131986,0.7947688329590202,0.2339652135801558,-2.1901072926763385,2,left
10.83,0.6425892719271796,0.1376455831199933,0.06729292892980722,1.0489946491007012,-2.542920719201249,-1.2372140176031938,0.8301323507763555,0.2520561329673428,-2.276150844021147,2,left
10.831,0.6360368989419473,0.14717475575875993,0.06798604175227095,1.167422596195234,-2.744137155449386,-1.2049511338110455,0.8651750242375587,0.2697156326618713,-2.3616948951420342,2,left
10.832,0.6294475992027425,0.1570482229685559,0.06865684386113989,1.2838933626811495,-2.942379095311014,-1.1721862257634543,0.8998731376091235,0.2869185761043224,-2.446694745230757,2,left
10.835,0.6228259648760857,0.16725712981652485,0.06930600605501346,1.398377104931766,-3.137496179119209,-1.1389288905021262,0.9342032799861368,0.30364075731144635,-2.531105913434057,2,left
10.835,0.6161763886206456,0.17779256392715495,0.06993420723569961,1.5108485993475866,-3.3293423611293167,-1.10518935726486,0.9681423766102113,0.3198589239171874,-2.614884173959289,2,left
10.841,0.609503062915293,0.18864556169105615,0.07054213224019153,1.6212871030826335,-3.5177760423995412,-1.0709784595491674,1.0016677185130098,0.33555079812847327,-2.6979855885100505,2,left
10.843,0.6028099800290218,0.19980711386014996,0.0711304699102677,1.7296761990640555,-3.7026602021517125,-1.0363076031667613,1.0347569902196545,0.3506950955995083,-2.780366535642129,2,left
10.843,0.5961009325967773,0.21126817052592467,0.0716999114165946,1.8360036269985789,-3.883862526792897,-1.001188730815131,1.0673882955487541,0.3652715422637379,-2.8619837371716788,2,left
10.844000000000001,0.5893795147652371,0.22301964548573658,0.07225114884397676,1.9402611041092945,-4.0612555337134815,-0.9656342846257595,1.0995401816053119,0.3792608891685172,-2.942794281874246,2,left
10.845,0.5826491238703949,0.23505242000872026,0.07278487403739922,2.042444140482495,-4.234716685825368,-0.9296571686664848,1.1311916610615227,0.3926449253559454,-3.0227556467112153,2,left
10.85,0.5759129626035008,0.24735734601545944,0.07330177770309321,2.14255185275627,-4.4041284939351515,-0.8932707128549522,1.1623222328191554,0.4054064888316998,-3.101825715818053,2,left
10.850999999999999,0.5691740416175713,0.259925248688186,0.07380254875424358,2.2405867778208592,-4.569378606091458,-0.8564886388041669,1.1929119011458391,0.4175294756620157,-3.179962797486391,2,left
10.854000000000001,0.5624351825267551,0.27274692853376414,0.07428787388721624,2.336554687052726,-4.730359884176148,-0.8193250276006812,1.2229411933761336,0.4289988472372262,-3.2571256393695784,2,left
10.855,0.5556990212552638,0.2858131629292864,0.07475843737102039,2.4304644013699384,-4.886970468225802,-0.781794289410912,1.2523911762667714,0.43980063573848655,-3.3332734421387613,2,left
10.859000000000002,0.5489680117002235,0.29911470718868105,0.07521492102971193,2.522327607390501,-5.0391138289579915,-0.7439111348099596,1.2812434710939087,0.4499219478424775,-3.408365871813855,2,left
10.859000000000002,0.542244429682188,0.3126422951979134,0.07565800439392503,2.6121586749693457,-5.18669880896457,-0.7056905477261929,1.3094802675786055,0.45935096669700504,-3.4823630709910023,2,left
10.864,0.5355303771669563,0.32638663967554427,0.07608836499332777,2.6999744763837774,-5.329639653021661,-0.6671477598938186,1.3370843367251,0.4680769521985,-3.555225669185173,2,left
10.865,0.5288277867525591,0.3403384321240821,0.07650667875714241,2.785794207431318,-5.4678560279532435,-0.6282982267046401,1.364039042654724,0.4760902396004685,-3.6269147925035528,2,left
10.869000000000002,0.5221384264249914,0.3544883425455707,0.07691362048623272,2.8696392106980317,-5.601273032472088,-0.5891576043492386,1.390328353516539,0.48338223647995565,-3.6973920728621943,2,left
10.87,0.5154639045929933,0.3688270190016671,0.07730986435918728,2.9515328012496527,-5.729821197408529,-0.5497417281368883,1.4159368515539543,0.48994541808707054,-3.766619656955174,2,left
10.874,0.5088056754144464,0.38334508710305787,0.07769608443666487,3.031500094992094,-5.853436476723956,-0.5100665918826338,1.4408497424047297,0.49577332110057326,-3.8345602151821097,2,left
10.875,0.5021650444255056,0.39803314951434904,0.07807295513120675,3.1095678399422555,-5.972060229692157,-0.47014832824912506,1.4650528637098457,0.5008605358104562,-3.9011769507364216,2,left
10.879000000000001,0.4955431744802438,0.41288178555802585,0.07844115161219035,3.1857642506444392,-6.085639194617642,-0.43000318993001124,1.4885326931047864,0.5052026967463593,-3.9664336090531296,2,left
10.879000000000001,0.4889410920048226,0.42788155099546493,0.07880135011789044,3.2601188459621615,-6.194125454445953,-0.38964753156095283,1.51127635566476,0.5087964717685501,-4.030294487811285,2,left
10.884,0.4823596935662375,0.44302297805556906,0.07915422814911867,3.3326622904696825,-6.29747639460662,-0.34909779224361237,1.533271630873367,0.5116395496360736,-4.092724447682323,2,left
10.885,0.4757997527511404,0.4582965757727355,0.07950046452124408,3.4034262396622132,-6.39565465341491,-0.3083704785673331,1.5545069591821337,0.5137306260645376,-4.153688924011729,2,left
10.889000000000001,0.46926192734570726,0.47369283068533624,0.07984073925321451,3.472443189198463,-6.4886280653439785,-0.26748214801260906,1.5749714482262216,0.5150693882838541,-4.2131539396174045,2,left
10.89,0.4627467668043075,0.4892022079338712,0.08017573327314731,3.539746328384,-6.576369597464211,-0.226449392619895,1.5946548787594805,0.5156564981040996,-4.271086118883985,2,left
10.892999999999999,0.4562547199927991,0.5048151527854307,0.08050612792033493,3.6053693980987753,-6.6588572793317224,-0.1852888228067915,1.6135477103698177,0.5154935734955026,-4.327452703328191,2,left
10.894,0.4497861431897491,0.5205220925993266,0.08083260422503812,3.6693465533671485,-6.736074126593064,-0.14401705121618055,1.6316410870336517,0.5145831686864031,-4.382221568805957,2,left
10.898,0.4433413083244607,0.5363134392394164,0.08115584195189898,3.731712230763838,-6.808008058558144,-0.10265067647747148,1.648926842548116,0.5129287528013813,-4.435361244473268,2,left
10.899000000000001,0.43692041142635046,0.5521795919347928,0.0814765183989522,3.792501020844382,-6.874651809978266,-0.06120626676274865,1.6653975057880726,0.5105346871621154,-4.4868409333360075,2,left
10.9,0.4305235812590478,0.5681109405921466,0.08179530694950157,3.851747545783971,-6.936002837251114,-0.019700343019295057,1.681046305571924,0.5074062015559233,-4.536630533729731,2,left
10.902999999999999,0.4241508881144263,0.5840978695626293,0.08211287537793131,3.9094863424038935,-6.9920632192593,0.02185063824030797,1.6958671748285727,0.503549369877329,-4.584700660793433,2,left
10.904000000000002,0.4178023527442315,0.6001307618583408,0.08242988391368739,3.9657517507602957,-7.042839553033923,0.06343030270952764,1.7098547538448523,0.49897108544334695,-4.6310226672687715,2,left
10.909,0.4114779554093144,0.6162000038048007,0.08274698306974579,4.020577808465526,-7.088342844419383,0.1050223767398733,1.7230043925311862,0.4936790360965371,-4.675568663441171,2,left
10.91,0.4051776450288638,0.6322959901125518,0.0830648112413654,4.0739981509080145,-7.128588393900513,0.14661070659286649,1.7353121517301737,0.4876816791052694,-4.718311536306405,2,left
10.91,0.39890134841352703,0.6484091293526743,0.08338399207822318,4.126045917481576,-7.163595677841061,0.18817927855521052,1.7467748036082746,0.4809882158480607,-4.759224968095674,2,left
10.913,0.39264897956607026,0.6645298498270259,0.08370513163052101,4.176753663676842,-7.193388225883042,0.22971223969947505,1.7573898311683605,0.4736085662668022,-4.79828345428708,2,left
10.913,0.3864204490317139,0.6806486058348473,0.08402881526889673,4.226153278426196,-7.217993496169598,0.2711939185668994,1.7671554269184822,0.46555334307166607,-4.835462321226238,2,left
10.918,0.38021567327827993,0.6967558843468834,0.08435560437853251,4.274275905835549,-7.237442750554602,0.3126088447679194,1.7760704907297784,0.45683382567848546,-4.870737743473506,2,left
10.918,0.3740345840839725,0.7128422120993961,0.08468603282828545,4.321151870686547,-7.2517709314316185,0.3539417667768633,1.7841346269140121,0.44746193385743066,-4.904086760989974,2,left
10.923,0.3678771379080728,0.7288981631154273,0.08502060321525996,4.366810607546298,-7.261016540871748,0.3951776677028163,1.7913481405487914,0.43745020106986465,-4.93548729626897,2,left
10.924000000000001,0.3617433252177957,0.7449143666550324,0.08535978288409196,4.411280593572127,-7.265221522229458,0.4363017790994062,1.7977120330760785,0.42681174746835593,-4.9649181715143795,2,left
10.929,0.3556331797444424,0.7608815155904101,0.08570399971814265,4.454589285146094,-7.264431144257627,0.47729959293221536,1.8032279971971605,0.41556025253295126,-4.992359125961513,2,left
10.93,0.34954678764425906,0.7767903751937707,0.08605363769757635,4.496763058470476,-7.25869388775845,0.5181568718222488,1.8078984110848024,0.4037099273149769,-5.017790833430705,2,left
10.933,0.3434842965422353,0.7926317923156666,0.08640903221903573,4.537827154252051,-7.248061334782392,0.5588596576835636,1.8117263319308665,0.39127548625783576,-5.041194920198137,2,left
10.933,0.33744592443784416,0.8083967049218724,0.08677046517350552,4.577805626599636,-7.2325880603730255,0.5993942788728064,1.8147154888452537,0.3782721185625081,-5.062553983262672,2,left
10.937000000000001,0.3314319684487128,0.8240761519492025,0.08713815978117917,4.6167212962560935,-7.212331526841365,0.6397473559680001,1.8168702751195862,0.3647154590637453,-5.081851609081713,2,left
10.937999999999999,0.3254428133611762,0.8396612834336983,0.0875122751851626,4.654595708282824,-7.187351980539295,0.6799058062934787,1.8181957398666366,0.3506215585812684,-5.099072392843304,2,left
10.942,0.3194789399484174,0.8551433708571392,0.08789290081198868,4.691449094311641,-7.157712351087741,0.7198568473073871,1.818697579044105,0.33600685370864963,-5.114201958335771,2,left
10.944,0.31354093301215885,0.8705138176504552,0.0882800505166295,4.727300339475875,-7.123478153001538,0.7595879989676404,1.818382125868936,0.32088813600096716,-5.127226978470328,2,left
10.947000000000001,0.30762948910454024,0.8857641697857492,0.08867365654139592,4.762166954129539,-7.084717389639364,0.7990870851916811,1.817256340626005,0.3052825205207803,-5.138135196506068,2,left
10.947000000000001,0.3017454238913709,0.9008861263809153,0.08907356332956,4.796065050460481,-7.041500459393745,0.8383422345247749,1.8153277998726212,0.2892074137004769,-5.146915448020796,2,left
10.952,0.2958896791241923,0.9158715502317171,0.08947952124378822,4.829009324100545,-6.993900064022914,0.8773418801309553,1.8126046850379633,0.2726804804775982,-5.153557683665071,2,left
10.953,0.29006332919523287,0.930712478177726,0.0898911802467003,4.8610130408329395,-6.941991119013332,0.9160747592200645,1.809095770414223,0.2557196106583476,-5.158052992730791,2,left
10.957,0.2842675872564739,0.9454011312030353,0.09030808360815328,4.892088028494226,-6.885850665848895,0.9545299120236318,1.8048104105339386,0.23834288446314206,-5.160393627559505,2,left
10.958,0.2785038108908269,0.959929924170283,0.09072966171271468,4.922244674165588,-6.825557786050221,0.9926966804316022,1.799758526925715,0.22056853720676664,-5.160573028809522,2,left
10.962,0.2727735073261793,0.974291475085932,0.09115522605126863,4.951491926745361,-6.761193516835075,1.0305647064011623,1.7939505942382652,0.20241492306444814,-5.158585851594729,2,left
10.963,0.2670783381789252,0.9884786137958346,0.09158396349229325,4.979837304992097,-6.692840768238817,1.0681239302481103,1.7873976257204893,0.18390047787396693,-5.154427992501794,2,left
10.966,0.2614201237037517,1.0024843900139997,0.09201493094128868,5.007286911124834,-6.620584241521853,1.105364588930391,1.7801111580430993,0.16504368092278707,-5.148096617486286,2,left
10.967,0.25580084651389057,1.0163020805944598,0.09244705051135349,5.033845450064586,-6.544510348679358,1.1422772144325584,1.7721032354451278,0.14586301566809262,-5.139590190641988,2,left
10.967,0.25022265472333516,1.0299251959667528,0.09287910533914683,5.059516254398513,-6.464707132857102,1.178852632359044,1.7633863932030027,0.1263769294120918,-5.128908503795496,2,left
10.972999999999999,0.24468786445325622,1.0433474856730396,0.09330973617695573,5.084301315145629,-6.381264189465985,1.2150819608431922,1.7539736405001753,0.10660379233150585,-5.1160527066922645,2,left
10.974,0.23919896164018342,1.0565629429676886,0.09373743887074527,5.108201318400342,-6.2942725877769305,1.2509566098780815,1.7438784429215632,0.08656185693880147,-5.101025337210457,2,left
10.975999999999999,0.23375860307545832,1.0695658084564135,0.09416056281467289,5.1312156879275985,-6.203824792767078,1.2864682811741863,1.7331147048774342,0.06626921942938829,-5.083830350853042,2,left
10.977,0.22836961658715965,1.0823505727559306,0.09457731047104496,5.15334263378081,-6.110014586977764,1.3216089686479375,1.7216967521769593,0.04574378399063792,-5.064473148942015,2,left
10.978,0.22303500025745754,1.0949119781574082,0.09498573805060968,5.174579206914325,-6.01293699220299,1.356370959593935,1.7096393148213547,0.025003230468236236,-5.042960605255928,2,left
10.981,0.21775792056730328,1.1072450192875216,0.09538375744245615,5.194921359275092,-5.912688191159147,1.3907468363410918,1.6969575100022096,0.004064985407120332,-5.019301091025383,2,left
10.982000000000001,0.21254170937626451,1.1193449427763822,0.09576913946442156,5.214364007983422,-5.809365449892781,1.4247294777393518,1.6836668252722244,-0.017053803591926035,-4.993504498230912,2,left
10.985999999999999,0.20738985966010504,1.1312072459555569,0.0961395184873735,5.232901101725656,-5.703067042015739,1.4583120595710992,1.669783101853758,-0.038336290259562984,-4.965582261141442,2,left
10.987,0.2023060199330762,1.1428276746214656,0.0964923984772201,5.25052568796352,-5.5938921755059745,1.4914880532316996,1.6553225180487856,-0.05976594884918412,-4.935547376025424,2,left
10.991,0.19729398728732206,1.1542022199136464,0.09682516048716605,5.2672299804345215,-5.481940922187823,1.5242512224750668,1.640301572712121,-0.08132659019283761,-4.903414418960516,2,left
10.991,0.19235769899944188,1.165327114375602,0.09713507160843232,5.283005426899764,-5.36731414965499,1.5565956182704304,1.6247370687480518,-0.10300237468288197,-4.869199561661659,2,left
10.997,0.18750122268196062,1.1761988272852082,0.09741929535223688,5.297842777189742,-5.250113455322839,1.5885155718655914,1.6086460965888814,-0.12477782224090346,-4.83292058524128,2,left
10.998,0.18272874499022126,1.1868140593577983,0.09767490339562851,5.311732151596127,-5.130441102288582,1.6200056861507766,1.592046017612269,-0.14663781933579909,-4.7945968918093556,2,left
11.001,0.1780445589301936,1.1971697369350756,0.0978988885812021,5.324663109654809,-5.008399956670316,1.6510608254159944,1.574954447452683,-0.1685676231132601,-4.754249513815077,2,left
11.001,0.17345304984746138,1.2072630057745166,0.0980881790169793,5.336624719362823,-4.884093426088425,1.6816761035935788,1.5573892391607869,-0.19055286269917904,-4.71190112102595,2,left
11.005,0.16895868021186378,1.2170912245464671,0.09823965307987943,5.347605626869023,-4.7576253989457875,1.7118468710763746,1.5393684661631024,-0.21257953773974644,-4.667576025034262,2,left
11.005999999999998,0.16456597334691497,1.2266519581328084,0.0983501550869916,5.357594126675631,-4.629100184156422,1.7415687002007638,1.5209104049728956,-0.2346340142412044,-4.62130018117508,2,left
11.011,0.16027949628701504,1.2359429708065832,0.09841651136728484,5.366578232384998,-4.498622450965694,1.770837369482474,1.5020335176018584,-0.2567030177723848,-4.573101187734164,2,left
11.012,0.15610384197511415,1.244962219359385,0.09843554644738667,5.374545748023104,-4.366297168498999,1.799648846691832,1.4827564336208587,-0.27877362409327977,-4.523008282318519,2,left
11.015,0.15204361103551367,1.253707846233243,0.09840409906198089,5.381484339968454,-4.23222954466993,1.8279992708538355,1.4630979318167745,-0.3008332472729716,-4.4710523352567035,2,left
11.015999999999998,0.1481033933685766,1.2621781727051369,0.09831903771191101,5.387381609512165,-4.096524964073325,1.8558849332571172,1.4430769213912211,-0.322869625360294,-4.417265839890504,2,left
11.02,0.14428774981511422,1.2703716921641066,0.0981772755187533,5.392225166072097,-3.959288924483287,1.8833022575545586,1.4227124226458387,-0.34487080367059914,-4.361682899614133,2,left
11.020999999999999,0.1406011941286962,1.2782870635144048,0.09797578416066226,5.396002701080937,-3.8206269715712637,1.910247779036988,1.4020235470977023,-0.3668251157519764,-4.304339211511758,2,left
11.026,0.13704817547524206,1.2859231047355448,0.09771160671747964,5.398702062565146,-3.680644631454573,1.9367181231600687,1.3810294769673819,-0.3887211620942013,-4.245272046438941,2,left
11.027000000000001,0.13363306165108807,1.2932787866313522,0.09738186930103507,5.400311330428671,-3.5394473406813565,1.9627099834031254,1.3597494439811944,-0.4105477866435932,-4.184520225388355,2,left
11.03,0.13036012317332324,1.3003532268032951,0.09698379139857638,5.4008188924522305,-3.3971403732538494,1.9882200985373115,1.3382027074282512,-0.4322940511868256,-4.122124091975172,2,left
11.030999999999999,0.1272335183507734,1.3071456838864401,0.09651469491246781,5.40021352101591,-3.2538287642880634,2.013245229379154,1.316408531412036,-0.4539492076665674,-4.058125480872478,2,left
11.036,0.12425727939335449,1.313655552087243,0.09597201193516107,5.398484450549673,-3.1096172299044826,2.037782135104135,1.2943861612354197,-0.47550266849163236,-3.992567682022308,2,left
11.037,0.12143529956816332,1.3198823560592632,0.09535329134775307,5.395621455713203,-2.9646100829411988,2.061827549193588,1.2721547988977675,-0.4969439749630181,-3.9254954005334217,2,left
11.038,0.11877132137357364,1.325825746146369,0.0946562043590305,5.391614930303335,-2.8189111440780046,2.0853781550867905,1.2497335778846306,-0.5182627642316078,-3.856954712623867,2,left
11.040999999999999,0.1162689256825956,1.331485494015159,0.09387854910706789,5.386455966884067,-2.6726236479573955,2.108430561608736,1.2271415377944488,-0.5394487357334019,-3.786993018774559,2,left
11.042,0.11393152179268334,1.336861488689701,0.09301825445388162,5.380136437130925,-2.525850143886129,2.130981278242652,1.2043975995486438,-0.5604916183424823,-3.7156589957072548,2,left
11.044,0.11176233829843782,1.3419537329913616,0.0920733831377465,5.372649072878147,-2.37869239069902,2.15302669031491,1.1815205417283818,-0.5813811391869,-3.6430025483445982,2,left
11.045,0.10976441468196475,1.3467623403762528,0.09104213448596445,5.36398754776307,-2.231251245636329,2.174563034175143,1.1585289782162072,-0.6021069945419152,-3.5690747620931598,2,left
11.045,0.10794059350892996,1.3512875321572,0.08992284689511741,5.354146558904941,-2.083626548441651,2.195586372535874,1.1354413371177587,-0.6226588229199489,-3.4939278553349356,2,left
11.050999999999998,0.10629351312822317,1.3555296350971775,0.08871400025507967,5.343121907235084,-1.9359170043285987,2.2160925702838288,1.1122758408978908,-0.6430261804172354,-3.417615131918704,2,left
11.052,0.10482560078062196,1.3594890793613095,0.08741421846524382,5.330910574638153,-1.7882200708206952,2.2360772711566037,1.0890504876651885,-0.6631985183766915,-3.34019093343897,2,left
11.055,0.1035390660141816,1.3631663968112604,0.08602227218836053,5.317510796514632,-1.640631852111425,2.2555358755939143,1.0657830335385945,-0.6831651634260216,-3.2617105910867408,2,left
11.055,0.10243589429450346,1.3665622196236862,0.08453708198446944,5.302922129188305,-1.493247002148648,2.2744635199218695,1.0424909760296324,-0.7029152999495435,-3.182230376853027,2,left
11.059000000000001,0.10151784070318906,1.3696772792176504,0.08295772193723402,5.287145512032832,-1.346158636290683,2.2928550569442603,1.0191915383735515,-0.7224379550516641,-3.101807453862757,2,left
11.06,0.10078642363647812,1.3725124054829725,0.08128342383231044,5.2701833242789435,-1.1994582511102791,2.310705037996752,0.9959016547425851,-0.7417219860693396,-3.0204998256137845,2,left
11.064,0.10024291844001236,1.375068526310409,0.07951358188792995,5.252039436460337,-1.0532356519232766,2.3280076965183447,0.9726379562744482,-0.7607560706902328,-2.9383662838927815,2,left
11.065,0.09988835094107393,1.3773466674355053,0.0776477579795575,5.2327192564529685,-0.9075788876196133,2.3447569331929223,0.9494167578491782,-0.7795286997326276,-2.8554663551371124,2,left
11.069,0.09972349086536013,1.3793479526203936,0.07568568724657693,5.212229770059014,-0.7625741923754353,2.3609463027121564,0.9262540455474507,-0.7980281726424745,-2.771860245009229,2,left
11.07,0.09974884514957714,1.381073604209922,0.07362728392206468,5.1905795760833895,-0.6183059338264445,2.376569002209459,0.903165464723571,-0.81624259576222,-2.687608780947781,2,left
11.075,0.09996465118163005,1.3825249441092864,0.07147264718969029,5.167778915847347,-0.47485656728423536,2.3916178614130827,0.880166308626471,-0.8341598834253275,-2.6027733524574193,2,left
11.075999999999999,0.10037087001536356,1.3837033952403286,0.0692220668470871,5.143839697080302,-0.3323065955792433,2.406085334564866,0.8572715075022055,-0.8517677619296048,-2.5174158488972345,2,left
11.08,0.1009671796158599,1.3846104835434991,0.06687602854393397,5.118775512127722,-0.19073453411603708,2.419963494149486,0.8344956181116483,-0.8690537764416374,-2.4315985945259446,2,left
11.081,0.10175296819467441,1.385247840601835,0.06443521836502465,5.092601650409593,-0.05021688072903751,2.433244026477432,0.8118528135973566,-0.8860053008837746,-2.3453842805602463,2,left
11.084000000000001,0.10272732769411941,1.3856172069705592,0.06190052654065123,5.065335105060734,0.08917191007067662,2.4459182291632486,0.7893568736338586,-0.9026095508542235,-2.2588358940012596,2,left
11.085,0.10388904747822254,1.3857204362982558,0.05927305008482612,5.0369945736809765,0.22735944886400947,2.457977010538892,0.7670211747959695,-0.9188535996298806,-2.172016642982669,2,left
11.09,0.10523660828669489,1.3855595003203676,0.056554094185487534,5.007600453120068,0.3642754295114452,2.46941089104034,0.744858681080118,-0.9347243973005729,-2.0849898783930247,2,left
11.09,0.1067681765070334,1.3851364947911404,0.053745172201419354,4.977174828219001,0.4998516441598723,2.4802100066038406,0.7228819345140852,-0.9502087930823786,-1.997819011523713,2,left
11.094000000000001,0.10848159881759284,1.3844536463943347,0.05084800415758808,4.945741454426401,0.6340219954654593,2.490364114106419,0.7011030457910227,-0.9652935608566648,-1.9105674274933202,2,left
11.095,0.11037439724934824,1.3835133206357537,0.04786451367003023,4.913325734205585,0.7667225064257586,2.4998625988834733,0.6795336848641068,-0.9799654279804065,-1.823298394198524,2,left
11.097999999999999,0.1124437647039952,1.3823180306750749,0.04479682326928316,4.879954687144916,0.8978913282103692,2.508694484354457,0.6581850714387246,-0.9942111074122403,-1.7360749665412307,2,left
11.1,0.11468656094947276,1.3808704470074618,0.041647248127753424,4.845656913681242,1.0274687463754588,2.5168484437857965,0.6370679652996486,-1.0080173331975588,-1.6489598856814416,2,left
11.103,0.11709930909285081,1.3791734078688644,0.038418288232617046,4.810462552343326,1.155397185843221,2.5243128142183022,0.616192656443722,-1.021370899268859,-1.562015473275488,2,left
11.104000000000001,0.11967819251197603,1.377229930227924,0.035112619076114064,4.774403230419476,1.2816212150229567,2.5310756125844294,0.5955689551514914,-1.034258701086788,-1.4753035217104224,2,left
11.105,0.1224190522163982,1.3750432212449308,0.031733080958968804,4.737512007950906,1.4060875494458922,2.5371245540387792,0.575206182424006,-1.0466677788728997,-1.3888851832374878,2,left
11.11,0.12531738460026873,1.3726166901042554,0.028282667042321245,4.6998233149498,1.5287450552811255,2.5424470725232604,0.5551131613739841,-1.0585853607542877,-1.3028208619590973,2,left
11.112,0.12836833954443233,1.369953960141258,0.02476451035325461,4.661372881738552,1.6495447530951854,2.5470303435863144,0.5352982099989819,-1.06999890456847,-1.2171701115734053,2,left
11.113,0.13156671883614768,1.3670588811900888,0.021181870017589793,4.622197662446113,1.7684398220930255,2.5508613094545844,0.5157691354728295,-1.080896137848694,-1.131991539889564,2,left
11.114,0.13490697491086528,1.3639355420829171,0.017538117013262754,4.582335752404178,1.8853856044748845,2.553926706258474,0.4965332299300899,-1.0912650959379668,-1.047342720076755,2,left
11.114,0.13838320997728407,1.3605882832278209,0.013836719704293957,4.54182630146019,2.0003396084614087,2.556213093140202,0.4775972676866328,-1.1010941582645655,-0.9632801084010737,2,left
11.118,0.14198917567654679,1.3570217091620995,0.010081229377612924,4.500709425931173,2.1132615079357686,2.5577068828759484,0.45896750384023766,-1.1103720828103147,-0.8798589682056898,2,left
11.119000000000002,0.14571827356550018,1.3532407009025826,0.006275265993900258,4.459026121211307,2.2241131372440988,2.5583943737363315,0.44064967419598144,-1.1190880388013873,-0.7971332998912376,2,left
11.123,0.14956355688011014,1.3492504277961768,0.0024225043511092695,4.416818175767904,2.332858480766589,2.558261782477943,0.4226489964620259,-1.1272316376498432,-0.7151557766550619,2,left
11.124,0.15351773417337197,1.345056358428606,-0.001473339175729625,4.374128086549569,2.4394636574639055,2.557295278451234,0.4049701726622991,-1.134792962172537,-0.6339776857497915,2,left
11.129000000000001,0.1575731754807885,1.3406642699977214,-0.00540851918201202,4.330998975686907,2.5438969007173067,2.5554810188266988,0.38761739271345946,-1.1417625941124065,-0.5536488750237026,2,left
11.129000000000001,0.16172192161325336,1.3360802554321787,-0.009379272920742983,4.287474508364604,2.6461285337747826,2.5528051849389404,0.3705943391144418,-1.1481316399855197,-0.47421770450748574,2,left
11.133,0.16595569701198462,1.3313107274826503,-0.0133818309449828,4.243598811742333,2.7461309411093935,2.5492540197458182,0.35390419269780743,-1.1538917552755787,-0.39573100281431817,2,left
11.133,0.17026592636961022,1.3263624190698957,-0.017412426489569012,4.199416394800697,2.8438785359897545,2.544813866397429,0.3375496393930569,-1.1590351669958856,-0.3182340281225838,2,left
11.138,0.17464375499328869,1.3212423793398766,-0.02146730334468026,4.154972068987253,2.939347724556291,2.5394712079072095,0.3215328779530089,-1.163554694637046,-0.2417704335131563,2,left
11.138,0.1790800726889185,1.315957965097037,-0.025542721908247856,4.110310869536684,3.032516866690492,2.5332127079149322,0.30585562859530585,-1.167443769516945,-0.16638223643587274,2,left
11.142999999999999,0.18356554076095996,1.3105168275002435,-0.029634963025148817,4.065477977338276,3.1233662339579067,2.5260252525288025,0.29051914251206684,-1.1706964525477495,-0.09210979208266214,2,left
11.144,0.18809062154571635,1.304926894092946,-0.03374032922851828,4.020518641223136,3.2118779648991063,2.5178959932312828,0.27552421220168144,-1.1733074504329117,-0.018991770447760667,2,left
11.147,0.19264560976939726,1.299196346416551,-0.037855143173680425,3.9754781005429383,3.298036017936202,2.50881239083064,0.26087118257770975,-1.1752721303053337,0.05293486314146977,2,left
11.148,0.1972206649912132,1.2933335936293953,-0.04197574337070739,3.930401507911506,3.381826122155886,2.4987622604375432,0.24655996281083287,-1.1765865328160192,0.12363486423640127,2,left
11.152000000000001,0.20180584446024838,1.2873472427026267,-0.04609847765877777,3.8853338519801683,3.463235726223218,2.4877338174433183,0.2325900388607781,-1.177247383680711,0.1930747224316471,2,left
11.152999999999999,0.20639113584772334,1.281246065863173,-0.05021969510158228,3.8403198801176033,3.5422539456736426,2.4757157244737527,0.21896048665612453,-1.1772521036901447,0.26122267168876634,2,left
11.157,0.21096648946423097,1.2750389659941705,-0.05433573706973908,3.795404020864768,3.6188715088239096,2.462697139289547,0.20566998588087554,-1.1765988171876887,0.328048698022196,2,left
11.158,0.21552184969314578,1.2687349406988944,-0.05844292824934973,3.750630306035551,3.6930807015357496,2.448667763601709,0.19271683432766404,-1.175286359016264,0.39352454474682436,2,left
11.162,0.2200471854421178,1.262343045708506,-0.06253756824018877,3.7060422923339176,3.7648753110592823,2.433617892767338,0.18009896277843418,-1.1733142799345528,0.4576237154829121,2,left
11.162,0.22453251943017513,1.2558723582794067,-0.06661592432270365,3.6616829823586245,3.834250569176235,2.4175384663283874,0.16781395037441527,-1.1706828505006182,0.5203214751102732,2,left
11.167,0.22896795610815335,1.2493319411808308,-0.07067422588642176,3.6175947448669654,3.90120309485615,2.4004211193530707,0.1558590404381729,-1.1673930634191605,0.5815948488597537,2,left
11.168,0.2333437079915356,1.2427308078128,-0.07470866091835976,3.573819234169555,3.965730836631813,2.3822582345366663,0.14423115671148393,-1.1634466343467484,0.6414226197260945,2,left
11.172,0.23765012020160375,1.2360778889206887,-0.07871537485132322,3.5303973085288085,4.027833014893197,2.3630429950155043,0.13292691997373796,-1.1588460011474657,0.6997853243822428,2,left
11.172,0.241877693075161,1.229382001289737,-0.08269047197582505,3.4873689474345535,4.087510064292244,2.342769437844953,0.12194266500012801,-1.1535943216046551,0.75666524774044,2,left
11.173,0.24601710279586836,1.2226518187089004,-0.08663001952687437,3.444773167631109,4.144763576443863,2.321432508089204,0.11127445778789558,-1.1476954696681874,0.8120464161480214,2,left
11.177,0.25005922009654186,1.2158958453914328,-0.09053005445886612,3.4026479377711745,4.1995962431015395,2.2990281134676556,0.10091811292233742,-1.141154030450946,0.8659145889258272,2,left
11.177999999999999,0.2539951271898413,1.209122391949071,-0.09438659280040003,3.3610300915730007,4.252011799979017,2.2755531794996235,0.09086921092326443,-1.133975294261985,0.9182572477996157,2,left
11.181,0.2578161332219622,1.2023395539477935,-0.09819564133768022,3.3199552393585687,4.302014971382497,2.251005705086097,0.0811231154454461,-1.126165249886324,0.96906358392382,2,left
11.182,0.261513788674952,1.1955551930137074,-0.10195321126090028,3.2794576779751896,4.34961141584171,2.2253848184081084,0.07167499026495627,-1.1177305771833632,1.0183244824684774,2,left
11.182,0.2650798991940476,1.1887769204088046,-0.10565533338581802,3.2395702997211853,4.3948076730752454,2.198690832737977,0.06251981601615492,-1.1086786389984318,1.0660325048890298,2,left
11.186,0.26850653927146184,1.182012082973529,-0.10929807462754389,3.2003245020080935,4.437611112895817,2.1709253012521685,0.05365240665129757,-1.099017472365049,1.1121818690249228,2,left
11.187000000000001,0.27178606615947143,1.1752677513284127,-0.11287755547230982,3.161750100110255,4.4780298868082244,2.1420910696511655,0.045067425595619694,-1.0887557789736846,1.1567684271685055,2,left
11.190999999999999,0.2749111343751633,1.168550710224183,-0.11638996820267956,3.1238752447376292,4.516072882891886,2.1121923256689272,0.0367594015715844,-1.077902914881032,1.19978964224127,2,left
11.190999999999999,0.2778747111470048,1.1618674509357247,-0.11983159560107554,3.0867263450592928,4.551749684275719,2.0812346450558823,0.028722744066808425,-1.066468879432056,1.241244562209995,2,left
11.196,0.2806700930772717,1.1552241656158082,-0.12319882982445961,3.0503279971902306,4.5850705313523195,2.049225033896579,0.02095175842099217,-1.0544643033653613,1.2811337928708753,2,left
11.197000000000001,0.2832909241681429,1.1486267435394204,-0.1264881911197416,3.014702918032673,4.616046287840738,2.0161719671761205,0.013440660507975002,-1.04190043607072,1.3194594691252193,2,left
11.200999999999999,0.28573121522244377,1.1420807691539068,-0.12969634603879154,2.97987188436531,4.644688410800353,1.982085423506455,0.006183590989816381,-1.0287891319659386,1.3562252248658135,2,left
11.202,0.28798536449978357,1.135591521799367,-0.13282012481645336,2.945853677075867,4.671008924691611,1.946976915920595,-0.0008253708794336022,-1.015142835958601,1.3914361615885398,2,left
11.206,0.2900481793873135,1.1291639768958182,-0.13585653758662086,2.9126650304347503,4.695020399572618,1.9108595186398283,-0.00759219392186424,-1.000974567956621,1.425098815839358,2,left
11.207,0.29191489873018867,1.1228028083351909,-0.13880278912450347,2.8803205863097427,4.716735933513914,1.8737478897160278,-0.014122882196595207,-0.986297906389965,1.457221125602286,2,left
11.21,0.29358121536149145,1.116512391785954,-0.1416562918253925,2.848832853224052,4.736169139307047,1.8356582894482292,-0.020423462673576254,-0.9711269707043699,1.487812395729533,2,left
11.210999999999999,0.29504329828108317,1.110296808621557,-0.1444146766754671,2.8182121701624117,4.753334135535967,1.7966085944697507,-0.026499973439747807,-0.9554764027863878,1.5168832625105175,2,left
11.215,0.2962978138673967,1.1041598502175303,-0.14707580204506948,2.788466675032334,4.768245542073648,1.7566183073992816,-0.03235845245633636,-0.9393613472776206,1.5444456574720622,2,left
11.216,0.2973419454796319,1.0981050224177022,-0.14963776023122657,2.759602277690095,4.780918480059801,1.715708561946554,-0.0380049268853976,-0.9227974307345979,1.5705127704976738,2,left
11.22,0.29817341083598004,1.092135550037565,-0.1520988817762302,2.731622637443487,4.791368576409004,1.6739021233604636,-0.04344540300307641,-0.9058007395893689,1.5950990123494426,2,left
11.220999999999998,0.29879047664458946,1.0862543813448455,-0.15445773767771606,2.7045291449459166,4.799611972892139,1.6312233841047985,-0.04868585671642665,-0.8883877968645476,1.618219976671772,2,left
11.225999999999999,0.2991919701104318,1.0804641925294494,-0.15671313967484943,2.678320908398925,4.805665339827555,1.587698354644108,-0.05373222470002434,-0.8705755375952645,1.6398924015518508,2,left
11.227,0.2993772871183716,1.0747673922413077,-0.15886413883934336,2.6529947439827635,4.809545894412031,1.54335464921966,-0.05859039616801631,-0.8523812829092302,1.6601341307075326,2,left
11.231,0.29934639706454347,1.069166126326092,-0.16091002271427557,2.6285451704371825,4.811271423715241,1.4982214664929416,-0.06326620529667144,-0.8338227127149269,1.6789640743690806,2,left
11.232000000000001,0.29909984444163545,1.0636622829176983,-0.1628503112268419,2.6049644077171425,4.810860312355159,1.4523295649317283,-0.06776542431194407,-0.8149178369467943,1.6964021699170717,2,left
11.235,0.29863874736363694,1.058257498049959,-0.16468475155750692,2.582242379650681,4.808331574865579,1.4057112328113908,-0.07209375725601833,-0.7956849653151812,1.7124693423346522,2,left
11.235,0.2979647932461195,1.0529531619282562,-0.16641331208844684,2.5603667205286755,4.80370489276076,1.3584002527018566,-0.0762568344462783,-0.7761426755077868,1.7271874645282816,2,left
11.24,0.29708023185340593,1.0477504259574073,-0.16803617549598693,2.539322785558748,4.797000656296046,1.3104318603084582,-0.08026020763964124,-0.7563097797883244,1.7405793175671016,2,left
11.241,0.2959878658975174,1.04265021056451,-0.16955373101120966,2.519093665118001,4.788240010917238,1.2618426975328156,-0.08410934590429989,-0.7362052899938188,1.7526685508845543,2,left
11.241,0.2946910393327734,1.0376532138010597,-0.17096656585623524,2.4996602027417176,4.777444908385483,1.2126707596179227,-0.08780963214844428,-0.7158483812141846,1.7634796424690615,2,left
11.245,0.2931936234440905,1.0327599206689617,-0.17227545586717619,2.481001016787535,4.76463816255845,1.1629553362397116,-0.09136636016147241,-0.6952583549465156,1.773037859043506,2,left
11.245999999999999,0.29150000079710586,1.0279706130813704,-0.17348135533269235,2.46309252571693,4.749843509802679,1.1127369464055958,-0.09478473197075507,-0.6744546027988585,1.7813692162165926,2,left
11.253,0.28961504711754926,1.023285380332572,-0.17458538610189633,2.4459089769840605,4.7330856738355225,1.0620572671443107,-0.09806985536859333,-0.6534565715343945,1.788500438598413,2,left
11.254000000000001,0.28754411118204526,1.0187041299278903,-0.17558882603354967,2.429422479753731,4.7143904339361296,1.010959056597281,-0.1012267415571962,-0.6322837297366679,1.7944589198922183,2,left
11.255,0.28529299281716325,1.0142265986279777,-0.1764930968639307,2.4136030420855668,4.693784693923575,0.959486073249747,-0.10426030291110928,-0.6109555360927633,1.7992726829838073,2,left
11.255,0.28286791913285086,1.0098523635680257,-0.1772997515784217,2.398418613453076,4.671296548441399,0.9076829936660202,-0.10717535086654267,-0.5894914092341528,1.80297034004907,2,left
11.255999999999998,0.28027551917708865,1.0055808532988066,-0.17801046139524626,2.383835133238763,4.646955343935459,0.855595330464578,-0.10997659394667747,-0.5679106990744296,1.8055810526968687,2,left
11.259,0.2775227972703264,1.0014113585816329,-0.17862700249748262,2.369816585435203,4.620791733242153,0.8032693511381842,-0.11266863593167585,-0.5462326595827016,1.8071344921611454,2,left
11.26,0.27461710532846245,0.9973430427796158,-0.1791512426645662,2.3563250595542913,4.592837723551858,0.750751997695811,-0.1152559741817791,-0.5244764229310238,1.8076607995529401,2,left
11.264000000000001,0.2715661145024104,0.993374951721866,-0.17958512795635648,2.3433208177026974,4.563126717677715,0.69809080697683,-0.11774299812155072,-0.502660974953917,1.8071905461798863,2,left
11.265,0.26837778645701765,0.9895060229618053,-0.17993066959884288,2.330762367783169,4.531693548554674,0.6453338314872527,-0.12013398789300773,-0.48080513185773827,1.8057546939377072,2,left
11.269,0.26506034458980043,0.985735094397369,-0.1801899312147239,2.318606542782842,4.498574506888563,0.5925295606072547,-0.12243311318508251,-0.4589275181174431,1.803384555775293,2,left
11.269,0.2616222454576319,0.9820609122653606,-0.18036501653515197,2.3068085861111136,4.463807361869901,0.5397268420188069,-0.12464443224656871,-0.4370465454981121,1.800111756232076,2,left
11.275,0.25807215064368433,0.9784821385609107,-0.1804580577199957,2.2953222429508995,4.427431374862247,0.4869748032019607,-0.12677189108942916,-0.4151803931384942,1.7959681920436434,2,left
11.276,0.2544188992632703,0.9749973579624616,-0.1804712044005149,2.28409985758827,4.389487305970006,0.4343227728481984,-0.12881932288907924,-0.3933469886337585,1.7909859928088483,2,left
11.28,0.2506714812784106,0.9716050843610226,-0.18040661353780754,2.2730924766864637,4.350017413385913,0.3818202020392692,-0.13079044758800662,-0.3715639900546353,1.7851974817090859,2,left
11.280999999999999,0.2468390117654294,0.9683037670996766,-0.18026644016363388,2.262249958471185,4.30906544541379,0.3295165850400714,-0.13268887170884727,-0.34984876884017013,1.7786351362679016,2,left
11.284,0.24293070625460889,0.9650917970263639,-0.18005282904342956,2.2515210877948357,4.266676625057632,0.27746137955443473,-0.13451808838280763,-0.32821839350140564,1.7713315491366868,2,left
11.285,0.23895585723361468,0.9619675124512892,-0.17976790728308353,2.240853697047958,4.222897627063777,0.2257039262930817,-0.1362814775991031,-0.3066896140734536,1.7633193888899028,2,left
11.289000000000001,0.23492381187470832,0.9589292050831704,-0.17941377789498103,2.230194792886623,4.177776547298571,0.17429336770362144,-0.13798230668087408,-0.28527884725361136,1.7546313608110544,2,left
11.289000000000001,0.23084395100687552,0.9559751260000461,-0.17899251433909996,2.2194906887448385,4.131362864339883,0.12327856571314061,-0.1396237309928415,-0.26400216216342015,1.7453001676484998,2,left
11.294,0.22672566930780375,0.9531034916923247,-0.17850615605134584,2.2086871431012134,4.083707393156799,0.07270801833481214,-0.14120879488577506,-0.24287526667285403,1.7353584703181497,2,left
11.295,0.22257835664255318,0.950312490196872,-0.1779567049583542,2.197729503469143,4.034862230747972,0.022629774990938125,-0.14274043288266672,-0.2219134942251671,1.7248388485281685,2,left
11.299000000000001,0.2184113804329677,0.9476002873194578,-0.17734612295863142,2.186562856079652,3.984880693605426,-0.026908649594020322,-0.1442214711113312,-0.20113179110131063,1.7137737612989423,2,left
11.3,0.21423406890843785,0.9449650329194983,-0.17667633033070715,2.1751321812257354,3.9338172468670036,-0.07586036307559885,-0.14565462898799386,-0.18054470406326079,1.7021955073498265,2,left
11.302999999999999,0.21005569506649277,0.9424048672083106,-0.17594920501353786,2.1633825142366065,3.881727425017264,-0.12417918489043016,-0.14704252115627142,-0.16016636831607162,1.6901361853225172,2,left
11.304,0.20588546116233564,0.9399179269929996,-0.17516658269217442,2.151259112049652,3.8286677439933565,-0.1718197375184987,-0.14838765968580617,-0.14001049572898489,1.6776276538093313,2,left
11.308,0.20173248354967518,0.9375023517864969,-0.17433025761119283,2.138707625347137,3.7746956045493083,-0.21873753974707535,-0.14969245653467675,-0.12009036325648519,1.6647014911532074,2,left
11.309000000000001,0.19760577770857027,0.9351562897037489,-0.17344198402898206,2.1256742762237963,3.7198691867291984,-0.2648891020750418,-0.1509592262795775,-0.100418801500789,1.651388954984846,2,left
11.31,0.1935142433164414,0.9328779030750639,-0.17250347821894113,2.1121060413503585,3.6642473352969196,-0.31023202439436687,-0.15219018911093904,-0.08100818337819107,1.6377209415061322,2,left
11.314,0.1894666492450441,0.9306653737269538,-0.17151642092390146,2.0979508405968303,3.607889435967609,-0.3547250960834244,-0.15338747405656072,-0.061870412953856785,1.6237279447527906,2,left
11.315,0.18547161839702486,0.9285169079036579,-0.17048246017845947,2.083157731077996,3.5508552822833637,-0.3983283986446414,-0.15455312233694343,-0.04301691469304054,1.6094400164731424,2,left
11.319,0.181537612322157,0.9264307408255243,-0.16940321441847492,2.067677106582028,3.49320493297359,-0.4410034110166471,-0.15568909072192172,-0.02445862347894768,1.594886727483834,2,left
11.32,0.1776729155698774,0.9244051409030275,-0.16828027579083896,2.0514609023414443,3.434998559638213,-0.4827131176886523,-0.15679725479158385,-0.0062059756467518065,1.5800971311374454,2,left
11.321,0.17388561974767794,0.9224384136462859,-0.16711521357395928,2.0344628048059867,3.376296284925639,-0.5234221195239558,-0.15787941206464987,0.011731098898584405,1.565099729131018,2,left
11.324000000000002,0.17018360727012755,0.9205289053232225,-0.16590957763367012,2.016638464585909,3.317158013053662,-0.5630967461053921,-0.1589372849908781,0.029343183513677523,1.5499224396587619,2,left
11.325,0.16657453479917755,0.918675006421381,-0.16466490186263355,1.9979457080516718,3.2576432575403995,-0.6017051664482251,-0.15997252381068733,0.04662138064969447,1.5345925678665147,2,left
11.33,0.16306581639437354,0.9168751549685242,-0.16338270756800144,1.9783447415846829,3.1978109726889854,-0.6392174938317025,-0.1609867092851072,0.06355731673843466,1.5191367785649283,2,left
11.331,0.1596646064155054,0.9151278397748455,-0.16206450677818018,1.9577983439604576,3.1377193936904395,-0.6756058815889336,-0.1619813552990994,0.08014314618209872,1.503581071157845,2,left
11.333,0.15637778224735807,0.9134316036669814,-0.16071180544382757,1.936272045023489,3.077425887187527,-0.7108446086562427,-0.162957911341227,0.09637155449636148,1.487950756741877,2,left
11.333,0.15321192694095404,0.9117850467797697,-0.159326106517973,1.913734290299617,3.0169868124634736,-0.7449101547714144,-0.16391776486258855,0.11223576065538471,1.4722704373328517,2,left
11.337,0.1501733118858629,0.9101868299567136,-0.15790891291188203,1.890156591486799,2.95645739308303,-0.7777812654253152,-0.16486224351787765,0.12772951868640056,1.4565639871744835,2,left
11.338,0.14726787964440652,0.9086356782896536,-0.1564617303292009,1.865513662762371,2.8958915988127982,-0.8094390066680665,-0.16579261729137626,0.142847118560471,1.4408545360844267,2,left
11.343,0.14450122709198843,0.9071303848044254,-0.15498606997786893,1.8397835428419949,2.8353420376473135,-0.8398668098675873,-0.16671010051064183,0.1575833864249833,1.4251644547927147,2,left
11.344000000000001,0.14187858901809636,0.9056698142744152,-0.15348345114964404,1.8129477027225076,2.774859857767116,-0.8690505065148975,-0.16761585375060467,0.17193368422237895,1.4095153422275157,2,left
11.347000000000001,0.1394048223480623,0.9042529071211703,-0.15195540364534407,1.7849911390378295,2.714494659254932,-0.8969783531670856,-0.16851098563075032,0.18589390873853345,1.3939280147031223,2,left
11.347000000000001,0.13708439114564017,0.9028786833432034,-0.15040347001375134,1.7559024529539755,2.6542944153961323,-0.9236410466153264,-0.1693965545080257,0.19946049012311054,1.3784224969651493,2,left
11.352,0.1349213525527841,0.9015462464021884,-0.14882920756580317,1.7256739145260456,2.5943054033898316,-0.949031729361756,-0.170273570068073,0.21263038992310634,1.3630180150480284,2,left
11.353,0.13291934381790432,0.9002547869905366,-0.14723419012488134,1.6943015124368606,2.5345721442973126,-0.9731459854854158,-0.17114299481736495,0.22540109866968025,1.3477329909000657,2,left
11.357999999999999,0.13108157055678368,0.8990035866053748,-0.145620009478564,1.6617849890336585,2.475137352054936,-0.9959818269738471,-0.17200574547878822,0.23777063305723833,1.332585038731559,2,left
11.359000000000002,0.12941079637963118,0.8977920208602219,-0.14398827650334692,1.6281278605760086,2.416041891379301,-1.0175396705932627,-0.17286269429319615,0.2497375327525987,1.317590963041761,2,left
11.362,0.1279093340030881,0.896619562476995,-0.14234062193764224,1.5933374226048147,2.357324744393154,-1.0378223053665687,-0.17371467022943013,0.26130085687092,1.302766758280821,2,left
11.363,0.1265790379476883,0.8954857839169773,-0.14067869677982425,1.5574247403390042,2.299022985801387,-1.0568348507248384,-0.1745624601052903,0.2724601801539252,1.2881276101032164,2,left
11.366,0.12542129889998282,0.894390359628202,-0.13900417228998538,1.5204046240032338,2.241171766447448,-1.0745847053941728,-0.17540680962191918,0.2832155888847965,1.2736878981696456,2,left
11.367,0.12443703979526186,0.8933330679056648,-0.13731873957913687,1.482295588986688,2.1838043050815634,-1.0910814870762264,-0.1762484243140471,0.2935676765729576,1.2594612004548191,2,left
11.373,0.12362671365270403,0.8923137923771752,-0.13562410877865524,1.4431198007298365,2.1269518881733607,-1.1063369629770314,-0.17708797041853708,0.3035175394408029,1.2454602990191324,2,left
11.374,0.1229903031720717,0.8913325231405045,-0.13392200779405067,1.4029030042328434,2.0706438776027785,-1.1203649712351331,-0.1779260756636556,0.3130667717432705,1.231697187202763,2,left
11.377,0.12252732208144139,0.890389357587797,-0.13221418065832807,1.3616744380761943,2.0149077260645214,-1.13318133329645,-0.1787633299814886,0.3222174609500024,1.2181830782013556,2,left
11.378,0.12223681820869325,0.8894845009599994,-0.1305023855096616,1.3194667328410588,1.959769000022808,-1.1448037572797156,-0.17960028614819235,0.3309721828064674,1.2049284149783315,2,left
11.378,0.12211737823761645,0.8886182666732486,-0.12878839222323366,1.2763157938139182,1.9052514100547087,-1.155251732372835,-0.18043746036814123,0.3393339962282298,1.1919428814457405,2,left
11.382,0.12216713410443161,0.887791076451111,-0.1270739797278642,1.2322606678570907,1.8513768484220152,-1.1645464142970094,-0.18127533283851632,0.3473064378715206,1.179235414803413,2,left
11.383,0.12238377098412727,0.887003460289115,-0.12536093304119025,1.1873433943239768,1.798165433713295,-1.1727105018720612,-0.18211434834225418,0.3548935161610846,1.1668142189031099,2,left
11.386,0.12276453680034734,0.8862560562755327,-0.12365104006600211,1.141608840207868,1.7456355623113415,-1.1797681049501456,-0.1829549169058983,0.362099704616196,1.1546867785289467,2,left
11.388,0.12330625317884987,0.8855496102894475,-0.12194608819544377,1.0951045212741342,1.693803966001978,-1.1857446051673557,-0.183797414538416,0.3689299344244987,1.1428598745290335,2,left
11.388,0.12400532776482423,0.8848849755895429,-0.12024786076898178,1.0478804137375823,1.642685774248095,-1.1906665130936176,-0.18464218405566704,0.3753895862732679,1.1313395997578968,2,left
11.390999999999998,0.12485776782549438,0.8842631122980715,-0.11855813341370715,0.9999887626080016,1.5922945792136558,-1.1945613265437305,-0.18548953599293985,0.3814844814588055,1.120131375794863,2,left
11.392000000000001,0.12585919504567605,0.8836850867769867,-0.11687867030756065,0.9514838912611349,1.5426425020655052,-1.1974573936236697,-0.18633974960797645,0.3872208722936008,1.1092399704044378,2,left
11.395999999999999,0.12700486140458161,0.883152070885808,-0.1152112204092869,0.9024220139758161,1.4937402598768443,-1.1993837819491104,-0.18719307397691323,0.39260543182982766,1.0986695157056021,2,left
11.397,0.12828966601279307,0.8826653411026621,-0.11355751370629422,0.8528610516125262,1.4455972328994187,-1.200370154284545,-0.18804972918557253,0.39764524291669934,1.0884235270178328,2,left
11.401,0.12970817278916885,0.8822262774828864,-0.11191925753352545,0.8028604502941457,1.3982215320618026,-1.200446650611379,-0.18890990761854826,0.4023477866081752,1.0785049223525727,2,left
11.402000000000001,0.1312546288612525,0.8818363624248412,-0.11029813301333714,0.7524810029480877,1.3516200665533167,-1.199643776630601,-0.1897737753485369,0.4067209299365025,1.068916042519788,2,left
11.405999999999999,0.1329229835753225,0.8814971792101967,-0.10869579165730761,0.7017846735675658,1.305798611355297,-1.197992298702928,-0.19064147362837594,0.41077291306608776,1.059658671820187,2,left
11.407,0.1347069080030959,0.8812104102870302,-0.10711385215729781,0.6508344240484848,1.260761874583631,-1.1955231452267072,-0.19151312048826039,0.41451233584122366,1.0507340592946117,2,left
11.411,0.13659981483260777,0.8809778352694562,-0.10555389737901655,0.5996940434573651,1.2165135645086995,-1.1922673144513414,-0.19238881244061976,0.41794814374025163,1.0421429405030596,2,left
11.412,0.1385948785319476,0.8808013286358188,-0.10401747156091488,0.5484279795847983,1.1730564561211017,-1.1882557887215504,-0.19326862629514846,0.42108961324782024,1.033885559806746,2,left
11.415999999999999,0.14068505567666353,0.8806828571170032,-0.10250607771680854,0.4971011726382033,1.1303924571137933,-1.183519455145449,-0.19415262108649392,0.4239463366559994,1.0259616931275677,2,left
11.415999999999999,0.14286310533528526,0.8806244767765877,-0.10102117524176765,0.4457788909271111,1.0885226731535298,-1.1780890326771551,-0.19504084011711778,0.42652820630414184,1.0183706711602887,2,left
11.421,0.14512160941328361,0.8806283297940618,-0.09956417772405869,0.3945265683938424,1.0474474723167784,-1.1719950056024657,-0.195933313117858,0.42884539826653617,1.0111114030137298,2,left
11.422,0.1474529928642317,0.8806966409690519,-0.09813645096733276,0.34340964384227185,1.0071665485675385,-1.165267563414067,-0.19683005852873173,0.4309083554960798,1.004182400258193,2,left
11.425999999999998,0.14984954368748604,0.8808317139679814,-0.09673931122530624,0.2924934017173835,0.9676789841567928,-1.1579365470607383,-0.1977310859025302,0.4327277704314111,0.9975818013573142,2,left
11.427,0.15230343264337826,0.8810359273364154,-0.09537402364660923,0.241842814288525,0.9289833108255859,-1.1500314015531115,-0.19863639843376987,0.43431456707417915,0.991307396463487,2,left
11.431,0.15480673262897598,0.8813117303010034,-0.09404180092248049,0.19152238508965486,0.8910775696960173,-1.1415811349067222,-0.19954599561557573,0.43567988254240075,0.9853566525569463,2,left
11.432,0.157351437669258,0.8816616383832071,-0.092743802126749,0.1415959934704552,0.8539593697367032,-1.132614283401359,-0.20045987602708512,0.4368350481051556,0.9797267389095471,2,left
11.435,0.15992948148889172,0.8820882288431126,-0.09148113173535795,0.09212674011294177,0.8176259446915457,-1.1231588831340609,-0.20137804025397302,0.4377915697032007,0.9744145528552092,2,left
11.436,0.16253275563797523,0.8825941359676555,-0.09025483880911007,0.043176793369152464,0.7820742083629076,-1.1132424478415501,-0.20230049394471172,0.43856110795945213,0.969416745849923,2,left
11.440999999999999,0.1651531271519648,0.8831820462143013,-0.08906591631821836,-0.0051927637233750296,0.7473008081425576,-1.1028919529664016,-0.2032272510051901,0.4391554576826758,0.9647297498051411,2,left
11.442,0.16778245573286157,0.8838546932177745,-0.08791530058239164,-0.05292208589031504,0.7133021766860016,-1.0921338259398456,-0.20415833693433053,0.4395865268671617,0.960349803679285,2,left
11.445,0.17041261044527015,0.8846148526636888,-0.08680387079699457,-0.09995271767394334,0.6800745816280653,-1.0809939426527735,-0.20509379230335298,0.4398663151906169,0.9562729803130022,2,left
11.446,0.17303548592610518,0.8854653370301029,-0.08573244861604998,-0.14622774523002852,0.6476141732398228,-1.06949763008527,-0.20603367637545977,0.4400068920298525,0.9524952134763803,2,left
11.446,0.1756430181104314,0.8864089901975387,-0.08470179776790761,-0.19169194800521266,0.6159170299291946,-1.057669675063823,-0.2069780708332813,0.44002037410258354,0.9490123250055889,2,left
11.45,0.17822719947855645,0.8874486819299221,-0.08371262368780683,-0.23629195042986587,0.5849792014897537,-1.0455343391142613,-0.20792708352843348,0.43991890300380704,0.9458200517423898,2,left
11.450999999999999,0.18078009383145807,0.8885873022322769,-0.08276557315943144,-0.2799763737592309,0.5547967500044814,-1.0331153793774521,-0.20888085213810503,0.43971462299403474,0.9429140718992031,2,left
11.455,0.18329385060367145,0.8898277555945822,-0.08186123396180629,-0.32269598801197735,0.5253657883541804,-1.0204360754329482,-0.20983954764305146,0.4394196593070822,0.9402900305648717,2,left
11.456,0.1857607187246788,0.8911729551331886,-0.08100013451872232,-0.3644038630459421,0.49668251648631073,-1.0075192612705017,-0.21080337759438753,0.43904609708420217,0.9379435642320105,2,left
11.456,0.18817306004019846,0.8926258166407488,-0.08018274354802443,-0.40505551617585245,0.46874325596915717,-0.9943873605606279,-0.2117725891660293,0.4386059609518441,0.9358703243192581,2,left
11.459000000000001,0.19052336230357628,0.8941892525548595,-0.07940946970955708,-0.4446090528281993,0.44154448356226844,-0.9810624227702619,-0.21274747199554067,0.4381111952422185,0.9340659996808864,2,left
11.46,0.1928042517470564,0.8958661658566519,-0.07868066125328968,-0.48302529763238833,0.41508286433238606,-0.9675661582732573,-0.21372836081615315,0.43757364485561895,0.932526338097016,2,left
11.464,0.19500850524460778,0.8976594439123188,-0.07799660567185032,-0.5202679149766247,0.3893552844792405,-0.9539199716927783,-0.2147156378827443,0.43700503676326385,0.9312471667384714,2,left
11.465,0.19712906208092418,0.8995719522711281,-0.0773575293629992,-0.5563035189607008,0.36435888383384835,-0.9401449933164712,-0.21570973519457623,0.43641696214925974,0.9302244116010866,2,left
11.470999999999998,0.1991590353427987,0.9016065284332964,-0.07676359730784411,-0.5911017728559681,0.34009108795328646,-0.9262621085456917,-0.21671113651761217,0.43582085919017,0.9294541159050255,2,left
11.470999999999998,0.2010917229482928,0.9037659756013936,-0.0762149127715191,-0.6246354781794096,0.3165496397380285,-0.9122919853396311,-0.2177203792092488,0.4352279964705788,0.928932457455436,2,left
11.475,0.20292061832678807,0.9060530564291206,-0.07571151703435641,-0.6568806534852688,0.2937326305000304,-0.8982550996148142,-0.21873805584832104,0.4346494570329862,0.9286557649614909,2,left
11.475999999999999,0.2046394207609534,0.9084704867802184,-0.07525338916135774,-0.6878166029741418,0.2716385304118449,-0.8841717585601331,-0.21976481567325684,0.43409612306034545,0.9286205333115937,2,left
11.479000000000001,0.20624204540140886,0.9110209295079241,-0.07484044581548462,-0.7174259750158145,0.2502662182691325,-0.8700621218273258,-0.2208013658312833,0.43357866118956445,0.9288234378032425,2,left
