time,gFx,gFy,gFz,ax,ay,az,wx,wy,wz,subject_number,foot
4.363,0.1902803642993749,0.9674290166854042,-0.15455175143032088,4.0909970303120105,3.2634826121962512,0.029399069283856112,-0.12848014332218388,0.14451792002553585,1.6985615011800985,2,left
4.369,0.18343048631682013,0.9642917890878319,-0.1547244446179718,4.086747182303775,3.2111339053592665,-0.0017984762510562307,-0.12813202118287836,0.16623145129196323,1.6907831575861845,2,left
4.37,0.1766792449182823,0.9612359209680188,-0.15484875596839,4.080702940103439,3.1582258359203004,-0.032560041515879594,-0.12774647205542525,0.18747974995429414,1.6823317480736486,2,left
4.372,0.17003892640223642,0.9582605190161179,-0.15492387282852949,4.072800112244315,3.1048195760950166,-0.0628814293973356,-0.12733060798958273,0.20824713790589194,1.6732437451113313,2,left
4.372,0.16352153913711306,0.9553646773002769,-0.15494904298866252,4.062978122339669,3.050974848182311,-0.09275909815297533,-0.12689130284855252,0.22851887706545307,1.6635553724900547,2,left
4.377,0.15713878390911187,0.9525474796961306,-0.15492357969199277,4.051180196040895,2.9967498572912796,-0.1221901389308752,-0.12643518645919885,0.248281185292941,1.6533025598056905,2,left
4.377,0.1509020243316031,0.9498080023417124,-0.15484686652307167,4.037353534106778,2.9422012314723434,-0.15117225151326166,-0.12596863951754642,0.26752124954274215,1.64252089834956,2,left
4.382,0.14482225749218233,0.9471453161080214,-0.15471836218972668,4.021449471555495,2.8873839690979746,-0.17970371836988924,-0.12549778924830948,0.2862272363122493,1.6312455983784129,2,left
4.383,0.13891008503163083,0.9445584890707207,-0.15453760519709364,4.003423622865359,2.8323513933373645,-0.20778337710571418,-0.12502850581715574,0.3043882994426168,1.6195114477346078,2,left
4.387,0.13317568485507325,0.9420465889700331,-0.15430421839818054,3.9832360131844817,2.7771551135684613,-0.2354105913861181,-0.12456639949437773,0.32199458532693404,1.6073527717855984,2,left
4.388,0.1276287836718993,0.9396086856514031,-0.15401791339342755,3.960851195503565,2.7218449935700053,-0.26258522042164234,-0.12411681856863188,0.33903723557953036,1.5948033946504074,2,left
4.3919999999999995,0.12227863055063898,0.9372438534862514,-0.15367849474233533,3.936238353739951,2.6664691263355857,-0.28930758709289695,-0.12368484800940927,0.35550838721856276,1.5818966016794527,2,left
4.393,0.11713397166143646,0.934951173777874,-0.15328586394445018,3.9093713916748714,2.6110738153512587,-0.3155784447950098,-0.12327530887692172,0.3714011704124449,1.5686651031528727,2,left
4.396,0.11220302636544931,0.9327297371604631,-0.15284002314549588,3.8802290076795054,2.5557035621779423,-0.341398943079682,-0.12289275847812316,0.38670970383906017,1.5551409991613696,2,left
4.397,0.10749346479946882,0.930578645999043,-0.15234107852729262,3.8487947551591093,2.500401060179605,-0.366770592171617,-0.12254149126763529,0.40142908770506064,1.5413557456325646,2,left
4.402,0.10301238709505994,0.9284970167952211,-0.15178924334694394,3.815057088637962,2.445207194238209,-0.3916952264347956,-0.12222554049241129,0.41555539447089485,1.5273401214649205,2,left
4.4030000000000005,0.09876630436276759,0.9264839825990222,-0.15118484060008203,3.779009395401394,2.3901610462964378,-0.4161749668627751,-0.12194868057904729,0.4290856573255321,1.5131241967304516,2,left
4.406000000000001,0.09476112156086043,0.9245386954225518,-0.15052830529175595,3.7406500126045663,2.3352999065694218,-0.4402121826659027,-0.1217144302531362,0.4420178564746101,1.498737301934246,2,left
4.406000000000001,0.09100212235050999,0.9226603286481572,-0.14982018630442728,3.699982229751061,2.280659290266993,-0.46380945202704943,-0.12152605633212946,0.45435090341128803,1.4842079984559617,2,left
4.407,0.08749395601688727,0.920848079421906,-0.14906114785520647,3.6570142764377325,2.2262729596684196,-0.48696952209619354,-0.12138657804683388,0.46608462353043867,1.4695640505459264,2,left
4.412,0.08424062652275321,0.919101171021377,-0.14825197053456943,3.611759295255625,2.172172951392086,-0.5096952682929116,-0.12129877169876359,0.47721973755235264,1.4548323993857786,2,left
4.413,0.08124548376609426,0.9174188551839966,-0.14739355191681944,3.5642352997301443,2.1183896087032306,-0.5319896529845713,-0.12126517550872658,0.4877578421131522,1.440039139585376,2,left
4.416,0.07851121712181619,0.9158004143794651,-0.14648690672887987,3.5144651173543178,2.064951618651866,-0.5538556836539059,-0.12128809459861727,0.4977013896843318,1.4252094982393209,2,left
4.417,0.07603985134170908,0.9142451640092967,-0.14553316655994167,3.462476318648577,2.0118860535753034,-0.5752963709040977,-0.12136960609656243,0.5070536678748682,1.4103678165284002,2,left
4.418,0.07383274486807086,0.9127524545187157,-0.14453357909168615,3.4083011347690984,1.9592184160352701,-0.5963146870725222,-0.12151156436532903,0.5158187781461783,1.395537533823499,2,left
4.42,0.07189059059833487,0.9113216734092631,-0.14348950682564532,3.3519763670664755,1.9069726860020646,-0.6169135264587684,-0.1217156063540642,0.5240016139684978,1.3807411742494349,2,left
4.421,0.07021341912649787,0.9099522471425803,-0.14240242527852806,3.293543291103949,1.8551713693577965,-0.6370956679356313,-0.12198315707360566,0.5316078384455541,1.3660003356661297,2,left
4.426,0.06880060447274836,0.908643642928242,-0.14127392061266916,3.2330475560430534,1.8038355472572312,-0.6568637402863021,-0.12231543519577369,0.5386438614327272,1.351335681024564,2,left
4.427,0.06765087228608366,0.9073953703937385,-0.1401056866741818,3.1705390794121913,1.7529849261444979,-0.6762201903740765,-0.12271345877723411,0.5451168161722142,1.3367669320550528,2,left
4.43,0.06676231046743121,0.9062069831421407,-0.1388995214249887,3.1060719370903778,1.7026378882768916,-0.6951672542025649,-0.1231780511087034,0.5510345354670643,1.322312865245543,2,left
4.431,0.06613238211924684,0.9050780802098461,-0.13765732277037304,3.0397042483324683,1.6528115426083383,-0.7137069309231971,-0.12370984669045279,0.5564055274143113,1.3079913100678453,2,left
4.437,0.06575794068783848,0.904008307441354,-0.13638108379796196,2.971498055656419,1.603521775886487,-0.7318409598456347,-0.12430929733525622,0.5612389507158158,1.2938191494099913,2,left
4.438,0.06563524713259178,0.9029973587995184,-0.13507288745691956,2.9015191994075082,1.5547833038188248,-0.7495708005055218,-0.12497667840011861,0.5655445895838352,1.2798123221732278,2,left
4.44,0.06575998893500326,0.9020449776283992,-0.1337349007157716,2.8298371868089944,1.5066097221647152,-0.7668976158428409,-0.12571209514831283,0.5693328282567713,1.2659858279925458,2,left
4.441,0.06612730074900879,0.9011509578834888,-0.1323693682413841,2.7565250553034146,1.4590135576117966,-0.7838222585429685,-0.1265154892434482,0.5726146251390009,1.2523537340400663,2,left
4.447,0.06673178649010383,0.9003151453419991,-0.13097860564092878,2.6816592299836453,1.4120063182967546,-0.8003452605913676,-0.12738664537748767,0.5754014865771807,1.2389291838710745,2,left
4.448,0.06756754266259742,0.8995374388027195,-0.12956499230699894,2.6053193749079555,1.365598543832106,-0.8164668260916944,-0.12832519803482678,0.5777054402839344,1.225724408273013,2,left
4.45,0.06862818273100713,0.8988177912797165,-0.12813096390707335,2.527588238088614,1.319799854702292,-0.8321868273959391,-0.1293306383947411,0.5795390084183714,1.2127507380783051,2,left
4.45,0.06990686235121524,0.8981562111888148,-0.12667900456280715,2.448551489939147,1.2746190008940554,-0.847504804594068,-0.13040232137470464,0.5809151803314717,1.2000186189024642,2,left
4.455,0.07139630528687997,0.8975527635220476,-0.12521163876972996,2.3682975549611287,1.2300639096278154,-0.8624199684094804,-0.1315394728172741,0.5818473849829818,1.1875376277695828,2,left
4.456,0.0730888298454644,0.8970075710018739,-0.1237314231118678,2.2869174364473794,1.1861417320584844,-0.8769312065454377,-0.13274119682342578,0.5823494630351157,1.1753164915879544,2,left
4.459,0.07497637567690082,0.8965208152024123,-0.12224093782811474,2.204504533974719,1.1428588888159539,-0.8910370935264664,-0.13400648323542252,0.5824356386270453,1.1633631074392683,2,left
4.46,0.0770505307874278,0.8960927376198892,-0.12074277828676802,2.1211544534559166,1.1002211142572709,-0.9047359040775843,-0.13533421527247502,0.5821204908328865,1.15168456464555,2,left
4.4639999999999995,0.07930255863199365,0.8957236406696693,-0.11923954642088719,2.0369648095172552,1.0582334993043399,-0.9180256300830277,-0.1367231773226479,0.5814189248046547,1.140287168578746,2,left
4.465,0.08172342516122337,0.8954138885824442,-0.11773384217275407,1.9520350199651737,1.0169005327428249,-0.9309040011650038,-0.138172062894643,0.5803461426004675,1.129176466178636,2,left
4.468999999999999,0.0843038257143024,0.8951639081681375,-0.11622825499422951,1.8664660921027427,0.9762261408597727,-0.9433685089218121,-0.13967948273327108,0.5789176136971235,1.118357273145538,2,left
4.471,0.08703421166792323,0.8949741894141315,-0.11472535545107669,1.7803604006543434,0.9362137252993508,-0.9554164348635117,-0.14124397310259995,0.5771490451850727,1.1078337027750709,2,left
4.475,0.08990481677225022,0.8948452858847051,-0.11322768697963692,1.6938214570547807,0.8968661990179679,-0.9670448820821242,-0.14286400423344153,0.5750563516611026,1.0976091963745047,2,left
4.476,0.09290568312539302,0.8947778148912618,-0.11173775783990307,1.6069536698572382,0.8581860202219397,-0.978250810692172,-0.14453798889452923,0.5726556249249027,1.0876865550582313,2,left
4.476,0.09602668675588742,0.8947724574082663,-0.11025803330185355,1.5198620960129352,0.8201752241727589,-0.9890310770761574,-0.1462642909794363,0.5699631037500409,1.0780679724636464,2,left
4.48,0.09925756279447209,0.8948299577159262,-0.1087909281007208,1.4326521827741105,0.7828354527469403,-0.9993824769683837,-0.1480412339639644,0.5669951440908143,1.0687550677867614,2,left
4.482,0.10258793022062582,0.8949511227554977,-0.10733879920620953,1.3454294999710104,0.7461679816393283,-1.009301792409297,-0.14986710912636764,0.5637681899936954,1.059748918680557,2,left
4.484,0.10600731617052277,0.8951368211874614,-0.10590393896116268,1.258299462787497,0.7101737451605314,-1.0187858424940803,-0.15174018349039103,0.5602987453159047,1.051050093817057,2,left
4.485,0.1095051797961436,0.8953879821476929,-0.10448856864414141,1.1713670470324693,0.6748533588803559,-1.0278315373017932,-0.15365870748872895,0.5566033462609922,1.0426586850578066,2,left
4.485,0.11307093567006836,0.8957055937012807,-0.10309483249750066,1.0847365022754825,0.6402071409097465,-1.0364359334249778,-0.15562092235214436,0.5526985347221902,1.034574339206882,2,left
4.4910000000000005,0.1166939767346147,0.8960907009982669,-0.10172479224820073,0.9985110700881331,0.6062351329149546,-1.0445962889821994,-0.15762506722962658,0.5486008324236108,1.0267962893214446,2,left
4.492,0.12036369679691804,0.896544404141573,-0.10038042213914422,0.9127927127604305,0.57293712166031,-1.052310116530933,-0.15966938604509465,0.5443267158487037,1.0193233855557304,2,left
4.494,0.12406951257373695,0.8970678557833608,-0.09906360448090906,0.8276818544910026,0.5403126613392053,-1.0595752332620743,-0.16175213409627962,0.5398925919447947,1.0121541255152497,2,left
4.495,0.12780088529009873,0.8976622584696278,-0.09777612572475321,0.7432771351782347,0.5083610966555545,-1.0663898083922758,-0.1638715844015396,0.5353147745919679,1.0052866840988512,2,left
4.498,0.1315473418331159,0.8983288617541901,-0.09651967305069009,0.6596751765663107,0.47708158656006855,-1.0727524077762631,-0.16602603380047629,0.5306094618240492,0.998718942807178,2,left
4.499,0.1352984954571257,0.8990689591046709,-0.09529583146043705,0.5769703605018706,0.446473128547626,-1.0786620357599974,-0.16821380881433268,0.5257927137889871,0.9924485184969182,2,left
4.504,0.13904406602984204,0.8998838846259988,-0.09410608136112807,0.4952546190590172,0.41653458342394767,-1.0841181742942585,-0.17043327127225655,0.5208804314355157,0.9864727915611144,2,left
4.505,0.1427738998021977,0.9007750096304179,-0.09295179661951397,0.4146172362927117,0.3872647004517161,-1.0891208193269253,-0.17268282370961577,0.5158883359126178,0.9807889335166632,2,left
4.5089999999999995,0.14647798867823328,0.9017437390848848,-0.09183424305898417,0.33514466138316523,0.3586621427882072,-1.0936705144909262,-0.17496091454464635,0.5108319486679842,0.9753939339809824,2,left
4.5089999999999995,0.15014648895680152,0.9027915079664138,-0.09075457736638781,0.2569203329366723,0.3307255131284259,-1.0977683821035369,-0.17726604303980598,0.5057265722313905,0.9702846270206757,2,left
4.513999999999999,0.15376973951394124,0.9039197775552057,-0.08971384637430234,0.180024514211422,0.3034533794696585,-1.1014161514913954,-0.17959676405429204,0.5005872716686869,0.9654577168558591,2,left
4.515,0.15733827939270864,0.9051300316950194,-0.08871298668561556,0.10453413904016305,0.276844300915271,-1.1046161846543079,-0.18195169259426502,0.4954288566919057,0.9609098029046432,2,left
4.518,0.1608428647657477,0.9064237730488219,-0.08775282460779997,0.03052266822517863,0.2508968534374963,-1.107371499279623,-0.18432950816739668,0.49026586441085285,0.9566374041530882,2,left
4.519,0.16427448523646024,0.9078025193749784,-0.08683407636225136,-0.04194004381516557,0.22560965552086046,-1.1096857891176548,-0.18672895894843494,0.4851125427114528,0.9526369828367559,2,left
4.524,0.1676243794481024,0.9092677998465027,-0.08595734853107602,-0.11278787236500477,0.20098139360980574,-1.1115634417273565,-0.18914886576254827,0.47998283424605787,0.9489049674207886,2,left
4.525,0.1708840499740172,0.9108211514331764,-0.0851231387035808,-0.18195853590715524,0.1770108472859663,-1.1130095536001683,-0.1915881258932773,0.4748903610209217,0.9454377748662317,2,left
4.5280000000000005,0.1740452774647067,0.91246411536209,-0.08433183628908997,-0.24939370000491473,0.15369691410245065,-1.1140299426686948,-0.19404571672198437,0.4698484095660634,0.9422318321711014,2,left
4.529,0.17710013402992353,0.9141982336665266,-0.0835837234688879,-0.3150390717728758,0.13103863400437776,-1.1146311582056208,-0.19652069920575013,0.464869916672813,0.9392835971754682,2,left
4.532,0.18004099583738425,0.9160250458277561,-0.08287897626578417,-0.37884448513533564,0.10903521326680357,-1.114820488117029,-0.1990122212007229,0.4599674556844404,0.9365895786205883,2,left
4.533,0.18286055491358036,0.9179460855092081,-0.08221766571629385,-0.4407639770659085,0.08768604788306097,-1.1146059636330672,-0.20151952063797787,0.45515322332540936,0.9341463554528657,2,left
4.538,0.18555183013658114,0.919962877376842,-0.081599759137804,-0.5007558549968141,0.06699074633842052,-1.1139963613977046,-0.20404192855899522,0.4504390270549833,0.9319505953641676,2,left
4.539,0.1881081774160102,0.9220769339940299,-0.08102512148743116,-0.5587827555810396,0.046949151705860476,-1.1130012029581418,-0.2065788720179122,0.4458362729311244,0.9299990725607471,2,left
4.543,0.1905232990610898,0.9242897527745515,-0.08049351680883018,-0.6148116949851636,0.02756136300261503,-1.1116307516532775,-0.209129876857751,0.44135595397088223,0.9282886847537469,2,left
4.544,0.19279125234265646,0.9266028129733255,-0.08000460976276837,-0.6688141108851007,0.008827755748048236,-1.1098960068994974,-0.21169457036302425,0.437008638998615,0.926816469360444,2,left
4.544,0.19490645725793235,0.9290175726931488,-0.07955796724118251,-0.7207658963313941,-0.009250998334720383,-1.107808695870951,-0.21427268376694503,0.4328044619980113,0.9255796188834768,2,left
4.548,0.19686370350718613,0.93153546588805,-0.07915306007029695,-0.770647425644949,-0.026673912529133526,-1.1053812625704047,-0.2168640545479209,0.4287531120279827,0.9245754953952653,2,left
4.5489999999999995,0.198658156690842,0.9341578993454783,-0.0787892648123579,-0.8184435724982895,-0.04343966730127244,-1.1026268542857096,-0.21946862842583337,0.4248638237871853,0.9238016440328978,2,left
4.553,0.2002853637359123,0.9368862496271355,-0.07846586567701272,-0.8641437203064807,-0.05954659348708965,-1.0995593054518427,-0.22208646099286047,0.4211453688880298,0.923255805432058,2,left
4.553999999999999,0.20174125756169303,0.9397218599465238,-0.07818205655217084,-0.9077417649206198,-0.07499265650163384,-1.096193119067135,-0.2247177189572267,0.41760604785773053,0.9229359270699535,2,left
4.553999999999999,0.20302216099539303,0.9426660369640264,-0.07793694316066595,-0.9492361093852765,-0.08977544152039474,-1.0925434460447003,-0.22736268100252013,0.4142536828600999,0.9228401735104954,2,left
4.558,0.20412478994881705,0.9457200474826756,-0.07772954534566656,-0.9886296503899507,-0.10389213954832531,-1.0886260630088105,-0.23002173827009684,0.41109561112742377,0.9229669355501542,2,left
4.559,0.20504625586815095,0.9488851150256453,-0.0775587994868368,-1.0259297561638898,-0.1173395343228762,-1.0844573489154774,-0.2326953944721321,0.4081386790922677,0.923314838263573,2,left
4.562,0.20578406747036898,0.9521624162744889,-0.07742356105171637,-1.0611482357831128,-0.13011399005429075,-1.080054260642349,-0.23538426564291784,0.4053892372095987,0.9238827479486543,2,left
4.563,0.20633613178108198,0.9555530773501348,-0.07732260729262466,-1.0943012999777626,-0.1422114400371717,-1.075434307562628,-0.23808907953604574,0.4028531354601659,0.9246697779714853,2,left
4.5680000000000005,0.20670075448881192,0.9590581699255059,-0.07725464010567093,-1.1254095135469677,-0.15362737617194216,-1.0706155250910734,-0.2408106746751587,0.40053571952665856,0.9256752935120969,2,left
4.569,0.20687663962934322,0.9626787071665479,-0.07721828907021472,-1.1544977394824187,-0.1643568394328903,-1.0656164471894751,-0.24354999906599575,0.3984418276347555,0.9268989152126871,2,left
4.572,0.20686288861129482,0.9664156395059851,-0.07721211468273108,-1.1815950748959467,-0.17439441131754038,-1.0604560778183665,-0.24630810857750313,0.3965757880517926,0.9283405217305687,2,left
4.573,0.2066589985903711,0.970269850259812,-0.0772346117922614,-1.206734778840521,-0.18373420631013426,-1.0551538613211735,-0.24908616499983185,0.3949414172364007,0.9300002511987262,2,left
4.578,0.20626486019453688,0.9742421510996847,-0.07728421324007595,-1.2299541921082904,-0.192369865390035,-1.0497296517264787,-0.2518854337870932,0.393542018633109,0.9318785015975004,2,left
4.58,0.20568075459584356,0.9783332773953847,-0.07735929370499511,-1.2512946490835866,-0.20029455061387497,-1.0442036809536195,-0.254707281492798,0.3923803821065605,0.9339759300415399,2,left
4.582,0.20490734991781612,0.9825438834407498,-0.07745817375656706,-1.2708013817231862,-0.20750094079826542,-1.03859652590643,-0.25755317290596297,0.39145878401065237,0.9362934509867897,2,left
4.583,0.2039456969620492,0.9868745375743563,-0.07757912411904166,-1.288523415730626,-0.21398122832786073,-1.0329290744395894,-0.2604246678959292,0.3907789878885868,0.9388322333629137,2,left
4.586,0.20279722423624785,0.9913257172034,-0.07772037014770401,-1.3045134589859733,-0.2197271171115271,-1.0272224901817437,-0.2633234179740013,0.3903422458004997,0.941593696637177,2,left
4.587,0.20146373226967515,0.9958978037356279,-0.07788009651414902,-1.3188277822871939,-0.22472982170730105,-1.021498176199341,-0.2662511625800868,0.39014930027602407,0.944579505816451,2,left
4.592,0.19994738721048178,1.0005910774198952,-0.07805645208921987,-1.331526092454143,-0.2289800676347357,-1.015777737484943,-0.2692097251025887,0.3902003868898382,0.9477915653946355,2,left
4.593,0.19825071371108918,1.0054057120921864,-0.0782475550039342,-1.3426713978412355,-0.23246809289112255,-1.0100829422536675,-0.2722010086398812,0.39049523745894493,0.9512320122534338,2,left
4.5969999999999995,0.1963765871203463,1.010341769821896,-0.07845149786153514,-1.3523298663000436,-0.23518365068594022,-1.004435682031358,-0.27522699151178387,0.3910330838611283,0.954903207525064,2,left
4.598,0.19432822501272162,1.0153991954527408,-0.0786663530683219,-1.36057067562844,-0.23711601340571895,-0.9988579305181038,-0.2782897225295373,0.39181266247473434,0.9588077274261376,2,left
4.602,0.19210917809392472,1.0205778110337291,-0.07889017824697968,-1.3674658565384414,-0.23825397781931856,-0.9933717012107888,-0.2813913160328784,0.39283221924062095,0.9629483530725956,2,left
4.603,0.1897233205274182,1.0258773101389833,-0.07912102169282657,-1.3730901281706525,-0.2385858715313984,-0.9879990037684984,-0.28453394670291116,0.3940895153478192,0.96732805928625,2,left
4.607,0.18717483972690277,1.0312972520805355,-0.07935692782952529,-1.3775207261791356,-0.23809956068960578,-0.9827617991048079,-0.2877198441595769,0.39558183354514215,0.9719500024041576,2,left
4.6080000000000005,0.18446822565786924,1.036837056023207,-0.07959594261734568,-1.380837223406678,-0.2367824589487272,-0.9776819531912374,-0.2909512873526388,0.3973059850816644,0.9768175071027263,2,left
4.611000000000001,0.18160825968871436,1.0424959950142976,-0.07983611886694521,-1.3831213431667764,-0.23462153769272986,-0.9727811895564878,-0.2942305987552128,0.3992583172796797,0.9819340522491401,2,left
4.612,0.17860000302867268,1.0482731899440736,-0.08007552141602556,-1.3844567651452429,-0.2316033375132687,-0.9680810404664596,-0.2975601383704431,0.4014347217382074,0.987303255805676,2,left
4.613,0.17544878478412387,1.0541676034561884,-0.08031223213375514,-1.38492892393113,-0.22771398094084758,-0.9636027967705082,-0.30094229756925595,0.4038306431347484,0.9929288588746145,2,left
4.6160000000000005,0.17216018965787824,1.0601780338285736,-0.080544354725145,-1.3846248001837211,-0.22293918642239768,-0.9593674563999032,-0.30437949279022947,0.406441088537771,0.998814709082731,2,left
4.617,0.16874004531454484,1.0663031088445536,-0.08077001931009482,-1.3836327044396053,-0.21726428353657315,-0.9553956715050357,-0.3078741591399672,0.4092606371120141,1.0049647435665106,2,left
4.621,0.16519440944192532,1.072541279673198,-0.08098738675020235,-1.3820420537806892,-0.21067422943491776,-0.9517076942839935,-0.31142874392530906,0.41228345013036316,1.0113829717585336,2,left
4.621,0.16152955654520063,1.0788908147787406,-0.08119465269763265,-1.3799431426783306,-0.20315362649130345,-0.948323321883021,-0.3150457001359049,0.41550328126253894,1.018073458065665,2,left
4.622,0.15775196451090112,1.0853497938802361,-0.08139005134746662,-1.377426911300595,-0.1946867411336772,-0.9452618413391,-0.31872747988863503,0.4189134871424789,1.0250403044690062,2,left
4.625,0.15386830097846743,1.0919161019837476,-0.08157185888353816,-1.3745847156644744,-0.18525752382631464,-0.9425419758628946,-0.3224765278440954,0.4225070382230815,1.032287633064059,2,left
4.627,0.14988540956630234,1.09858742351115,-0.08173839661353546,-1.3715081029169005,-0.17484963017131325,-0.9401818334339823,-0.3262952746055422,0.4262765299275487,1.0398195685603264,2,left
4.631,0.1458102960117812,1.1053612365516385,-0.08188803379120359,-1.3682885930533792,-0.16344644310111667,-0.9381988580922552,-0.33018613011087894,0.4302141941071081,1.047640220760378,2,left
4.631,0.14165011429318264,1.112234807262553,-0.0820191901216472,-1.3650174672855961,-0.15103109613430463,-0.9366097839831571,-0.3341514770284609,0.4343119108154219,1.0557536670392031,2,left
4.636,0.1374121528046994,1.1192051844451265,-0.08213033794132973,-1.3617855630493445,-0.13758649766471445,-0.9354305921500135,-0.338193664167692,0.4385612204104957,1.0641639348455005,2,left
4.637,0.1331038206550697,1.126269194319583,-0.08222000406147566,-1.3586830756437311,-0.12309535625109914,-0.934676470067796,-0.3423149999155969,0.4429533359953797,1.0728749842473826,2,left
4.64,0.1287326341583399,1.1334234355223525,-0.08228677126469186,-1.355799366492452,-0.10754020687161912,-0.9343617739137869,-0.34651774571076494,0.4474791562094178,1.0818906905458052,2,left
4.64,0.12430620358521086,1.140664274345176,-0.08232927944832875,-1.3532227780180506,-0.09090343810450766,-0.9344999935717918,-0.35080410956628283,0.45212927838223127,1.0912148269798967,2,left
4.648,0.11983222024597971,1.147987840232082,-0.08234622641290519,-1.3510404551204391,-0.07316732019324354,-0.9351037203677651,-0.35517623965350054,0.45689401206303487,1.100851047549216,2,left
4.649,0.11531844397857959,1.1553900215469257,-0.08233636830017171,-1.3493381732515872,-0.05431403395150688,-0.9361846175359716,-0.359636217958708,0.461763392938268,1.110802869978849,2,left
4.65,0.11077269111540555,1.1628664616221662,-0.08229851969344125,-1.348200173079166,-0.03432570046008691,-0.9377533934161096,-0.3641860540250419,0.46672719715087674,1.1210736588541372,2,left
4.651,0.10620282299974192,1.1704125550991613,-0.08223155340164402,-1.347709001733061,-0.013184411504752398,-0.9398197773831556,-0.36882767879218625,0.4717749560349145,1.1316666089527265,2,left
4.657,0.10161673511634617,1.178023444571321,-0.0821343999550446,-1.3479453606300464,0.009127739299114384,-0.942392498513056,-0.37356293854668304,0.4768959712794274,1.1425847288025355,2,left
4.658,0.09702234689124034,1.1856940175432753,-0.08200604684184772,-1.3489879598735273,0.032628624752579834,-0.9454792669887967,-0.37839358899592856,0.482079330535861,1.1538308244951518,2,left
4.66,0.09242759220293062,1.1934189037215481,-0.08184553751345808,-1.3509133792271153,0.057336051750689204,-0.9490867582528029,-0.3833212894791932,0.4873139234834665,1.1654074837850967,2,left
4.6610000000000005,0.08784041063110118,1.201192472655288,-0.08165197018730676,-1.3537959356628853,0.08326772845560014,-0.9532205999130784,-0.388347597329271,0.4925884583673945,1.1773170605063272,2,left
4.665,0.08326873945167636,1.2090088317491008,-0.08142449647989665,-1.357707557487471,0.11044123103286975,-0.9578853614119658,-0.39347396239864046,0.4978914790243423,1.1895616593382885,2,left
4.665,0.07872050637273954,1.216861824672954,-0.08116231990520771,-1.3627176650516954,0.1388739700219111,-0.9630845464679022,-0.3987017217642958,0.5032113824107682,1.2021431209547786,2,left
4.67,0.07420362299506468,1.2247450301958134,-0.08086469427630007,-1.3688930580521659,0.16858315641515184,-0.9688205883020565,-0.4040320946256905,0.5085364366488015,1.2150630075898432,2,left
4.671,0.06972597897160736,1.23265176147003,-0.08053092205581842,-1.3762978094362257,0.19958576752399482,-0.9750948476632559,-0.4094661774105236,0.513854799605055,1.2283225890558789,2,left
4.675,0.06529543683027049,1.2405750657922763,-0.08016035271147835,-1.384993165924797,0.23189851271329712,-0.9819076136661435,-0.4150049391033884,0.5191545380175997,1.241922829250093,2,left
4.676,0.060919827414205055,1.248507724864281,-0.07975238113539933,-1.395037455170989,0.26553779908975095,-0.9892581074590466,-0.42064921681259926,0.5244236471863725,1.2558643731864372,2,left
4.681,0.05660694588503756,1.2564422555745496,-0.07930644617722557,-1.4064859995758832,0.30051969723326455,-0.9971444887395832,-0.42639971159080875,0.5296500712422694,1.270147534591108,2,left
4.6819999999999995,0.0523645482273466,1.2643709113224693,-0.07882202932755222,-1.4193910367865938,0.33685990706420416,-1.0055638651375733,-0.4322569845197949,0.5348217239887042,1.284772284088239,2,left
4.683,0.04820034818979398,1.2722856839082375,-0.07829865357847489,-1.4338016469055834,0.3745737239431685,-1.0145123044863695,-0.43822145304242577,0.5399265102022235,1.2997382379411528,2,left
4.684,0.04412201459991006,1.2801783060143923,-0.07773588248322712,-1.4497636864442276,0.4136760051038236,-1.0239848500052535,-0.4442933874753068,0.5449523470858693,1.3150446472035004,2,left
4.685,0.040137168987840595,1.288040254307255,-0.07713331943421019,-1.4673197290578124,0.4541811365232258,-1.0339755384170806,-0.45047290760824643,0.5498871854617239,1.3306903870733593,2,left
4.69,0.036253383445363746,1.2958627531891207,-0.07649060717512039,-1.4865090130661052,0.49610300027812015,-1.0444774209788752,-0.45675997932465856,0.5547190303959776,1.3466739463065758,2,left
4.691,0.03247817864184768,1.303636779232944,-0.07580742755579473,-1.5073673955813185,0.5394549421402497,-1.0554825871646507,-0.4631544112271371,0.5594359611424121,1.3629934166586395,2,left
4.691,0.02881902192701109,1.311353066330212,-0.07508350152904432,-1.5299273127336663,0.5842497386287538,-1.0669821903093182,-0.4696558512804212,0.5640261503970322,1.3796464823875851,2,left
4.694,0.025283325459956877,1.3190021115815787,-0.07431858937994386,-1.5542177453026271,0.6304995624423638,-1.0789664742840717,-0.4762637834898113,0.5684778828776984,1.396630409863834,2,left
4.695,0.02187844430333691,1.326574181959623,-0.07351249117019996,-1.5802641892535843,0.6782159454976494,-1.0914248005150258,-0.4829775246334047,0.5727795732422878,1.4139420373338525,2,left
4.7,0.01861167441621888,1.3340593217725178,-0.07266504737437218,-1.6080886310205906,0.7274097393427007,-1.1043456750901897,-0.4897962210668265,0.5769197833585415,1.4315777648854593,2,left
4.7010000000000005,0.015490250478010028,1.3414473609549773,-0.07177613968321142,-1.637709527567736,0.7780910730192463,-1.1177167759411955,-0.4967188456194377,0.5808872389383651,1.4495335446635682,2,left
4.704,0.012521343478196941,1.3487279242087324,-0.07084569195129112,-1.669141791303989,0.8302693085103078,-1.1315249801355436,-0.5037441946013044,0.5846708455489137,1.467804871386087,2,left
4.705,0.009712058010266613,1.355890441011009,-0.06987367126802999,-1.7023967799314867,0.8839529939147311,-1.1457563913164615,-0.5108708849405152,0.5882597040123314,1.4863867732106288,2,left
4.708,0.007069429213650142,1.3629241565068022,-0.0688600891314366,-1.7374822913123933,0.9391498144942134,-1.1603963673287536,-0.5180973514707305,0.5916431252055186,1.5052738030036075,2,left
4.709,0.004600419314813572,1.369818143296836,-0.06780500270315358,-1.774402563444654,0.995866541742732,-1.1754295480702825,-0.5254218443891427,0.5948106442707726,1.5244600300641946,2,left
4.7139999999999995,0.002311913725542454,1.3765613141266113,-0.06670851612308515,-1.813158279642193,1.0541089806326156,-1.1908398836099336,-0.5328424269053177,0.5977520342475883,1.5439390323565094,2,left
4.715,0.0002107166612678788,1.3831424354744875,-0.06557078186230159,-1.85374657902035,1.1138819151958361,-1.2066106626140853,-0.5403569731016726,0.6004573191353177,1.5637038893042814,2,left
4.718999999999999,-0.0016964537548541958,1.3895501420299072,-0.06439200209416031,-1.8961610723926268,1.175189052603465,-1.2227245411247358,-0.5479631660266274,0.6029167863957636,1.5837471752030945,2,left
4.72,-0.0034029709342955957,1.395772952047417,-0.06317243006753048,-1.9403918636900663,1.238032965910622,-1.2391635717335236,-0.5556584960417431,0.6051209989041366,1.604060953306153,2,left
4.725,-0.004902305842191981,1.4017992835586504,-0.06191237147273082,-1.9864255770198553,1.3024150356386328,-1.2559092331969064,-0.563440259444429,0.6070608063561266,1.6246367706403304,2,left
4.726,-0.006188033621549084,1.4076174714222642,-0.06061218579677673,-2.034245389484969,1.3683353903705229,-1.2729424605387525,-0.5713055573880637,0.6087273561381328,1.6454656536100685,2,left
4.729,-0.007253840849470387,1.4132157851898555,-0.05927228766746401,-2.083831069891897,1.4357928465403826,-1.2902436756875288,-0.5792512951216315,0.6101121036669657,1.6665381044474576,2,left
4.73,-0.008093533450616674,1.4185824477645794,-0.05789314818611709,-2.1351590234786566,1.504784847601557,-1.3077928186961496,-0.5872741815712222,0.6112068222045735,1.6878440985675958,2,left
4.7330000000000005,-0.00870104529143071,1.4237056548289064,-0.05647529624700492,-2.1882023428004165,1.5753074027630272,-1.325569379593379,-0.595370729285982,0.6120036121525627,1.7093730828890332,2,left
4.7330000000000005,-0.009070447476902109,1.428573595017642,-0.05501931983809943,-2.242930864915138,1.6473550254877696,-1.3435524309164415,-0.6035372547713357,0.6124949098304737,1.7311139751798235,2,left
4.738,-0.009195958368484516,1.433174470811035,-0.05352586731365005,-2.2993112350166185,1.7209206719512768,-1.3617206609752122,-0.6117698792325199,0.6126734957409379,1.7530551644903596,2,left
4.739,-0.009071954334646927,1.4374965201203573,-0.05199564862244575,-2.357306976667255,1.7959956796628205,-1.3800524078990097,-0.6200645297516777,0.61253250232399,1.7751845127348245,2,left
4.743,-0.008692981233720863,1.4415280385338929,-0.0504294364648037,-2.4168785687876753,1.8725697064564177,-1.3985256945176063,-0.6284169409219678,0.6120654212019307,1.7974893574836774,2,left
4.743,-0.008053766614435711,1.4452574021838998,-0.04882806733784402,-2.4779835295651256,1.9506306700628122,-1.4171182641286,-0.6368226569623286,0.6112661099152389,1.8199565160301931,2,left
4.748,-0.007149232606276776,1.4486730911867465,-0.047192442417310305,-2.5405765074471325,2.0301646884781226,-1.4358076172037637,-0.6452770343240457,0.6101287981579376,1.8425722907641129,2,left
4.749,-0.005974509463581526,1.4517637136049648,-0.04552352822111612,-2.604609379391484,2.111156021349106,-1.4545710490873944,-0.6537752447370777,0.6086480935640086,1.865322475733623,2,left
4.75,-0.004524949724526854,1.4545180298831344,-0.04382235700679787,-2.670031356547973,2.1935870125992545,-1.473385688740021,-0.6623122785302082,0.6068189871749148,1.8881923640030682,2,left
4.753,-0.0027961429410580077,1.4569249777087225,-0.042090026865792024,-2.7367890975516045,2.277438034524176,-1.4922285385811156,-0.6708829479958686,0.6046368587614475,1.9111667552618696,2,left
4.753,-0.0007839309220394029,1.4589736972354457,-0.04032770148677595,-2.8048268296111116,2.3626874335888823,-1.5110765154846606,-0.6794818906339639,0.6020974821280033,1.9342299632928739,2,left
4.7589999999999995,0.0015155765835862115,1.4606535565904137,-0.0385366095710685,-2.874086477341571,2.449311478129518,-1.5299064929308792,-0.688103572223188,0.5991970304469739,1.957365823182955,2,left
4.76,0.0041059858418468435,1.4619541775837435,-0.036718043895627925,-2.9445077980985337,2.537284307995015,-1.548695344064071,-0.696742289731763,0.5959320816257959,1.9805576983113593,2,left
4.76,0.006990602799807493,1.4628654615494723,-0.03487336002801794,-3.0160285204234385,2.626577885860127,-1.5674199849502901,-0.7053921740922967,0.5922996236993574,2.0037884871820197,2,left
4.762,0.010172416535115613,1.4633776152508373,-0.033003974701799756,-3.0885844810183642,2.7171619497741215,-1.586057417075111,-0.714047192865511,0.5882970602394226,2.027040630166262,2,left
4.763,0.013654082576906512,1.4634811767710638,-0.03111136386353032,-3.1621097568667174,2.8090039666843936,-1.6045847683750432,-0.7227011528176464,0.5839222157716873,2.0502961162224884,2,left
4.768,0.017437906207576345,1.4631670412943951,-0.02919706040513841,-3.2365367912709457,2.9020690869861094,-1.6229793325522037,-0.7313477024363803,0.5791733411900253,2.073536489659546,2,left
4.769,0.021525825868800485,1.462426486674633,-0.02726265159875013,-3.311796513776536,2.9963201003237976,-1.6412186066750438,-0.7399803344101047,0.5740491191564225,2.096742857010524,2,left
4.773,0.02591939679939767,1.461251198689783,-0.02530977625652586,-3.3878184541933636,3.0917173929086563,-1.6592803271183048,-0.7485923880954163,0.5685486694740284,2.119895894083761,2,left
4.774,0.030619775030648312,1.4596332958869882,-0.02334012164413551,-3.464530850928052,3.188218906618846,-1.6771425038950007,-0.7571770519976374,0.5626715544196769,2.1429758532577736,2,left
4.777,0.03562770185830339,1.457565353929361,-0.021355420179480108,-3.5418607538434004,3.2857801001534392,-1.6947834534327726,-0.7657273662891588,0.5564177840211577,2.1659625710867405,2,left
4.7780000000000005,0.040943488901203896,1.4550404293634025,-0.019357445947209163,-3.6197341218631105,3.384353912513988,-1.7121818298464535,-0.7742362253903257,0.549787821263433,2.1888354762830047,2,left
4.782,0.04656700384459495,1.4520520827309942,-0.017348011056815327,-3.698075915542027,3.483890729090839,-1.7293166547581147,-0.7826963806375156,0.5427825872069177,2.2115735981428517,2,left
4.783,0.05249765695099592,1.4485944009530125,-0.01532896186949944,-3.7768101848238835,3.5843383506343565,-1.746167345715222,-0.7911004430629536,0.5354034659998598,2.2341555754815645,2,left
4.787,0.05873438840283228,1.4446620189118344,-0.013302175115051478,-3.855860152210105,3.68564196539413,-1.7627137432568387,-0.7994408863106963,0.5276523097657723,2.2565596661434064,2,left
4.788,0.06527565652031883,1.4402501401561392,-0.011269553910870561,-3.935148291564549,3.7877441247119923,-1.778936136677052,-0.807710049713068,0.5195314433458019,2.2787637571518116,2,left
4.792,0.07211942687795796,1.4353545566426373,-0.009233023679015597,-4.014596402780215,3.890584722357288,-1.7948152885339925,-0.8159001415516787,0.5110436688748348,2.3007453755646097,2,left
4.793,0.07926316232893002,1.4299716674168617,-0.007194527937414907,-4.094125682534832,3.994100977895287,-1.810332457951931,-0.8240032425269662,0.5021922701690799,2.322481700098596,2,left
4.797,0.08670381394687131,1.4240984961223278,-0.0051560239277548365,-4.173656791362944,4.09822742438193,-1.8254694227630206,-0.8320113094600019,0.49298101690180685,2.3439495735871825,2,left
4.797,0.0944378129160417,1.4177327072175347,-0.0031194780455905077,-4.253109917272538,4.202895900680205,-1.8402085005342552,-0.8399161792500685,0.4834141685428623,2.3651255163342335,2,left
4.802,0.10246106344480886,1.410872620775816,-0.0010868610594565165,-4.332404836134526,4.308035548695379,-1.8545325685241831,-0.8477095731112725,0.47349647803654404,2.385985740426476,2,left
4.802,0.11076893683810171,1.403517225746141,0.0009398568644086088,-4.411460969073378,4.413572815828076,-1.868425082612826,-0.8553831011111788,0.46323319519138156,2.4065061650661033,2,left
4.8069999999999995,0.11935626693085721,1.395666191564564,0.002958711287472606,-4.49019743708697,4.519431462945722,-1.8818700952470988,-0.8629282670341575,0.4526300697543497,2.4266624329843562,2,left
4.808,0.1282173471410859,1.3873198780252283,0.004967748708174672,-4.568533113123288,4.625532578174257,-1.8948522724428558,-0.8703364735918123,0.44169335414103716,2.4464299279959576,2,left
4.812,0.1373459294317125,1.3784793433453801,0.006965031771283728,-4.646386671840889,4.731794596813108,-1.9073569098834273,-0.8775990280025191,0.43042980579229667,2.4657837937532925,2,left
4.813,0.14673522546305717,1.3691463503892,0.008948644380763654,-4.723676637279173,4.838133327677362,-1.9193699481532471,-0.8847071479617284,0.4188466891269318,2.484698953758189,2,left
4.817,0.15637791016996855,1.3593233710473287,0.010916696612358359,-4.80032142866329,4.944461986171775,-1.930877987143825,-0.8916519680242962,0.40695177705901586,2.503150132688032,2,left
4.8180000000000005,0.16626612791969275,1.3490135887970753,0.012867329322116225,-4.876239404567187,5.050691234401691,-1.9418682996679606,-0.8984245464100866,0.3947533520448899,2.521111879062643,2,left
4.819,0.17639150132365483,1.3382208994841007,0.01479871835865986,-4.9513489056566335,5.156729228626162,-1.9523288443166813,-0.9050158721956393,0.3822602066109056,2.538558589131599,2,left
4.821000000000001,0.1867451427112931,1.3269499103670046,0.016709078310918356,-5.025568296232247,5.262481674358532,-1.9622482775919354,-0.9114168727678146,0.36948164328857536,2.555464531598361,2,left
4.821000000000001,0.19731766822436594,1.315205937463675,0.018596665749220913,-5.09881600479042,5.367851889419464,-1.971615965346584,-0.9176184213668285,0.35642747386985735,2.5718038726506722,2,left
4.8260000000000005,0.20809921444474014,1.3029950012425826,0.02045978193691914,-5.171010563859005,5.472740875148157,-1.9804219935481342,-0.9236113445935751,0.34310801790752016,2.587550700910729,2,left
4.827,0.2190794574410432,1.2903238207026733,0.022296775004830093,-5.2420706495683635,5.577047395483383,-1.988657178313163,-0.929386429841998,0.32953410040822456,2.602679052179001,2,left
4.828,0.23024763412259472,1.2771998058717273,0.02410604159850635,-5.311915121786904,5.680668062736922,-1.9963130750355094,-0.9349344326647052,0.3157170486782311,2.6171629339894906,2,left
4.83,0.24159256579756705,1.2636310487365399,0.025886028036408493,-5.380463065853528,5.783497428387295,-2.0033819863617786,-0.9402460840890235,0.3016686882834934,2.6309763500215975,2,left
4.831,0.25310268381807977,1.2496263126122125,0.027635231066072765,-5.447633836729847,5.885428077713302,-2.0098569688339847,-0.9453120979000622,0.2874013380851678,2.644093324412006,2,left
4.837,0.2647660571656739,1.235195019958688,0.02935219837429116,-5.513347106020193,5.9863507279728445,-2.015731838139785,-0.9501231779067044,0.2729278043108711,2.6564879260081384,2,left
4.838,0.2765704218026266,1.2203472386533485,0.031035529070688562,-5.577522912097421,6.086154330323562,-2.0210011729770154,-0.9546700252057668,0.25826137362135687,2.6681342926028035,2,left
4.841,0.2885032115894585,1.2050936667287324,0.032683874382657165,-5.6400817135273025,6.184726175777845,-2.025660317551112,-0.9589433454588577,0.24341580513165106,2.6790066551876643,2,left
4.842,0.3005515905474327,1.1894456155859594,0.03429593874826891,-5.7009444459801175,6.281952005481931,-2.029705382722281,-0.9629338561957376,0.22840532134509703,2.6890793622610807,2,left
4.846,0.312702486227763,1.1734149916996597,0.035870481384670014,-5.76003258281363,6.377716125605522,-2.0331332458175506,-0.9666322941572209,0.2132445979582068,2.6983269042237232,2,left
4.8469999999999995,0.3249426239317784,1.1570142768430565,0.03740631828696483,-5.81726819950699,6.471901527124872,-2.0359415491210795,-0.9700294226898769,0.19794875249370203,2.7067239378931403,2,left
4.852,0.3372585615075424,1.1402565068823576,0.03890232452475256,-5.872574042120231,6.564390010778387,-2.03812869705433,-0.9731160392039752,0.18253333171865477,2.7142453111661524,2,left
4.853,0.3496367244379355,1.1231552492106731,0.04035743667565993,-5.92587359994895,6.655062317469598,-2.039693852055954,-0.9758829827052758,0.16701429780420848,2.7208660878555966,2,left
4.856,0.36206344094298737,1.1057245789049215,0.04177065526007641,-5.977091182538421,6.743798264387814,-2.0406369291694526,-0.9783211414104088,0.15140801318297137,2.7265615727254766,2,left
4.8580000000000005,0.3745249768431684,1.0879790536937992,0.04314104708774095,-6.026152001215855,6.8304768871118995,-2.040958589344894,-0.9804214604546854,0.13573122405983218,2.7313073367460827,2,left
4.861000000000001,0.38700756995875985,1.069933687827648,0.0444677474626115,-6.072982255293758,6.914976587957393,-2.040660231459183,-0.9821749497002732,0.12000104253165174,2.7350792425880406,2,left
4.862,0.3994974638462305,1.0516039249482598,0.04574996220298047,-6.11750922309137,6.997175290821617,-2.0397439830575927,-0.9835726916517188,0.10423492727103353,2.737853470371602,2,left
4.865,0.4119809406954882,1.0330056100712224,0.04698696942341943,-6.159661357914948,7.076950602775532,-2.0382126898174877,-0.9846058494848333,0.08845066272917512,2.739606543684754,2,left
4.865,0.42444435323154217,1.0141549608172227,0.04817812100705223,-6.199368389131277,7.154179982644799,-2.0360699037333845,-0.9852656751939565,0.0726663368126489,2.7403153558809357,2,left
4.87,0.4368741554829407,0.9950685380581381,0.04932284368552622,-6.236561428462182,7.22874091681594,-2.033319870020722,-0.9855435178615977,0.056900316988859244,2.739957196664285,2,left
4.872,0.44925693230398606,0.9757632161660649,0.050420639652041466,-6.271173081620951,7.300511102496499,-2.029967512733953,-0.9854308320534022,0.04117122477487069,2.7385097789673916,2,left
4.876,0.4615794275688325,0.9562561530579509,0.05147108666609344,-6.303137565404614,7.369368638650798,-2.0260184190928108,-0.984919186340321,0.02549790856430258,2.7359512661235503,2,left
4.876,0.47382857098447223,0.9365647602179336,0.05247383766585204,-6.332390830348769,7.435192224825217,-2.021478822508855,-0.9840002719487613,0.00989941474703872,2.7322602993324376,2,left
4.879,0.4859915034874116,0.9167066728644475,0.053428619971200846,-6.358870689044235,7.49786136806891,-2.0163555843026892,-0.9826659115383778,-0.005605042923392798,2.7274160254150015,2,left
4.88,0.4980556011951057,0.8966997204150218,0.05433523420971721,-6.382516950207246,7.557256598147521,-2.0106561741005105,-0.9809080681060174,-0.020996115759753922,2.721398124850176,2,left
4.8839999999999995,0.5100084978850178,0.8765618973859347,0.055193553109049075,-6.403271558587059,7.613259691238713,-2.004388648896966,-0.9787188540131575,-0.03625435441311401,2.7141868400827702,2,left
4.885,0.5218381059762122,0.8563113348437782,0.05600352027921559,-6.421078740786934,7.665753902289295,-1.9975616307696185,-0.9760905401329899,-0.051360245031448766,2.705763004088563,2,left
4.886,0.5335326359892583,0.835966272501408,0.05676514907969994,-6.435885157066275,7.714624206204317,-1.9901842832286603,-0.9730155651138588,-0.06629424729604973,2.6961080691696484,2,left
4.891,0.5450806144606579,0.8155450315207419,0.05747852164209929,-6.447640059183471,7.759757548028768,-1.9822662861838931,-0.9694865447634147,-0.08103683406187367,2.685204135901447,2,left
4.8919999999999995,0.5564709002907068,0.7950659880527176,0.058143788099899014,-6.456295454330417,7.801043102272428,-1.973817809509381,-0.9654962815725783,-0.09556853185103123,2.6730339820625835,2,left
4.895,0.5676926995045908,0.7745475475227437,0.05876116606195155,-6.461806274906543,7.838372541173212,-1.9648494852199585,-0.9610377744060149,-0.10986996118340246,2.659581091327115,2,left
4.896,0.5787355784040825,0.7540081196620997,0.059330940354754,-6.464130552398116,7.871640309959566,-1.9553723784490136,-0.9561042283756298,-0.12392187599253533,2.644829681543199,2,left
4.897,0.5895894750900094,0.7334660942806154,0.059853463042936726,-6.463229590967842,7.900743904058164,-1.9453979577336562,-0.9506890648962701,-0.13770520185086946,2.6287647325053687,2,left
4.9,0.6002447093453808,0.7129398177698527,0.06032915370952477,-6.459068134877569,7.92558414145773,-1.9349380652886705,-0.9447859319125894,-0.1512010729923844,2.6113720131721068,2,left
4.902,0.6106919908779695,0.6924475703250142,0.06075849994244862,-6.451614525330937,7.9460654251522,-1.9240048877724083,-0.9383887142828853,-0.16439086817299858,2.592638108286309,2,left
4.909,0.6209224259293622,0.6720075438745924,0.061142057947027775,-6.440840844965443,7.96209599367777,-1.9126109277281371,-0.9314915443043438,-0.17725624540827445,2.5725504443524505,2,left
4.91,0.6309275222702416,0.6516378207023071,0.061480453195590666,-6.426723049687234,7.9735881594701805,-1.900768975706177,-0.9240888123627169,-0.18977917562715926,2.551097314920465,2,left
4.91,0.6406991926171783,0.6313563527377056,0.06177438103077839,-6.409241087827167,7.980458535100862,-1.8884920830354464,-0.9161751776880441,-0.2019419752796135,2.5282679051224948,2,left
4.9110000000000005,0.6502297565186106,0.6111809414840356,0.06202460714981516,-6.38837900658713,7.982628247437812,-1.8757935352117112,-0.9077455791965908,-0.21372733793504603,2.504052315404772,2,left
4.914,0.6595119407643446,0.5911292185458179,0.06223196791145548,-6.364125045736028,7.980023139764041,-1.8626868258685485,-0.8987952463977261,-0.22511836490749365,2.4784415843929892,2,left
4.915,0.6685388783759695,0.57121862671478,0.06239737042845763,-6.336471718505163,7.972573961873154,-1.8491856312957835,-0.8893197103429981,-0.23609859494244811,2.451427710825547,2,left
4.919,0.6773041062399894,0.5514664015730022,0.06252179243542823,-6.3054158796230775,7.96021654814813,-1.8353037854689491,-0.8793148145931774,-0.24665203299914995,2.423003674485095,2,left
4.92,0.6858015614546321,0.5318895535771551,0.06260628194826481,-6.270958780420148,7.942891983615681,-1.821055255552146,-0.8687767261775483,-0.25676317816103766,2.3931634560547805,2,left
4.925,0.6940255764729834,0.5125048505972567,0.06265195675108934,-6.233106110923494,7.920546757954641,-1.8064541178355484,-0.8577019465182165,-0.26641705070586075,2.3619020558215853,2,left
4.926,0.701970873134262,0.49332880089550446,0.06266000375724268,-6.191868028852974,7.893132907422776,-1.791514534067707,-0.8460873222906884,-0.27559921836574053,2.3292155111450783,2,left
4.928,0.7096325556812834,0.47437763654153053,0.06263167829123138,-6.147259175419321,7.8606081446521054,-1.7762507281417452,-0.8339300561904348,-0.28429582180619317,2.2951009126058546,2,left
4.928999999999999,0.7170061028713866,0.4556672972662269,0.06256830332729262,-6.099298677815675,7.822935976248462,-1.7606769630935344,-0.821227717573623,-0.29249359935181657,2.259556418743847,2,left
4.934,0.7240873593060096,0.43721341475584,0.0624712687000888,-6.048010138284087,7.7800858081164295,-1.7448075183689629,-0.8079782529386418,-0.3001799109849895,2.2225812692926006,2,left
4.935,0.7308725261299934,0.4190312973819821,0.06234203028000247,-5.9934216096288875,7.732033038416167,-1.7286566673164814,-0.7941799962134921,-0.30734276164253704,2.1841757968115068,2,left
4.938,0.7373581512783761,0.4011359153539302,0.06218210908474415,-5.935565557039194,7.678759138043801,-1.7122386548602124,-0.7798316788125456,-0.31397082383388625,2.1443414366138853,2,left
4.94,0.7435411194656455,0.38354188627202107,0.06199309028296416,-5.874478806073273,7.620251718512269,-1.6955676753080675,-0.7649324394246086,-0.3200534596027652,2.103080734884694,2,left
4.9430000000000005,0.7494186421112732,0.3662634610600843,0.06177662203415986,-5.810202476648014,7.556504587094501,-1.6786578502485077,-0.749481833492648,-0.32558074185299934,2.06039735487754,2,left
4.944,0.7549882473729589,0.3493145102623514,0.06153441410095273,-5.742781902867387,7.4875177890758975,-1.6615232064888126,-0.7334798423439579,-0.3305434750574224,2.016296081076569,2,left
4.949,0.7602477704199306,0.33270851070474566,0.06126823616591571,-5.672266538514488,7.413297636947982,-1.6441776539869954,-0.7169268819279674,-0.33493321536735393,1.9707828212047045,2,left
4.95,0.7651953440326242,0.3164585325395094,0.060979915790658513,-5.598709848022617,7.3338567263601435,-1.626634963728817,-0.6998238111172997,-0.33874229013850343,1.9238646059556292,2,left
4.953,0.7698293895738593,0.3005772267108349,0.060671335972243313,-5.522169182731821,7.24921393863126,-1.6089087455007085,-0.682171939535383,-0.3419638168753553,1.875549586381068,2,left
4.954,0.7741486083499752,0.28507681288758924,0.06034443227502857,-5.442705642228439,7.159394429608041,-1.5910124255087983,-0.6639730349186466,-0.34459172153353723,1.8258470291520166,2,left
4.954,0.7781519733715673,0.2699690679040117,0.06000118953582412,-5.360383920556465,7.064429604641904,-1.5729592237936825,-0.6452293301031424,-0.34662075600836606,1.7747673104326283,2,left
4.958,0.7818387215286348,0.25526531474585507,0.059643638154936576,-5.275272137080985,6.964357079441288,-1.5547621313900406,-0.6259435297701789,-0.348046514575169,1.7223219093926005,2,left
4.959,0.7852083462072129,0.2409764121314945,0.0592738499986533,-5.1874416517755355,6.859220626541457,-1.5364338871797154,-0.6061188170376581,-0.3488654491061855,1.6685234020887718,2,left
4.9639999999999995,0.7882605903874037,0.22711274475291313,0.05889393394916521,-5.096966865095505,6.74907010736418,-1.5179869544168805,-0.5857588598988659,-0.34907488299677614,1.6133854559186012,2,left
4.9639999999999995,0.7909954402703344,0.2136842142399376,0.05850603114030696,-5.003925004583874,6.633961391050821,-1.4994334970557754,-0.5648678174625796,-0.34867302379284415,1.5569228245531312,2,left
4.965,0.7934131194818584,0.20070023089389968,0.05811230990997129,-4.908395903933813,6.513956263444105,-1.4807853562852207,-0.5434503459375558,-0.3476589745218169,1.4991513431949093,2,left
4.968,0.7955140838983157,0.18816970622495813,0.05771496048743845,-4.810461782217238,6.389122330805202,-1.4620540278260488,-0.5215116043029128,-0.34603274372778464,1.440087924002503,2,left
4.968999999999999,0.7972990171367256,0.17610104633251514,0.05731618941974978,-4.710207028988903,6.259532921612807,-1.4432506403950165,-0.4990572596044069,-0.34379525420964135,1.379750551519448,2,left
4.975,0.7987688267412191,0.16450214617905173,0.05691821372463779,-4.60771799738241,6.125266987570475,-1.4243859354643789,-0.4760934918150858,-0.34094835045931216,1.3181582779416936,2,left
4.975,0.7999246410726651,0.1533803848108755,0.05652325474101548,-4.503082805315431,5.986409003708948,-1.405470248293797,-0.4526269981973069,-0.3374948047954,1.25533121805392,2,left
4.978,0.8007678068731554,0.14274262157588244,0.056133531640562645,-4.39639114451634,5.843048867211317,-1.3865134901805867,-0.42866499710162936,-0.3334383221858266,1.1912905436614287,2,left
4.979,0.8012998874420284,0.13259519338341355,0.055751254572567875,-4.2877340970779905,5.695281794575532,-1.3675251318741333,-0.4042152311366248,-0.3287835437512959,1.1260584773407138,2,left
4.982,0.8015226613347523,0.12294391304472903,0.05537861743805047,-4.177203959238269,5.5432082167155174,-1.3485141881001592,-0.37928596964220945,-0.3235360489396664,1.059658285328275,2,left
4.9830000000000005,0.8014381214843386,0.11379406872338366,0.05501779032037987,-4.064894072081106,5.386933671589294,-1.3294892031404022,-0.35388601039767814,-0.3177023563595894,0.9921142693637467,2,left
4.987,0.801048474645985,0.10515042451355425,0.05467091162864172,-3.950898658846014,5.226568693929805,-1.310458237413178,-0.32802468049421923,-0.31128992326005295,0.9234517573000003,2,left
4.988,0.8003561410737865,0.09701722215266023,0.05434008003168912,-3.835312668528819,5.062228701641816,-1.2914288550002315,-0.30171183630031656,-0.3043071436407716,0.8536970922895204,2,left
4.993,0.7993637543465086,0.08939818386217002,0.05402734627427762,-3.7182316254511623,4.894033878416201,-1.272408112065241,-0.2749578624470892,-0.29676334497667844,0.782877620353076,2,left
4.994,0.7980741612638768,0.08229651629565872,0.05373470497253922,-3.599751484471491,4.722109052101157,-1.2534025461093192,-0.2477736697592981,-0.2886687835381172,0.7110216761334928,2,left
4.998,0.7964904217355355,0.07571491555621737,0.05346408648643829,-3.4799684915056943,4.546583568358506,-1.2344181660088605,-0.22017069205645237,-0.2800346382866939,0.638158566634198,2,left
4.999,0.7946158085830317,0.06965557322853011,0.05321734896503637,-3.3589790490212565,4.367591159122198,-1.2154604427811087,-0.19216088174718135,-0.2708730033251397,0.5643185527391555,2,left
5.002,0.7924538071730759,0.06412018335678699,0.052996270657914714,-3.2368795861647692,4.185269805365365,-1.1965343010228577,-0.1637567041388048,-0.2611968788779551,0.4895328283078292,2,left
5.003,0.7900081147997139,0.05910995028995215,0.05280254258191586,-3.1137664331789026,3.9997615936720017,-1.1776441109677624,-0.13497113038283032,-0.25102016077805805,0.4138334966359249,2,left
5.006,0.7872826397339627,0.054625597310408495,0.05263776162568696,-2.9897356997614724,3.8112125660993565,-1.1587936811078068,-0.10581762897594034,-0.24035762843314454,0.3372535440698554,2,left
5.007,0.7842814998624854,0.05066737595802802,0.05250342416605783,-2.8648831570160636,3.619772562807591,-1.1399862513245729,-0.07631015573489902,-0.22922493124399576,0.2598268105601572,2,left
5.013,0.7810090208433762,0.04723507595844413,0.052400920259982345,-2.739304122640725,3.425595056924098,-1.1212244864760477,-0.0464631421627148,-0.21763857344552742,0.18158795693646718,2,left
5.013999999999999,0.7774697337162554,0.04432803566352736,0.05233152846236677,-2.613093348998652,3.2288369811011495,-1.1025104703848267,-0.01629148212233836,-0.20561589733998537,0.1025724286841375,2,left
5.018,0.7736683719128555,0.04194515291412825,0.052296411304045325,-2.4863449137123887,3.0296585452172575,-1.0838457001736894,0.014189483266839978,-0.1931750648903409,0.022816416000137597,2,left
5.018,0.7696098676214442,0.040084896238223165,0.05229661144847697,-2.359152112420995,2.8282230446647567,-1.065231080894653,0.04496398259540392,-0.18033503764063943,-0.057643190096440616,2,left
5.021,0.7652993474644418,0.038745316301638404,0.05233304853340354,-2.2316073533378145,2.6246966586587224,-1.0466669203977483,0.07601583302596479,-0.16711555494574779,-0.1387688456818626,2,left
5.022,0.7607421274554741,0.037924057536994744,0.05240651669558386,-2.103802053244933,2.419248237995394,-1.0281529243859018,0.10732846081490614,-0.15353711057646968,-0.22052240523631417,2,left
5.022,0.75594370721076,0.037618369890075894,0.052517682771747884,-1.975826534559128,2.2120490816817844,-1.0096881916024458,0.13888492277349432,-0.13962092791735556,-0.30286517440975413,2,left
5.027,0.7509097634000824,0.03782512063339535,0.05266708516469596,-1.8477699231031102,2.003272701852166,-0.9912712090979314,0.17066792767926067,-0.12538893405816798,-0.38575796159155773,2,left
5.0280000000000005,0.7456461424360369,0.03854080619745669,0.052855133358268996,-1.7197200462150977,1.7930945763816057,-0.9728998475230518,0.20265985691887445,-0.11086373299420994,-0.4691611263538726,2,left
5.031000000000001,0.7401588524182319,0.039761563966821484,0.0530821080596906,-1.5917633308292765,1.5816918886016877,-0.9545713563946322,0.23484278412964377,-0.0960685779972544,-0.5530346241392106,2,left
5.032,0.7344540543681212,0.04148318399035572,0.05334816194442238,-1.4639847013266805,1.369243253974803,-0.9362823593345536,0.26719849387699807,-0.08102734313318312,-0.6373380472859956,2,left
5.032,0.728538052801642,0.04370112056539695,0.05365332097812423,-1.3364674777921146,1.1559284358581288,-0.9180288495455234,0.2997084994598172,-0.06576449388465813,-0.7220306626315763,2,left
5.037,0.7224172856885683,0.04641050367026249,0.05399748629125812,-1.2092932768179545,0.9419280565867001,-0.8998061862627593,0.3323540599360211,-0.05030505683637467,-0.807071445933563,2,left
5.038,0.7160983138516761,0.04960615023238538,0.05438043657921164,-1.082541917832236,0.7274233123807435,-0.8816090931846808,0.3651161964613293,-0.03467458837973872,-0.8924191133515815,2,left
5.04,0.7095878098749833,0.05328257522686734,0.054801830991315206,-0.9562913370931223,0.5125956983011892,-0.8634316596218896,0.3979757080345438,-0.01889914239317704,-0.9780321502326568,2,left
5.041,0.702892546609578,0.05743400260430201,0.055261212460545564,-0.8306175099878759,0.2976267453735106,-0.8452673446287707,0.43091318674309376,-0.003005236853723946,-1.0638688374444345,2,left
5.047,0.6960193853761961,0.06205437605022314,0.055758011418350274,-0.7055943814395957,0.08269776971982358,-0.827108984118209,0.4639090326029207,0.01298018066496138,-1.149887275501333,2,left
5.047,0.688975263966312,0.06713736958113377,0.05629154983648078,-0.5812938040591993,-0.13201036691750526,-0.8089488009071862,0.4969434680870562,0.029029768653408464,-1.236045406729482,2,left
5.05,0.6817671845425368,0.07267639798239513,0.0568610455383693,-0.45778548368178085,-0.34631748587790123,-0.7907784176410639,0.5299965524374726,0.04511582853158094,-1.3223010357169382,2,left
5.051,0.6744022015354304,0.07866462709166049,0.0574656167267765,-0.3351369319283434,-0.5600443101273176,-0.7725888725443711,0.5630481958549513,0.061210342764416774,-1.4086118482962005,2,left
5.055,0.6668874096274723,0.08509498392915986,0.05810428668293615,-0.21341342543596992,-0.7730126732620775,-0.7543706379459069,0.5960781736618248,0.07728501427370973,-1.4949354293064403,2,left
5.056,0.6592299319071552,0.09196016667333058,0.05877598860418754,-0.09267797140177611,-0.9850457195870816,-0.7361136415259426,0.6290661405325028,0.09331130719248289,-1.5812292793831462,2,left
5.06,0.6514369082683541,0.09925265447682521,0.05947957055910877,0.027008720911554304,-1.1959680958819792,-0.7178072902332494,0.6619916448866858,0.10926048900802826,-1.6674508310230398,2,left
5.06,0.6435154841225474,0.10696471711316932,0.06021380054792484,0.1455882630581935,-1.4056061354667222,-0.6994404968195914,0.694834143540111,0.1251036741397297,-1.753557464172155,2,left
5.065,0.6354727994836399,0.11508842443812167,0.060977371659995935,0.26300460502626316,-1.6137880351752392,-0.6810017089392161,0.727573016707549,0.14081186899764594,-1.8395065215848898,2,left
5.065,0.6273159784768559,0.12361565564360098,0.061768907320973634,0.3792040479333001,-1.8203440258427783,-0.6624789407607273,0.7601875834525962,0.15635601856760972,-1.9252553242016281,2,left
5.07,0.6190521193144679,0.13253810827747126,0.06258696662154242,0.4941352521406204,-2.0251065369087864,-0.6438598070385543,0.7926571176785647,0.17170705456829377,-2.010761186792202,2,left
5.07,0.6106882847716807,0.14184730699986733,0.06343004971797016,0.6077492411237723,-2.2279103557330067,-0.6251315595910201,0.8249608647544755,0.1868359452253065,-2.095981434112013,2,left
5.074,0.602231493186053,0.15153461204597496,0.06429660329304811,0.7199994014327773,-2.4285927822178124,-0.6062811261317727,0.8570780588698027,0.20171374670690861,-2.18087341781705,2,left
5.074,0.5936887099947495,0.16159122736501352,0.06518502606576268,0.8308414790722207,-2.6269937793246547,-0.5872951514010628,0.8889879412112017,0.21631165626538823,-2.2653945343833524,2,left
5.079,0.5850668398158355,0.1720082084032905,0.06609367433695931,0.9402335726274738,-2.822956120066874,-0.5681600405430403,0.9206697790539761,0.23060106712749287,-2.349502244275637,2,left
5.08,0.5763727190720356,0.18277646949522375,0.06702086755179085,1.0481361234594169,-3.0163255315550286,-0.5488620046748857,0.9521028858605018,0.24455362517659673,-2.4331540926088713,2,left
5.084,0.5676131091496204,0.1938867908229167,0.06796489384862864,1.1545119032859936,-3.206950836664371,-0.5293871085932087,0.9832666424772346,0.2581412874684772,-2.5163077315455107,2,left
5.085,0.5587946900836406,0.20532982490654822,0.06892401555718848,1.2593259994647643,-3.39468409388707,-0.5097213205627121,1.0141405195212663,0.27133638262168913,-2.59892094466992,2,left
5.092,0.5499240547621255,0.21709610259800433,0.06989647461437266,1.3625457982863547,-3.579380735924364,-0.4898505641316535,1.0447041009995972,0.2841116730381411,-2.6809516734836003,2,left
5.093,0.5410077036419695,0.22917603856826801,0.0708804978825008,1.4641409665843126,-3.760899707565943,-0.4697607719181287,1.0749371089680628,0.2964404184863393,-2.762358045680376,2,left
5.093,0.532052039966082,0.2415599362999641,0.07187430237030665,1.5640834319624075,-3.9391036033955427,-0.44943794131065185,1.1048194286122044,0.30829643981887717,-2.8430984039897096,2,left
5.093999999999999,0.5230633654673644,0.254237992614961,0.07287610036440129,1.6623473619358293,-4.113858805853046,-0.42886819202591764,1.1343311328960388,0.3196541811724536,-2.923131333891615,2,left
5.095,0.5140478765435013,0.26720030178186,0.07388410447698346,1.7589091422780783,-4.285035624174243,-0.40803782546600476,1.163452506159174,0.33048876941951144,-3.00241568898786,2,left
5.099,0.5050116608874631,0.2804368592601765,0.07489653260659769,1.853747354784245,-4.452508434464929,-0.38693338575662484,1.1921640664655315,0.34077607039899244,-3.080910613681704,2,left
5.099,0.49596069456005015,0.2939375651450415,0.07591161279748347,1.9468427542747455,-4.616155819881311,-0.3655417220474068,1.2204465867413217,0.35049274187436436,-3.1585755632993706,2,left
5.099,0.48690083949177315,0.3076922273767787,0.07692758797479524,2.038178243971449,-4.775860707583725,-0.34385005111462025,1.2482811147858894,0.3596162832499941,-3.2353703218809433,2,left
5.104,0.4778378414027811,0.3216905647788728,0.07794272052669239,2.1277388479913855,-4.931510497845232,-0.3218460190060465,1.2756489922378682,0.3681250820753685,-3.3112550178660896,2,left
5.104,0.4687773281326241,0.3359222099915002,0.07895529669633902,2.2155116800800236,-5.0829971819605,-0.2995177607667906,1.3025318725778494,0.37599845736502785,-3.386190137897633,2,left
5.11,0.4597248083759594,0.3503767123732262,0.07996363074007777,2.301485908388301,-5.230217447883713,-0.2768539578238029,1.3289117382474882,0.3832166997603756,-3.4601365389635017,2,left
5.11,0.4506856708251059,0.36504354094511554,0.08096606880824626,2.3856527164743024,-5.373072773787481,-0.2538438929058907,1.3547709169636277,0.38976110855776225,-3.5330554590949665,2,left
5.114,0.44166518372535807,0.37991208744896215,0.08196099251255744,2.468005260781716,-5.511469509977686,-0.230477502435053,1.3800920973046291,0.39561402562542075,-3.6049085268363465,2,left
5.115,0.4326684948528891,0.39497166958619695,0.08294682215350936,2.5485386248420188,-5.645318949586985,-0.20674542632400764,1.404858343644652,0.4007588662299474,-3.675657769698539,2,left
5.119,0.42370063192625645,0.4102115344964872,0.08392201958757979,2.6272497704421762,-5.774537388457151,-0.18263905511378814,1.429053110510137,0.4051801467910915,-3.7452656218057485,2,left
5.119,0.4147665034607487,0.42562086252555975,0.08488509071559099,2.704137485994417,-5.899046174607651,-0.15815057438426397,1.4526602564311895,0.40886350958163215,-3.8136949309417716,2,left
5.122999999999999,0.4058709000709717,0.44118877132110534,0.08583458757306119,2.779202332339426,-6.0187717476747675,-0.1332730063693899,1.4756640573589812,0.4117957443870875,-3.880908965198975,2,left
5.124,0.3970184962221042,0.4569043202842941,0.08676911000319845,2.852446586209075,-6.1336456686923295,-0.10800024870791707,1.4980492197186357,0.41396480713792794,-3.946871419429877,2,left
5.13,0.3882138524244211,0.47275651539356944,0.08768730689400642,2.9238741815695612,-6.243604640571568,-0.08232711025920098,1.519800893165385,0.4153598355248457,-4.01154642169781,2,left
5.131,0.3794614178587315,0.4887343144079046,0.08858787696347732,2.993490649060609,-6.348590519623872,-0.05624934391262742,1.5409046831100466,0.4159711616054778,-4.074898539919693,2,left
5.1339999999999995,0.37076553341235235,0.5048266324484859,0.0894695690837043,3.061303053741146,-6.448550318456337,-0.029763676318042727,1.5613466630780921,0.41579032140879124,-4.136892788890312,2,left
5.1339999999999995,0.36213043509648096,0.5210223479511735,0.09033118214827561,3.127319931346668,-6.543436200555852,-0.002867834463427379,1.5811133869647682,0.4148100615411157,-4.197494637873834,2,left
5.138,0.35356025780678135,0.5373103089778607,0.09117156450703151,3.1915512232582905,-6.6332054668631955,0.024439430975108534,1.6001919012468642,0.4130243427955637,-4.256670018944479,2,left
5.138999999999999,0.3450590393804994,0.5536793398721422,0.09198961301467612,3.2540082103783052,-6.7178205346242175,0.05215832558709922,1.6185697572098205,0.41042834076430074,-4.314385336254358,2,left
5.143,0.3366307248967803,0.5701182482423781,0.09278427175940598,3.31470344610193,-6.797248908790583,0.08028799456253373,1.636235023246933,0.40701844345083765,-4.370607476402508,2,left
5.144,0.32827917116305644,0.5866158322539233,0.09355453054972213,3.3736506885697803,-6.871463146227877,0.10882650948614997,1.6531762972854376,0.40279224587720563,-4.425303820075027,2,left
5.151,0.32000815132932997,0.6031608882126962,0.09429942324069736,3.4308648323805233,-6.940440812974087,0.13777085867083955,1.6693827193922426,0.39774854167854723,-4.478442255122063,2,left
5.152,0.3118213595726866,0.6197422184237957,0.09501802597828646,3.4863618399380893,-7.004164434776574,0.16711694111096811,1.6848439846100327,0.39188731167532254,-4.5299911912330835,2,left
5.153,0.30372241579494913,0.6363486393106934,0.09570945543559585,3.540158672602832,-7.062621441120688,0.19685956413758834,1.6995503560723848,0.38520970941098787,-4.579919576367485,2,left
5.154,0.295714870276381,0.6529689897820524,0.09637286710908137,3.592273221811014,-7.115804102948137,0.22699244485868622,1.7134926784444364,0.3777180436406573,-4.628196915093132,2,left
5.159,0.28780220822852914,0.6695921398344343,0.09700745373402053,3.6427242403221034,-7.163709464248149,0.2575082154687527,1.7266623917334962,0.3694157577539115,-4.6747932889808395,2,left
5.16,0.27998785419130273,0.6862069993812369,0.09761244386678111,3.6915312737484385,-7.206339267689331,0.28839843251311,1.7390515454829856,0.3603074061666603,-4.719679379144642,2,left
5.1610000000000005,0.2722751762243287,0.7028025273035978,0.09818710066739923,3.7387145925170304,-7.243699874445017,0.3196535901935404,1.7506528132166763,0.35039862798504656,-4.762826490745308,2,left
5.162999999999999,0.26466748984843586,0.7193677407267907,0.09873072090174903,3.784295124408477,-7.275802178349715,0.3512631378028632,1.761459506738383,0.33969611872880595,-4.804206578787983,2,left
5.164,0.257168061694677,0.7358917245283739,0.09924263416994188,3.828294387813234,-7.30266151450913,0.38321550137717836,1.771465589745803,0.3282076011696037,-4.843792274272312,2,left
5.169,0.24978011281376455,0.752363641077498,0.09972220235696237,3.8707344258408387,-7.324297562471121,0.4154981096555414,1.7806656903591565,0.31594179606715245,-4.8815569100160285,2,left
5.169,0.24250682159379192,0.7687727401953294,0.10016881929298,3.9116377414202494,-7.340734244160593,0.44809742435255434,1.7890551124225949,0.3029083930968848,-4.917474545949648,2,left
5.17,0.23535132623521282,0.7851083693249086,0.10058191060585896,3.951027233560846,-7.351999617320048,0.4809989743238482,1.7966298455782648,0.289118021990279,-4.951519993942408,2,left
5.172000000000001,0.22831672673822043,0.8013599839054107,0.10096093374813458,3.9889261350037795,-7.358125766179289,0.514187392437702,1.803386574139449,0.27458222385262326,-4.983668842267887,2,left
5.172999999999999,0.22140608636264286,0.8175171579498115,0.10130537818205264,4.025357951524864,-7.359148691616611,0.5476464535404604,1.809322684786875,0.25931342262079915,-5.013897479812431,2,left
5.178,0.2146224325228431,0.8335695948185983,0.10161476570524282,4.060346403109941,-7.355108202505211,0.5813591123307691,1.8144362731099455,0.2433248966214933,-5.04218312012413,2,left
5.178,0.2079687570848087,0.849507138171371,0.10188865089657753,4.093915367154736,-7.346047808927009,0.6153075407261478,1.8187261490122932,0.22663075018810658,-5.068503825394671,2,left
5.182,0.2014480160421645,0.8653197830709712,0.10212662165880876,4.126088823801095,-7.332014617367658,0.6494731647326851,1.822191840998712,0.20924588529252644,-5.092838530460819,2,left
5.183,0.1950631285598643,0.8809976872107634,0.10232829983151226,4.156890803510168,-7.313059227881214,0.6838367009146636,1.8248335993581486,0.19118597314586125,-5.11516706690678,2,left
5.188,0.1888169753866386,0.8965311822325758,0.10249334184402346,4.1863453369690244,-7.289235633198563,0.718378192561602,1.8266523982550804,0.17246742572021193,-5.135470187342978,2,left
5.189,0.1827123966494186,0.9119107851012425,0.10262143937359647,4.214476407423174,-7.260601119739384,0.7530770456508198,1.8276499367392334,0.1531073671415716,-5.153729589931125,2,left
5.192,0.17675218905477832,0.9271272095024945,0.10271231996864827,4.241307905523539,-7.227216170473322,0.7879120647041989,1.8278286386812312,0.1331236049020079,-5.169927943219689,2,left
5.193,0.17093910253381553,0.9421713772335502,0.10276574759045326,4.266863586772536,-7.189144369562039,0.8228614886383275,1.8271916516394093,0.11253460083739109,-5.184048911348044,2,left
5.197,0.16527583637764823,0.9570344295589895,0.10278152302081954,4.291167031650141,-7.146452308700032,0.8579030267076598,1.8257428446606567,0.09135944181509033,-5.196077179671706,2,left
5.1979999999999995,0.1597650349208554,0.9717077385071669,0.10275948408073007,4.314241608497058,-7.099209495058428,0.8930138946407177,1.8234868050158115,0.06961781007426958,-5.205998480855175,2,left
5.202000000000001,0.15440928283969718,0.9861829180838826,0.102699505606193,4.336110439228464,-7.047488260722568,0.9281708510696853,1.8204288338677848,0.04732995315967756,-5.213799621472897,2,left
5.202999999999999,0.14921110014054106,1.0004518353807246,0.10260149913148167,4.356796367948197,-6.991363673500835,0.9633502343540139,1.8165749408682665,0.024516653388143638,-5.219468509152882,2,left
5.207999999999999,0.14417293692203784,1.014506621555967,0.1024654122368029,4.376321932529722,-6.930913448969202,0.99852799989885,1.8119318376765392,0.0011991967853654064,-5.222994180291445,2,left
5.209,0.13929716800225483,1.0283396826650473,0.10229122752881839,4.394709339226747,-6.86621786360307,1.033679758069233,1.8065069303916248,-0.022600658570994556,-5.224366828361456,2,left
5.212000000000001,0.13458608750652395,1.041943710313809,0.1020789612385076,4.41198044037297,-6.797359668835339,1.068780812801071,1.8003083108867146,-0.04686071486739325,-5.223577832830358,2,left
5.212999999999999,0.13004190351072284,1.0553116921014165,0.10182866144028578,4.428156715227086,-6.724424005867211,1.103806201009899,1.7933447470325572,-0.07155836759661127,-5.220619788698066,2,left
5.2170000000000005,0.12566673283007895,1.0684369218124905,0.10154040591804107,4.443259254015928,-6.647498321046063,1.1387307328983491,1.7856256717942374,-0.09667063939439895,-5.21548653665866,2,left
5.218,0.12146259603933299,1.0813130093098184,0.1012142997255364,4.4573087452254025,-6.566672281612763,1.1735290332631114,1.7771611711835569,-0.12217421474020877,-5.208173193883609,2,left
5.221,0.1174314128066356,1.0939338900699245,0.10085047250515235,4.470325466185739,-6.482037691609079,1.2081755839019555,1.7679619710470327,-0.1480454755929144,-5.198676185418001,2,left
5.222,0.11357499761800059,1.106293834294017,0.10044907563471789,4.482329276994482,-6.393688407724413,1.24264476722108,1.7580394226673617,-0.1742605380336065,-5.186993276175015,2,left
5.226,0.10989505595931742,1.118387455518084,0.10001027926513269,4.4933396178176235,-6.301720254849837,1.2769109111427086,1.7474054871776812,-0.2007952899315533,-5.173123603478397,2,left
5.228,0.10639318100826932,1.1302097186450542,0.0995342692943908,4.503375509606321,-6.206230941096518,1.3109483354123999,1.7360727189039664,-0.2276254293648329,-5.157067709950214,2,left
5.228,0.10307085087053436,1.1417559473301648,0.09902124430393788,4.512455558263721,-6.107319972024932,1.344731399405045,1.7240542479614396,-0.25472650301398964,-5.138827576271718,2,left
5.231,0.09992942637762067,1.153021830649758,0.09847141246942381,4.52059796229356,-6.005088563820867,1.3782345515279277,1.711363762546948,-0.28207394346234943,-5.118406653192733,2,left
5.231,0.09697014944805737,1.164003428958151,0.09788498845359121,4.527820523959418,-5.899639555144139,1.4114323803185775,1.6980154912491359,-0.30964310462311206,-5.095809892304819,2,left
5.236000000000001,0.0941941419926594,1.1746971788003309,0.09726219029363826,4.534140663980743,-5.791077317366066,1.4442996673344077,1.6840241854836557,-0.33740929502826006,-5.071043775350419,2,left
5.237,0.09160240531658344,1.1850998967237747,0.09660323630648275,4.539575439725336,-5.679507662994706,1.4768114418414735,1.6694051020406222,-0.36534780900066577,-5.044116341980067,2,left
5.2379999999999995,0.08919581994752182,1.1952087818338348,0.09590834204731509,4.544141566536695,-5.565037752539948,1.5089430368645183,1.6541739857059883,-0.3934339557885419,-5.015037215892792,2,left
5.242000000000001,0.0869751458077567,1.2050214169595812,0.09517771736655792,4.547855441258376,-5.44777600089371,1.540670145359818,1.6383470519166876,-0.42164308674194795,-4.983817629288562,2,left
5.242999999999999,0.08494102263334742,1.214535768314489,0.09441156362570507,4.550733166696349,-5.327831984754212,1.571968874827023,1.6219409694075773,-0.44995062061155894,-4.950470445555437,2,left
5.247000000000001,0.08309397051152435,1.2237501835339393,0.09361007115803932,4.552790576076482,-5.205316352152641,1.6028157991193894,1.6049728428064638,-0.4783320670503266,-4.915010180107929,2,left
5.247999999999999,0.08143439036842766,1.232663387973603,0.09277341708096237,4.554043257125445,-5.080340734300345,1.6331880070103493,1.5874601951317782,-0.5067630483990188,-4.877453019286899,2,left
5.251,0.07996256421424827,1.2412744791840464,0.09190176356583225,4.55450657571961,-4.953017659504686,1.6630631475174273,1.56942095014581,-0.5352193198369033,-4.837816837225242,2,left
5.252000000000001,0.07867865494846868,1.2495829195317816,0.0909952566521815,4.554195699107883,-4.823460468801863,1.6924194720720682,1.5508734145147924,-0.5636767879790566,-4.796121210577505,2,left
5.255,0.07758270554295986,1.2575885270021494,0.09005402567203778,4.553125618712113,-4.691783232947882,1.721235873622576,1.5318362597255641,-0.5921115280019197,-4.752387431005603,2,left
5.256,0.07667463745467488,1.2652914642874522,0.08907818333479516,4.551311172506425,-4.558100670402204,1.7494919227559447,1.5123285037070304,-0.6204997993787954,-4.706638515306803,2,left
5.261,0.07595424817102195,1.272692226326749,0.08806782650327108,4.548767066974624,-4.422528065932078,1.7771679009228665,1.4923694921031805,-0.6488180603069882,-4.658899213064236,2,left
5.2620000000000005,0.07542120785513397,1.2797916265131979,0.08702303764984687,4.54550789864263,-4.2851811894595855,1.8042448308486552,1.4719788791430128,-0.6770429809082197,-4.609196011694366,2,left
5.265,0.07507505512780475,1.2865907818160982,0.0859438869154625,4.541548175180765,-4.146176214767569,1.8307045042112133,1.4511766080513666,-0.7051514552838207,-4.557557138760024,2,left
5.266,0.07491519208871919,1.2930910970784326,0.08483043461954021,4.536902336068603,-4.005629637675253,1.8565295066655123,1.4299828909433698,-0.7331206125060016,-4.504012561411949,2,left
5.27,0.0749408787344689,1.2992942487504642,0.08368273400436461,4.531584772813068,-3.8636581932892415,1.881703240292324,1.4084181881439672,-0.760927826626233,-4.4485939828160905,2,left
5.272,0.0751512269718511,1.3052021683096209,0.08250083395404655,4.52560984870842,-3.7203787719308132,1.9062099435471849,1.3865031868728117,-0.7885507257814359,-4.3913348354183945,2,left
5.275,0.0755451944514544,1.3108170256000231,0.0812847814097492,4.518991918124822,-3.5759083333360224,1.9300347087837413,1.3642587792336822,-0.8159672004782798,-4.332270270893335,2,left
5.276,0.07612157845665155,1.3161412123053953,0.08003462320924795,4.511745345310248,-3.4303638187209984,1.9531634974237604,1.3417060394465188,-0.8431554111354255,-4.271437146617048,2,left
5.281000000000001,0.07687901007420941,1.321177325748582,0.07875040710891523,4.5038845226885895,-3.283862060301107,1.9755831528441758,1.3188662002591687,-0.870093794963015,-4.208874008500662,2,left
5.282,0.07781594884552279,1.325928153188252,0.07743218180028405,4.495423888634979,-3.1365196878491908,1.9972814110495802,1.295760628474983,-0.8967610722581244,-4.144621070014217,2,left
5.285,0.07893067805812533,1.3303966567564116,0.0760799958129237,4.486377944707554,-2.9884530318750335,2.0182469091965793,1.272410799531523,-0.9231362521942366,-4.078720187226509,2,left
5.2860000000000005,0.08022130079404324,1.3345859591475953,0.07469389529808472,4.476761272313109,-2.8397780230054344,2.0384691920343867,1.248838271064809,-0.949198638182074,-4.011214829681212,2,left
5.291,0.08168573681105563,1.3384993301316248,0.07327392080368347,4.466588548782339,-2.690610087141871,2.057938716323965,1.225064655392782,-0.9749278328783552,-3.9421500469247897,2,left
5.292000000000001,0.08332172029796615,1.3421401739173877,0.0718201032652366,4.455874562828762,-2.5410640359706473,2.076646853295927,1.201111590850948,-1.0003037429182011,-3.871572430496975,2,left
5.296,0.085126798517379,1.3455120173493018,0.07033245952615125,4.444634229363682,-2.3912539523986656,2.0945858892052605,1.1770007119587864,-1.0253065834409962,-3.7995300712851616,2,left
5.296,0.08709833133141946,1.348618498881612,0.0688109877322929,4.432882603638032,-2.2412930704865555,2.1117490240387937,1.1527536186262102,-1.0499168824534644,-3.7260725126154735,2,left
5.297000000000001,0.0892334915954914,1.3514633582540447,0.06725566291726087,4.42063489468034,-2.0912936494497965,2.1281303684291317,1.1283918450251431,-1.0741154850275432,-3.6512507003055195,2,left
5.3,0.09152926639325228,1.3540504267698474,0.06566643306513684,4.407906477998545,-1.9413668412977119,2.1437249388265727,1.1039368289821097,-1.097883557304474,-3.5751169313755304,2,left
5.301,0.0939824590656718,1.3563836180381306,0.06404321595025741,4.39471290751197,-1.7916225516797841,2.158528650978306,1.0794098825160572,-1.1212025903004896,-3.49772480263462,2,left
5.303999999999999,0.09658969196541801,1.3584669190038312,0.06238589706310616,4.381069926666942,-1.6421692938238015,2.1725383117586694,1.0548321637290092,-1.1440544035534652,-3.4191291594984015,2,left
5.305,0.09934740985909514,1.3603043810824234,0.060694328879649144,4.366993478631604,-1.4931140370264755,2.1857516093756515,1.030224650025594,-1.1664211486737561,-3.339386044914546,2,left
5.306,0.10225188390515355,1.3619001112449844,0.05896833163180984,4.352499715362155,-1.344562053994348,2.198167101947139,1.0056081125910379,-1.1882853128661706,-3.258552648174066,2,left
5.309,0.10529921613695463,1.36325826292962,0.05720769563444287,4.337605005274886,-1.1966167729095474,2.209784204421799,0.9810030920570606,-1.2096297224886856,-3.1766872533826684,2,left
5.31,0.10848534436679343,1.364383026667378,0.05541218513513856,4.322325939313721,-1.0493796385201892,2.2206031738335343,0.9564298752850293,-1.2304375467121247,-3.0938491873632143,2,left
5.314,0.11180604740971371,1.3652786203251892,0.053581543568368285,4.306679335303709,-0.9029499837199896,2.2306250929055684,0.9319084731956967,-1.2506923013435676,-3.0100987667571983,2,left
5.315,0.11525695052131527,1.3659492789083323,0.05171550001239482,4.29068224053641,-0.7574249115074899,2.239851852034269,0.9074585995748838,-1.2703778528747742,-2.9254972440902045,2,left
5.32,0.1188335309520559,1.3663992439256918,0.04981377657631066,4.274351932543294,-0.6128991869021319,2.2482861296837937,0.8830996507845601,-1.2894784228153617,-2.840106752563486,2,left
5.321000000000001,0.12253112353670555,1.3666327523871022,0.0478760963958634,4.257705918012262,-0.46946513839673915,2.2559313712203464,0.8588506863089158,-1.3079785923688863,-2.753990249331219,2,left
5.324,0.12634492625974925,1.3666540255625312,0.04590219189718045,4.240761929801349,-0.32721256852855635,2.262791766212561,0.8347304100652343,-1.3258633075083475,-2.6672114570205183,2,left
5.325,0.1302700057638808,1.3664672576814718,0.04389181299936547,4.223537922002757,-0.18622867315385833,2.2688722242222465,0.8107571524096273,-1.3431178845059537,-2.5798348032490495,2,left
5.329,0.13430130279563604,1.36607660478538,0.04184473496349852,4.206052063009427,-0.0465979690142761,2.2741783491074687,0.7869488527680113,-1.359728015970261,-2.491925357892987,2,left
5.329,0.13843363760602823,1.3654861739661226,0.03976076564382453,4.188322726535496,0.09159777081362601,2.2787164118576846,0.7633230428230751,-1.3756797774420304,-2.403548767856161,2,left
5.335,0.1426617153418863,1.3647000132298,0.037639751944972634,4.1703684805412395,0.22827957399034943,2.282493321978408,0.7398968301884083,-1.3909596345983462,-2.314771189089527,2,left
5.336,0.14698013147315755,1.3637221022204562,0.03548158533014519,4.152208074012257,0.36337131890798235,2.2855165974406653,0.7166868825014328,-1.4055544511126739,-2.225659215608555,2,left
5.3389999999999995,0.15138337730124168,1.3625563440258002,0.03328620625811889,4.133860421542049,0.4967997780040722,2.287794333208291,0.6937094118673026,-1.4194514972166596,-2.1362798052548033,2,left
5.3389999999999995,0.15586584558335545,1.361206558270185,0.031053607453281347,4.1153445856664295,0.6284946547873357,2.2893351683539325,0.670980159586514,-1.4326384590075367,-2.046700201946782,2,left
5.343999999999999,0.16042183628976134,1.3596764756813853,0.028783835934679786,4.096679756897643,0.7583886149631315,2.2901482517724614,0.6485143810995806,-1.4451034485430367,-1.9569878541642565,2,left
5.343999999999999,0.16504556248585406,1.3579697343003736,0.026476993751075286,4.077885231405531,0.8864173120418487,2.2902432064983587,0.6263268310828026,-1.4568350147637028,-1.8672103294093736,2,left
5.349,0.16973115629770633,1.356089877489231,0.024133237396013918,4.058980386292586,1.0125194078083901,2.289630092631517,0.604431748629866,-1.467822155280463,-1.7774352243874154,2,left
5.35,0.17447267487517049,1.3540403538807677,0.021752775915830407,4.039984652409323,1.1366365880257614,2.288319368873815,0.5828428424547668,-1.4780543290632433,-1.687730070649609,2,left
5.353,0.17926410621242458,1.3518245194016887,0.019335867777436972,4.020917484656013,1.2587135737404285,2.286321852676763,0.5615732760523497,-1.4875214700643062,-1.5981622354402287,2,left
5.354,0.18409937462775722,1.3494456414848415,0.016882816632325538,4.001798329716521,1.3786981285515738,2.2836486789984773,0.5406356527535953,-1.4962140018078465,-1.508798817490238,2,left
5.358,0.18897234565081292,1.3469069055605731,0.014393966194050138,3.9826465911697086,1.4965410622006883,2.2803112576662405,0.520042000613661,-1.5041228529752229,-1.4197065374999158,2,left
5.359,0.19387683002678646,1.344211423878344,0.011869694526518908,3.963481591923679,1.6121962308320816,2.276321229338935,0.49980375707160546,-1.511239474012998,-1.3309516230533092,2,left
5.3629999999999995,0.1988065865352404,1.3413622466545072,0.009310408102201755,3.944322533917977,1.7256205342688866,2.2716904200616987,0.4799317533216705,-1.5175558547887413,-1.2425996877079342,2,left
5.364,0.20375532334721497,1.3383623754779952,0.006716536013527193,3.925188455038761,1.8367739106429914,2.266430794403232,0.460436198380522,-1.5230645432800127,-1.1547156042551565,2,left
5.364,0.2087166977104759,1.3352147788578599,0.004088524690970106,3.9060981831919523,1.9456193287110548,2.2605544071643267,0.4413266630535468,-1.527758665093257,-1.0673633734037415,2,left
5.37,0.21368431384747852,1.3319224097782698,0.0014268334087670536,3.887070287479341,2.0521227781823517,2.2540733536443374,0.42261206439617,-1.5316319432714973,-0.9806059914012123,2,left
5.371,0.21865171905992703,1.3284882251057253,-0.0012680692063122133,3.8681230264227304,2.156253258377686,2.246999718450508,0.40430065148491723,-1.5346787176609866,-0.8945053213650972,2,left
5.372999999999999,0.22361239816331815,1.324915206629055,-0.00399570747917302,3.849274293181333,2.2579827655319806,2.2393455228333052,0.3863999930963724,-1.5368939632910446,-0.8091219718415719,2,left
5.372999999999999,0.22855976652862567,1.3212063834179402,-0.00675559965337693,3.830541557820611,2.357286278930964,2.2311226706138583,0.36891696750150155,-1.538273307554502,-0.7245151838497195,2,left
5.374,0.23348716213844795,1.31736485511973,-0.009547257436192835,3.8119418072552618,2.4541417454882097,2.222342893191425,0.35185775436628913,-1.5388130461602112,-0.640742726415417,2,left
5.379,0.23838783713103054,1.3133938157963205,-0.012370184114358652,3.7934914845049,2.5485300613226594,2.2130176948794253,0.33522782870727913,-1.538510157863972,-0.5578608003496912,2,left
5.38,0.24325494937977457,1.3092965778560255,-0.015223871306743634,3.775206429465544,2.640435048312445,2.2031583002404607,0.31903195685180824,-1.537362317981835,-0.47592395002861676,2,left
5.382999999999999,0.2480815548179003,1.3050765954938457,-0.018107794497671068,3.7571018228361805,2.7298434241711553,2.192775604665639,0.30327419435393804,-1.5353679106873221,-0.39498498293422113,2,left
5.3839999999999995,0.25286060139832506,1.3007374868784534,-0.02102140757207683,3.7391921338245164,2.8167447656248434,2.18188012867964,0.2879578858183224,-1.5325260400916882,-0.31509489671841545,2,left
5.388,0.2575849256555271,1.2962830542173434,-0.023964136630566936,3.7214910716922485,2.9011314648382824,2.1704819760279235,0.2730856665854922,-1.5288365401039266,-0.23630281355468366,2,left
5.388999999999999,0.26224725277541416,1.2917173008250715,-0.0269353733799804,3.704011541087889,2.982998679347312,2.158590795516275,0.25865946623329755,-1.5242999830647828,-0.15865592154512223,2,left
5.392,0.26684020090645744,1.2870444444030698,-0.029934468357767464,3.6867656011157193,3.0623442757468897,2.1462157465714125,0.24468051385051262,-1.5189176871466172,-0.08219942295343398,2,left
5.393,0.271356290195061,1.2822689258957014,-0.03296072414537392,3.669764428090051,3.1391687673772624,2.133365468489932,0.23114934503988377,-1.5126917225085148,-0.006976489037629117,2,left
5.397,0.2757879567378035,1.2773954134823333,-0.03601338856381446,3.653018281924603,3.2134752462434344,2.1200480533414487,0.21806581060918084,-1.5056249161936135,0.06697177874052798,2,left
5.398,0.2801275713431234,1.2724288014604501,-0.03909164766358122,3.6365364761074757,3.285269309395875,2.1062710224904038,0.2054290869100954,-1.497720855753195,0.13960638134887268,2,left
5.402,0.28436746270908553,1.2673742039514775,-0.04219461819208969,3.620327351212915,3.3545589799931674,2.0920413066996377,0.19323768778611336,-1.488983891579656,0.21089044887700145,2,left
5.404,0.2884999443808796,1.2622369435237646,-0.04532133921638322,3.604398251901766,3.421354623260065,2.0773652297774916,0.18148947809177546,-1.479419137928072,0.2807892614995903,2,left
5.4079999999999995,0.29251734468205953,1.2570225349873312,-0.048470762719367136,3.5887555073632935,3.4856688575472328,2.062248495728871,0.17018168874701983,-1.469032472603649,0.34927026491945085,2,left
5.409,0.2964120387335715,1.2517366647750365,-0.05164174321815066,3.5734044151518147,3.54751646069174,2.0466961793694085,0.15931093329158016,-1.457830535289982,0.41630308049502923,2,left
5.412000000000001,0.30017648167892974,1.2463851664741996,-0.05483302667046058,3.5583492283724065,3.6069142718702096,2.0307127203605764,0.14887322590568347,-1.4458207244906527,0.48185951025307855,2,left
5.412999999999999,0.30380324230160155,1.2409739931933461,-0.05804323907162836,3.543593146170752,3.6638810891294242,2.0143019206223354,0.1388640008645559,-1.4330111930543405,0.5459135369831665,2,left
5.417000000000001,0.3072850363236236,1.2355091875268207,-0.061270875207927754,3.5291383074830427,3.7184375627720954,1.99746694507865,0.12927813339549954,-1.4194108422512888,0.6084413196065261,2,left
5.417999999999999,0.31061475878325934,1.2299968499126053,-0.06451428806193417,3.514985788002691,3.770606084768465,1.980210325689963,0.12010996190754555,-1.4050293143666357,0.6694211840075186,2,left
5.422000000000001,0.31378551498335744,1.2244431061711942,-0.06777167937591443,3.501135600321468,3.8204106743574378,1.962533968725492,0.11135331156491848,-1.3898769837738372,0.728833609511667,2,left
5.422999999999999,0.3167906495794553,1.2188540749740047,-0.07104109185529114,3.487586697203543,3.8678768599940194,1.9444391652269908,0.10300151917676233,-1.3739649464491297,0.7866612111898407,2,left
5.4270000000000005,0.31962377345520515,1.213235835927752,-0.0743204034274934,3.474336977951768,3.91303155779298,1.9259266046144075,0.09504745937677704,-1.3573050078857374,0.8428887181637259,2,left
5.428,0.322278788133849,1.2075943988864544,-0.07760732387654294,3.461383297826419,3.9559029466118667,1.906996391382659,0.08748357206759583,-1.3399096693643242,0.8975029480832233,2,left
5.432,0.3247499076003798,1.2019356750182228,-0.08089939407460518,3.4487214804774657,3.9965203399097877,1.887648064837547,0.08030189107750454,-1.3217921125687457,0.9504927779613449,2,left
5.433,0.3270316775325716,1.1962654500481136,-0.08419398794477675,3.436346333352299,4.034914054511741,1.867880621817628,0.07349407383629311,-1.3029661827077201,1.0018491116450239,2,left
5.433,0.3291189920389096,1.1905893599700024,-0.08748831721594189,3.424251666041701,4.07111527640171,1.8476925423476638,0.06705143162263223,-1.283446370613606,1.0515648443709789,2,left
5.436,0.3310071081053398,1.1849128694007054,-0.0907794389551617,3.4124303115276624,4.1051559236612825,1.8270818181680568,0.06096495979451277,-1.2632477944611131,1.0996348249485484,2,left
5.437,0.33269165809558926,1.179241252655585,-0.09406426576370262,3.40087415029749,4.137068506664135,1.8060459840834888,0.055225367557311764,-1.2423861815730295,1.1460558160092862,2,left
5.441,0.33416866080219043,1.173579577531433,-0.09733957839595052,3.3895741372894412,4.166885985630474,1.7845821520727594,0.04982310708061352,-1.220877850465369,1.1908264525830425,2,left
5.442,0.3354345316408781,1.1679326916806783,-0.1006020404326068,3.3785203316359143,4.194641625639272,1.7626870481006114,0.04474840191789025,-1.1987396931086978,1.2339471991580966,2,left
5.442,0.3364860925812519,1.1623052113868733,-0.10384821455423753,3.3677019291030796,4.220368849394479,1.7403570515510731,0.039991274712533394,-1.1759891573457368,1.275420305358697,2,left
5.446000000000001,0.3373205823106762,1.1567015125369282,-0.10707457995889372,3.357107296787125,4.244101089057465,1.7175882371004538,0.03554157417469544,-1.1526442294034973,1.3152497603686226,2,left
5.447,0.33793566697331595,1.1511257236212848,-0.11027755054112506,3.3467240090169783,4.265871640291834,1.694376418666596,0.031389001314342274,-1.128723416436384,1.3534412462246448,2,left
5.4510000000000005,0.33832945167626877,1.145581720640934,-0.11345349352080675,3.336538883074585,4.285713522683019,1.6707171949695654,0.027523134916828444,-1.1042457290349499,1.3900020900990397,2,left
5.452000000000001,0.3385004928372458,1.1400731238369588,-0.1165987482195105,3.326538013683922,4.303659349667243,1.6466059963378759,0.023933456248190217,-1.0792306636332798,1.424941215685582,2,left
5.456,0.3384478113309564,1.1346032961941919,-0.11970964466768334,3.3167068058315414,4.319741209258995,1.622038132573354,0.020609372978204844,-1.053698184746325,1.458269093798751,2,left
5.457000000000001,0.338170906254266,1.1291753437116134,-0.12278252174224895,3.3070300058214643,4.333990555838491,1.59700884178664,0.01754024231008771,-1.0276687069669128,1.4899976922911953,2,left
5.46,0.3376697689992748,1.123792117459409,-0.1258137445744706,3.2974917305356684,4.34643811305077,1.5715133401340473,0.014715393306492417,-1.001163076650613,1.5201404253898527,2,left
5.461,0.336944897224038,1.1184562174363635,-0.1287997210035319,3.2880754948718898,4.3571137878626685,1.545546872385193,0.012124148402241639,-0.9742025532151559,1.5487121025464916,2,left
5.466,0.3359973082430283,1.113169998196616,-0.1317369168749954,3.2787642373309054,4.366046595818693,1.5191047632494876,0.009755844094949036,-0.9468087899796728,1.5757288768938507,2,left
5.4670000000000005,0.3348285513174874,1.1079355761367997,-0.13462187000230436,3.2695403437258586,4.373264597531603,1.4921824693882313,0.007599850805394122,-0.9190038144676591,1.6012081933939994,2,left
5.47,0.3334407183092108,1.102754838235603,-0.13745120263073082,3.260385668986548,4.378794846438428,1.4647756320377152,0.005645591900183197,-0.890810008096259,1.6251687367610372,2,left
5.472,0.3318364521714043,1.0976294519382708,-0.14022163227185308,3.251281557031891,4.382663347847666,1.4368801301673504,0.0038825618698699596,-0.8622500851732217,1.6476303792357732,2,left
5.475,0.330018952786001,1.092560875803153,-0.14292998082346148,3.2422088586840165,4.384895029298428,1.4084921340954786,0.002300343656319405,-0.8333470711217026,1.6686141282856313,2,left
5.476,0.32799197971869826,1.0875503704962948,-0.14557318196440347,3.233147947597651,4.38551372224749,1.3796081594841247,0.0008886251236783317,-0.8041242798519639,1.6881420742986502,2,left
5.481,0.3257598515556118,1.0825990097422151,-0.1481482869087255,3.2240787341786117,4.3845421550954145,1.3502251216325454,-0.000362785332134706,-0.7746052901979802,1.7062373383361504,2,left
5.483,0.3233274416128604,1.0777076909112289,-0.15065246869389018,3.2149806774652943,4.3820019575582005,1.32034038998801,-0.0014639440399874927,-0.7448139213359678,1.7229240200043952,2,left
5.485,0.32070016996869855,1.0728771450339403,-0.1530830252393337,3.2058327949470797,4.3779136763862905,1.28995184279084,-0.002424758180217736,-0.7147742071009403,1.7382271455013982,2,left
5.486000000000001,0.3178839919380346,1.0681079461654337,-0.15543738143580765,3.1966136702935675,4.372296802428193,1.259057921769287,-0.00325497278505877,-0.6845103691165405,1.7521726158909086,2,left
5.4910000000000005,0.31488538325479254,1.0634005201551888,-0.1577130905196671,3.1873014589684527,4.365169809031466,1.2276576867983902,-0.003964158615992051,-0.6540467886526183,1.764787155651565,2,left
5.492000000000001,0.3117113223099116,1.0587551529919759,-0.15990783495813637,3.177873891701723,4.356550201769357,1.1957508704355213,-0.004561700920807603,-0.623407977124311,1.7760982615452383,2,left
5.495,0.30836926979664775,1.0541719989669485,-0.1620194270271803,3.1683082757936343,4.346454579477,1.163337932243856,-0.005056789072777996,-0.5926185451457368,1.7861341518446767,2,left
5.496,0.304867146058089,1.0496510889205402,-0.16404580921100295,3.158581494223679,4.334898706576746,1.1304201128135714,-0.005458407094003406,-0.5617031700508432,1.7949237159567588,2,left
5.5,0.30121330635226584,1.0451923388063469,-0.16598505450149975,3.1486700025374104,4.321897596667886,1.0969994873891085,-0.0057753250646640965,-0.5306865617934448,1.8024964644739,2,left
5.502000000000001,0.2974165141827871,1.0407955587297901,-0.1678353666342875,3.1385498234835905,4.307465607351802,1.0630790190093917,-0.006016091412619665,-0.49959342720014366,1.8088824796863106,2,left
5.502000000000001,0.29348591280116615,1.0364604625298182,-0.16959508026956668,3.1281965393736706,4.291616546259401,1.0286626110664419,-0.00618902604251395,-0.4684484328599263,1.8141123666031975,2,left
5.505,0.2894309949703888,1.0321866778948963,-0.1712626611122244,3.1175852821350802,4.274363788243481,0.9937551591863831,-0.00630221420028011,-0.43727616749275555,1.818217204561693,2,left
5.506,0.2852615710958505,1.027973756940207,-0.17283670596164566,3.106690721029201,4.255720403694628,0.9583626023354088,-0.0063635009337096905,-0.4061011049497202,1.8212284995178674,2,left
5.5089999999999995,0.2809877358803556,1.0238211871119045,-0.17431594268209227,3.0954870481675782,4.23569929762046,0.9224919729979667,-0.006380486044565582,-0.37494756868669377,1.8231781370918807,2,left
5.51,0.2766198337064332,1.0197284022427417,-0.1756992300875021,3.083947962775974,4.214313357550759,0.8861514460036356,-0.006360519490567177,-0.3438396979945557,1.8240983364019145,2,left
5.511,0.2721684229597331,1.015694793578225,-0.17698555773722446,3.072046656625228,4.19157560549506,0.8493503850928782,-0.006310697230437902,-0.31280141595855976,1.8240216046994038,2,left
5.515,0.2676442395149522,1.011719720597433,-0.17817404563639525,3.0597558038638004,4.167499347602043,0.8120993860410942,-0.0062378575120797175,-0.2818563990574063,1.8229806928112346,2,left
5.516,0.2630581596502028,1.0078025214390445,-0.17926394382691868,3.047047557669111,4.14209831673946,0.7744103154284391,-0.006148577603832538,-0.2510280483127059,1.821008551391627,2,left
5.519,0.25842116270880344,1.0039425227312266,-0.18025463184989413,3.033893554663563,4.115386806041321,0.7362963446264498,-0.006049170968690164,-0.22033946189972017,1.8181382879835464,2,left
5.52,0.2537442938432917,1.0001390486445507,-0.18114561806499394,3.0202649272232405,4.087379793038572,0.6977719788406133,-0.005945684881277659,-0.18981340913053263,1.8144031248867298,2,left
5.526,0.24903862715346262,0.9963914290371049,-0.1819365388288949,3.0061323236427047,4.058093054300319,0.6588530811006335,-0.005843898487347279,-0.15947230572113927,1.8098363578267311,2,left
5.527,0.24431522948920414,0.992699006622822,-0.18262715756006703,2.991465936118045,4.027543270508886,0.6195568910889402,-0.005749321305520427,-0.1293381902543465,1.8044713154168095,2,left
5.529,0.23958512514317817,0.9890611431570753,-0.1832173637432534,2.9762355365089674,3.9957481218882966,0.5799020386968018,-0.005667192170990793,-0.09943270175083206,1.7983413194020048,2,left
5.529,0.23485926161500012,0.9854772246912888,-0.18370717194551384,2.960410519839253,3.9627263739020777,0.5399085521962743,-0.005602478620908146,-0.0697770582612544,1.7914796456723512,2,left
5.5360000000000005,0.23014847659178594,0.9819466659945647,-0.18409672092268897,2.9439599554933964,3.928497953132659,0.4995978609151419,-0.005559876721182353,-0.040392036392889866,1.783919486029891,2,left
5.537000000000001,0.22546346626126826,0.9784689142711456,-0.18438627289016632,2.9268526460656052,3.893084013251073,0.45899279230097273,-0.0055438113344824175,-0.011297951684932736,1.7756939106919472,2,left
5.539,0.22081475505344256,0.9750434523167156,-0.18457621301402305,2.909057193815622,3.856506990982136,0.4181175632594455,-0.005558436829254742,0.017485360252689697,1.766835831511016,2,left
5.54,0.21621266689479055,0.9716698012545295,-0.1846670491462926,2.890542074684056,3.818790651966824,0.37699776565119464,-0.005607638229647751,0.04593856192135868,1.7573779658896331,2,left
5.544,0.21166729805297407,0.968347522976189,-0.1846594117834981,2.871275719818007,3.779960126420159,0.3356603458305789,-0.005695032806305692,0.07404283152019901,1.7473528013666526,2,left
5.544,0.20718849164343633,0.9650762223860176,-0.18455405418101933,2.851226604555786,3.740041934479582,0.29413357810900376,-0.005823972108081997,0.10177988001955271,1.7367925608495645,2,left
5.5489999999999995,0.20278581385588726,0.9618555495182336,-0.1843518525222511,2.8303633448174903,3.6990640011355147,0.2524470320247308,-0.005997544434821323,0.12913196780318903,1.7257291684657488,2,left
5.55,0.19846853193435054,0.9586852015676025,-0.18405380603063054,2.8086548008460057,3.65705566063262,0.2106315333004827,-0.006218577751468593,0.15608192095994777,1.714194216003937,2,left
5.553999999999999,0.19424559390998272,0.9555649248498305,-0.18366103692296007,2.7860701882407732,3.6140476502271457,0.16871911836961254,-0.006489643043882066,0.18261314730445874,1.7022189299156134,2,left
5.555,0.19012561004572667,0.9524945166883553,-0.18317479012502141,2.7625791962243302,3.5700720931826955,0.12674298235114892,-0.006813058116855175,0.20870965220547563,1.6898341388446416,2,left
5.559,0.18611683591082456,0.9494738272090874,-0.18259643269656764,2.7381521130791797,3.5251624708838163,0.08473742035366212,-0.007190891834987635,0.23435605429920858,1.6770702416520449,2,left
5.56,0.18222715696534048,0.9465027610133895,-0.18192745293679202,2.712759958690055,3.4793535839439227,0.042737761987618555,-0.0076249688071895316,0.2595376011638379,1.6639571759016085,2,left
5.563,0.17846407450608856,0.943581278692617,-0.18116945915860938,2.6863746241240305,3.4326815021812953,0.0007802989657117392,-0.008116874515751911,0.2842401850301447,1.6505243867707884,2,left
5.564,0.17483469281155886,0.9407093981467115,-0.18032417812732707,2.6589690181782384,3.385183503334214,-0.04109779432942511,-0.008667960891073254,0.30845035860190156,1.6368007963503253,2,left
5.569,0.1713457073253008,0.9378871956755916,-0.17939345315892302,2.6305172208221923,3.3368980003837123,-0.08285854743070052,-0.0092793523332922,0.3321553510583322,1.622814773294957,2,left
5.57,0.1680033937323638,0.935114806823828,-0.17837924187186166,2.600994643458862,3.287864457349959,-0.12446328764569281,-0.009951952174786947,0.35534308426976674,1.6085941028219894,2,left
5.57,0.16481359781053456,0.9323924269722967,-0.1772836135877469,2.5703781959257084,3.238123293425891,-0.1658727413096476,-0.010686449540393004,0.3780021890571538,1.5941659572301063,2,left
5.5729999999999995,0.16178172597234397,0.9297203116823206,-0.17610874637939095,2.5386464601538923,3.187715775309473,-0.2070471425522291,-0.011483326495263005,0.40012202096635635,1.5795568674276412,2,left
5.574,0.15891273644391096,0.9270987768113881,-0.1748569237706119,2.5057798704008025,3.136683897593821,-0.24794634969745985,-0.01234286533318944,0.4216926748276216,1.5647926961353151,2,left
5.577999999999999,0.1562111310482475,0.9245281984385691,-0.17353053110296257,2.4717608999679,3.085070251072375,-0.2885299694157216,-0.013265155895666727,0.44270499756814885,1.5498986132513937,2,left
5.579,0.15368094758086928,0.9220090126562561,-0.17213205159959089,2.4365742539635353,3.032917879174187,-0.32875748850374864,-0.014250102879248638,0.46315059910242,1.5348990735490922,2,left
5.58,0.15132575278624522,0.9195417152913997,-0.17066406216763955,2.4002070659214163,2.980270124541524,-0.3685884119564241,-0.015297433126214817,0.4830218613224289,1.5198177966991562,2,left
5.582999999999999,0.14914863595912628,0.9171268616124385,-0.16912922898223257,2.362649092939789,2.9271704709983313,-0.4079824038128936,-0.016406702901195728,0.5023119452481555,1.504677749574883,2,left
5.584,0.14715220320848288,0.9147650660699449,-0.16753030289346152,2.323892902257331,2.8736623879555037,-0.4468994260471564,-0.017577305156584892,0.5210147963970022,1.4895011307965493,2,left
5.587000000000001,0.1453385724404733,0.9124570021174084,-0.1658701147006603,2.283934043924087,2.8197891824985613,-0.4852998719834872,-0.018808476789746207,0.539125148429264,1.4743093574719663,2,left
5.587999999999999,0.1437093691351118,0.9102034021543267,-0.16415157034114397,2.242771207364666,2.7655938611639685,-0.5231446928961746,-0.020099305895201657,0.5566385251250321,1.4591230540897193,2,left
5.5920000000000005,0.1422657229996099,0.9080050576168227,-0.1623776460360631,2.2004063613732088,2.7111190016102666,-0.5603955176630254,-0.0214487390151606,0.5735512407462502,1.4439620435215381,2,left
5.593,0.14100826557907062,0.9058628192147253,-0.1605513834252289,2.156844877425331,2.65640663402934,-0.5970147655828636,-0.022855588391925506,0.5898603988359393,1.4288453400902013,2,left
5.598,0.13993712889791027,0.9037775972867041,-0.15867588471096683,2.1120956361888066,2.601498132142233,-0.6329657524656597,-0.0243185392258801,0.6055638895048939,1.4137911446593912,2,left
5.599,0.13905194519920497,0.901750362220033,-0.1567543078225715,2.066171117111286,2.5464341136231012,-0.6682127901022219,-0.025836156942933893,0.6206603852544299,1.3988168417019842,2,left
5.602,0.1383518478472234,0.8997821448603189,-0.15478986160959288,2.0190874709599376,2.4912543497942248,-0.702721279218567,-0.027406894475461793,0.6351493353820308,1.3839389983033945,2,left
5.603,0.13783547345911237,0.897874036822802,-0.15278580107054493,1.9708645751844776,2.435997684434425,-0.7364577960181711,-0.029029099560938364,0.6490309590150019,1.369173365056757,2,left
5.607,0.1375009653309463,0.8960271906132542,-0.15074542261835874,1.9215260719717062,2.3807019615427882,-0.7693901724132828,-0.030701022062623123,0.6623062368154985,1.3545348788069709,2,left
5.608,0.13734597821710057,0.8942428194718005,-0.14867205937557548,1.8710993888563252,2.3254039618992666,-0.8014875700443586,-0.03242082131680563,0.6749769013985534,1.3400376672008965,2,left
5.614,0.13736768450783352,0.892522196865026,-0.1465690764857049,1.819615741749558,2.2701393482634975,-0.8327205481844678,-0.0341865735112668,0.6870454265029815,1.3256950550013227,2,left
5.615,0.13756278182917545,0.8908666555698023,-0.14443986642379514,1.767110120243897,2.214942619053069,-0.863061125623208,-0.03599627909975532,0.6985150149533039,1.3115195721226767,2,left
5.617000000000001,0.13792750206583146,0.8892775863155851,-0.14228784428654703,1.713621255049182,2.159847070342455,-0.8924828366222723,-0.03784787025741583,0.7093895854490949,1.2975229633468637,2,left
5.617999999999999,0.13845762178621404,0.8877564359776227,-0.140116443038196,1.659191567412186,2.1048847660239325,-0.9209607810323356,-0.039739218382236784,0.7196737582164278,1.2837161996780602,2,left
5.622000000000001,0.13914847403190075,0.8863047053371306,-0.13792910868368902,1.6038671003689557,2.050086515971985,-0.9484716686583593,-0.0416681416477126,0.729372839554379,1.270109491295762,2,left
5.622999999999999,0.1399949614225928,0.8849239464433333,-0.13572929533865846,1.547697431676345,1.995481862052991,-0.9749938579577844,-0.04363241261203447,0.7384928053078393,1.2567123020659023,2,left
5.626,0.14099157052018801,0.8836157596265828,-0.13352046016904084,1.4907355682664682,1.941099071822367,-1.000507389153372,-0.04562976588923855,0.747040283296186,1.2435333655704008,2,left
5.627000000000001,0.14213238738959288,0.8823817902220767,-0.13130605818136074,1.4330378220652569,1.8869651397518141,-1.0249940118396745,-0.04765790588784804,0.7550225347256947,1.2305807026160729,2,left
5.632000000000001,0.14341111428889491,0.8812237250699896,-0.1290895368548054,1.3746636670138688,1.8331057958298547,-1.0484372071592873,-0.049714514622647,0.7624474346119009,1.2178616401844342,2,left
5.632999999999999,0.14482108741643077,0.8801432888605452,-0.12687433061660733,1.3156755771294357,1.7795455213795008,-1.0708222046221343,-0.051797259605318974,0.7693234512364834,1.205382831784556,2,left
5.636,0.14635529563461466,0.879142240392086,-0.12466385517371299,1.2561388454395281,1.7263075719375918,-1.092135993638097,-0.05390380181977162,0.7756596246616172,1.193150279171778,2,left
5.638,0.14800640008180954,0.8782223688057493,-0.12246150172552021,1.1961213836227755,1.6734140070411279,-1.1123673298302985,-0.056031803781003295,0.7814655443359458,1.1811693553796134,2,left
5.638,0.14976675458220856,0.8773854898506152,-0.12027063108977733,1.1356935021863301,1.6208857267667929,-1.131506736193322,-0.05817893764120662,0.7867513258887542,1.1694448289321648,2,left
5.642,0.1516284267713881,0.8766334422197275,-0.11809456777390398,1.0749276710092823,1.5687425148707688,-1.149546499157569,-0.06034289324344805,0.7915275873225904,1.1579808889598038,2,left
5.643,0.15358321985680026,0.8759680839864803,-0.115936594022683,1.013898260079768,1.517003088376941,-1.1664806596178556,-0.06252138598808792,0.7958054248770687,1.146781170860881,2,left
5.647,0.15562269491866368,0.8753912891658804,-0.11379994387509702,0.952681260747523,1.4656851533628934,-1.18230499903921,-0.06471216441239676,0.7995963887710847,1.1358487822336796,2,left
5.648,0.1577381936456645,0.8749049444211885,-0.11168779726204871,0.8913539902886297,1.4148054661954874,-1.1970170210396696,-0.06691301744729615,0.8029124589139993,1.1251863289488377,2,left
5.648,0.15992086140712566,0.8745109459286876,-0.10960327416818165,0.8299947870351783,1.3643798985712987,-1.2106159293686805,-0.06912178135043041,0.805766020610904,1.1147959413139348,2,left
5.652,0.1621616705717107,0.8742111964031254,-0.10754942887211663,0.7686827057979895,1.3144235042196748,-1.2231026034865136,-0.07133634632185808,0.808169840272888,1.104679300298837,2,left
5.653,0.1644514439739953,0.8740076022758171,-0.10552924427708686,0.7074972208342669,1.2649505856261603,-1.2344795726569207,-0.07355466280868059,0.8101370411418565,1.094837663791181,2,left
5.657,0.16678087841609218,0.8739020710071232,-0.10354562634545296,0.6465179391552341,1.2159747600329995,-1.244750988940089,-0.0757747475049492,0.8116810790381256,1.0852718928521456,2,left
5.6579999999999995,0.16914056808917982,0.8738965085069192,-0.10160139865020465,0.5858243244929858,1.167509024473502,-1.2539225991797684,-0.07799468905320729,0.8128157181377296,1.0759824779434566,2,left
5.6610000000000005,0.1715210278085415,0.8739928166329356,-0.09969929705172817,0.5254954317509547,1.1195658196981706,-1.2620017160172605,-0.08021265345403665,0.8135550067851184,1.0669695650973516,2,left
5.662000000000001,0.17391271596831212,0.874192890737347,-0.09784196449966377,0.465609651762987,1.0721570928519328,-1.268997187961792,-0.08242688918998116,0.8139132533457116,1.0582329820020255,2,left
5.665,0.17630605713568742,0.8744986172351152,-0.09603194595257722,0.406244466186842,1.0252943587632692,-1.2749193685436329,-0.08463573207022129,0.8139050021016001,1.049772263975872,2,left
5.666,0.17869146421907922,0.8749118711721026,-0.09427168340881065,0.3474762123589741,0.978988759707535,-1.2797800845731908,-0.08683760980236735,0.8135450091925469,1.0415866798046292,2,left
5.671,0.18105936016090513,0.8754345137763059,-0.092563511051545,0.28937985793872856,0.9332511235083101,-1.283592603526197,-0.08903104629772865,0.8128482186033503,1.0336752574163315,2,left
5.672000000000001,0.18340019912199848,0.8760683899808749,-0.09090965052498182,0.23202878517157577,0.8880920198421778,-1.2863716000720242,-0.0912146657164007,0.8118297381975769,1.0260368093697576,2,left
5.676,0.18570448713924048,0.8768153259115764,-0.08931220637074203,0.1754945846027192,0.8435218146139285,-1.288133121759127,-0.09338719625849283,0.8105048157966607,1.0186699581328609,2,left
5.676,0.18796280225058315,0.8776771263334183,-0.0877731616606732,0.11984685807433926,0.7995507222708222,-1.2888945538685903,-0.09554747370779397,0.8088888153024024,1.0115731611284486,2,left
5.68,0.19016581409266362,0.8786555720512339,-0.08629437386353882,0.06515303084187385,0.7561888559262011,-1.2886745834438025,-0.09769444473414732,0.8069971928599724,1.0047447355251689,2,left
5.683,0.19230430298513623,0.8797524172579233,-0.08487757098013672,0.011478172647076958,0.7134462751644357,-1.2874931625013515,-0.09982716996077234,0.804845473057647,0.9981828827526339,2,left
5.684,0.19436917852056534,0.8809693868236045,-0.08352434797764753,-0.04111517241186005,0.6713330314009094,-1.2853714704253716,-0.10194482680273752,0.8024492251586669,0.9918857127202914,2,left
5.688,0.19635149767812723,0.8823081735199396,-0.08223616355224282,-0.09256714737010543,0.6298592106724963,-1.2823318755447521,-0.10404671208274963,0.7998240393598194,0.9858512677204243,2,left
5.688,0.19824248247485798,0.883770435174678,-0.08101433724850096,-0.1428207353999612,0.5890349737357651,-1.2783978958898592,-0.10613224443038469,0.7969855030705941,0.9800775459964236,2,left
5.693,0.20003353716227146,0.8853577917503772,-0.07986004696176634,-0.19182190447957218,0.5488705933519512,-1.2735941591227233,-0.10820096647084235,0.7939491772060646,0.9745625249582379,2,left
5.694,0.20171626497113765,0.8870718223395467,-0.07877432684408264,-0.2395197438742551,0.5093764886395764,-1.2679463616320146,-0.11025254680926061,0.7907305724859859,0.9693041840276649,2,left
5.6979999999999995,0.20328248440440796,0.8889140620683222,-0.07775806562850204,-0.2858665925746964,0.47056325637745977,-1.2614812267815498,-0.11228678181658126,0.7873451257319879,0.9643005270968895,2,left
5.6979999999999995,0.20472424507744477,0.8908859989025204,-0.07681200538325549,-0.3308181598326765,0.4324416991427622,-1.254226462298598,-0.114303597222908,0.7838081761541751,0.9595496045844228,2,left
5.702000000000001,0.20603384310447356,0.892989070352989,-0.07593674070562584,-0.37433363793124114,0.39502285017062977,-1.2462107167858076,-0.11630304952425051,0.7801349416179209,0.9550495350733328,2,left
5.702999999999999,0.2072038360303446,0.8952246600813544,-0.0751327183629164,-0.41637580732236684,0.3583179948239601,-1.2374635353382473,-0.11828532720603832,0.7763404948962169,0.950798526506205,2,left
5.702999999999999,0.20822705730828636,0.8975940944112788,-0.07440023738433821,-0.4569111342611658,0.32233868856380216,-1.228015314244778,-0.12025075177443989,0.7724397399877813,0.9467948968560961,2,left
5.707000000000001,0.20909663032632894,0.9000986387527655,-0.07373944960432373,-0.49590986106155893,0.28709677131291983,-1.2178972547507976,-0.12219977856433431,0.768447388716228,0.9430370940928291,2,left
5.707999999999999,0.20980598198504657,0.9027394939487627,-0.07315036065504284,-0.5333460890941207,0.25260437810710024,-1.2071413158572895,-0.12413299728043542,0.7643779379005285,0.9395237152087902,2,left
5.712999999999999,0.21034885582747093,0.9055177925556265,-0.072632831403028,-0.5691978545882251,0.21887394600001248,-1.1957801661518945,-0.12605113224031864,0.7602456473114146,0.9362535241250056,2,left
5.7139999999999995,0.21071932472073682,0.9084345950710241,-0.07218657982222892,-0.6034471970249434,0.18591821753523388,-1.183847134779737,-0.1279550423101925,0.7560645184926144,0.9332254683996111,2,left
5.7139999999999995,0.2109118030888852,0.9114908861228501,-0.07181118329446524,-0.6360802194143774,0.15375024172346222,-1.171376161865012,-0.1298457205365099,0.7518482744503168,0.9304386947174388,2,left
5.7170000000000005,0.21092105869562808,0.9146875706314163,-0.07150608132655653,-0.6670871394752963,0.1223833738108155,-1.1584017488065446,-0.13172429347893136,0.7476103401990243,0.9278925631513244,2,left
5.7170000000000005,0.21074222397274134,0.918025469957207,-0.0712705786691252,-0.696462331001623,0.09183127478065334,-1.1449589087549443,-0.133592020250112,0.74336382415181,0.9255866601864332,2,left
5.722,0.21037080688357562,0.9215053180482151,-0.07110384881680368,-0.7242043551839691,0.062107910911370426,-1.1310831173723415,-0.1354502912677457,0.7391215003428999,0.9235208104995993,2,left
5.723,0.20980270130316384,0.925127757602129,-0.07100493786654244,-0.7503159819210253,0.033227553369221834,-1.1168102638602921,-0.13730062672426632,0.7348957914704292,0.9216950874863618,2,left
5.728,0.20903419688803032,0.9288933362585964,-0.07097276870983837,-0.7748042012051952,0.005204777748441663,-1.1021766022173145,-0.13914467477957415,0.7306987527472049,0.9201098225290733,2,left
5.729,0.2080619884009663,0.9328025028361354,-0.07100614553370999,-0.7976802246621689,-0.02194553652670112,-1.0872187026862714,-0.14098420948212897,0.7265420565473126,0.9187656130001466,2,left
5.731,0.2068831844492989,0.9368556036271138,-0.07110375860273002,-0.8189594773194669,-0.04820820702084395,-1.071973403350673,-0.1428211284237292,0.7224369778364551,0.9176633289951956,2,left
5.732,0.20549531559019,0.9410528787621922,-0.07126418929056416,-0.8386615796743248,-0.07356774940793898,-1.0564777618379415,-0.14465745013327821,0.7183943803739887,0.9168041187915178,2,left
5.737,0.20389634175356874,0.945394458652387,-0.07148591532506494,-0.8568103201266688,-0.09800837897109128,-1.0407690070867484,-0.1464953112148263,0.7144247036747443,0.9161894130280586,2,left
5.7379999999999995,0.20208465893138608,0.9498803605120646,-0.07176731620570519,-0.8734336178383548,-0.1215140125572393,-1.0248844911347048,-0.14833696323517018,0.7105379507188595,0.9158209276036919,2,left
5.742000000000001,0.2000591050797479,0.9545104849599154,-0.07210667874633205,-0.8885634760753205,-0.1440682710594947,-1.0088616408819755,-0.15018476936628888,0.7067436763980341,0.9157006652913541,2,left
5.742999999999999,0.19781896517976164,0.9592846126883533,-0.07250220269438803,-0.9022359260848477,-0.16565448249731854,-0.9927379097857645,-0.15204120078790156,0.7030509766868269,0.9158309160662668,2,left
5.747000000000001,0.19536397540649167,0.9642024011859724,-0.072952006384151,-0.9144909615557573,-0.18625568576202348,-0.9765507294401229,-0.15390883285544227,0.6994684785278442,0.9162142561471985,2,left
5.747000000000001,0.19269432636290218,0.9692633814934667,-0.0734541323933416,-0.9253724637050798,-0.20585463509235913,-0.9603374609951323,-0.15579034103876566,0.6960043304199464,0.9168535457504181,2,left
5.751,0.1898106653449306,0.9744669549718037,-0.07400655318335818,-0.934928117030562,-0.22443380534215482,-0.9441353463692228,-0.15768849663692175,0.6926661936988785,0.9177519255567252,2,left
5.752000000000001,0.18671409761445334,0.9798123900641104,-0.07460717671087143,-0.943209315764315,-0.24197539809916457,-0.9279814592082056,-0.15960616227437122,0.6894612345000514,0.918912811892663,2,left
5.757000000000001,0.18340618666824302,0.9852988190400489,-0.07525385200313621,-0.9502710610589589,-0.25846134871137955,-0.9119126555445238,-0.1615462871840518,0.6863961163935395,0.9203398906277558,2,left
5.757000000000001,0.17988895350064169,0.9909252347210264,-0.07594437469205424,-0.9561718489338326,-0.2738733342741419,-0.8959655241102562,-0.16351190228275547,0.68347699368172,0.9220371097903619,2,left
5.761,0.17616487486437593,0.9966904871929462,-0.0766764925038786,-0.9609735490051723,-0.28819278262841397,-0.8801763362575494,-0.16550611504433083,0.6807095053503619,0.9240086709054827,2,left
5.7620000000000005,0.17223688053927091,1.0025932805177715,-0.07744791070322166,-0.9647412740206727,-0.30140088241752294,-0.8645809954403935,-0.1675321041762915,0.6780987696643721,0.926259019058636,2,left
5.766,0.1681083496247052,1.0086321694550127,-0.07825629749075058,-0.9675432402155151,-0.31347859424661517,-0.8492149862120085,-0.16959311410548358,0.6756493793998248,0.9287928316906796,2,left
5.767,0.1637831058789403,1.0148055562009837,-0.07909928935237348,-0.9694506185037974,-0.32440666298591636,-0.8341133226925624,-0.17169244927854768,0.6733653977043362,0.9316150061292574,2,left
5.771,0.15926541213485057,1.0211116871501225,-0.07997449635460827,-0.970537376516336,-0.3341656312556991,-0.8193104964624934,-0.1738334682846413,0.6712503545817302,0.9347306458757314,2,left
5.772,0.15455996382322462,1.0275486496809796,-0.08087950737839264,-0.9708801114930422,-0.34273585412761276,-0.8048404238373701,-0.1760195778161794,0.6693072440146,0.938145045729223,2,left
5.773,0.1496718816313463,1.0341143689704508,-0.08181189528318551,-0.9705578740355126,-0.35009751507372733,-0.7907363924809818,-0.17825422649820655,0.6675385217697843,0.9418636759417094,2,left
5.776,0.14460670332282646,1.0408066048414966,-0.08276922199367506,-0.9696519827231179,-0.3562306431912835,-0.7770310073142072,-0.1805408986253257,0.6659461039494574,0.9458921656609114,2,left
5.776,0.13937037475028086,1.0476229486492883,-0.08374904350025995,-0.9682458295937474,-0.3611151317277265,-0.7637561356781621,-0.18288310783704645,0.6645313663338268,0.950236285856622,2,left
5.782,0.13396924010153127,1.054560820209229,-0.08474891476221497,-0.966424676488458,-0.36473075792712895,-0.7509428517111836,-0.1852843907478101,0.6632951445309951,0.9549019318155034,2,left
5.7829999999999995,0.12841003142527233,1.0616174647702181,-0.08576639450313837,-0.9642754424676869,-0.36705720420894333,-0.7386213799679238,-0.1877483005399062,0.6622377349328515,0.9598951052283272,2,left
5.7829999999999995,0.12269985747993983,1.0687899500386564,-0.08679904989362223,-0.9618864835556651,-0.3680740806532678,-0.7268210386479755,-0.1902784005260171,0.6613588964729294,0.9652218958821488,2,left
5.7860000000000005,0.11684619194231201,1.0760751632619374,-0.08784446112244612,-0.9593473679592163,-0.36776094870345477,-0.7155701834109982,-0.19287825768829586,0.6606578531826816,0.9708884629708315,2,left
5.787000000000001,0.11085686100997284,1.0834698083820258,-0.08890022586044173,-0.9567486509566042,-0.36609734596001703,-0.7048961530946338,-0.195551436201064,0.6601332975431325,0.9769010160382785,2,left
