time,gFx,gFy,gFz,ax,ay,az,wx,wy,wz,subject_number,foot
3.2260000000000004,0.2517620814070669,1.234825875583705,-0.001633476818742352,-4.716520906810303,4.820243655215938,-1.472692987644328,-0.8351032643740779,0.23886058647004965,2.375852881871794,3,left
3.228,0.26179990300481465,1.2218898646346295,-0.000299331536149336,-4.786714242035283,4.916467671706474,-1.484618985788671,-0.8414801757901782,0.2266550628156509,2.392034731528387,3,left
3.2289999999999996,0.27200159508966915,1.2085744575503805,0.0010595570778375374,-4.856095601957997,5.011849928417759,-1.496392205463987,-0.8476125855724516,0.21426517590161046,2.407624928013178,3,left
3.233,0.28235612110023045,1.1948896435843501,0.002442861638440377,-4.924581737551508,5.10627934966137,-1.5079999144955878,-0.8534894225058907,0.2017038135227118,2.422596325196548,3,left
3.234,0.292852066862818,1.18084593892574,0.0038502681070561795,-4.9920888683334415,5.199643379524181,-1.5194292308196722,-0.8590995843900504,0.1889844376841666,2.436921736532277,3,left
3.238,0.30347766440957813,1.166454369840625,0.005281476809898497,-5.058532782855624,5.2918281080832985,-1.5306671439502153,-0.8644319494296331,0.17612107737358507,2.450573963208206,3,left
3.239,0.3142208175219503,1.15172645472646,0.0067362032779101945,-5.123828943248146,5.382718405457173,-1.5417005379602624,-0.8694753881194413,0.16312832016657441,2.463525823491988,3,left
3.2430000000000003,0.3250691288553777,1.1366741850884043,0.008214178954524176,-5.18789259401159,5.472198063960868,-1.5525162160104384,-0.8742187756397897,0.15002130262945645,2.4757501833130253,3,left
3.2430000000000003,0.33600992848658273,1.121310005456239,0.009715151811045233,-5.25063887524814,5.560149948630047,-1.5631009264569256,-0.8786510047685415,0.1368156994773709,2.4872199880885075,3,left
3.2439999999999998,0.34703030373145144,1.1056467922670368,0.011238886897257732,-5.311982940518949,5.646456156374543,-1.5734413905705742,-0.8827609992694545,0.12352771142160124,2.4979082956432257,3,left
3.2489999999999997,0.3581171301070359,1.0896978317388633,0.012785166840418876,-5.371840079511618,5.730998184018304,-1.5835243318981944,-0.88653772763349,0.11017405159632646,2.5077883097895417,3,left
3.2489999999999997,0.36925710332558875,1.0734767967671563,0.014353792289479823,-5.430125845697869,5.8136571054781205,-1.5933365072964036,-0.889970217003195,0.09677193043066101,2.516833413975494,3,left
3.2539999999999996,0.38043677219011246,1.0569977228992748,0.01594458228192123,-5.486756189157453,5.8943137583288205,-1.6028647396677063,-0.893047567154993,0.08333903885566847,2.5250172045630004,3,left
3.255,0.39164257222717025,1.0402749834762877,0.017557374490716107,-5.541647594740053,5.972848939997539,-1.6120959524277463,-0.8957589644954304,0.06989352977915365,2.5323135235770216,3,left
3.255,0.40286085987233283,1.0233232640588528,0.019192025295418788,-5.594717225587939,6.049143613576852,-1.6210172056595258,-0.8980936960720834,0.056453997784958694,2.5386964909203535,3,left
3.258,0.41407794703046374,1.0061575362624096,0.02084840961976847,-5.645883071314731,6.123079122003768,-1.6296157335477672,-0.9000411636079461,0.04303945701821305,2.544140536077516,3,left
3.259,0.425280135860743,0.988793031114163,0.022526420486823157,-5.695064098829987,6.194537407118782,-1.6378789820344877,-0.901590897567062,0.02966931721795213,2.5486204293286265,3,left
3.262,0.43645375365127204,0.9712452120367805,0.024225968251927018,-5.742180403071454,6.26340122887572,-1.6457946452741588,-0.9027325712580869,0.016363357858537257,2.5521113124915584,3,left
3.263,0.4475851876261688,0.953529747584361,0.025946979478419063,-5.787153355624002,6.329554381203372,-1.6533506998277017,-0.9034560149813512,0.003141700361382508,2.5545887292079503,3,left
3.267,0.4586609194933783,0.9356624840853458,0.027689395428118338,-5.829905750499213,6.392881903239477,-1.6605354361848617,-0.9037512302238544,-0.009975221661377985,2.5560286547858975,3,left
3.2680000000000002,0.46966755952631145,0.9176594183558008,0.02945317015575304,-5.870361947066284,6.4532702858872435,-1.667337487565313,-0.9036084039054496,-0.022966694169463286,2.556407525609294,3,left
3.273,0.4805918799759607,0.899536670636243,0.03123826822136702,-5.9084480102632835,6.510607673884177,-1.6737458560201783,-0.9030179226782719,-0.035811756501197826,2.5557022681208914,3,left
3.2739999999999996,0.4914208476196513,0.8813104578894081,0.03304466206128154,-5.944091848211413,6.564784063564901,-1.6797499358545729,-0.901970387280241,-0.04848923726207927,2.5538903273831597,3,left
3.278,0.5021416552649058,0.8629970675790006,0.0348723290815566,-5.977223347348331,6.61569149649123,-1.6853395343906965,-0.9004566269422052,-0.060977792332438,2.5509496952179918,3,left
3.278,0.5127417520417292,0.8446128320301546,0.03672124855430526,-6.007774505189789,6.663224249113935,-1.6905048900898552,-0.8984677138470095,-0.07325594503104302,2.5468589379231714,3,left
3.282,0.5232088723313083,0.8261741034527539,0.03859139840491931,-6.035679560821845,6.707279018621641,-1.6952366880506409,-0.8959949776374616,-0.08530212847102743,2.541597223560358,3,left
3.283,0.5335310631917942,0.8076972296905758,0.04048275197729847,-6.060875123218653,6.747755105122844,-1.6995260728993065,-0.8930300199688245,-0.0970947301439634,2.535144348806093,3,left
3.2880000000000003,0.5436967101532522,0.7891985307428325,0.04239527485476015,-6.083300297473493,6.78455459029739,-1.7033646590871514,-0.8895647291001053,-0.10861213876731211,2.5274807653540283,3,left
3.2889999999999997,0.5536945612653882,0.7706942760904116,0.044328921798469555,-6.10289680902303,6.8175825126437415,-1.7067445386084956,-0.8855912945170199,-0.11983279342980764,2.5185876058532175,3,left
3.293,0.5635137492942378,0.7522006628463191,0.046283633848888964,-6.119609125937073,6.84674703943813,-1.7096582861515426,-0.8811022215780955,-0.13073523506860518,2.5084467093638985,3,left
3.2939999999999996,0.5731438119793759,0.7337337947377456,0.048259335624252164,-6.133384579338125,6.871959635511058,-1.712098961693146,-0.8760903461739413,-0.14129816031123366,2.4970406463086996,3,left
3.2969999999999997,0.5825747102827028,0.7153096619176089,0.05025593284245956,-6.144173482006907,6.893135228935877,-1.7140601105471696,-0.8705488493882565,-0.15150047771454053,2.4843527428936913,3,left
3.298,0.5917968445817627,0.6969441215989476,0.052273310084007193,-6.151929245221728,6.910192373713007,-1.7155357608747979,-0.8644712721476633,-0.16132136643190262,2.47036710497011,3,left
3.301,0.6008010687819758,0.6786528795053332,0.054311328799789574,-6.156608493871209,6.923053409522045,-1.7165204186637937,-0.8578515298459533,-0.17074033733900212,2.4550686413039546,3,left
3.301,0.6095787023423124,0.6604514721309678,0.05636982554850451,-6.158171179871208,6.931644618602442,-1.7170090601823251,-0.8506839269268136,-0.17973729664743157,2.4384430862169673,3,left
3.307,0.6181215402278339,0.6423552498032165,0.058448610428536836,-6.156580693908167,6.935896379811537,-1.716997121911588,-0.8429631714075609,-0.18829261203429618,2.420477021558791,3,left
3.3080000000000003,0.6264218608194424,0.624379360538961,0.06054746565705659,-6.151803975522226,6.935743319896788,-1.7164804879600417,-0.8346843893248538,-0.19638718131482866,2.4011578979663306,3,left
3.3110000000000004,0.6344724318262612,0.6065387346856294,0.06266614425035598,-6.143811621534506,6.931124462006688,-1.715455474960653,-0.8258431390817825,-0.20400250368382014,2.3804740553625168,3,left
3.3110000000000004,0.6422665142593456,0.5888480703364584,0.06480436877211192,-6.132577992813931,6.9219833714524714,-1.7139188144511048,-0.8164354256693236,-0.2111207534314317,2.3584147426555497,3,left
3.312,0.6497978645328544,0.571321819504579,0.06696183013293083,-6.118081319369803,6.908268298720009,-1.7118676327354772,-0.8064577147094432,-0.2177248554427706,2.334970136659304,3,left
3.3160000000000003,0.657060734757549,0.553974175033216,0.06913818643865677,-6.10030380374711,6.889932319718534,-1.7092994282244485,-0.7959069462221288,-0.2237985607184966,2.310131360366004,3,left
3.3169999999999997,0.6640498712897088,0.5368190582156437,0.07133306189485512,-6.0792317226922545,6.86693347323979,-1.7062120462495973,-0.784780547992902,-0.22932651955743838,2.283890500761827,3,left
3.322,0.6707605116058263,0.5198701071004405,0.07354604578188764,-6.054855526875629,6.839234895465291,-1.7026036514133838,-0.773076448439828,-0.23429435063558385,2.2562406263086214,3,left
3.323,0.6771883795828927,0.5031406654591815,0.07577669151880571,-6.027169937588642,6.806804950731804,-1.6984726978722953,-0.7607930889207833,-0.23868870528502992,2.227175804096567,3,left
3.323,0.6833296792651488,0.48664377239102946,0.07802451583502878,-5.996174037776377,6.769617356646167,-1.6938178985564531,-0.747929435444193,-0.2424973268697696,2.1966911166050993,3,left
3.3310000000000004,0.6891810871991695,0.4703921525352655,0.08028899806905578,-5.961871353898184,6.727651301012797,-1.6886381946648634,-0.7344849897496096,-0.24570910527255913,2.1647826779926436,3,left
3.332,0.6947397434337597,0.4543982068618155,0.08256957961311731,-5.924269925958404,6.680891548637942,-1.6829327264366092,-0.7204597997228486,-0.2483141265054621,2.131447649831656,3,left
3.333,0.7000032413060797,0.4386740040095564,0.0848656635182776,-5.88338236458688,6.629328537166696,-1.6767008055894796,-0.7058544691087207,-0.25030371745498836,2.0966842562013905,3,left
3.333,0.7049696161600675,0.423231272141256,0.08717661426598283,-5.839225894898866,6.572958461709326,-1.6699418894786326,-0.6906701664827433,-0.25167048577103246,2.060491798046719,3,left
3.3369999999999997,0.7096373331636566,0.4080813912836271,0.08950175770302322,-5.791822387026329,6.511783348122581,-1.662655556958894,-0.674908633441538,-0.25240835490707686,2.022870666707237,3,left
3.339,0.7140052744058962,0.3932353861219147,0.09184038113015552,-5.7411983732032255,6.445811114797829,-1.6548414859327965,-0.658572191969962,-0.2525125943173593,1.983822356516792,3,left
3.341,0.7180727254615835,0.3787039192205245,0.09419173353085132,-5.6873850512779445,6.37505562279411,-1.6464994325649331,-0.641663750941356,-0.25197984481491786,1.9433494763694568,3,left
3.342,0.7218393616086521,0.36449728464512443,0.0965550259249446,-5.630418274516806,6.299536714140361,-1.637629212141702,-0.6241868117056337,-0.2508081390926233,1.9014557601438853,3,left
3.345,0.7253052338719828,0.35062540196801684,0.09892943183188746,-5.570338527553248,6.219280238117339,-1.6282306815539842,-0.6061454727182912,-0.2489969174074902,1.858146075873872,3,left
3.346,0.7284707550469863,0.3370978106466217,0.10131408783006014,-5.5071908883281795,6.134318065316016,-1.6183037233787985,-0.5875444331617679,-0.24654703842673334,1.813426433548859,3,left
3.3510000000000004,0.7313366858301635,0.3239236647735794,0.10370809420108953,-5.441024975857958,6.04468808925556,-1.6078482315344436,-0.5683889955089635,-0.24346078523220105,1.7673039914240543,3,left
3.352,0.7339041211559694,0.31111172820590755,0.10611051564961627,-5.371894883657473,5.9504342153304,-1.596864098482134,-0.5486850669770914,-0.239741866477985,1.719787060715752,3,left
3.355,0.7361744768135542,0.29867037008959096,0.10852038208926254,-5.299859098637052,5.85160633684242,-1.5853512039456086,-0.5284391598184451,-0.2353954126941731,1.6708851085534064,3,left
3.3560000000000003,0.7381494763965601,0.28660756080437644,0.11093668948662139,-5.224980405283217,5.748260297860844,-1.573309405118676,-0.5076583903930619,-0.23042796772788773,1.6206087590559781,3,left
3.36,0.7398311386253005,0.2749308683607859,0.11335840075805581,-5.147325774924832,5.640457842639193,-1.560738528329143,-0.48635047696669315,-0.22484747531093655,1.568969792396068,3,left
3.361,0.741221765072502,0.26364745528751343,0.11578444671695132,-5.0669662398778295,5.528266551305506,-1.5476383621260539,-0.4645237361759355,-0.21866326074160405,1.5159811417113818,3,left
3.365,0.7423239283190531,0.2527640760528458,0.11821372706907321,-4.983976752253568,5.411759761529079,-1.5340086517556413,-0.4421870781008431,-0.21188600766633098,1.4616568877191207,3,left
3.366,0.7431404605612958,0.24228707506814579,0.12064511145043362,-4.898436027207877,5.291016475854183,-1.5198490949898829,-0.419349999883825,-0.20452772994527005,1.4060122508849802,3,left
3.3710000000000004,0.7436744426833798,0.23222238532402528,0.12307744049681969,-4.81042637040011,5.1661212543786235,-1.5051593392700255,-0.3960225778321457,-0.19660173858397553,1.3490635809945628,3,left
3.372,0.7439291937961048,0.222575527710413,0.12550952692891867,-4.720033489423964,5.037164092442611,-1.4899389801259213,-0.37221545793988214,-0.1881226037117834,1.290828343971182,3,left
3.375,0.7439082612282557,0.21335161106975573,0.1279401566346212,-4.627346288964503,4.90424028298127,-1.4741875608305015,-0.3479398447637535,-0.17910611158577214,1.2313251057802388,3,left
3.3760000000000003,0.7436154109395816,0.2045553330266377,0.13036808973284675,-4.532456649428749,4.767450263182181,-1.4579045732471847,-0.3232074885858328,-0.16956921659756652,1.1705735132566086,3,left
3.38,0.7430546183087756,0.19619098162566728,0.13279206161074447,-4.435459188790356,4.626899445077708,-1.4410894598264967,-0.2980306707947742,-0.15952998825866008,1.1085942716877861,3,left
3.3810000000000002,0.7422300592386765,0.1882624377930181,0.13521078393480743,-4.336451007382294,4.482698029690473,-1.423741616706648,-0.2724221874627539,-0.1490075532430208,1.0454091190853787,3,left
3.3819999999999997,0.7411461015191898,0.18077317861924708,0.1376229456421906,-4.235531415365162,4.334960804339242,-1.405860397871292,-0.24639533132856709,-0.13802203308740432,0.9810407975913846,3,left
3.384,0.7398072963953845,0.17372628144600868,0.1400272139205219,-4.1328016425926775,4.183806922701687,-1.3874451203161624,-0.2199638728182443,-0.1265944790900308,0.9155130233935386,3,left
3.385,0.7382183702935327,0.16712442872711764,0.1424222351850411,-4.0283645305901565,4.029359667220037,-1.3684950701747451,-0.19314204096786688,-0.11474680647004797,0.8488504570379747,3,left
3.39,0.7363842166554442,0.1609699136232186,0.1448066360627005,-3.9223242069503774,3.8717461939178937,-1.3490095097585055,-0.16594450487750506,-0.10250172932572146,0.7810786755066305,3,left
3.391,0.7343098878297882,0.15526464628090894,0.14717902439360023,-3.81478574541665,3.7110972621490026,-1.3289876855000784,-0.13838635590184448,-0.08988269698635423,0.7122241464921157,3,left
3.391,0.7320005869754344,0.15001016074329848,0.14953799026003858,-3.7058548202650576,3.547546956221357,-1.3084288368482675,-0.11048309054739096,-0.07691383182857851,0.6423142047820833,3,left
3.398,0.7294616599390056,0.14520762243404967,0.15188210705259136,-3.5956373665638086,3.381232408293217,-1.287332206196584,-0.08225059399815524,-0.0636198685218942,0.5713770305584696,3,left
3.3989999999999996,0.7266985870690676,0.14085783614623612,0.15420993258178267,-3.4842392549127545,3.2122935294666455,-1.2656970498910913,-0.053705124190683524,-0.05002609466725466,0.4994416294138601,3,left
3.3989999999999996,0.7237169749266723,0.13696125445684773,0.15652001024344112,-3.3717659839150835,3.040872751563729,-1.2435226502998078,-0.02486329635830964,-0.036158292791496745,0.426537813884212,3,left
3.3989999999999996,0.7205225478531234,0.13351798648394203,0.15881087024538745,-3.258322390658901,2.867114779600475,-1.2208083288899432,0.004257932036440955,-0.02204268365947973,0.35269618629420957,3,left
3.404,0.7171211393618306,0.13052780690439497,0.1610810309025195,-3.14401237888891,2.69116635447337,-1.197553460250821,0.033641276063262594,-0.007705870864937259,0.27794812270866637,3,left
3.405,0.7135186833304361,0.12799016515225156,0.16332900000684653,-3.0289386645453145,2.5131760253664646,-1.1737574869987797,0.06326913786211498,0.006825213339739659,0.2023257577806077,3,left
3.41,0.7097212049811118,0.1259041947202521,0.165553276278387,-2.913202538344269,2.3332939313801377,-1.1494199354987988,0.09312362104152307,0.021523361015281725,0.12586197028397228,3,left
3.411,0.7057348116493072,0.12426872249095203,0.16775235090138255,-2.79690364507172,2.1516715918764175,-1.1245404323360495,0.1231865450215038,0.036361140350010354,0.048590369116271716,3,left
3.415,0.701565683352265,0.12308227802928626,0.1699247091474671,-2.6801397792602826,1.9684617050298472,-1.0991187214690001,0.15343945940619433,0.05131094635868192,-0.029454720445963912,3,left
3.4160000000000004,0.6972200631782555,0.1223431027747895,0.1720688320832224,-2.5630066969168817,1.7838179540674846,-1.0731546819941693,0.18386365847190625,0.06634505050787208,-0.10823827045854292,3,left
3.42,0.6927042475268623,0.12204915907832307,0.17418319835469,-2.445597942967273,1.5978948206766028,-1.0466483464510485,0.21444019585692908,0.08143564931046561,-0.1877245642096774,3,left
3.4210000000000003,0.6880245762392299,0.12219813903535062,0.17626628603754443,-2.3280046940822254,1.4108474050541115,-1.0195999195941647,0.24514989953995125,0.096554911932139,-0.2678772105328847,3,left
3.423,0.6831874226625446,0.12278747307569268,0.17831657453980918,-2.2103156165490647,1.2228312520675997,-0.9920097975576976,0.27597338719445824,0.11167502685296474,-0.3486591587589723,3,left
3.424,0.6781991836938996,0.12381433827810469,0.18033254654351744,-2.092616738851501,1.0340021829942283,-0.9638785873365038,0.30689108200690496,0.1267682476274288,-0.4300327145353701,3,left
3.429,0.6730662698464822,0.125275666387326,0.18231268997208236,-1.9749913386201066,0.844516132300467,-0.9352071265058488,0.3378832290468412,0.14180693778623485,-0.5119595567429885,3,left
3.43,0.6677950953776481,0.12716815152143895,0.18425549997231877,-1.8575198436155502,0.6545289889228924,-0.9059965031005861,0.3689299122774962,0.15676361492327168,-0.5944007557425851,3,left
3.4330000000000003,0.6623920685145438,0.12948825756697827,0.18615948090384274,-1.740279746406639,0.4641964415079271,-0.876248075572973,0.4000110722955975,0.17161099401104288,-0.6773167931843218,3,left
3.4339999999999997,0.6568635818092751,0.13223222526649817,0.18802314833113803,-1.6233455324054453,0.27367382706651383,-0.8459634927467596,0.4311065248894135,0.18632202998770206,-0.7606675836157845,3,left
3.4389999999999996,0.6512160026539554,0.13539607900792208,0.1898450310128257,-1.5067886209222117,0.08311598249827507,-0.8151447136836409,0.4621959805041653,0.20086995965860113,-0.844412498125209,3,left
3.44,0.645455663986883,0.1389756333276913,0.19162367287996232,-1.3906773189034034,-0.10732290156127872,-0.7837940273766146,0.49325906470405323,0.21522834295494614,-0.9285103902580251,3,left
3.444,0.6395888552231405,0.14296649914111229,0.19335763499322695,-1.275076787017135,-0.2974894251174821,-0.7519140721832499,0.5242753397201809,0.22937110359176371,-1.0129196244460725,3,left
3.445,0.6336218134444578,0.14736408971364645,0.19504549746823466,-1.1600490177512839,-0.48723112196427754,-0.7195078549103374,0.5552243271736479,0.2432725691669139,-1.0975981071899819,3,left
3.448,0.6275607148839963,0.15216362638644543,0.19668586135775742,-1.0456528251908752,-0.6763966021497578,-0.6865787694598664,0.5860855320629996,0.2569075107423402,-1.1825033212362166,3,left
3.449,0.6214116667415809,0.1573601440684715,0.19827735047956419,-0.9319438461427794,-0.8648356943054579,-0.6531306149447496,0.6168384680532646,0.27025118192307984,-1.267592362868657,3,left
3.45,0.6151806993615503,0.16294849650623658,0.1998186131804251,-0.8189745522774076,-1.0523995883841473,-0.6191676131812107,0.647462683844458,0.28327935732360743,-1.3528219818227838,3,left
3.4539999999999997,0.6088737587980309,0.1689233613409373,0.20130832402968146,-0.706794272958894,-1.2389409793492205,-0.5846944254632463,0.6779377899307099,0.295968370084862,-1.4381486222285211,3,left
3.455,0.6024966997865804,0.1752792449615932,0.20274518543649317,-0.5954492284372216,-1.4243142123567027,-0.5497161685230818,0.708243484801708,0.30829514797921453,-1.523528462375724,3,left
3.458,0.5960552791414876,0.1820104871611666,0.20412792918333744,-0.4849825730778694,-1.6083754299683717,-0.5142384295800672,0.7383595798969342,0.32023724776498547,-1.608917451709301,3,left
3.46,0.5895551496009015,0.18911126560049174,0.20545531786858992,-0.37543444830681394,-1.7909827219315675,-0.4782672803789896,0.7682660230892127,0.3317728876766069,-1.694271344563889,3,left
3.46,0.5830018541421277,0.19657560008280003,0.20672614625502353,-0.266842044866984,-1.9719962777915963,-0.4418092901415672,0.7979429207327561,0.3428809780607421,-1.7795457307607434,3,left
3.463,0.5764008207854441,0.20439735664111883,0.2079392425260984,-0.15923967356413077,-2.1512785412673137,-0.4048715374746228,0.8273705583621846,0.35354115019262156,-1.8646960633120466,3,left
3.464,0.5697573578979137,0.21257025144237032,0.20909346945507,-0.05265884292552845,-2.3286943629194954,-0.36746162149513006,0.8565294201283852,0.3637337833056896,-1.9496776834777392,3,left
3.467,0.5630766500032676,0.22108785451251214,0.21018772549350834,0.05287165822299061,-2.50411114630548,-0.3295876725520977,0.8854002070564231,0.3734400298664273,-2.034445843419747,3,left
3.468,0.5563637541027477,0.229943593283339,0.2112209457873022,0.1573256748326715,-2.677398984140148,-0.29125836280270767,0.9139638542100038,0.3826418391249344,-2.1189557266981254,3,left
3.4730000000000003,0.5496235965109822,0.2391307559548206,0.21219210312778947,0.26067959717104416,-2.8484307833747535,-0.25248291668066253,0.9422015468462062,0.39132197897050935,-2.2031624668531498,3,left
3.4739999999999998,0.542860970206337,0.24864249465929983,0.21310020883966854,0.36291227021193734,-3.017082379430938,-0.21327112117219238,0.9700947356433862,0.39946405612007235,-2.287021164316774,3,left
3.477,0.5360805326880393,0.2584718284065951,0.213944313598957,0.46400490117631726,-3.183232640087474,-0.17363333578963114,0.9976251510842652,0.407052534665829,-2.3704869018961348,3,left
3.478,0.5292868043258965,0.2686116457855915,0.21472350817370814,0.5639409655208131,-3.3467635595107854,-0.13358050213119246,1.0247748170752824,0.41407275300707513,-2.45351475907091,3,left
3.484,0.5224841671845818,0.27905470740261606,0.21543692409252962,0.6627061116675762,-3.507560342913486,-0.09312415291432204,1.0515260638823016,0.4205109391894978,-2.5360598253453333,3,left
3.485,0.5156768643036856,0.28979364804851004,0.21608373426484567,0.7602880647658505,-3.665511482317981,-0.052276420368781336,1.0778615404617222,0.42635422467374295,-2.618077212894549,3,left
3.488,0.5088689994160392,0.30082097859869844,0.2166631535923904,0.8566765297723109,-3.8205088238946683,-0.011050043874426409,1.1037642262649492,0.4315906565533856,-2.6995220687437236,3,left
3.488,0.5020645370888354,0.312129087659499,0.21717443961765492,0.9518630941338697,-3.972447627336424,0.030541623272512412,1.1292174425930328,0.43620920824076986,-2.780349586716946,3,left
3.4939999999999998,0.4952673032739067,0.3237102429793258,0.21761689325038838,1.0458411303532584,-4.121226617722892,0.07248460808196709,1.1542048635771,0.4401997886374805,-2.860515019391439,3,left
3.495,0.488480986254046,0.33555659264686344,0.21798985960034856,1.138605698714261,-4.266748030319613,0.11476431319978841,1.178710526858949,0.44355324980446426,-2.9399736902909512,3,left
3.498,0.48170913796953957,0.34766016610126294,0.21829272892900003,1.2301534504400333,-4.4089176487482735,0.15736551346417413,1.2027188440448926,0.4462613931450476,-3.018681006550429,3,left
3.4989999999999997,0.4749551757023133,0.3600128749827757,0.2185249377197233,1.3204825315544686,-4.5476448369552305,0.2002723538092282,1.226214611004601,0.44831697411229454,-3.0965924722821656,3,left
3.502,0.468222384086433,0.3726065138555709,0.21868596985705296,1.4095924877130932,-4.6828425653961885,0.24346834863707678,1.2491830180853072,0.44971370545032086,-3.173663702871599,3,left
3.503,0.4615139174065805,0.38543276083696565,0.21877535789964025,1.4974841702664785,-4.814427431845232,0.28693638278088857,1.2716096603103093,0.450446258977329,-3.2498504404287623,3,left
3.5069999999999997,0.4548328021421503,0.3984831781686785,0.21879268442788843,1.5841596438156598,-4.942319677226552,0.33065871418202386,1.293480547629239,0.4505102659162541,-3.325108570619114,3,left
3.509,0.4481819397137491,0.4117492127665508,0.2187375834457998,1.6696220955155545,-5.066443196857082,0.3746169784053667,1.314782115286045,0.449902315777024,-3.399394141095056,3,left
3.512,0.44156410939107865,0.4252221967863753,0.2186097418172988,1.7538757463788706,-5.186725547477873,0.4187921951176725,1.335501234369087,0.4486199537925267,-3.4726633817469112,3,left
3.513,0.43498197132638317,0.43889334824564796,0.21840890071775612,1.8369257648295085,-5.303097950441442,0.46316477665449607,1.3556252226061414,0.44666167690846276,-3.5448727269894564,3,left
3.517,0.42843806968451076,0.4527537717437634,0.21813485708026153,1.9187781827509798,-5.415495291411529,0.5077145388019377,1.3751418554654822,0.44402692832532925,-3.615978840297324,3,left
3.5180000000000002,0.4219348358468459,0.46679445932512614,0.21778746501542404,1.9994398142718877,-5.52385611692062,0.5524207139200705,1.3940393776225333,0.44071609058885125,-3.6859386411996615,3,left
3.5180000000000002,0.41547459167085427,0.4810062915304191,0.2173666371857804,2.0789181775270658,-5.628122628119439,0.5972619665354745,1.4123065148239777,0.43673047723666975,-3.7547093348634437,3,left
3.5210000000000004,0.4090595527902549,0.4953800386814299,0.21687234612123246,2.1572214196295274,-5.728240672041139,0.6422164115308129,1.4299324860499991,0.43207232307435356,-3.82224844400191,3,left
3.522,0.4026918319425363,0.5099063624442567,0.21630462546799764,2.2343582450849624,-5.824159730691372,0.6872616350598352,1.4469070156404886,0.4267447732728119,-3.888513842139772,3,left
3.5269999999999997,0.39637344230994465,0.5245758177143575,0.21566357116884888,2.310337847877121,-5.915832908263654,0.7323747183165736,1.4632203449197771,0.42075187154444293,-3.9534637868736517,3,left
3.528,0.3901063008578187,0.5393788548658417,0.2149493425774165,2.385169847368756,-6.003216916734391,0.7775322642140952,1.478863242982075,0.41409854758622805,-4.017056952152449,3,left
3.528,0.38389223165161473,0.554305822406907,0.21416216351395734,2.458864227758004,-6.086272059914377,0.822710426659749,1.4938270165309895,0.4067906038551106,-4.079252459300194,3,left
3.531,0.3777329691328891,0.569346970082038,0.21330232327308435,2.5314312801041816,-6.164962215723298,0.8678849414504373,1.5081035187940786,0.3988347016718927,-4.140009906889947,3,left
3.531,0.37163016133583254,0.5844924524580682,0.21237017759631222,2.602881545532204,-6.2392548162759525,0.9130311574428772,1.5216851575573513,0.39023834663454876,-4.199289399651331,3,left
3.537,0.3655853730280807,0.5997323330250951,0.2113661496254586,2.6732257586230426,-6.309120825522005,0.9581240670225687,1.534564902362688,0.38100987331997666,-4.257051576590283,3,left
3.5380000000000003,0.3596000887605057,0.6150565888354019,0.2102907308553172,2.7424747907169698,-6.374534714466586,1.0031383355587735,1.5467362909091733,0.37115842925134773,-4.3132576384954895,3,left
3.5410000000000004,0.3536757158108294,0.6304551156953281,0.20914448210318745,2.8106395932545833,-6.435474434151996,1.0480483299014127,1.5581934346973494,0.36069395810637855,-4.367869375001704,3,left
3.542,0.3478135870069279,0.6459177339177951,0.2079280345087572,2.8777311413577245,-6.491921386601139,1.0928281460493667,1.568931023953369,0.3496271821400325,-4.420849191375801,3,left
3.5460000000000003,0.3420149634187462,0.6614341946379362,0.2066420905709761,2.9437603778492303,-6.543860393910583,1.1374516361194387,1.5789443318680045,0.3379695837933725,-4.47216013518695,3,left
3.5469999999999997,0.3362810369124933,0.6769941866910338,0.20528742521902427,3.0087381579073758,-6.591279665668241,1.1818924347449387,1.5882292181834143,0.32573338645852645,-4.521765923017711,3,left
3.551,0.3306129325664123,0.6925873440498407,0.20386488690349108,3.0726751945477635,-6.63417076485783,1.2261239850324703,1.5967821321585,0.31293153436799853,-4.569630967368176,3,left
3.552,0.3250117109535782,0.7082032538160907,0.20237539868400373,3.1355820051223686,-6.672528572399274,1.2701195642050587,1.6046001149416178,0.29957767157486254,-4.615720403900466,3,left
3.556,0.31947837030378223,0.7238314647575752,0.20081995928278826,3.197468859022422,-6.706351250461246,1.3138523090592267,1.6116808013773007,0.2856861199887145,-4.66000011916603,3,left
3.557,0.31401384856383907,0.739461496377988,0.19919964407017576,3.25834572676883,-6.73564020466906,1.3572952413630273,1.6180224212715613,0.2712718564306378,-4.7024367789531665,3,left
3.5610000000000004,0.30861902538351393,0.7550828485028891,0.19751560594651338,3.318222230670869,-6.7604000453181134,1.4004212933213642,1.623623800138228,0.2563504886688484,-4.74299785738709,3,left
3.562,0.30329472406119123,0.7706850113612245,0.1957690760833094,3.37710759723096,-6.780638547690027,1.4432033332341705,1.6284843594466494,0.24093823039514747,-4.781651666909683,3,left
3.5660000000000003,0.2980417134878258,0.7862574761370357,0.19396136448382403,3.4350106114704273,-6.796366611555647,1.4856141914721925,1.632604116388986,0.22505187510080507,-4.818367389260771,3,left
3.5669999999999997,0.2928607101295188,0.8017897459611101,0.1920938603204976,3.4919395733482705,-6.807598219936039,1.527626686894205,1.635983683183175,0.20870876880904599,-4.8531151075773655,3,left
3.572,0.28775238008836124,0.8172713473090217,0.19016803200425367,3.547902256442131,-6.814350397179657,1.569213653828503,1.6386242659255355,0.19192678161989754,-4.88586583972187,3,left
3.573,0.28271734127778925,0.8326918417708459,0.1881854269388317,3.6029058690578077,-6.816643166400876,1.610347969740449,1.6405276630048446,0.17472427802180013,-4.916591572944632,3,left
3.575,0.2777561657437331,0.8480408381578735,0.18614767091264858,3.6569570179308823,-6.814499506312216,1.651002583706702,1.6416962630876037,0.15712008592306925,-4.945265299980624,3,left
3.576,0.2728693821584568,0.8633080049114045,0.1840564670822127,3.7100616746812363,-6.807945307469672,1.691150545815546,1.6421330426820773,0.1391334643550385,-4.971861056674269,3,left
3.58,0.2680574785110346,0.8784830827774464,0.18191359450396763,3.7622251451784865,-6.797009327937813,1.7307650376114199,1.641841563286582,0.12078406979750601,-4.996353961220607,3,left
3.5810000000000004,0.263320905016391,0.893555897709299,0.17972090617360034,3.813452041973622,-6.781723148368523,1.7698194037003845,1.6408259681253863,0.1020919210759533,-5.018720255105136,3,left
3.585,0.2586600772630668,0.908516373957726,0.17748032653340173,3.8637462599494135,-6.76212112647463,1.8082871846318043,1.6390909784734846,0.08307736277890848,-5.0389373458186695,3,left
3.5860000000000003,0.25407537961732246,0.9233545473066199,0.1751938484118663,3.9131109553394503,-6.738240350867079,1.8461421511699845,1.6366418895699242,0.06376102719401279,-5.056983851358849,3,left
3.5869999999999997,0.2495671688965096,0.9380605784158439,0.17286352936698152,3.961548528262987,-6.710120594211786,1.8833583400679057,1.6334845661198234,0.044163795016510014,-5.072839646230488,3,left
3.589,0.2451357783184582,0.9526247662435382,0.1704914874141074,4.009060608920075,-6.677804265649986,1.9199100914534981,1.629625437387713,0.0243067555440136,-5.086485908122717,3,left
3.59,0.2407815217294517,0.9670375615256869,0.1680798961279103,4.055648047588801,-6.641336362413505,1.955772087937156,1.6250714918853215,0.00421116732668385,-5.097905164141305,3,left
3.595,0.23650469811334318,0.9812895802831847,0.16563097911350524,4.101310908512215,-6.600764420600892,1.9909193954793303,1.6198302716523616,-0.016101580015003007,-5.107081335761594,3,left
3.596,0.23230559638592005,0.9953716173195726,0.1631470038454607,4.146048467501979,-6.556138465301062,2.0253275057150812,1.613909866122286,-0.03661000255451868,-5.113999782189199,3,left
3.596,0.22818450047859967,1.0092746596778905,0.16063027487733855,4.18985921261897,-6.507510960658464,2.0589723788183774,1.6073189055604535,-0.05729255741203385,-5.118647342102564,3,left
3.5989999999999998,0.22414169471520784,1.0229899000305227,0.1580831264324164,4.2327408470305015,-6.454936760694754,2.091830485646817,1.6000665540596668,-0.07812767675396332,-5.121012373803693,3,left
3.6,0.22017746948730618,1.0365087499682097,0.155507914399643,4.274690293399081,-6.398473061457549,2.1238788482453894,1.5921625020760943,-0.09909380049817387,-5.121084793796918,3,left
3.6039999999999996,0.21629212723502897,1.049822853141289,0.1529070077751824,4.315703699619088,-6.338179354636094,2.155095078397802,1.5836169584866606,-0.12016940778422414,-5.118856113809023,3,left
3.605,0.21248598873726568,1.0629240981989867,0.1502827796065067,4.355776445972999,-6.274117382539529,2.1854574142517054,1.5744406421470916,-0.1413330472684437,-5.114319476257501,3,left
3.61,0.2087593997062701,1.0758046314694436,0.14763759751397176,4.394903153827639,-6.206351094275684,2.2149447551098422,1.5646447729279302,-0.162563366304035,-5.107469688167133,3,left
3.611,0.2051127376691789,1.0884568693178476,0.14497381388580008,4.4330776959882945,-6.134946602957308,2.243536694476734,1.5542410622039988,-0.1838391390666966,-5.09830325352846,3,left
3.614,0.201546419103499,1.1008735101104072,0.14229375586559817,4.470293208825775,-6.0599721437518514,2.2712135514480956,1.5432417027709682,-0.20513929368651942,-5.086818404085119,3,left
3.616,0.19806090677486862,1.1130475456976934,0.13959971527385098,4.50654210628882,-5.9814980325802525,2.297956400527638,1.5316593581609201,-0.22644293844709906,-5.0730151285303595,3,left
3.6189999999999998,0.1946567172030979,1.1249722723112436,0.13689393862161503,4.541816095911497,-5.899596625259773,2.3237470999533554,1.519507151327041,-0.24772938711293854,-5.056895200086385,3,left
3.62,0.1913344281569615,1.1366413007423581,0.134178617382319,4.5761061969224945,-5.8143422768756405,2.348568318612765,1.5067986526658763,-0.2689781834462862,-5.038462202433541,3,left
3.6239999999999997,0.18809468604890375,1.148048565646031,0.13145587868671876,4.609402760560405,-5.725811301156219,2.372403561623879,1.493547867343901,-0.2901691249745638,-5.017721553949703,3,left
3.6239999999999997,0.18493821306890681,1.159188333794712,0.12872777659937687,4.641695492696338,-5.634081929616579,2.3952371946559743,1.4797692218935254,-0.3112822860694908,-4.994680530213554,3,left
3.6289999999999996,0.18186581386830278,1.1700552111046723,0.1259962841242451,4.672973478862332,-5.539234270225727,2.417054467061411,1.465477550042058,-0.3322980403989043,-4.96934828471882,3,left
3.63,0.1788783815855175,1.180644148275223,0.12326328607504397,4.703225211781191,-5.4413502653433365,2.437841533886956,1.4506880777355902,-0.35319708281210666,-4.941735867739889,3,left
3.634,0.17597690299755073,1.1909504449146138,0.12053057293863012,4.732438621490503,-5.340513648662647,2.4575854768301646,1.435416407318254,-0.3739604507193515,-4.911856243282646,3,left
3.635,0.17316246258196274,1.2009697520706444,0.11779983585799317,4.760601108150667,-5.236809900887214,2.476274324203468,1.419678500825828,-0.39456954502579933,-4.879724304047769,3,left
3.639,0.17043624528541473,1.2106980731342047,0.11507266286051811,4.787699577623801,-5.130326203860518,2.4938970699656564,1.403490662351237,-0.4150061506799383,-4.845356884327206,3,left
3.64,0.16779953782060633,1.2201317631357462,0.11235053644861678,4.813720479907429,-5.021151392858925,2.5104436918774473,1.3868695194381144,-0.43525245689607966,-4.808772770748012,3,left
3.6439999999999997,0.16525372835732066,1.2292675265033237,0.10963483264496188,4.838649850503827,-4.909375906750279,2.5259051688348073,1.369832003457244,-0.4552910771100909,-4.769992710771283,3,left
3.6439999999999997,0.16280030453268793,1.238102413391924,0.10692682153590481,4.862473354802837,-4.795091735712421,2.540273497430626,1.35239532891942,-0.4751050687270387,-4.729039418847502,3,left
3.648,0.16044084977125486,1.2466338147237046,0.10422766928587883,4.885176335552884,-4.6783923661981905,2.553541707792265,1.3345769716770095,-0.49467795271886567,-4.685937580123238,3,left
3.65,0.15817703796658533,1.2548594560959376,0.10153844151424521,4.906743863491757,-4.559372722826019,2.5657038787393702,1.316394645965313,-0.5139937331296303,-4.640713851587851,3,left
3.654,0.1560106266272738,1.2627773907199533,0.09886010784480462,4.927160791205587,-4.438129106868001,2.5767551523032224,1.2978662802336673,-0.5330369165451946,-4.593396860542595,3,left
3.655,0.15394344863188272,1.270385991554035,0.09619354736156824,4.946411810281192,-4.314759131000396,2.586691747645717,1.2790099917151414,-0.551792531583554,-4.544017200268379,3,left
3.655,0.15197740276874097,1.2776839427871534,0.09353955464354094,4.964481511813722,-4.189361649974873,2.595510974412908,1.2598440597250316,-0.5702461484154293,-4.492607422783759,3,left
3.658,0.15011444324676235,1.2846702308155127,0.09089884603386618,4.981354450328223,-4.0620366868623865,2.603211245554853,1.2403868978893313,-0.5883838980947957,-4.439202028686013,3,left
3.659,0.14835656835037525,1.2913441348333061,0.08827206583144256,4.997015211170383,-3.9328853545155034,2.609792089640298,1.2206570258849823,-0.6061924910656912,-4.383837454255295,3,left
3.6630000000000003,0.14670580840161623,1.297705217147899,0.08565979213051687,5.01144848132904,-3.8020097720428554,2.6152541626500616,1.2006730414847862,-0.6236592339816183,-4.326552056103259,3,left
3.6639999999999997,0.14516421319752668,1.3037533133315375,0.0830625420479042,5.0246391232030465,-3.669512976852337,2.6195992590223462,1.1804535934870577,-0.6407720442021109,-4.267386093534603,3,left
3.665,0.1437338390873111,1.3094885223231696,0.08048077610109584,5.036572250017858,-3.535498834197684,2.6228303213467035,1.1600173557277462,-0.6575194617425955,-4.2063817085912625,3,left
3.668,0.1424167358397599,1.3149111965965203,0.07791490154475204,5.047233301147155,-3.400071946926603,2.62495144789275,1.1393830021600555,-0.6738906586818668,-4.143582903636227,3,left
3.668,0.14121493344919284,1.3200219325247506,0.07536527451362066,5.056608116037766,-3.2633375673554865,2.625967897363929,1.1185691829435167,-0.689875446076312,-4.079035516307103,3,left
3.673,0.14013042902584802,1.3248215610862972,0.07283220086714787,5.064683006236308,-3.1254015118081173,2.625886090636736,1.0975945014838464,-0.7054642784289714,-4.012787191664272,3,left
3.674,0.13916517388922905,1.3293111390536527,0.07031593570815328,5.07144482545882,-2.986370077583247,2.6247136094500214,1.0764774923643516,-0.7206482557604448,-3.9448873513533287,3,left
3.679,0.13832106093577592,1.3334919407875319,0.06781668164564783,5.0768810377303115,-2.846349961958472,2.6224591920473213,1.0552366001091331,-0.7354191233275411,-3.875387159596489,3,left
3.679,0.13759991230448154,1.3373654507297368,0.06533458597307652,5.080979783617388,-2.7054481828343846,2.619132725771983,1.0338901587178668,-0.7497692690344365,-3.8043394858227515,3,left
3.6830000000000003,0.13700346732643245,1.3409333566506392,0.06286973703266352,5.083729944573341,-2.5637720006198244,2.614745236611746,1.012456371911544,-0.7636917185799404,-3.731798863741864,3,left
3.6839999999999997,0.1365333707209445,1.3441975436607807,0.06042216012800153,5.085121205411307,-2.4214288409562257,2.6093088756863128,0.9909532940281895,-0.777180128383289,-3.6578214466625543,3,left
3.688,0.13619116099304934,1.3471600889420927,0.05799181341610742,5.085144114917238,-2.2785262178765135,2.6028369026683906,0.9693988115072729,-0.7902287763296726,-3.5824649588510433,3,left
3.688,0.13597825899189364,1.3498232570991873,0.05557858424124107,5.083790144610566,-2.135171656991788,2.5953436661256126,0.9478106249012783,-0.80283255037548,-3.505788642721574,3,left
3.693,0.13589595660234677,1.3521894959847165,0.0531822863590267,5.081051745656538,-1.9914726182971065,2.5868445807677585,0.9262062313526992,-0.8149869350519956,-3.4278532016465593,3,left
3.694,0.13594540555840517,1.35426143282355,0.05080265844296687,5.076922403930267,-1.8475364181860814,2.577356101580712,0.9046029074745775,-0.8266879959050247,-3.3487207381699946,3,left
3.698,0.1361276063829778,1.3560418704542665,0.04843936417022111,5.071396693228593,-1.7034701502626977,2.5668956948256616,0.883017692572605,-0.8379323619066422,-3.268454687404001,3,left
3.699,0.1364433974699108,1.357533783525083,0.04609199405456167,5.0644703266218745,-1.5593806045377832,2.5554818058791624,0.8614673721467627,-0.8487172058739746,-3.187119745384743,3,left
3.7030000000000003,0.1368934443267046,1.3587403145204584,0.0437600690454928,5.056140205933838,-1.4153741845968626,2.5431338238868375,0.8399684616104728,-0.859040222928621,-3.104781792160529,3,left
3.7030000000000003,0.13747822899037965,1.3596647695443147,0.041443045767538454,5.046404469333596,-1.271556822325766,2.529872043200718,0.8185371901652911,-0.8688996070290098,-3.021507809381656,3,left
3.7060000000000004,0.1381980396199529,1.3603106138359253,0.039140323155585625,5.035262537019937,-1.1280338897802864,2.5157176215674633,0.7971894847692684,-0.8782940256066675,-2.937365792158481,3,left
3.707,0.13905296026379874,1.3606814670385177,0.03685125016238382,5.02271515497395,-0.9849101077864268,2.500692535032041,0.7759409541372532,-0.8872225923360514,-2.8524246549513297,3,left
3.7119999999999997,0.14004286080223724,1.360781098276295,0.034575134174175175,5.008764436752009,-0.842289450858313,2.4848195295188065,0.7548068727116044,-0.8956848380662653,-2.7667541312531694,3,left
3.7119999999999997,0.14116738707480106,1.360613421123469,0.03231124976656563,4.993413903287123,-0.7002750480216936,2.468122069049376,0.7338021645420236,-0.9036806799416471,-2.680424666823469,3,left
3.717,0.14242595121334564,1.3601824885707752,0.030058847456814163,4.9766685206626,-0.5589690791320951,2.4506242805541723,0.7129413870134952,-0.9112103887368733,-2.593507306229392,3,left
3.718,0.1438177222079364,1.359492488113994,0.027817162147908917,4.958534735817963,-0.4184726662781435,2.432350895232099,0.6922387143616545,-0.9182745544308926,-2.5060735724483596,3,left
3.722,0.14534161672352744,1.3585477371100585,0.025585421003647805,4.939020510143025,-0.2788857598623033,2.413327186410427,0.6717079209152764,-0.924874050042656,-2.418195339284138,3,left
3.7230000000000003,0.14699629015885432,1.3573526785684749,0.023362850540615532,4.918135350912033,-0.14030701895331668,2.3935789038546766,0.6513623640425505,-0.931009993814319,-2.329944696598539,3,left
3.7239999999999998,0.14878012790382267,1.3559118775546268,0.021148682777211637,4.895890340505818,-0.0028336855069493743,2.3731322044760628,0.6312149669610855,-0.9366837101464445,-2.2413938096174952,3,left
3.727,0.1506912367180289,1.354230018369591,0.01894216034310392,4.8722981633658815,0.13343854794573987,2.3520135793819006,0.6112782019011614,-0.9418966902647622,-2.152614775833642,3,left
3.728,0.15272743610969228,1.352311902662947,0.016742540521004667,4.847373130620479,0.26841567754049694,2.3302497772123005,0.5915640742951,-0.946650553916905,-2.063679484284628,3,left
3.7310000000000003,0.15488624953365568,1.3501624486504276,0.014549098264599363,4.821131202299877,0.40200553430559477,2.3078677238448737,0.572084108483369,-0.9509470130760155,-1.9746594807273583,3,left
3.7319999999999998,0.15716489518561175,1.3477866916191223,0.012361128302363923,4.793590006959507,0.5341179357136903,2.284894439249271,0.5528493350995607,-0.9547878380504402,-1.8856258399630614,3,left
3.7319999999999998,0.1595602761826432,1.3451897858817097,0.010177946485786548,4.764768858355583,0.6646648378254659,2.261356953535162,0.5338702801142012,-0.9581748260772116,-1.7966490453094746,3,left
3.737,0.16206896996700582,1.3423770083100686,0.007998890589934552,4.734688768719347,0.7935604815794246,2.23728222493751,0.515156955481452,-0.9611097724116623,-1.7077988749645732,3,left
3.737,0.1646872168329312,1.3393537635585677,0.005823320839888014,4.703372458267007,0.9207215284852663,2.2126970617792807,0.49671885133347127,-0.9635944439242111,-1.619144295006222,3,left
3.741,0.16741090759342694,1.3361255910510137,0.0036506204827146354,4.670844360749079,1.0460671840469273,2.1876280491864546,0.4785649296679348,-0.9656305552140539,-1.5307533587722937,3,left
3.742,0.17023557060736716,1.3326981737187933,0.001480196711394718,4.6371306249338335,1.169519308943925,2.162101480626642,0.46070361947497773,-0.9672197472481933,-1.4426931123661608,3,left
3.7460000000000004,0.17315635864919462,1.3290773483385754,-0.0006885178191372146,4.60225911193495,1.291002518336135,2.136143294200734,0.44314281325060967,-0.9683635685329498,-1.3550295060330262,3,left
3.747,0.17616803636785391,1.325269117137543,-0.0028560627384146275,4.566259388289974,1.4104442696519137,2.1097790136156345,0.4258898648444688,-0.9690634588238087,-1.2678273111533138,3,left
3.7510000000000003,0.17926496929192795,1.3212796601254453,-0.005022946932165062,4.529162714692796,1.5277749392140523,2.0830336937647846,0.40895158859062225,-0.9693207353781673,-1.181150042600286,3,left
3.752,0.18244111544502395,1.3171153474011337,-0.00718964481176097,4.491002030280048,1.6429278880523943,2.055931870841978,0.39233425967098057,-0.9691365817542753,-1.0950598862101948,3,left
3.7560000000000002,0.18569002061356354,1.312782750508279,-0.009356592050852802,4.451811932368049,1.7558395172460888,2.0284975169127732,0.3760436156617776,-0.9685120391583797,-1.009617631114593,3,left
3.7569999999999997,0.18900481817069062,1.3082886518277772,-0.011524181032949388,4.411628651533816,1.8664493131324,2.0007539988667333,0.36008485921447075,-0.9674480003408169,-0.9248826066859417,3,left
3.761,0.19237823414889763,1.3036400510281747,-0.013692756297173644,4.370490021930578,1.9746998827127349,1.972724041672674,0.3444626618233371,-0.9659452060405245,-0.8409126238493277,3,left
3.762,0.19580259802079264,1.2988441677520206,-0.015862610259771603,4.328435446725302,2.0805369795801254,1.9444296958581746,0.32918116863297603,-0.9640042439761803,-0.7577639205149675,3,left
3.767,0.19926985941757366,1.2939084399529266,-0.01803397939285716,4.285505858542866,2.1839095206857952,1.9158923091336908,0.31424400423988513,-0.9616255503809152,-0.6754911108882018,3,left
3.767,0.2027716107807685,1.2888405175536255,-0.020207040860293866,4.241743674798784,2.2847695942556707,1.8871325020807985,0.29965427944323964,-0.9588094140762814,-0.5941471384158761,3,left
3.773,0.20629911569701456,1.2836482513310497,-0.022381909408140385,4.197192747799766,2.3830724591607613,1.858170147823331,0.28541459890098264,-0.9555559830799035,-0.5137832321303629,3,left
3.7739999999999996,0.2098433424288203,1.2783396771455342,-0.024558634174760632,4.151898309488879,2.478776536038275,1.8290243555994723,0.271527069648323,-0.951865273739979,-0.4344488661549913,3,left
3.775,0.21339500196420483,1.2729229958231556,-0.0267371950810317,4.105906910709669,2.5718433904531133,1.7997134581522332,0.25799331043673407,-0.9477371823885369,-0.35619172213731404,3,left
3.7760000000000002,0.21694458979229247,1.26740654916926,-0.028917498580701077,4.0592663548613865,2.6622377083820528,1.7702550028551498,0.24481446185255085,-0.9431714995041105,-0.27905765437945584,3,left
3.782,0.22048243057179648,1.2617987927233179,-0.031099372739818748,4.012025625815281,2.7499272642954686,1.740665746489513,0.23199119717527392,-0.9381679263732203,-0.20309065743773752,3,left
3.783,0.22399872487318007,1.256108265947595,-0.033282561801423166,3.964234809959939,2.8348828821038716,1.7109616535889665,0.2195237339367037,-0.9327260942388087,-0.12833283596686387,3,left
3.785,0.22748359721564765,1.2503435605758297,-0.035466720531778004,3.915945012241802,2.917078389228875,1.6811578982668842,0.20741184614304733,-0.9268455859225092,-0.054824376587184497,3,left
3.786,0.23092714467077993,1.2445132878456893,-0.03765140872913481,3.8672082660652496,2.996490564050434,1.6512688694415556,0.1956548771231607,-0.9205259599063753,0.01739647844311519,3,left
3.79,0.23431948536990188,1.2386260453040783,-0.03983608631077378,3.8180774369150763,3.0730990769743536,1.6213081793738826,0.18425175296117094,-0.9137667768092841,0.08829345590545327,3,left
3.7910000000000004,0.23765080635296873,1.232690383789365,-0.042020109374322816,3.7686061195627456,3.146886425356149,1.5912886754320024,0.17320099644305292,-0.9065676279462184,0.15783227449833723,3,left
3.792,0.24091141032495986,1.2267147750667324,-0.04420272756160946,3.7188485287165283,3.217837862509338,1.5612224549969984,0.1625007413943058,-0.8989281652150096,0.22598066522061017,3,left
3.795,0.24409176097476679,1.2207075804975225,-0.04638308298187644,3.6688593829745,3.2859413210182047,1.5311208834236607,0.15214874725719807,-0.8908481313081118,0.2927083882618128,3,left
3.7960000000000003,0.2471825265231014,1.2146770211097777,-0.04856021090277509,3.618693781938396,3.351187330566974,1.500994614970081,0.14214241378675507,-0.8823273894914617,0.35798724569767854,3,left
3.8,0.25017462116274186,1.2086311494420043,-0.05073304236002446,3.568407076521099,3.4135689306132067,1.4708536165841941,0.13247879579911334,-0.8733659526335766,0.4217910898257976,3,left
3.8,0.2530592441076757,1.202577823478878,-0.052900408753294666,3.518054733357809,3.4730815788451133,1.4407071943075431,0.12315461793655977,-0.8639640114125275,0.484095827272968,3,left
3.801,0.2558279160660671,1.19652468289957,-0.05506104841972703,3.467692195810783,3.5297230574703944,1.4105640218265705,0.11416628942050353,-0.8541219616763066,0.5448794190617059,3,left
3.804,0.2584725130459816,1.1904791277755344,-0.0572136151232242,3.4173747449351275,3.5834933799960447,1.3804321705739706,0.10550991876461266,-0.8438404309308495,0.604121876819155,3,left
3.805,0.2609852974760945,1.184448299805067,-0.059356688350941086,3.3671573628949814,3.6343947005302626,1.3503191409103519,0.09718132842132174,-0.8331203039287018,0.6618052553073321,3,left
3.81,0.2633589466951913,1.178439066127014,-0.06148878526180508,3.317094599739083,3.6824312265132604,1.3202318941463544,0.08917606933588125,-0.821962747330058,0.7179136414492817,3,left
3.8110000000000004,0.26558657894378324,1.172458005691752,-0.06360837408840206,3.2672404435668776,3.727609135155459,1.2901768852931412,0.0814894353830721,-0.8103692334066394,0.7724331400212867,3,left
3.815,0.2676617770599946,1.1665113980952624,-0.06571388874802753,3.2176481939410273,3.769936493729301,1.2601600964547661,0.07411647766265009,-0.7983415627576151,0.8253518561768126,3,left
3.8160000000000003,0.26957861011523626,1.1606052147226242,-0.06780374436545279,3.168370338402616,3.809423183852689,1.2301870707760043,0.06705201863051298,-0.7858818860055207,0.876659874963338,3,left
3.819,0.27133165320920344,1.1547451120118535,-0.06987635335253281,3.119458431945953,3.8460808298938542,1.2002629468593151,0.06029066604349801,-0.7729927244388679,0.926349237988666,3,left
3.82,0.27291600557844264,1.1489364266407993,-0.07193014163744471,3.0709629793106177,3.8799227316192733,1.170392493564718,0.05382682669661806,-0.7596769895669038,0.974413917388717,3,left
3.825,0.2743273070725133,1.1431841724546588,-0.07396356459811612,3.0229333199492983,3.9109638011980867,1.140580145106493,0.04765471993243067,-0.7459380015507265,1.0208497872441789,3,left
3.826,0.27556175293962815,1.1374930389813118,-0.07597512223851247,2.975417515531019,3.9392205046683624,1.110830036360746,0.041768390903104205,-0.7317795064737401,1.0656545925887475,3,left
3.8289999999999997,0.2766161067622859,1.131867391417025,-0.07796337316018728,2.9284622398405515,3.964710807962449,1.081146038298043,0.03616172356659991,-0.7172056924132004,1.1088279161470247,3,left
3.8310000000000004,0.277487711309766,1.1263112719970176,-0.0799269469258792,2.882112670936135,3.98745412758063,1.051531793455477,0.030828453399226165,-0.7022212042733935,1.1503711429354662,3,left
3.8339999999999996,0.27817449703658587,1.1208284026860302,-0.08186455447894117,2.836412385429098,4.007471285994294,1.0219907513627133,0.025762179807641866,-0.6868311573397814,1.1902874228550908,3,left
3.835,0.2786749879535755,1.1154221891290133,-0.08377499636025242,2.79140325475061,4.024784471851882,0.9925262038367453,0.020956378224189078,-0.6710411495122582,1.2285816313999824,3,left
3.838,0.2789883046261996,1.1100957257909423,-0.08565716854419463,2.7471253432724803,4.039417205053009,0.9631413200602954,0.016404411870220074,-0.654857272174482,1.2652603286009299,3,left
3.84,0.2791141641071037,1.104851802190758,-0.08751006579304531,2.7036168081508314,4.0513943067482785,0.933839181359004,0.012099543172850632,-0.6382861196550821,1.3003317163188857,3,left
3.845,0.2790528766787152,1.0996929101051711,-0.0893327825032208,2.6609138007634217,4.0607418743146235,0.9046228155927701,0.008034944821319522,-0.6213347972353951,1.3338055939982683,3,left
3.845,0.2788053393571632,1.0946212515939937,-0.091124511088072,2.619050369613504,4.067487261348216,0.8754952310768361,0.004203710449863092,-0.6040109276572518,1.365693312985491,3,left
3.8489999999999998,0.27837302618267,1.0896387476880962,-0.09288453801257485,2.5780583645753103,4.071659062709441,0.8464594499484431,0.0005988649347235213,-0.5863226560832259,1.3960077295134914,3,left
3.85,0.27775797539079833,1.0847470475871708,-0.09461223766378452,2.537967342358564,4.073287104646836,0.817518540895136,-0.0027866257064006797,-0.5682786534606629,1.4247631564484466,3,left
3.853,0.2769627736232961,1.0799475382353871,-0.09630706430117915,2.4988044730718157,4.072402440019433,0.788675651161047,-0.005959844823483023,-0.5498881182397418,1.4519753138903069,3,left
3.8539999999999996,0.2759905373949872,1.0752413541734926,-0.09796854237766364,2.4605944477669217,4.069037348629555,0.7599340377477525,-0.008927916062247186,-0.5311607763947744,1.4776612787142636,3,left
3.86,0.2748448920788529,1.0706293876003397,-0.0995962555545302,2.4233593868495387,4.063225342670814,0.731297097726571,-0.011697994720935799,-0.5121068796969249,1.5018394331357914,3,left
3.862,0.27352994869891734,1.0661122986105804,-0.101189834755806,2.387118749243198,4.055001177288819,0.7027683975794509,-0.014277259544901045,-0.49273720218554046,1.524529412377478,3,left
3.862,0.2720502788243229,1.061690525603037,-0.10274894561767813,2.351889242197225,4.044400866245037,0.6743517014858872,-0.016672904960758655,-0.4730630348073931,1.5457520515218228,3,left
3.863,0.2704108878312777,1.0573642958700038,-0.1042732756708809,2.317684731631589,4.031461702667147,0.6460509984736116,-0.01889213371727666,-0.4530961783075751,1.565529331681672,3,left
3.863,0.26861718675094975,1.0531336363794868,-0.10576252154720486,2.284516152914606,4.016222284862364,0.6178705283511057,-0.02094214983841947,-0.4328489346625705,1.5838843257089075,3,left
3.8689999999999998,0.2666749628904464,1.0489983847549613,-0.10721637647139683,2.2523914219723187,3.998722547163347,0.5898148063403138,-0.022830151759438838,-0.4123340974605325,1.6008411437095997,3,left
3.8710000000000004,0.2645903494239542,1.0449582004462494,-0.10863451831485471,2.221315346883371,3.979003795587299,0.5618886463178377,-0.024563325550398047,-0.39156494151757537,1.616424878577892,3,left
3.8710000000000004,0.26236979416490624,1.0410125760723623,-0.11001659849760465,2.1912895413764115,3.9571087471706643,0.5340971825211025,-0.026148838192232092,-0.3705552118103998,1.6306615516635496,3,left
3.8739999999999997,0.26002002771572985,1.0371608489024344,-0.11136223198808588,2.162312343918518,3.933081570194515,0.5064458894825039,-0.027593830903982857,-0.34931911168942403,1.6435780586323028,3,left
3.875,0.2575480311850085,1.0334022124200508,-0.11267098860894215,2.1343787473463913,3.906967921597768,0.4789405999027795,-0.028905412526203593,-0.3278712903127853,1.6552021155638077,3,left
3.8789999999999996,0.25496100370030084,1.0297357278851595,-0.11394238585241266,2.107480342734818,3.878814978780691,0.45158752022737053,-0.030090652965102913,-0.3062268292408862,1.6655622053281807,3,left
3.88,0.2522663300028961,1.026160335772383,-0.11517588340518876,2.081605278931463,3.8486714646358893,0.4243932437837911,-0.031156576701594628,-0.2844012281305132,1.6746875242782708,3,left
3.883,0.24947154844856587,1.0226748669370864,-0.11637087953365936,2.0567382379297694,3.8165876655495357,0.3973647613905742,-0.03211015636903654,-0.26241038946694534,1.682607929291126,3,left
3.884,0.24658431975143982,1.0192780533482722,-0.11752670939456998,2.0328604260026752,3.782615442292072,0.3705094693592317,-0.03295830640307812,-0.24027060227190739,1.6893538851884766,3,left
3.888,0.24361239680570593,1.0159685382317019,-0.11864264524731952,2.0099495805227785,3.746808233711902,0.3438351748111208,-0.033707876766694296,-0.2179985247247032,1.6949564125625156,3,left
3.889,0.24056359590136495,1.0127448854869725,-0.11971789847281838,1.9879799923974715,3.7092210531400136,0.3173500982315872,-0.03436564675315953,-0.1956111656333899,1.6994470360297955,3,left
3.8939999999999997,0.23744576961198915,1.0096055882767185,-0.12075162325222087,1.966922544050406,3.6699104774080564,0.29106287318425456,-0.03493831886941356,-0.17312586469242758,1.7028577329326848,3,left
3.895,0.2342667815769864,1.0065490767309635,-0.12174292172007342,1.946744762883416,3.628934628377125,0.26498254310884856,-0.035432512801986636,-0.1505602714628592,1.705220882504549,3,left
3.898,0.2310344833370538,1.0035737247596466,-0.12269085037608168,1.927410890155723,3.586353146869397,0.2391185551264906,-0.035854759467388315,-0.127932323010745,1.7065692155116252,3,left
3.8989999999999996,0.22775669331757886,1.000677856015579,-0.12359442752096525,1.9088819652198588,3.5422271588898138,0.21348075077696413,-0.03621149514861924,-0.10526022013929534,1.7069357643814589,3,left
3.903,0.22444117799429553,0.9978597490930756,-0.1244526414801039,1.8911159250562664,3.4966192340202307,0.18807935361305186,-0.03650905571923957,-0.08256240214991567,1.706353813824759,3,left
3.904,0.22109563521920067,0.9951176420809018,-0.12526445939524858,1.874067719050952,3.449593335863829,0.16292495357766512,-0.036753670956221056,-0.059857520067198605,1.7048568519546192,3,left
3.907,0.21772767963331957,0.9924497366104488,-0.1260288363947762,1.8576894389628698,3.4012147644131794,0.13802848809013657,-0.03695145894262112,-0.037164408262772036,1.702478521904228,3,left
3.908,0.21434483004785002,0.9898542015502169,-0.12674472498755704,1.8419304640299052,3.3515500902110653,0.1134012197687274,-0.037108420560947174,-0.014502054412838684,1.6992525739414681,3,left
3.912,0.21095449863728502,0.9873291764963283,-0.12741108455642328,1.8267376211643813,3.300667080169109,0.08905471071711114,-0.03723043407792712,0.00811043227577754,1.6952128180761783,3,left
3.912,0.2075639817571767,0.9848727751983993,-0.12802689085112176,1.8120553601909237,3.2486346149053746,0.06500079330333726,-0.03732324982126715,0.03065385463622864,1.6903930771533175,3,left
3.9189999999999996,0.2041804521758511,0.9824830890427236,-0.12859114539602248,1.7978259440813005,3.195522597458421,0.04125153736055162,-0.03739248494886029,0.053108962973944907,1.6848271404228374,3,left
3.92,0.20081095249509687,0.9801581906916645,-0.1291028847338784,1.7839896541424731,3.1414018532317693,0.017819213739558554,-0.037443618310808835,0.07545649242556086,1.6785487175747287,3,left
3.9219999999999997,0.19746238953036194,0.9778961379512436,-0.1295611894264284,1.770485010115558,3.0863440210194697,-0.0052837458558501115,-0.03748198540453913,0.09767720230918447,1.6715913932254711,3,left
3.9219999999999997,0.19414152942483998,0.9756949779101542,-0.1299651927310868,1.7572490051446883,3.030421434960341,-0.028044792818997896,-0.037512773423219584,0.11975191753047591,1.6639885818399696,3,left
3.928,0.19085499328086494,0.9735527513644743,-0.130314088872982,1.744217355575898,2.9737069972655608,-0.05045130944314648,-0.037541016397640264,0.1416615721086927,1.6557734830710105,3,left
3.93,0.18760925310594248,0.9714674975165856,-0.1306071408337842,1.731324765547098,2.916274041561596,-0.07249066064338007,-0.03757159043606082,0.16338725480546515,1.6469790375268978,3,left
3.93,0.18441062789533516,0.969437258919707,-0.1308436875870348,1.7185052063309814,2.858196186687982,-0.09415024966291068,-0.037609209088438525,0.18491025643350162,1.6376378831289327,3,left
3.932,0.1812652797075006,0.9674600866317798,-0.1310231507270291,1.70569221039328,2.799547180787184,-0.11541757782814496,-0.037658418900909096,0.20621211769268782,1.6277823124937902,3,left
3.932,0.17817920961323488,0.965534045535412,-0.13114504045890427,1.6928191801291956,2.740400735521703,-0.13628030841579877,-0.03772359524832657,0.22727467597537118,1.6174442319270421,3,left
3.937,0.17515825340069388,0.9636572197669167,-0.1312089609323232,1.6798197112410327,2.680830350251748,-0.15672633469425476,-0.03780893851076107,0.24808010998718483,1.606655122459641,3,left
3.938,0.17220807691285764,0.9618277181826277,-0.13121461490595182,1.6666279307200842,2.6209091260051505,-0.17674385220023178,-0.037918470620417775,0.268610981758392,1.5954460030825597,3,left
3.938,0.1693341709019045,0.9600436797851446,-0.13116180772570296,1.6531788488075863,2.5607095694544806,-0.19632143513466882,-0.03805603198355875,0.2888502760251909,1.583847396180525,3,left
3.9419999999999997,0.16654184530693408,0.9583032790397086,-0.13105045059273202,1.6394087213689135,2.500303389038668,-0.21544811588050833,-0.03822527877768149,0.3087814370407112,1.5718892951339183,3,left
3.9419999999999997,0.16383622288828217,0.9566047310261852,-0.13088056309502213,1.6252554138221118,2.4397612888278384,-0.23411346505979466,-0.03842968062427708,0.32838840287464466,1.5596011340567075,3,left
3.947,0.16122223217505036,0.9549462963847386,-0.1306522749786755,1.6106587548208495,2.3791527676528412,-0.252307668666219,-0.0386725186375711,0.3476556372596167,1.5470117596371564,3,left
3.947,0.15870459970167167,0.9533262860194088,-0.13036582713806447,1.5955608708312279,2.3185459290967865,-0.2700215996879698,-0.0389568838497408,0.36656815904152107,1.5341494050470228,3,left
3.951,0.15628784153366826,0.9517430655305921,-0.13002157181088445,1.5799064980333217,2.258007304483095,-0.28724688321846203,-0.039285676013202944,0.38511156929011037,1.5210416658840025,3,left
3.952,0.1539762541194949,0.9501950593607026,-0.12961997197896538,1.5636432709173325,2.1976016890708037,-0.30397595493118873,-0.039661602780676534,0.4032720761251583,1.5077154781113216,3,left
3.9560000000000004,0.1517739045505603,0.9486807546542237,-0.12916159999618532,1.5467219875308633,2.1373919912831703,-0.32020211296956397,-0.04008717926384361,0.4210365173124953,1.494197097957579,3,left
3.9560000000000004,0.14968462035535704,0.9471987048489899,-0.12864713548588946,1.529096851332233,2.077439094795801,-0.335919563301225,-0.040564727971558405,0.438392380683156,1.4805120837392496,3,left
3.9610000000000003,0.14771197898712543,0.9457475330273889,-0.1280773625675823,1.510725689603005,2.0178017333109084,-0.35112345858483685,-0.04109637912869034,0.45532782242778247,1.4666852795676126,3,left
3.9610000000000003,0.14585929718249846,0.9443259350637633,-0.12745316648421684,1.4915701483710189,1.958536377844864,-0.3658099305960005,-0.041684071376828245,0.47183168331728764,1.452740800901336,3,left
3.966,0.14412962037168112,0.9429326826082531,-0.12677552970838235,1.4715958637932016,1.8996971363569433,-0.3799761162574068,-0.042329552858222486,0.4878935028996116,1.4387020219054483,3,left
3.966,0.14252571231428407,0.9415666259482153,-0.12604552760986304,1.4507726099453053,1.8413356655480644,-0.39362017731690363,-0.04303438268449629,0.5035035317211994,1.4245915645770335,3,left
3.971,0.1410500451253506,0.940226696785695,-0.1252643237675765,1.429074422963464,1.7835010946593783,-0.4067413137156609,-0.04379993279181845,0.5186527416205884,1.41043128959764,3,left
3.9730000000000003,0.13970478984697082,0.9389119109622751,-0.12443316500469385,1.4064797014801231,1.7262399611018002,-0.41933977068712563,-0.04462739018439495,0.533332834140224,1.396242288872124,3,left
3.9760000000000004,0.13849180771164113,0.9376213711512867,-0.12355337621850115,1.3829712832944707,1.6695961577489211,-0.4314168396259599,-0.04551775956830726,0.5475362471013305,1.382044879713434,3,left
3.9760000000000004,0.13741264223210267,0.9363542695244188,-0.12262635506914321,1.358536498214987,1.6136108917272671,-0.4429748527646568,-0.04647186637789927,0.5612561593853362,1.3678586006327094,3,left
3.9819999999999998,0.13646851223876688,0.9351098903877654,-0.12165356658518761,1.3331671970091679,1.5583226545394973,-0.45401717169402955,-0.04749036019709183,0.5744864939640104,1.3537022086939707,3,left
3.983,0.13566030597145187,0.9338876127716438,-0.12063653773938665,1.306859756392862,1.5037672033579086,-0.464548169762271,-0.04857371857818469,0.587221919219099,1.3395936783926605,3,left
3.985,0.13498857631660743,0.9326869129487102,-0.11957685204513577,1.279615059989008,1.449977553327501,-0.4745732083857959,-0.04972225126088796,0.59945784859086,1.3255502020173233,3,left
3.986,0.13445353726291584,0.931507366846802,-0.11847614422102513,1.2514384551828865,1.3969839807198492,-0.48409860730359644,-0.05093610479451013,0.6111904385934936,1.311588191453793,3,left
3.991,0.1340550616274806,0.9303486523171942,-0.1173360949645546,1.2223396857983126,1.3448140367811328,-0.4931316088053746,-0.05221526756641539,0.6224165852340446,1.297723281391395,3,left
3.9930000000000003,0.13379268008381356,0.9292105512154226,-0.11615842586644436,1.1923328005165152,1.2934925721198622,-0.5016803359622649,-0.05355957524005011,0.6331339188699165,1.2839703338908575,3,left
3.9960000000000004,0.1336655815032392,0.9280929512509722,-0.11494489448691769,1.16143603695678,1.243041771482128,-0.5097537448875269,-0.054968716606025474,0.6433407975386979,1.2703434442738546,3,left
3.997,0.1336726146046026,0.9269958475646659,-0.11369728960688853,1.1296716813352925,1.1934811987645506,-0.5173615710531745,-0.056442239841613145,0.6530362988025175,1.25685594829138,3,left
3.997,0.13381229089532595,0.9259193439983459,-0.11241742666054962,1.09706590361602,1.1448278521175521,-0.5245142696871191,-0.05797955913261043,0.6622202101975567,1.2435204305134566,3,left
4.001,0.13408278887994796,0.9248636540285592,-0.11110714335165105,1.0636485680649181,1.0970962289940553,-0.5312229502740405,-0.059579961536859995,0.6708930184676449,1.230348733856022,3,left
4.002,0.13448195950523636,0.9238291013414267,-0.10976829545365085,1.0294530191162745,1.050298401001277,-0.5374993051818632,-0.0612426139273069,0.6790558978092645,1.217351970146209,3,left
4.005,0.13500733280041435,0.9228161200297664,-0.10840275279300035,0.9945158429925155,1.0044440982679996,-0.5433555325928145,-0.06296656989424555,0.6867106973039575,1.2045405316426987,3,left
4.006,0.1356561256632829,0.9218252543993908,-0.10701239541408887,0.9588766081911559,0.9595408023029873,-0.548804254708788,-0.0647507765614478,0.6938599276228937,1.1919241034553083,3,left
4.007,0.1364252507431128,0.920857158380165,-0.10559910992347805,0.9225775927647534,0.9155938449920188,-0.5538584336251323,-0.06659408131262883,0.7005067470370256,1.1795116768235032,3,left
4.01,0.13731132637021645,0.9199125945470239,-0.10416478600992414,0.8856635089922735,0.8726065106443462,-0.5585312880578042,-0.06849523843320116,0.7066549467548282,1.1673115632170448,3,left
4.011,0.13831068747082076,0.918992432766116,-0.1027113131351663,0.8481812333635933,0.8305801387414891,-0.5628362133156296,-0.0704529156724399,0.7123089356081672,1.1553314092225517,3,left
4.015,0.13941939739063636,0.9180976484912092,-0.10124057738908591,0.8101795449825655,0.7895142263748758,-0.5667867054826484,-0.07246570073135161,0.7174737241053993,1.1435782121803384,3,left
4.016,0.14063326054207362,0.9172293207443681,-0.09975445850162433,0.7717088728176371,0.7494065301009736,-0.5703962899823974,-0.07453210768170566,0.722154907869374,1.132058336536493,3,left
4.02,0.14194783578861678,0.9163886298219155,-0.09825482700144744,0.7328210516924496,0.7102531670931711,-0.5736784545365301,-0.07665058332184903,0.7263586504765922,1.120777530875799,3,left
4.021,0.14335845047952614,0.9155768547708629,-0.09674354150844654,0.693569086907361,0.6720487154724427,-0.5766465865291489,-0.07881951347508324,0.7300916657123706,1.10974094560175,3,left
4.024,0.14486021504520163,0.9147953706816385,-0.09522244614714238,0.6540069273814832,0.6347863137015639,-0.5793139147872497,-0.08103722923653658,0.7333611992554713,1.0989531512305735,3,left
4.024,0.14644803805826012,0.9140456458401218,-0.09369336807228994,0.6141892472036385,0.5984577589303893,-0.581693455786735,-0.08330201317461376,0.7361750098042894,1.0884181572668703,3,left
4.03,0.14811664165981842,0.9133292387758142,-0.09215811510330169,0.5741712354795865,0.5630536041824286,-0.5837979642925532,-0.08561210549325024,0.7385413496553368,1.0781394316291746,3,left
4.031000000000001,0.14986057724704188,0.9126477952347676,-0.09061847346577716,0.5340083943619899,0.5285632542756568,-0.5856398884406505,-0.0879657101613386,0.7404689447434311,1.0681199205944518,3,left
4.035,0.15167424131772586,0.9120030450986776,-0.0890762056353278,0.49375634514885325,0.49497506037317746,-0.587231329268603,-0.09036100101582903,0.7419669741516921,1.0583620692312796,3,left
4.035,0.15355189137041858,0.9113967992664305,-0.08753304827512944,0.4534706423355907,0.46227641306200756,-0.5885840047009981,-0.09279612784513652,0.7430450490981618,1.048867842292186,3,left
4.039,0.155487661764363,0.9108309465095236,-0.08599071025820955,0.41320659550546707,0.430453833860879,-0.5897092179948854,-0.09526922245961203,0.7437131914046041,1.0396387455363714,3,left
4.04,0.1574755794519304,0.9103074503073016,-0.08445087076702615,0.37301909894289764,0.3994930650605388,-0.5906178306498916,-0.09777840475595467,0.7439818114518112,1.0306758474547828,3,left
4.045,0.15950957950552846,0.9098283456634245,-0.08291517746237614,0.33296246885399594,0.3693791578025844,-0.5913202397869118,-0.10032178878255649,0.7438616856245316,1.0219798013702726,3,left
4.046,0.1615835203692301,0.9093957359023406,-0.08138524471079632,0.2930902880788196,0.3400965583053868,-0.5918263599986316,-0.10289748881288001,0.7433639332479641,1.013550867886329,3,left
4.0489999999999995,0.16369119877178986,0.9090117894427855,-0.07986265185943876,0.25345525817998343,0.31162919214812607,-0.5921456096745126,-0.1055036254340732,0.7424999930166127,1.005388937658634,3,left
4.05,0.16582636424248398,0.908678736543237,-0.07834894155407979,0.2141090587926833,0.2839605465263972,-0.592286901802281,-0.10813833165812377,0.7412815989151798,0.9974935544644654,3,left
4.053,0.16798273317508555,0.9083988660120561,-0.07684561810603299,0.17510221412170132,0.25707375039522995,-0.5922586392473942,-0.1107997590629484,0.7397207556300922,0.98986393854573,3,left
4.053999999999999,0.17015400238996692,0.9081745218736474,-0.07535414592025766,0.13648396647164418,0.23095165241770899,-0.5920687145114198,-0.11348608397089942,0.7378297134492063,0.9824990102021792,3,left
4.058,0.17233386215181007,0.9080080999815704,-0.0738759479985681,0.09830215669749054,0.20557689663967219,-0.5917245139697533,-0.11619551367225382,0.7356209426462144,0.9753974136121254,3,left
4.059,0.17451600861098002,0.9079020445697578,-0.07241240453239076,0.06060311146349846,0.1809319958132125,-0.5912329265886079,-0.1189262927013263,0.7331071073452972,0.9685575408587374,3,left
4.064,0.17669415564853053,0.9078588447342719,-0.07096485160049754,0.023431537199635505,0.1569994022939039,-0.5906003571207494,-0.1216767091653472,0.7303010388839618,0.9619775561297131,3,left
4.065,0.1788620461162381,0.9078810308405323,-0.0695345799864273,-0.013169579354054911,0.1337615764388188,-0.5898327437789997,-0.12444510108845085,0.7272157088078187,0.9556554200036739,3,left
4.066,0.18101346247328268,0.907971170853299,-0.06812283412756191,-0.04915906412335382,0.11120105243450099,-0.5889355803861122,-0.12722986266503047,0.7238642018402868,0.9495889136379929,3,left
4.069,0.18314223683038372,0.9081318665873385,-0.0667308112068642,-0.08449764230272526,0.08930050148610436,-0.5879139429992135,-0.13002945027891016,0.7202596892861027,0.9437756626183138,3,left
4.069,0.18524226042064987,0.908365749875828,-0.06535966040087901,-0.11914801869018955,0.06804279230090364,-0.5867725210066203,-0.13284238818269808,0.7164154032099799,0.9382131602859575,3,left
4.073,0.1873074925240246,0.9086754786524452,-0.06401048229920564,-0.15307495185751502,0.04741104880132972,-0.5855156526944613,-0.13566727379988366,0.7123446115208897,0.9328987904595358,3,left
4.074,0.18933196887828593,0.9090637329426858,-0.0626843285072896,-0.18624532225716617,0.027388705004577983,-0.5841473652801841,-0.13850278265014543,0.7080605939749868,0.9278298495230232,3,left
4.075,0.1913098096125408,0.9095332107608054,-0.061382201438548896,-0.21862819436385322,0.007959557032561787,-0.5826714192977258,-0.1413476729059474,0.7035766190861604,0.9230035678642998,3,left
4.079,0.19323522673788407,0.9100866239107491,-0.06010505429769758,-0.2501948729383522,-0.010892187657837622,-0.5810913566590683,-0.14420078958853647,0.6989059219325482,0.9184171306488969,3,left
4.079,0.19510253122642257,0.910726693691199,-0.05885379125501844,-0.28091895348451323,-0.029181863508637402,-0.5794105507090505,-0.1470610684114834,0.694061682846733,0.9140676979143721,3,left
4.083,0.19690613970959933,0.9114561465054187,-0.057629267809623935,-0.3107763669600139,-0.04692430211706277,-0.5776322560302699,-0.14992753927993796,0.6890570069767704,0.9099524239714492,3,left
4.084,0.19864058083216526,0.9122777093766484,-0.05643229133812801,-0.3397454188071772,-0.06413378919534797,-0.5757596563143393,-0.15279932945379193,0.6839049047046573,0.9060684760987355,3,left
4.088,0.20030050130498997,0.9131941053703021,-0.0552636218236594,-0.36780682238234325,-0.08082402313734527,-0.5737959096229946,-0.15567566638296476,0.6786182729083539,0.9024130525185204,3,left
4.088,0.2018806717037559,0.9142080489246691,-0.05412397275742284,-0.3949437268678984,-0.09700807521806616,-0.5717441909220058,-0.15855588022304462,0.6732098770530103,0.8989833996418239,3,left
4.093,0.20337599206204618,0.9153222410910891,-0.05301401220072587,-0.42114173975014163,-0.11269835147562238,-0.5696077318825191,-0.1614394060395331,0.6676923340966234,0.8957768285715334,3,left
4.093999999999999,0.20478149730838957,0.916539364682263,-0.05193436399243186,-0.4463889439435644,-0.1279065563235415,-0.5673898579441965,-0.16432578570895487,0.6620780961949677,0.8927907308531198,3,left
4.098,0.20609236259713512,0.9178620793246667,-0.050885609087721814,-0.4706759096394705,-0.14264365793997633,-0.5650940226342628,-0.1672146695251054,0.6563794351902863,0.8900225934630772,3,left
4.099,0.20730390858117437,0.919293016409647,-0.04986828701693895,-0.4939957009541698,-0.15691985547890716,-0.5627238391363331,-0.17010581751871945,0.6506084278679207,0.8874700130258669,3,left
4.104,0.20841160667030317,0.9208347739381829,-0.0488828974545298,-0.5163438774492541,-0.17074454814704995,-0.5602831091026543,-0.17299910049885084,0.6447769419647785,0.8851307092507825,3,left
4.105,0.20941108431326777,0.9224899112563115,-0.047929901887345576,-0.5377184905937102,-0.18412630618882772,-0.5577758487031751,-0.17589450082426267,0.6388966229132923,0.8830025375807798,3,left
4.1080000000000005,0.21029813033444492,0.9242609436816693,-0.04700972537102425,-0.5581200752348521,-0.19707284382043733,-0.5552063119046425,-0.17879211291313274,0.6329788813043172,0.8810835010459322,3,left
4.109,0.21106870034701572,0.9261503370255204,-0.04612275836323891,-0.5775516361422683,-0.20959099415274476,-0.5525790109727222,-0.18169214349938598,0.6270348810522413,0.8793717613147874,3,left
4.112,0.21171892225326444,0.9281605020180679,-0.045269358620783184,-0.5960186296861901,-0.22168668614146775,-0.5498987341899491,-0.18459491164397154,0.6210755282454381,0.8778656489375085,3,left
4.113,0.212245101830462,0.9302937886475555,-0.044449853141844575,-0.6135289407088935,-0.23336492360185213,-0.5471705607821369,-0.18750084850940962,0.6151114606650883,0.8765636727752809,3,left
4.117,0.21264372838967302,0.9325524804255003,-0.043664540127258775,-0.6300928546449702,-0.24462976632381678,-0.5443998730457097,-0.19041049690593903,0.6091530379553167,0.8754645286110652,3,left
4.118,0.2129114804862075,0.9349387885914487,-0.042913690929162786,-0.6457230249435342,-0.2554843133223246,-0.5415923656682647,-0.19332451061760578,0.6032103324275486,0.8745671069373655,3,left
4.123,0.2130452316543276,0.93745484627129,-0.04219755195370825,-0.6604344358426888,-0.26593068825653726,-0.5387540522345431,-0.1962436535166414,0.597293120481973,0.8738704999172713,3,left
4.123,0.21304205613389804,0.9401027026035205,-0.04151634648441927,-0.6742443605438656,-0.2759700270501216,-0.5358912689098597,-0.1991687984744918,0.5914108746290195,0.873374007515611,3,left
4.127,0.21289923455186302,0.9428843168477449,-0.0408702763940945,-0.6871723148309684,-0.2856024677438934,-0.5330106752929409,-0.20210092607786875,0.5855727560937974,0.8730771427976394,3,left
4.128,0.2126142595180765,0.9458015524888634,-0.04025952371812768,-0.6992400061766214,-0.2948271426108123,-0.5301192524300291,-0.2050411231582123,0.5797876079865187,0.8729796363932545,3,left
4.132,0.21218484109596614,0.9488561713489463,-0.03968425207055204,-0.7104712783752359,-0.30364217256216625,-0.5272242979820461,-0.20799058114193206,0.5740639490214023,0.8730814401279351,3,left
4.133,0.21160891211468197,0.9520498277173901,-0.039144607892119106,-0.720892051740081,-0.31204466387261787,-0.5243334185365528,-0.21095059422363202,0.5684099677635643,0.8733827298352442,3,left
4.1339999999999995,0.21088463329808968,0.9553840625089318,-0.038640721523895465,-0.7305302588990762,-0.32003070725060584,-0.5214545190562172,-0.21392255735521445,0.5628335173779343,0.8738839073898748,3,left
4.138,0.21001039819288322,0.9588602974581719,-0.038172708100941234,-0.7394157762216279,-0.32759537927942006,-0.5185957894554881,-0.2169079640386015,0.5573421108512941,0.8745856020138659,3,left
4.138999999999999,0.20898483788177497,0.9624798293580636,-0.037740668262976104,-0.7475803509065038,-0.33473274625308025,-0.5157656882971888,-0.21990840391502722,0.5519429166618565,0.875488670896109,3,left
4.1419999999999995,0.2078068254706021,0.9662438243490363,-0.037344688684387645,-0.7550575238310262,-0.34143587040796264,-0.5129729236578819,-0.22292556015322004,0.5466427548766329,0.8765941991422872,3,left
4.143,0.20647548034166935,0.9701533122660482,-0.03698484243001188,-0.7618825486223443,-0.3476968184399824,-0.5102264314964383,-0.22596120664401817,0.5414480936602107,0.8779034990598833,3,left
4.143,0.20499017216892468,0.9742091810520981,-0.036661189140939306,-0.7680923080622233,-0.35350667199803865,-0.5075353523742673,-0.22901720501004108,0.5363650461794416,0.8794181087808506,3,left
4.146,0.20335052469403753,0.9784121712467808,-0.03637377504670432,-0.7737252292974597,-0.3588555397332541,-0.504909007661296,-0.23209550143908872,0.53139936788883,0.8811397902251273,3,left
4.147,0.20155641926708973,0.9827628705572635,-0.03612263279112698,-0.7788211989635205,-0.36373257059219455,-0.5023568760763956,-0.23519812334999257,0.5265564541817119,0.8830705264087582,3,left
4.151,0.19960799816090258,0.9872617085169433,-0.035907781054678026,-0.7834214786744939,-0.36812596823882554,-0.4998885708971709,-0.23832717589970223,0.5218413383926337,0.8852125181009783,3,left
4.152,0.19750566767278696,0.9919089512335789,-0.03572922396030537,-0.7875686209681444,-0.3720230065985634,-0.4975138178886945,-0.24148483834045467,0.5172586901366775,0.8875681798352103,3,left
4.156000000000001,0.19525010103053972,0.9967046962245402,-0.03558695025987754,-0.791306385720806,-0.3754100465384049,-0.49524243394387224,-0.244673360235944,0.5128128139718324,0.8901401352795233,3,left
4.157,0.19284224111993212,1.00164886733399,-0.03548093230921827,-0.7946796570454138,-0.3782725536957293,-0.4930843064283733,-0.24789505754548508,0.508507648370876,0.892931211972717,3,left
4.162,0.1902833030487132,1.0067412097261692,-0.03541112484892674,-0.7977343606846868,-0.38059511746693986,-0.49104937322332215,-0.2511523085852473,0.5043467649896096,0.8959444354327981,3,left
4.163,0.18757477655806656,1.0119812849497498,-0.03537746361699959,-0.8005173819102945,-0.38236147116564123,-0.4891476034592482,-0.25444754987572293,0.5003333682186859,0.8991830226452484,3,left
4.167,0.1847184282873269,1.0173684660701843,-0.035379863827741394,-0.8030764839377954,-0.3835545133585449,-0.48738897893511585,-0.2577832718846905,0.4964702950066673,0.9026503749391067,3,left
4.168,0.18171630389156992,1.0229019328697035,-0.03541821855712037,-0.8054602268662268,-0.3841563303857388,-0.48578347621661033,-0.2611620146750356,0.49276001494236965,0.9063500702595283,3,left
4.171,0.17857073000402535,1.0285806671163322,-0.03549239707465035,-0.8077178871504406,-0.38414822007035865,-0.48434104940823763,-0.26458636346690034,0.48920463058496794,0.9102858548461313,3,left
4.172,0.1752843160264301,1.0344034479027597,-0.03560224315517874,-0.8098993776136434,-0.3835107166210495,-0.48307161359420736,-0.268058944123751,0.48580587803077147,0.9144616343271025,3,left
4.176,0.17185995572143517,1.0403688470541304,-0.035747573393717084,-0.8120551680070935,-0.3822236167289066,-0.4819850289435085,-0.2715824185720737,0.4825651277060146,0.9188814642396941,3,left
4.177,0.16830082857276388,1.046475224602802,-0.03592817553835306,-0.8142362061235483,-0.3802660068588298,-0.4810910854750552,-0.2751594801645428,0.4794833853754532,0.923549539988429,3,left
4.1819999999999995,0.16461040087082582,1.0527207243293921,-0.03614380685375914,-0.8164938394708381,-0.3776162917334169,-0.4803994884792776,-0.2787928489966418,0.47656129335700614,0.9284701862530201,3,left
4.183,0.16079242647384964,1.0591032693727276,-0.036394192528866706,-0.8188797375118693,-0.3742522240056537,-0.4799198445930566,-0.28248526718686656,0.47379913193313355,0.9336478458587065,3,left
4.186,0.15685094718874032,1.065620557915495,-0.03667902414217375,-0.8214458144774323,-0.37015093511472974,-0.4796616485254562,-0.28623949413079075,0.4711968209501009,0.9390870681224285,3,left
4.186,0.15279029271326292,1.0722700589572585,-0.03699795819593397,-0.8242441527584108,-0.3652889673173201,-0.4796342704322868,-0.2900583017394383,0.46875392159673496,0.9447924966889866,3,left
4.191,0.14861508008165608,1.0790490081914368,-0.037350614730485364,-0.8273269268843598,-0.3596423068846212,-0.479846943938142,-0.2939444696725757,0.46646963835473565,0.9507688568720669,3,left
4.1930000000000005,0.14433021255831902,1.08595440400596,-0.03773657603420021,-0.830746328095935,-0.35318641845330645,-0.4803087548051876,-0.297900780577715,0.4643428211130686,0.9570209425157699,3,left
4.196000000000001,0.13994087792822377,1.0929830036284915,-0.03815538546772438,-0.8345544895193229,-0.3458962805163835,-0.4810286302486444,-0.3019300153458045,0.4623719674394183,0.9635536023930407,3,left
4.196000000000001,0.1354525461386195,1.1001313194380422,-0.038606546418002985,-0.8388034119516458,-0.3377464220376793,-0.48201532889959403,-0.30603494839477563,0.4605552250021363,0.9703717261581828,3,left
4.2010000000000005,0.13087096625422187,1.1073956154660987,-0.03908952139002753,-0.84354489026727,-0.3287109601713529,-0.4832774314164554,-0.3102183429882707,0.45889039414196847,0.9774802298711908,3,left
4.202,0.12620216269551018,1.1147719041111597,-0.039603731237892514,-0.8488304404560745,-0.31876363906543737,-0.48482333174721715,-0.31448294657683795,0.45737493062026585,0.9848840411112794,3,left
4.202,0.12145243073569731,1.1222559430904153,-0.04014855453366447,-0.8547112273059945,-0.30787786972594505,-0.48666122904527964,-0.31883148611266193,0.4560059486193873,0.9925880836957036,3,left
4.206,0.11662833123695752,1.1298432326517232,-0.040723327070292276,-0.8612379927435729,-0.2960267709155206,-0.4887991202425514,-0.3232666632688776,0.4547802240984122,1.0005972620196355,3,left
4.207,0.11173668461188062,1.1375290130688567,-0.04132734149070711,-0.8684609848478154,-0.28318321105801036,-0.49124479328425674,-0.3277911495149933,0.45369419858073295,1.008916445034875,3,left
4.21,0.10678456400268004,1.1453082624430562,-0.04195984703049161,-0.8764298875459501,-0.26931985112682805,-0.4940058210170848,-0.3324075810366287,0.45274398340196165,1.0175504498881358,3,left
4.211,0.10177928767687987,1.1531756948330718,-0.04262004935990507,-0.8851937509595639,-0.2544091885382779,-0.4970895556548301,-0.33711855350826514,0.45192536442001524,1.026504025241692,3,left
4.211,0.09672841064206943,1.1611257587339767,-0.043307110514465876,-0.8948009222959982,-0.2384236021510403,-0.5005031236235491,-0.3419266167320115,0.45123380718425293,1.0357818343002971,3,left
4.217,0.09163971548638687,1.1691526359230946,-0.04402014890965383,-0.905298977140033,-0.2213353985161499,-0.5042534205208197,-0.34683426915565463,0.45066446256092574,1.045388437569185,3,left
4.218,0.08652120245955496,1.1772502406900183,-0.04475823944106614,-0.9167346510451719,-0.20311685947273153,-0.5083471059929605,-0.35184395228353066,0.4502121728125769,1.0553282753688862,3,left
4.22,0.0813810788205305,1.1854122194666823,-0.045520413673448494,-0.9291537714018349,-0.18374029109877751,-0.5127905984580234,-0.35695804499403744,0.4498714781293968,1.0656056501335216,3,left
4.221,0.0762277474888309,1.1936319508722946,-0.04630566011928787,-0.9426011896043217,-0.1631780739770267,-0.5175900696716783,-0.3621788577778895,0.44963662361088447,1.0762247085201808,3,left
4.225,0.07106979504583817,1.2019025461855681,-0.04711292460272917,-0.9571207135494952,-0.1414027147235487,-0.5227514391477647,-0.36750862691151365,0.44950156669650604,1.0871894233579487,3,left
4.225,0.06591597913898999,1.2102168502524084,-0.04794111070225475,-0.9727550405029597,-0.1183868987233107,-0.5282803684462881,-0.372949508580281,0.44945998504435797,1.0985035754661125,3,left
4.229,0.060775215344952234,1.218567442831889,-0.04878908026809184,-0.9895456903714567,-0.09410354401359686,-0.5341822553426628,-0.3785035729665782,0.44950528485714764,1.1101707353720651,3,left
4.23,0.055656563548388854,1.2269466403791005,-0.049655654015429956,-1.0075329394232844,-0.06852585625266759,-0.5404622278930378,-0.3841727983180343,0.4496306096550897,1.1221942449604092,3,left
4.234,0.05056921389260684,1.2353464982617706,-0.05053961219929499,-1.0267557545017398,-0.04162738470748161,-0.5471251384116034,-0.3899590650115361,0.44982884949558544,1.1345771990857756,3,left
4.235,0.04552247235780425,1.2437588134086122,-0.051439695382005775,-1.0472517277799087,-0.013382079190663513,-0.5541755573768432,-0.39586414962899397,0.4500926506397982,1.147322427182876,3,left
4.239,0.04052574602117742,1.252175127390407,-0.052354605311764925,-1.0690570121085563,0.016235652126817896,-0.5616177672847814,-0.4018897190611467,0.4504144256664723,1.16043247490834,3,left
4.2410000000000005,0.035588528050280524,1.2605867299389826,-0.05328300593970226,-1.0922062570124256,0.04725088410458872,-0.5694557564683772,-0.4080373246560317,0.4507863640335472,1.173909585849915,3,left
4.245,0.03072038247731411,1.268984662914517,-0.05422352460721983,-1.1167325453938979,0.07968811530462301,-0.5776932129033296,-0.41430839642908884,0.45120044308830975,1.1877556833396472,3,left
4.246,0.0259309287985227,1.277359724737867,-0.055174753432033284,-1.142667331006732,0.11357120803094747,-0.586333518021681,-0.42070423735220996,0.45164843952699046,1.2019723524087103,3,left
4.249,0.021229826439897223,1.2857024753105049,-0.05613525091249574,-1.1700403767664544,0.14892332782644907,-0.5953797405557414,-0.42722601773939856,0.4521219413048565,1.216560821922601,3,left
4.25,0.016626759127241614,1.2940032414479468,-0.057103543762064474,-1.1988796939679263,0.18576688252002072,-0.6048346304360086,-0.4338747697470567,0.4526123599979724,1.2315219469364855,3,left
4.254,0.012131419195414628,1.3022521228527248,-0.05807812898251541,-1.2292114824846543,0.2241234609214314,-0.6147006127679095,-0.44065138200727594,0.45311094361789783,1.2468561913115337,3,left
4.254,0.007753491868701378,1.3104389986519864,-0.0590574761836306,-1.2610600720285423,0.26401377126552705,-0.624979781913356,-0.4475565944128698,0.4536087898806638,1.2625636106341562,3,left
4.2589999999999995,0.0035026395412110695,1.318553534524661,-0.06004003015478079,-1.2944478645529864,0.3054575795116494,-0.6356738957042821,-0.45459099307324935,0.45409685993141724,1.2786438354811258,3,left
4.26,-0.0006115139174252066,1.3265851904437094,-0.06102421368886089,-1.3293952778865024,0.34847364760850663,-0.6467843698165111,-0.46175500546061055,0.4545659925261477,1.2950960550746289,3,left
4.263999999999999,-0.004579398808771507,1.3345232290597728,-0.06200843065292756,-1.3659206906884258,0.3930796718391317,-0.6583122723334831,-0.469048895766273,0.4550069186719061,1.3119190013723743,3,left
4.265,-0.008391515183716218,1.3423567247532258,-0.06299106929397166,-1.4040403888226431,0.4392922213650264,-0.6702583185305696,-0.47647276048737713,0.45541027672689843,1.3291109336389504,3,left
4.268,-0.012038448330968217,1.3500745733807253,-0.0639705057623879,-1.4437685132497855,0.4871266770931028,-0.6826228659118927,-0.4840265242645217,0.4557666279617816,1.34666962354569,3,left
4.269,-0.015510884155204413,1.3576655027387428,-0.06494510783044763,-1.485117009542853,0.5365971709935989,-0.695405909532769,-0.4917099359845085,0.4560664725746561,1.3645923408390737,3,left
4.27,-0.01879962442690616,1.365118083761968,-0.06591323878097997,-1.5280955791358037,0.5877165260017577,-0.7086070776420957,-0.499522565128799,0.4563002661083756,1.3828758395772807,3,left
4.274,-0.02189560189009798,1.3724207424711083,-0.06687326144323918,-1.5727116324192625,0.6404961966407161,-0.7222256276801989,-0.507463798287581,0.45645843613988407,1.4015163448609043,3,left
4.275,-0.024789895214823148,1.3795617726811142,-0.0678235423537753,-1.6189702438021543,0.6949462105077466,-0.7362604426688658,-0.5155328357257793,0.45653139906736456,1.4205095399434042,3,left
4.2780000000000005,-0.027473743776470886,1.3865293494752333,-0.06876245601537989,-1.6668741088627432,0.7510751107707287,-0.7507100280314835,-0.5237286879216504,0.45650957686455784,1.439850553649393,3,left
4.279,-0.02993856223957537,1.3933115434439378,-0.06968838922059736,-1.7164235037115076,0.8088898997879546,-0.7655725088670118,-0.5320501720600511,0.4563834137501662,1.4595339481045193,3,left
4.28,-0.032175954924936814,1.3998963356842582,-0.07059974540522763,-1.767616246664248,0.8683959837764694,-0.7808456276257558,-0.5404959084967738,0.4561433927637802,1.47955370682321,3,left
4.283,-0.03417772994470232,1.4062716335553687,-0.07149494900074159,-1.8204476622767922,0.9295971181121142,-0.7965267419975701,-0.5490643172174876,0.4557800522482437,1.4999032232098202,3,left
4.284,-0.035935913095488665,1.4124252871861969,-0.0723724497538644,-1.8749105477686379,0.9924953526565751,-0.8126128227473557,-0.5577536143151917,0.4552840022380752,1.5205752895297198,3,left
4.288,-0.0374427615024685,1.4183451067262234,-0.07323072697429177,-1.9309951418963334,1.0570909767043042,-0.8291004513108446,-0.566561808510435,0.45464594075323483,1.5415620864078212,3,left
4.289,-0.0386907770097037,1.4240188803239588,-0.07406829366626798,-1.9886890963938553,1.1233824634938914,-0.8459858171033656,-0.575486697738918,0.4538566699971741,1.5628551729129845,3,left
4.295,-0.03967271931609529,1.4294343928131152,-0.07488370050327756,-2.0479774501306682,1.1913664144260372,-0.8632647145724008,-0.5845258658314301,0.45290711245772197,1.5844454772876682,3,left
4.296,-0.04038161886125826,1.4345794450841882,-0.07567553961392072,-2.108842606148553,1.2610375031736913,-0.8809325400412913,-0.5936766793114251,0.45178832690895576,1.6063232883831038,3,left
4.298,-0.04081078946925805,1.4394418741172474,-0.07644244815455166,-2.1712643117429145,1.332388419874786,-0.8989842883925893,-0.6029362843358658,0.45049152431176864,1.628478247861135,3,left
4.2989999999999995,-0.0409538407593394,1.4440095736496714,-0.077183111647404,-2.2352196417588517,1.4054098156028523,-0.9174145496406848,-0.6123016038052999,0.449008083610388,1.6508993432247328,3,left
4.303,-0.040804690331935504,1.4482705154509943,-0.07789626706234468,-2.300682985276789,1.4800902473156532,-0.9362175054444504,-0.6217693346694497,0.44732956742161084,1.6735749017400077,3,left
4.303999999999999,-0.040357575736774086,1.4522127711771642,-0.07858070561872271,-2.3676260358669494,1.5564161234867788,-0.9553869256117508,-0.6313359454549086,0.4454477376130124,1.6964925853133408,3,left
4.3069999999999995,-0.03960706622947957,1.4558245347783845,-0.07923527528375866,-2.4360177855963316,1.634371650629959,-0.9749161646487503,-0.6409976740418404,0.4433545707658485,1.71963938638802,3,left
4.308,-0.03854807432463317,1.4590941454369695,-0.07985888294630546,-2.5058245229761984,1.713938780930592,-0.9947981584080193,-0.650750525716875,0.4410422735178126,1.7430016249254952,3,left
4.313,-0.037175867155795406,1.4620101110135737,-0.08045049624798328,-2.577009835042311,1.795097161203724,-1.015025420890496,-0.660590271529671,0.4385032977802225,1.7665649465370596,3,left
4.314,-0.03548607765470124,1.464561131981349,-0.08100914505587242,-2.649534613764313,1.8778240834023885,-1.0355900412573884,-0.6705124469808952,0.43573035582360886,1.7903143218324267,3,left
4.3180000000000005,-0.03347471556250117,1.4667361258267353,-0.08153392256174768,-2.7233570669847182,1.9620944369048288,-1.0564836811091167,-0.6805123510696256,0.4327164352250451,1.8142340470522778,3,left
4.319,-0.03113817828611332,1.468524251891495,-0.08202398599293048,-2.798432734091917,2.04788066281371,-1.077697572089389,-0.6905850457284359,0.4294548136699099,1.8383077460524457,3,left
4.322,-0.02847326161190737,1.4699149366229476,-0.08247855692119438,-2.8747145066354545,2.135152710504913,-1.0992225138734644,-0.7007253556746543,0.42593907360010125,1.8625183737079247,3,left
4.323,-0.025477170286402485,1.470897899188144,-0.08289692116167338,-2.9521526540955585,2.223877996667939,-1.1210488726006107,-0.7109278687065146,0.422163116700029,1.8868482208053843,3,left
4.329,-0.02214752846957675,1.4714631773936109,-0.08327842826470544,-3.0306948550224853,2.314021367084301,-1.1431665798116777,-0.7211869364731227,0.4181211782110032,1.9112789204933083,3,left
4.33,-0.018482390061008668,1.4716011538370384,-0.08362249061753571,-3.110286233764715,2.4055450613945393,-1.1655651319535971,-0.7314966757473594,0.41380784106390467,1.9357914563592733,3,left
4.332,-0.014480248892518897,1.4713025822019203,-0.08392858218393585,-3.1908694030083433,2.498408681108675,-1.1882335905134953,-0.7418509702310141,0.4092180498192771,1.9603661722042194,3,left
4.333,-0.0101400487730656,1.4705586135908177,-0.08419623691360802,-3.2723845123531814,2.592569161118971,-1.211160582845929,-0.7522434729216094,0.40434712440322,1.9849827835838523,3,left
4.338,-0.005461193362380117,1.4693608227788975,-0.08442504685295563,-3.3547693031540864,2.6879807449778403,-1.2343343037575683,-0.7626676090705213,0.39919077362667804,2.009620391187558,3,left
4.3389999999999995,-0.0004435558406930464,1.4677012342588225,-0.08461465999277384,-3.4379591698588854,2.784594964207583,-1.25774251791442,-0.7731165797621266,0.39374510847493355,2.0342574961253783,3,left
4.34,0.004912511664715955,1.465572347944126,-0.08476477789817316,-3.5218872280769324,2.882360621912346,-1.2813725631374342,-0.783583366128221,0.3880066551539315,2.058872017155546,3,left
4.341,0.010606168937716402,1.4629671644065765,-0.08487515317241061,-3.6064843896148284,2.9812237809662987,-1.3052113546530348,-0.7940607341340833,0.3819723678824138,2.08344130969425,3,left
4.343999999999999,0.01663607885595788,1.4598792095439839,-0.08494558680279271,-3.6916794445643544,3.081127756988563,-1.3292453903513364,-0.8045412397322808,0.37563964142370443,2.107942186105729,3,left
4.343999999999999,0.023000398934338685,1.456302558596368,-0.08497592542896701,-3.7773991497608654,3.1820131159842724,-1.3534607570331527,-0.8150172341023967,0.3690063233533128,2.132350936579829,3,left
4.345,0.029696773264082595,1.452231859437519,-0.08496605856896604,-3.86356832154822,3.283817675932232,-1.3778431374973847,-0.8254808687728626,0.36207072605450763,2.156643350094918,3,left
4.35,0.036722324882871756,1.4476623550626393,-0.08491591583555572,-3.950109930019139,3.3864765112681594,-1.40237781824864,-0.8359241005614217,0.3548316384274617,2.180794735307439,3,left
4.352,0.04407364861249266,1.4425899051765387,-0.08482546416833106,-4.036945192670286,3.489921959549777,-1.427049697677749,-0.8463386963487096,0.3472883372935415,2.204779941399991,3,left
4.356,0.05174680439765683,1.4370110067734299,-0.08469470508876228,-4.123993666796738,3.59408363019471,-1.4518432946984432,-0.8567162377149949,0.33944059847481506,2.2285733789576683,3,left
4.356,0.05973731117132,1.4309228135970313,-0.08452367195684247,-4.211173340720493,3.698888415519056,-1.4767427578961863,-0.8670481254700608,0.33128870752797906,2.2521490409419878,3,left
4.36,0.06804014126425204,1.4243231543727657,-0.08431242718075699,-4.298400724102307,3.804260504373649,-1.5017318752600002,-0.8773255841061283,0.3228334701110375,2.275480523831254,3,left
4.361000000000001,0.07664971538317122,1.4172105497032577,-0.08406105931649259,-4.385590937586745,3.9101213986770924,-1.5267940845684773,-0.8875396662036151,0.31407622196018564,2.2985410489956486,3,left
4.365,0.08555989821506148,1.4095842275120452,-0.08376967999445781,-4.472657802030709,4.0163899331464625,-1.551912484501474,-0.8976812568193924,0.3050188384534838,2.3213034843747278,3,left
4.3660000000000005,0.09476399477696318,1.4014441369118984,-0.08343842062376144,-4.559513927565854,4.122982298528235,-1.5770698465492372,-0.9077410778870423,0.2956637437370343,2.343740366524284,3,left
4.368,0.10425474770860006,1.392790960369802,-0.0830674288545928,-4.646070802745152,4.22981206863336,-1.602248627790922,-0.9177096926584426,0.28601391938850795,2.3658239230987643,3,left
4.369,0.11402433578223851,1.3836261240463326,-0.08265686482621289,-4.732238884023564,4.3367902314815865,-1.6274309846146267,-0.9275775102157883,0.27607291259200617,2.3875260958345756,3,left
4.374,0.12406437396361436,1.373951806204928,-0.08220689728390626,-4.817927685822138,4.443825224861062,-1.652598787451172,-0.9373347900829329,0.2658448437973905,2.4088185640986746,3,left
4.375,0.13436591538496376,1.3637709436147933,-0.08171769969562842,-4.903045871423978,4.55082297660991,-1.6777336365939235,-0.9469716469646632,0.25533441383636557,2.42967276906582,3,left
4.379,0.14491945557773422,1.3530872359055226,-0.08118944652037614,-4.987501344949452,4.657686949926916,-1.7028168791769558,-0.956478055642236,0.24454691046676666,2.4500599385867727,3,left
4.38,0.1557149392609229,1.3419051478663675,-0.08062230977035573,-5.071201344656582,4.764318194018575,-1.727829627383822,-0.9658438560531837,0.2334882143156795,2.4699511128085465,3,left
4.383,0.1667417699016074,1.3302299097133392,-0.08001645598091142,-5.154052537810948,4.870615400389714,-1.7527527779590937,-0.9750587585830535,0.22216480419120993,2.489317170606558,3,left
4.385,0.17798882216984807,1.3180675153686952,-0.07937204367650137,-5.235961117367533,4.97647496508442,-1.7775670330946851,-0.9841123495963656,0.21058376173192622,2.5081288568871796,3,left
4.388999999999999,0.1894444573149292,1.3054247188069947,-0.07868922140825628,-5.316832900704742,5.081791057183411,-1.8022529227627804,-0.9929940972336758,0.1987527753622203,2.5263568108177767,3,left
4.39,0.20109654140897168,1.2923090285208316,-0.07796812643174036,-5.396573430648403,5.18645569386298,-1.8267908285669174,-1.0016933575011893,0.18668014352107276,2.5439715950397974,3,left
4.394,0.21293246634869264,1.2787287001512189,-0.077208884077089,-5.475088079020862,5.290358822319387,-1.8511610091824708,-1.0101993806789134,0.17437477713096983,2.560943725918893,3,left
4.395,0.22493917347961484,1.264692727314751,-0.0764116078289034,-5.55228215294728,5.393388408861015,-1.8753436274574058,-1.0185013180728424,0.1618462012730026,2.5772437048843715,3,left
4.398,0.23710317970335013,1.2502108306441084,-0.07557640008298945,-5.628061004147998,5.495430535468725,-1.8993187792437571,-1.0265882291361381,0.14910455603348613,2.5928420509085206,3,left
4.399,0.24941060593515033,1.2352934450449218,-0.07470335349060403,-5.702330141442334,5.596369504122662,-1.923066524029794,-1.0344490889837226,0.13616059648676931,2.6077093341744955,3,left
4.4030000000000005,0.26184720778228104,1.2199517051646294,-0.07379255274898582,-5.774995346685353,5.696087949191223,-1.9465669174422988,-1.0420727963241054,0.12302569177826564,2.6218162109795315,3,left
4.4030000000000005,0.2743984083060108,1.2041974290675552,-0.07284407666224972,-5.845962794355099,5.794466958175107,-1.9698000456877964,-1.0494481818316557,0.10971182327112487,2.6351334599182294,3,left
4.409,0.2870493327149735,1.1880431001120573,-0.07185800029347712,-5.915139175003451,5.891386201096143,-1.9927460620009039,-1.0565640169769204,0.09623158170421403,2.6476320193498672,3,left
4.41,0.2997848448326877,1.1715018470263763,-0.07083439706309112,-5.982431822779132,5.986724068817108,-2.015385225167272,-1.0634090233071323,0.08259816323267065,2.6592830259580476,3,left
4.4110000000000005,0.3125895851926664,1.154587422179383,-0.06977334070971394,-6.047748847226558,6.080357820574908,-2.0376979401878224,-1.0699718821237412,0.06882536408523367,2.6700578538604947,3,left
4.413,0.3254480106090046,1.1373141780502076,-0.06867490709934897,-6.1109992695590485,6.1721637410052494,-2.0596648011501477,-1.0762412444782736,0.05492757349622313,2.6799281535309993,3,left
4.414,0.33834443502181166,1.1196970419269707,-0.06753917593449744,-6.172093163599507,6.262017306932457,-2.0812666363720758,-1.0822057414318318,0.04091976464545856,2.68886588998654,3,left
4.414,0.3512630713579084,1.1017514889014355,-0.06636623246490918,-6.230941801433007,6.349793364004188,-2.102484555778947,-1.0878539945673253,0.02681748347555166,2.6968433800383163,3,left
4.418,0.36418807413459253,1.0834935132486507,-0.0651561693183283,-6.287457803094717,6.4353663123008715,-2.1232999999626543,-1.0931746267674678,0.01263683533150956,2.7038333285963043,3,left
4.419,0.3771035825723945,1.0649395982797378,-0.06390908854904259,-6.341555288323281,6.518610298343633,-2.1436947894469216,-1.0981562732756465,-0.0016055306175587751,2.7098088640529396,3,left
4.423,0.3899937640140823,1.0461066847588043,-0.06262510396791839,-6.393150027688269,6.599399409973763,-2.1636511721696765,-1.1027875930558684,-0.01589243921511033,2.714743572768796,3,left
4.4239999999999995,0.40284285743152154,1.027012138004819,-0.061304343792921136,-6.442159591108691,6.67760787151518,-2.1831518677047383,-1.1070572804670409,-0.0302062094529114,2.718611532680275,3,left
4.428999999999999,0.41563521676728704,1.0076737138387295,-0.059946953643897655,-6.488503493059703,6.753110238325113,-2.2021801076663534,-1.1109540772658744,-0.04452867694673405,2.721387346046422,3,left
4.43,0.42835535384082235,0.988109523560778,-0.058553099894818,-6.532103334472541,6.825781590775894,-2.2207196722513656,-1.114466784951688,-0.05884121879301002,2.723046171348984,3,left
4.4319999999999995,0.4409879805462207,0.9683379981548724,-0.057122973392516346,-6.572882941468312,6.895497727892237,-2.2387549229750077,-1.1175842774653604,-0.07312478084752275,2.7235637543567663,3,left
4.433,0.45351805006805107,0.948377851926357,-0.05565679354699985,-6.610768501058588,6.962135360860637,-2.2562708316549447,-1.1202955142535913,-0.08735990746724188,2.7229164583622114,3,left
4.439,0.46593079684359323,0.9282480457884998,-0.054154812778809576,-6.645688693937904,7.025572306619406,-2.2732530056967923,-1.1225895537085475,-0.10152677375637542,2.7210812935949114,3,left
4.44,0.47821177500806217,0.9079677504190635,-0.05261732126640428,-6.677574824485148,7.085687681729333,-2.2896877097328865,-1.1244555669918204,-0.11560522035763042,2.7180359458134924,3,left
4.442,0.49034689507633594,0.8875563095085182,-0.051044651880981874,-6.70636094808251,7.1423620967161545,-2.3055618836645926,-1.125882852250462,-0.12957479082953338,2.7137588040739575,3,left
4.4430000000000005,0.5023224586404742,0.8670332033140458,-0.049437185145678846,-6.731983995852186,7.195477851066806,-2.3208631571569103,-1.1268608492316659,-0.14341477165046448,2.708228987669173,3,left
4.448,0.5141251908931191,0.8464180127189646,-0.04779535402515817,-6.75438389690226,7.24491912905189,-2.335579860632564,-1.1273791543014302,-0.1571042348898051,2.7014263722306984,3,left
4.448,0.5257422708181443,0.8257303839771843,-0.046119648345421954,-6.773503698164362,7.290572196536919,-2.349701032811146,-1.127427535871282,-0.17062208358628522,2.693331614980633,3,left
4.452,0.537161358919898,0.8049899942984092,-0.04441061865883341,-6.789289681896551,7.332325598934678,-2.3632164248372454,-1.126995950235849,-0.18394709987324384,2.683926179117546,3,left
4.453,0.5483706223908131,0.7842165184040294,-0.04266887939880492,-6.801691480915664,7.370070360440479,-2.3761165010398226,-1.1260745578227447,-0.1970579958900834,2.6731923573169083,3,left
4.456,0.5593587576438082,0.7634295961586929,-0.04089511120686775,-6.810662191613926,7.403700184681235,-2.3883924363633664,-1.1246537398548841,-0.2099334675187056,2.661113294322729,3,left
4.457,0.5701150101617702,0.7426488013599817,-0.03909006235968786,-6.816158484805092,7.433111656898044,-2.4000361105096406,-1.122724115423972,-0.22255225098316203,2.647673008603346,3,left
4.462,0.5806291916431444,0.7218936117482191,-0.03725454927540515,-6.818140714435604,7.45820444777051,-2.4110400988270637,-1.1202765589724917,-0.23489318235013787,2.6328564130404915,3,left
4.463,0.5908916944494581,0.7011833802803471,-0.03538945613656173,-6.816573024186481,7.478881518979167,-2.421397659982967,-1.1173022181800962,-0.24693525996721077,2.6166493346168997,3,left
4.467,0.6008935033836477,0.6805373076969166,-0.03349573372359855,-6.811423451981628,7.495049330590282,-2.431102720452163,-1.1137925322488367,-0.2586577098750893,2.599038533063821,3,left
4.468,0.6106262048444876,0.659974416399101,-0.0315743975947142,-6.8026640324081695,7.506618050334935,-2.440149855853422,-1.1097392505801789,-0.2700400542292386,2.5800117184258347,3,left
4.473,0.6200819934133063,0.6395135256423738,-0.02962652576327583,-6.790270897044265,7.513501764841543,-2.4485342691636007,-1.105134451835246,-0.28106218276544187,2.5595575674963897,3,left
4.474,0.6292536759377324,0.6191732280452643,-0.027653256013647376,-6.774224372679515,7.515618692868104,-2.4562517658372895,-1.0999705633681844,-0.29170442734292884,2.537665739073438,3,left
4.476,0.6381346731859798,0.5989718674047876,-0.025655782972031405,-6.754509077402779,7.512891400567204,-2.4632987258579537,-1.0942403810209933,-0.301947639597727,2.514326887980491,3,left
4.477,0.6467190191536739,0.5789275178021785,-0.023635355021917593,-6.731114014521739,7.505247018803375,-2.4696720727446535,-1.0879370892495661,-0.3117732715985198,2.4895326778187843,3,left
4.478,0.6550013581084717,0.5590579639716171,-0.021593271127121075,-6.704032664268092,7.492617462528735,-2.4753692395365015,-1.081054281464049,-0.32116345869952373,2.463275792534473,3,left
4.481,0.6629769394527503,0.5393806828917732,-0.01953087759971225,-6.673263073231689,7.474939652208912,-2.4803881317750935,-1.073585980311926,-0.33010110252972236,2.4355499471008746,3,left
4.482,0.6706416104792418,0.5199128265473925,-0.017449564829439608,-6.638807941456419,7.452155737277133,-2.484727087503219,-1.0655266575455644,-0.3385699513599137,2.406349897733962,3,left
4.482,0.6779918070968591,0.500671205797164,-0.01535076397749453,-6.600674706931254,7.424213321293046,-2.4883848343882997,-1.0568712531993174,-0.34655467578446125,2.3756714519327433,3,left
4.49,0.685024542608455,0.4816722752768137,-0.013235943627026538,-6.558875626255306,7.39106568703306,-2.4913604445375097,-1.0476151939526777,-0.35404093890737054,2.343511478411698,3,left
4.4910000000000005,0.691737394624225,0.4629321192645045,-0.011106606372690769,-6.513427848546158,7.352672017141009,-2.493653288398366,-1.0377544106393064,-0.36101546091765,2.309867916865855,3,left
4.492,0.6981284902075421,0.44446643843690004,-0.008964285320870504,-6.4643534787061485,7.308997604517857,-2.4952629895970886,-1.027285354877068,-0.36746607807686266,2.2747397874803674,3,left
4.493,0.704196489386306,0.4262905374454502,-0.006810540462323571,-6.41167962709477,7.260014048049475,-2.4961893821045997,-1.0162050147924673,-0.37338179614034706,2.2381272000922015,3,left
4.496,0.7099405672102511,0.40841931324490305,-0.004646954877711953,-6.3554384443439496,7.205699431839851,-2.4964324702892955,-1.004510929811158,-0.37875283823211664,2.2000313629072803,3,left
4.497,0.7153603945723832,0.39086724411222673,-0.0024751307532556587,-6.295667140986481,7.1460384875371625,-2.4959923919532923,-0.9922012044844384,-0.3835706871919452,2.160454590672171,3,left
4.501,0.7204561180346783,0.37364837930320677,-0.0002966852176577873,-6.232407991746377,7.081022739611935,-2.4948693843548138,-0.9792745213198987,-0.3878281224116113,2.119400312195141,3,left
4.502,0.7252283389087861,0.3567763293039938,0.0018867539501128104,-6.16570832432965,7.010650633431257,-2.4930637532174202,-0.9657301525826225,-0.3915192511757128,2.0768730771071535,3,left
4.505,0.7296780918434977,0.34026425664506005,0.00407355266412008,-6.095620492543912,6.934927645957605,-2.4905758447248094,-0.9515679710315783,-0.39463953452087686,2.0328785617491043,3,left
4.506,0.7338068231599553,0.3241248672550834,0.006262074836953768,-6.022201833565152,6.853866378885526,-2.4874060204979678,-0.9367884595540604,-0.3971858076255833,1.9874235740673847,3,left
4.511,0.7376163691519642,0.30837040234141955,0.008450686565470437,-5.945514609160222,6.7674866340140145,-2.483554635549485,-0.9213927196592745,-0.3991562947411939,1.940516057395604,3,left
4.512,0.7411089345347616,0.2930126307914636,0.010637760135403702,-5.865625930663773,6.675815470637099,-2.4790220192078873,-0.9053824787903817,-0.4005506186731465,1.892165092996109,3,left
4.5169999999999995,0.7442870711857963,0.2780628420959047,0.012821677810428644,-5.782607667498901,6.578887244719786,-2.473808459002881,-0.8887600964125465,-0.4013698048196229,1.8423809012307297,3,left
4.518,0.7471536572806446,0.2635318398013151,0.015000835395912807,-5.696536339021322,6.476743629611296,-2.467914187500444,-0.8715285688327644,-0.4016162797733519,1.7911748412260249,3,left
4.52,0.749711876891274,0.24942993550535308,0.01717364558508747,-5.60749298945774,6.3694336180323115,-2.4613393720747463,-0.8536915327054826,-0.4012938644905545,1.7385594088941447,3,left
4.52,0.7519652000880112,0.23576694341275553,0.019338541107353092,-5.515563045700081,6.257013505057877,-2.4540841076019237,-0.835253267176266,-0.40040776202939005,1.6845482331663244,3,left
4.525,0.7539173635756807,0.222552175473963,0.0214939777075984,-5.420836157708506,6.139546851802618,-2.446148412058767,-0.816218694614017,-0.3989645398586195,1.6291560702919272,3,left
4.527,0.7555723518988461,0.20979443712973767,0.02363843699069551,-5.323406021267595,6.017104429500143,-2.4375322250074416,-0.7965933798805158,-0.3969721067355707,1.5723987960519223,3,left
4.53,0.7569343792648069,0.19750202368507566,0.02577042916457917,-5.223370182831805,5.889764143653806,-2.428235408945403,-0.7763835280843246,-0.3944396841508745,1.5142933957316662,3,left
4.531000000000001,0.7580078720460025,0.18568271733704203,0.02788849570863888,-5.120829826188265,5.757610937921519,-2.4182577534976963,-0.7555959807643852,-0.39137777233584237,1.454857951693894,3,left
4.535,0.7587974520269046,0.1743437848857094,0.029991211983640173,-5.015889540657246,5.620736677383057,-2.4075989824269004,-0.7342382104469469,-0.38779811082678245,1.394111628388913,3,left
4.5360000000000005,0.7593079204516189,0.1634919761636222,0.03207718978843928,-4.908657070543136,5.479240010824216,-2.3962587634340027,-0.7123183135177805,-0.3837136335790009,1.3320746546351123,3,left
4.54,0.7595442429100198,0.15313352322378612,0.03414507985981885,-4.79924304554158,5.333226211658376,-2.3842367207215416,-0.6898450013499775,-0.3791384186217178,1.2687683029990884,3,left
4.541,0.759511535076976,0.14327414032616864,0.036193574304151765,-4.687760691801542,5.182806997092483,-2.3715324502883965,-0.6668275896259972,-0.37408763224364233,1.204214866100923,3,left
4.545,0.759215049296678,0.13391902475692705,0.038221408942688606,-4.5743255233344895,5.028100325131194,-2.358145537923648,-0.6432759858342353,-0.36857746781153294,1.138437629769238,3,left
4.546,0.758660161988524,0.12507285850326647,0.04022736554869815,-4.4590550134566165,4.869230168999968,-2.344075579864968,-0.61920067513493,-0.3626250798928104,1.0714608434809778,3,left
4.547,0.7578523618442589,0.1167398107918615,0.04221027395540209,-4.342068245944103,4.706326268555233,-2.3293222060850503,-0.5946127051776876,-0.3562485153781911,1.0033096894424467,3,left
4.5489999999999995,0.756797238781281,0.10892354148494328,0.04416901401344227,-4.2234855455757865,4.53952385823749,-2.3138851061676116,-0.5695236706675049,-0.3494666438691401,0.9340102521785755,3,left
4.551,0.755500473608556,0.10162720531915612,0.04610251737236809,-4.103428088453166,4.36896337169457,-2.2977640576773775,-0.5439456982585381,-0.34229908902352824,0.863589489979989,3,left
4.552,0.7539678283553604,0.09485345696657486,0.04800976905872538,-3.9820174960866863,4.19479012610756,-2.280958956650587,-0.5178914319643602,-0.33476616152539035,0.7920752086289149,3,left
4.556,0.7522051372150367,0.0886044568917097,0.04988980882914312,-3.859375423719863,4.017153994490938,-2.26346984933399,-0.49137401905588485,-0.3268887937733762,0.7194960373077064,3,left
4.5569999999999995,0.7502182980580966,0.08288187797125858,0.051741732285189815,-3.735623156962515,3.836209077144513,-2.2452969640224443,-0.4644070963735061,-0.3186884762673464,0.6458814064877412,3,left
4.559,0.7480132644624555,0.07768691283439093,0.05356469174213179,-3.6108812271965345,3.652113380507578,-2.226440742119153,-0.43700477697863466,-0.3101871956715184,0.5712615275933157,3,left
4.56,0.7455960381979504,0.07302028187237566,0.055357896848643375,-3.485269049726903,3.4650285064054676,-2.206901868037227,-0.40918163706848276,-0.30140737453157945,0.49566737423209595,3,left
4.565,0.7429726620961209,0.0688822418599069,0.057120614962055616,-3.358904585043512,3.2751193517524366,-2.18668129783519,-0.3809527030766594,-0.2923718126222559,0.4191306647807163,3,left
4.566,0.740149213235824,0.06527259512687741,0.05885217129155593,-3.231904022835685,3.082553818182329,-2.1657802865322546,-0.3523334388808876,-0.28310362990096644,0.34168384611123126,3,left
4.569,0.7371317963776745,0.06219069921765801,0.06055194882667088,-3.1043814883988126,2.887502531069957,-2.144200414047252,-0.3233397330379474,-0.2736262110423848,0.263360078241323,3,left
4.57,0.7339265375827413,0.0596354769739714,0.06221938807061063,-2.976448771070333,2.690138567398001,-2.1219436097031177,-0.2939878859647839,-0.2639631515280062,0.18419321968846888,3,left
4.574,0.7305395779524586,0.05760542697616967,0.06385398660044203,-2.8482150743304677,2.4906371919165973,-2.099012175236897,-0.26429459698359964,-0.254138205264142,0.10421781330565355,3,left
4.575,0.7269770674291878,0.05609863427601263,0.06545529847992519,-2.7197867872016186,2.289175601035655,-2.075408806253288,-0.23427695114767397,-0.24417523370116775,0.023469072373696827,3,left
4.579,0.7232451586025629,0.05511278135281794,0.06702293355387517,-2.5912672765791354,2.085932673883318,-2.0511366120577788,-0.2039524057636268,-0.23409815642631646,-0.05801713327715428,3,left
4.58,0.719350000476047,0.05464515922541483,0.06855655665237181,-2.4627567001253103,1.8810887299578212,-2.0261991338035155,-0.17333877652486124,-0.22393090320184328,-0.1402042913460414,3,left
4.585,0.7152977321594364,0.05469267865552309,0.07005588672883037,-2.3343518393578813,1.6748252927943998,-2.000600360884102,-0.14245422316999085,-0.21369736741999315,-0.22305526157261077,3,left
4.586,0.7110944764637417,0.05525188138428022,0.07152069594927779,-2.2061459525640505,1.4673248590637653,-1.974344745502607,-0.1113172345791755,-0.20342136094587357,-0.3065322909144389,3,left
4.59,0.7067463333832484,0.05631895135215219,0.07295080874269318,-2.0782286471710565,1.2587706725140781,-1.9474372153451511,-0.07994661322045996,-0.1931265703190763,-0.3905970296267898,3,left
4.591,0.7022593734564478,0.05788972586147872,0.074346100814668,-1.9506857712046266,1.0493465021642756,-1.919883184285548,-0.04836145885743191,-0.18283651428470105,-0.47521054848263067,3,left
4.595,0.6976396310045874,0.059959706648244404,0.07570649811920346,-1.8235993234671986,0.8392364241530501,-1.8916885610455765,-0.016581151428791834,-0.1725745026243118,-0.5603333573726316,3,left
4.596,0.6928930972542456,0.06252407083491812,0.07703197577757681,-1.6970473820686265,0.6286246066447557,-1.8628597557336062,0.015374666990243716,-0.16236359625730246,-0.6459254255265602,3,left
4.598,0.6880257133578671,0.06557768174054898,0.0783225569310978,-1.5711040509431518,0.4176950971910209,-1.833403684182428,0.04748611123539936,-0.15222656858316125,-0.7319462035990592,3,left
4.599,0.6830433633330945,0.06911509952868065,0.07957831151711113,-1.4458394239877195,0.20663161194487206,-1.8033277700053114,0.07973307320091272,-0.14218586803520364,-0.8183546478642545,3,left
4.604,0.6779518669484292,0.07313059167826137,0.08079935496317416,-1.3213195664582493,-0.004382673877267083,-1.7726399442874836,0.11209524317897858,-0.13226358181648956,-0.9051092467649905,3,left
4.605,0.6727569725901891,0.07761814326800984,0.0819858468006216,-1.1976065132622151,-0.21516533489124876,-1.7413486428284268,0.14455213248326956,-0.12248140078885224,-0.9921680500637198,3,left
4.6080000000000005,0.6674643501537361,0.08257146707108248,0.08313798920419108,-1.0747582837878162,-0.4255349044044811,-1.709462800848612,0.17708309744912673,-0.11286058548624205,-1.0794887008431833,3,left
4.609,0.6620795840091843,0.0879840134639383,0.08425602546751476,-0.9528289129121683,-0.6353110838446102,-1.6769918450725294,0.20966736490334373,-0.10342193322392795,-1.1670284706060172,3,left
4.614,0.6566081660964453,0.09384898015967573,0.0853402384244441,-0.8318684978332406,-0.8443149533627361,-1.6439456830981427,0.24228405914068124,-0.09418574628471131,-1.254744297594731,3,left
4.615,0.6510554892027405,0.1001593217803985,0.08639094882495378,-0.7119232603727474,-1.0523691842151097,-1.6103346899611886,0.27491223016416766,-0.08517180120982339,-1.342592827811456,3,left
4.6160000000000005,0.6454268404667252,0.10690775928515879,0.08740851367335722,-0.5930356243998308,-1.2592982535255566,-1.5761696918010604,0.3075308824418665,-0.0763993193055957,-1.430530457060464,3,left
4.618,0.6397273951455184,0.11408678927066107,0.08839332453570167,-0.47524430785199734,-1.4649286617156188,-1.5414619466138022,0.3401190031525904,-0.06788693852362689,-1.5185133716941563,3,left
4.619,0.6339622106793109,0.12168869316191892,0.08934580582235134,-0.3585844279519455,-1.669089151321495,-1.506223122478266,0.3726555891733677,-0.05965268682675343,-1.6064975863864102,3,left
4.62,0.6281362210864786,0.1297055463097528,0.09026641305155102,-0.24308761663661216,-1.8716109230962796,-1.470465274363799,0.40511967256596937,-0.05171395707092739,-1.694438978414448,3,left
4.623,0.6222542317192366,0.138129227010816,0.09115563110042244,-0.128782142337174,-2.072327843727093,-1.434200821028412,0.4374903446000084,-0.0440874833877971,-1.7822933185733303,3,left
4.624,0.6163209144115456,0.14695142546207682,0.09201397245007592,-0.01569303513271928,-2.271076641057667,-1.397442523112713,0.4697467784060371,-0.036789319044373325,-1.8700162989757316,3,left
4.627,0.6103408030532308,0.15616365265502669,0.09284197542985351,0.09615778611102803,-2.467697085519584,-1.360203462809494,0.5018682503518558,-0.02983481575701113,-1.9575635579895343,3,left
4.628,0.6043182896196211,0.1657572492072309,0.09364020246285018,0.20675138512239497,-2.6620321580353936,-1.322497025085258,0.533834160234982,-0.023238604437833193,-2.0448907025655334,3,left
4.633,0.5982576206758806,0.17572339412184612,0.09440923831294046,0.3160716784486846,-2.853928204964202,-1.2843368803481139,0.5656240503838994,-0.017014577352661927,-2.131953328207153,3,left
4.6339999999999995,0.5921628943639895,0.18605311345885417,0.09514968833378279,0.42410530484661624,-3.043235080654251,-1.2457369684550947,0.5972176237603181,-0.01117587167051357,-2.218707036833586,3,left
4.638999999999999,0.5860380578696439,0.19673728889285627,0.0958621767219162,0.5308414941559522,-3.2298062781604138,-1.2067114839506028,0.6285947611542307,-0.0057348543857348895,-2.305107452787122,3,left
4.638999999999999,0.579886905357396,0.2077666661200372,0.09654734477694991,0.6362719359703297,-3.413499048677558,-1.167274862426392,0.6597355375630475,-0.0007031085949309054,-2.3911102372346824,3,left
4.643,0.5737130763571348,0.21913186306297516,0.09720584917074084,0.7403906484156275,-3.5941745102332834,-1.1274417678922286,0.6906202378455235,0.003908578888062799,-2.4766711012126845,3,left
4.644,0.5675200545844703,0.23082337781081236,0.09783836022683978,0.8431938473424728,-3.771697746175702,-1.087227081045152,0.7212293717405762,0.008090228594768817,-2.561745817563342,3,left
4.647,0.561311167179826,0.24283159622922643,0.09844556021739177,0.9446798162357496,-3.9459378939836625,-1.0466458883240766,0.7515436883404074,0.01183267815664935,-2.646290232009374,3,left
