time,gFx,gFy,gFz,ax,ay,az,wx,wy,wz,subject_number,foot
7.781000000000001,-0.023211071480791216,1.5071383311885291,-0.08182981970891175,-2.5801559336155098,2.250605100036982,-1.1388162993917843,-0.617806772623185,0.7431482964368177,1.9369162522738843,3,left
7.7860000000000005,-0.021565473503463547,1.5107577766597626,-0.08076097777860271,-2.649468089846715,2.3367586086879006,-1.163042164385421,-0.6252281231128759,0.740974887827089,1.9618332359873438,3,left
7.787000000000001,-0.01963529584980835,1.51398964518902,-0.07966436975748695,-2.719759887433804,2.4245841008404927,-1.1872103523387336,-0.6326297045854853,0.738511618489803,1.9868387563849832,3,left
7.79,-0.017416530181023255,1.5168213939868858,-0.07854047477237056,-2.7909929800025544,2.514060145535302,-1.211301440899668,-0.6400051997365427,0.7357543629859294,2.0119155700914177,3,left
7.79,-0.014905469572647653,1.5192407451904266,-0.0773897976868842,-2.8631269936284807,2.6051625316067684,-1.235296160321909,-0.6473481544151001,0.7326993156675292,2.03704588303835,3,left
7.795,-0.012098721896473886,1.5212357162707153,-0.07621287092608686,-2.936119541229729,2.6978642044915646,-1.2591754057230102,-0.6546519806525929,0.7293429998421681,2.0622113526778034,3,left
7.797000000000001,-0.00899322364895897,1.5227946507575558,-0.07501025620957787,-3.009926239313513,2.7921352059578757,-1.282920248706586,-0.6619099598984831,0.7256822766300383,2.0873930910806044,3,left
7.7989999999999995,-0.00558625418954672,1.523906249143989,-0.07378254616151157,-3.0845007272832197,2.8879426170172633,-1.3065119484174539,-0.6691152464837635,0.7217143535050009,2.112571668992267,3,left
7.8,-0.0018754503312894588,1.5245595998241426,-0.07253036576560533,-3.1597946895157745,2.9852505042853674,-1.3299319620982821,-0.6762608713332915,0.7174367925099052,2.1377271209185302,3,left
7.803999999999999,0.0021411787941932035,1.524744209911929,-0.07125437364153754,-3.2357578804212026,3.0840198700621873,-1.3531619552159193,-0.6833397459477876,0.7128475181356578,2.1628389513128523,3,left
7.805,0.006465236694937,1.5244500357853128,-0.06995526313325844,-3.3123381526985027,3.184208606407085,-1.3761838112251383,-0.6903446666761827,0.707944824852642,2.1878861419381463,3,left
7.809,0.011097924416682926,1.5236675132023663,-0.06863376321218904,-3.3894814890040315,3.285771453487984,-1.3989796410370288,-0.697268319298826,0.7027273842821914,2.212847160474977,3,left
7.81,0.016040025513952363,1.5223875868411738,-0.06729063920196375,-3.467132037250507,3.388659962488392,-1.4215317922587403,-0.7041032839418738,0.6971942519949309,2.237699970448314,3,left
7.815,0.021291891237581972,1.520601739123833,-0.0659266933235894,-3.5452321497565102,3.492822463359979,-1.443822858270669,-0.7108420403429664,0.6913448739218995,2.2624220425447525,3,left
7.815,0.02685342608394985,1.5183020181931774,-0.06454276504465813,-3.623722426467979,3.598204037712363,-1.4658356872065368,-0.7174769734880679,0.6851790923634626,2.286990367391856,3,left
7.821000000000001,0.032724073843829526,1.515481064918496,-0.06313973120153794,-3.702541762474634,3.704746497135565,-1.4875533909011132,-0.7240003796390868,0.6786971515801197,2.311381469870968,3,left
7.822,0.03890280427231276,1.5121321388127562,-0.06171850585418151,-3.7816274000455707,3.812388367254247,-1.5089593538695771,-0.7304044727716198,0.6718997029484012,2.3355714250344675,3,left
7.8229999999999995,0.04538810047870453,1.5082491427474447,-0.06028003982808604,-3.86091498540937,3.9210648778163377,-1.5300372423817192,-0.736681391441864,0.6647878096641443,2.3595358756979916,3,left
7.824,0.052177947114684396,1.5038266463523529,-0.05882531989467348,-3.9403386305050185,4.030707959121985,-1.550771013693342,-0.7428232060907084,0.6573629509764116,2.383250051742205,3,left
7.824,0.05926981942724992,1.4988599079923042,-0.05735536754258258,-4.019830979930691,4.14124624510192,-1.571144925496311,-0.7488219267391266,0.6496270259438399,2.4066887909809314,3,left
7.829,0.06666067324349183,1.4933448952234387,-0.0558712373035634,-4.099323283318028,4.2526050833572855,-1.5911435456477778,-0.7546695109322378,0.641582356721271,2.429826561132864,3,left
7.829,0.07434693597417882,1.487278303636379,-0.054374014619667704,-4.178745473359917,4.364706552475753,-1.6107517622380985,-0.7603578717354631,0.6332316913930415,2.4526374822561765,3,left
7.834,0.0823244987628903,1.4806575739855337,-0.05286481326918132,-4.2580262495804515,4.4774694868553295,-1.6299547940361816,-0.7658788856393463,0.6245782063589949,2.4750953491817347,3,left
7.834,0.09058870994264942,1.4734809074999295,-0.05134477239684331,-4.337093167237919,4.590809508839752,-1.6487382012510718,-0.7712244003255565,0.6156255082614202,2.4971736537987015,3,left
7.834,0.09913436997407332,1.465747279285387,-0.049815053210597475,-4.415872729495482,4.704639067197687,-1.6670878963695472,-0.7763862422996902,0.6063776354308211,2.5188456072225667,3,left
7.837999999999999,0.1079557280528114,1.4574564497484168,-0.04827683541923345,-4.494290480296024,4.818867480549984,-1.6849901547295025,-0.7813562244067145,0.5968390588256647,2.540084161910063,3,left
7.8389999999999995,0.1170464806133504,1.4486089739851067,-0.046731313501066296,-4.572271096074784,4.933400984780763,-1.7024316245865325,-0.7861261532443882,0.5870146824403986,2.5608620337843355,3,left
7.843,0.1263997719942611,1.439206209089034,-0.04517969290119519,-4.649738475698609,5.048142784243281,-1.719399336607788,-0.7906878364894762,0.576909843155181,2.581151724432561,3,left
7.843999999999999,0.13600819752964308,1.429250319349465,-0.04362318624146358,-4.7266158287173505,5.162993107002549,-1.735880712824737,-0.7950330901510123,0.5665303099999309,2.600925543436972,3,left
7.848,0.1458638092902338,1.4187442793320963,-0.04206300960380015,-4.8028257621512935,5.277849264443526,-1.7518635750949068,-0.7991537457642982,0.5558822828044887,2.620155630898921,3,left
7.848,0.1559581246298244,1.407691874853102,-0.04050037893317179,-4.878290366036963,5.392605715574284,-1.7673361531213267,-0.8030416575387238,0.5449723902058689,2.6388139802142048,3,left
7.854,0.16628213761004582,1.3960977018716274,-0.03893650660803519,-4.952931297952018,5.507154136353857,-1.782287092076988,-0.8066887094718763,0.5338076869828027,2.656872461156395,3,left
7.855,0.17682633329197833,1.3839671633370476,-0.037372598237595846,-5.026669866737973,5.621383494374521,-1.7967054598802124,-0.8100868224417559,0.5223956506869953,2.6743028433233653,3,left
7.858,0.18758070481257777,1.3713064640346557,-0.035809849754234485,-5.099427115637381,5.7351801292278966,-1.8105807541653531,-0.8132279612882506,0.510744177539772,2.691076820000541,3,left
7.859,0.19853477312024811,1.3581226034752278,-0.034249444866664994,-5.171123905059728,5.848427838883739,-1.8239029089917551,-0.8161041418943293,0.49886157756205374,2.7071660324927005,3,left
7.8629999999999995,0.2096776092281079,1.344423366869481,-0.03269255291947207,-5.2416809951877,5.961007972409307,-1.8366623013323709,-0.8187074382766992,0.48675656890489993,2.7225420949743353,3,left
7.864,0.22099785884638934,1.3302173142194695,-0.03114032716239684,-5.311019128632667,6.072799529355954,-1.8488497573818696,-0.8210299896949308,0.4744382713471603,2.7371766199066925,3,left
7.867000000000001,0.2324837692633432,1.3155137675491657,-0.02959390336404681,-5.3790591133451775,6.183679266138038,-1.8604565587224946,-0.8230640077872989,0.4619161989261219,2.7510412440676624,3,left
7.867999999999999,0.24412321834213965,1.3003227962900112,-0.02805439861648752,-5.445721905982982,6.2935218097273,-1.8714744483842973,-0.8248017837408007,0.44920025166639505,2.7641076552386203,3,left
7.872000000000001,0.25590374548170525,1.2846552008352508,-0.026522910098886986,-5.510928695935603,6.4021997789835705,-1.8818956368347446,-0.8262356955020045,0.43630070637167245,2.776347619590201,3,left
7.872000000000001,0.2678125843596071,1.2685224942761164,-0.025000513547191645,-5.5746009902007545,6.509583913940099,-1.8917128079310221,-0.8273582150345581,0.42322820644340897,2.7877330098067756,3,left
7.877999999999999,0.2798366972476584,1.2519368823319659,-0.023488261242501095,-5.636660699303931,6.615543213358745,-1.900919124866671,-0.8281619156283307,0.4099937506899161,2.798235833987108,3,left
7.879,0.2919628106667336,1.2349112414925933,-0.02198717946303182,-5.697030224448329,6.719945080866971,-1.9095082361424793,-0.8286394792642929,0.3966086810888362,2.8078282653562856,3,left
7.882000000000001,0.30417745211853237,1.2174590954142004,-0.020498265485991745,-5.755632546077836,6.822655479984847,-1.9174742815898123,-0.8287837040383411,0.38308466946546665,2.816482672821584,3,left
7.882999999999999,0.31646698760021497,1.199594589650355,-0.019022484323017057,-5.812391314031215,6.9235390983461595,-1.9248118984728189,-0.8285875116463625,0.3694337030489393,2.824171652402362,3,left
7.8870000000000005,0.3288176595877315,1.1813324648426848,-0.017560765402201445,-5.867230939460734,7.022459521413261,-1.9315162276941722,-0.8280439549318945,0.35566806886782804,2.830868059561496,3,left
7.888,0.3412156251773829,1.1626880285286563,-0.016113999379040116,-5.920076688683422,7.1192794159804365,-1.9375829201272226,-0.8271462254967795,0.3418003369463608,2.8365450424631504,3,left
7.892,0.35364699409981065,1.1436771257401446,-0.014683035196153134,-5.970854779127851,7.213860723755302,-1.9430081430956254,-0.8258876613742351,0.32784334226204587,2.841176076178917,3,left
7.893,0.36609786635717856,1.1243161085676987,-0.013268677449049441,-6.0194924775338166,7.306064865302084,-1.9477885870196976,-0.824261754763347,0.3138101654502722,2.844734997836189,3,left
7.894,0.3785543692818667,1.1046218048486667,-0.011871684073845935,-6.065918200556571,7.395752954624672,-1.9519214722469223,-0.8222621598258941,0.29971411236654283,2.8471960425731537,3,left
7.898,0.3910026938680877,1.0846114861075347,-0.010492764360651772,-6.1100616179213265,7.482786024660799,-1.9554045560821798,-0.8198827005506281,0.2855686928424446,2.848533879933976,3,left
7.899,0.40342913025899213,1.064302834864614,-0.009132577310218696,-6.151853758267594,7.567025263951976,-1.958236140031431,-0.8171173786919919,0.27138759909663107,2.8487236502081186,3,left
7.903,0.41582010226683386,1.043713911451251,-0.007791730376967483,-6.191227117715893,7.6483322644553065,-1.9604150772422617,-0.8139603817862762,0.2571846841365247,2.84774100034113,3,left
7.903,0.42816220079531286,1.0228631204880851,-0.006470778655835379,-6.228115770679342,7.7265692789998015,-1.961940779980546,-0.8104060912418627,0.24297394026059996,2.845562119268836,3,left
7.904,0.44044221604908357,1.0017691771652666,-0.005170224559706207,-6.2624554815297335,7.801599484261071,-1.962813226724488,-0.8064490904961833,0.22876947764561678,2.842163772650103,3,left
7.909,0.45264716843118513,0.980451073442871,-0.003890518003973342,-6.294183815217237,7.87328724366393,-1.9630329683131387,-0.8020841732303139,0.21458550297803317,2.8375233369953077,3,left
7.91,0.4647643380190875,0.9589280443019913,-0.0026320570761506515,-6.323240245439255,7.941498366069558,-1.962601132726902,-0.7973063516309783,0.20043629808880412,2.831618833184199,3,left
7.9110000000000005,0.47678129249252776,0.9372195342008889,-0.0013951891279366214,-6.349566259852785,8.006100358715337,-1.9615194283317896,-0.7921108646885879,0.18633619855079103,2.8244289593633445,3,left
7.912000000000001,0.4886859133852677,0.9153451638942586,-0.00018021219319963643,-6.373105462320644,8.066962674321838,-1.9597901455596007,-0.7864931865187629,0.17229957219806652,2.815933123209776,3,left
7.917000000000001,0.500466420545519,0.8933246977591829,0.0010126233824245606,-6.393803672274865,8.123956952562612,-1.9574161570227873,-0.7804490346936007,0.1583407975264979,2.8061114735438375,3,left
7.917999999999999,0.5121113947053924,0.8711780117514825,0.0021831132142560794,-6.41160902127281,8.176957256082108,-1.9544009160609055,-0.7739743785677591,0.14447424193513483,2.7949449312705292,3,left
7.922000000000001,0.5236097980742211,0.8489250620940125,0.0033310971556527566,-6.426472046813472,8.22584030123626,-1.9507484537136897,-0.7670654475832029,0.1307142397681084,2.782415219624896,3,left
7.922999999999999,0.534950992883145,0.8265858547745633,0.004456457667546285,-6.438345783473338,8.270485683719215,-1.946463374113937,-0.7597187395352444,0.11707507011697281,2.768504893693211,3,left
7.926,0.5461247578201717,0.8041804159086372,0.005559118356434522,-6.4471858514128355,8.31077609922819,-1.9415508482915491,-0.7519310287812685,0.10357093434368575,2.753197369177836,3,left
7.926,0.5571213023084095,0.7817287630046319,0.006639042740258088,-6.45295054229598,8.346597559306629,-1.93601660637825,-0.7436993743722902,0.09021593328472906,2.7364769503697186,3,left
7.931,0.5679312785963717,0.7592508771566864,0.00769623327110493,-6.455600902657222,8.377839602493644,-1.9298669282006788,-0.7350211280862279,0.07702404409721901,2.718328857288543,3,left
7.932,0.5785457916475613,0.7367666761825865,0.008730730601154289,-6.4551008147408115,8.40439550089527,-1.9231086322477589,-0.7258939423405176,0.06400909670824245,2.698739251946511,3,left
7.937,0.58895640683552,0.7142959887191656,0.00974261304196048,-6.451417074829143,8.426162462280175,-1.9157490629964582,-0.7163157779604136,0.05118474982908369,2.6776952636877,3,left
7.938,0.599155155469593,0.6918585292849739,0.01073199615602922,-6.44451946906763,8.44304182778936,-1.9077960765782884,-0.7062849117780405,0.03856446649647501,2.655185013550828,3,left
7.942,0.6091345381948408,0.6694738743197922,0.011699032434067913,-6.43438084678459,8.454939265335897,-1.8992580247671451,-0.6957999440359732,0.026161489103511952,2.6311976375991244,3,left
7.943,0.6188875263241871,0.6471614392115701,0.012643911036129456,-6.4209771912955,8.461764958757046,-1.8901437372673622,-0.6848598055678233,0.013988813883421243,2.6057233091568244,3,left
7.945,0.6284075611706285,0.6249404563205815,0.013566857595506245,-6.404287688171749,8.463433792767033,-1.880462502279156,-0.673463764727015,0.0020591648099552657,2.578753259887601,3,left
7.946000000000001,0.6376885514546009,0.6028299540064274,0.014468134094656832,-6.384294790944708,8.459865533744459,-1.8702240453169425,-0.6616114340336269,-0.009615033121189416,2.5502797996460007,3,left
7.95,0.6467248688713498,0.580848736657107,0.01534803882374424,-6.360984284206554,8.450985006373779,-1.8594385062543748,-0.6493027765078707,-0.021021681264870924,2.5202963350286867,3,left
7.9510000000000005,0.6555113419200715,0.5590153657118441,0.016206906427916574,-6.334345344059899,8.436722266145463,-1.8481164145683,-0.6365381116574667,-0.03214903538716229,2.4887973865479927,3,left
7.956,0.6640432481215387,0.5373481416607419,0.017045108041749732,-6.304370595858729,8.41701276770444,-1.8362686627522522,-0.6233181210848685,-0.04298573444768381,2.455778604345978,3,left
7.957000000000001,0.6723163047791277,0.5158650869949142,0.01786305149917413,-6.27105616917367,8.39179752902115,-1.8239064778685188,-0.6096438536789786,-0.05352083013635056,2.421236782362836,3,left
7.961,0.680326658463039,0.49458393007177764,0.018661181594156813,-6.234401749905055,8.3610232913441,-1.811041391206276,-0.5955167303546847,-0.06374381719647647,2.3851698708691575,3,left
7.962000000000001,0.688070873414873,0.47352208985344035,0.019439980351586915,-6.194410629457656,8.324642674877161,-1.7976852060117836,-0.5809385483022453,-0.07364466456534235,2.3475769872671983,3,left
7.962999999999999,0.6955459190755092,0.4526966614725159,0.020199967253076486,-6.1510897508813915,8.282614330109093,-1.7838499632551534,-0.5659114847169815,-0.0832138473060341,2.3084584250970646,3,left
7.966,0.7027491569258678,0.4321244025782079,0.020941699356177873,-6.104449751872695,8.234903084706731,-1.7695479053967513,-0.5504381000271387,-0.09244237902128274,2.267815661355237,3,left
7.9670000000000005,0.7096783267999306,0.4118217204143518,0.02166577125153208,-6.054505004521707,8.181480085867292,-1.7547914381148992,-0.5345213407241517,-0.10132184393119231,2.2256513625449537,3,left
7.971,0.7163315328037291,0.39180465958025795,0.022372814813392275,-6.001273651603999,8.122322937895056,-1.7395930900275984,-0.5181645419469535,-0.1098444275136108,2.181969390049456,3,left
7.972,0.7227072289629988,0.3720888904254223,0.023063498706935442,-5.944777638821833,8.057415834182024,-1.723965470801899,-0.5013714299219904,-0.11800294488710085,2.13677480523887,3,left
7.973,0.7288042047098731,0.35268969803048617,0.023738527624190157,-5.885042741698917,7.9867496817307035,-1.7079212286952479,-0.484146124271669,-0.12579086662338745,2.090073874400623,3,left
7.976,0.7346215703004936,0.33362197173051633,0.024398641233129768,-5.822098585438942,7.910322215771366,-1.6914730089341246,-0.46649314015399335,-0.13320234195731429,2.041874073403078,3,left
7.978,0.7401587422426867,0.3149001951443887,0.025044612837728762,-5.755978656433054,7.828138102578973,-1.674633413971792,-0.4484173901851598,-0.1402322194177321,1.9921840919625824,3,left
7.982,0.745415428804363,0.29653843668459773,0.02567724775809595,-5.686720304783669,7.740209029603469,-1.6574149660137807,-0.42992418609563415,-0.146876064901679,1.9410138373797736,3,left
7.982,0.7503916156624966,0.2785503405324221,0.026297381450631322,-5.61436473758703,7.6465537825800025,-1.6398300718363317,-0.4110192400690119,-0.15313017721313313,1.888374437606701,3,left
7.987,0.7550875517458725,0.2609491180720229,0.026905877399060585,-5.538957002784666,7.547198309382996,-1.6218909898494474,-0.3917086657117439,-0.1589916010865224,1.834278243502038,3,left
7.9879999999999995,0.7595037353290088,0.24374753978312813,0.02750362481728076,-5.460545963384865,7.442175770371534,-1.6036097993551122,-0.37199897860061487,-0.1644581377140702,1.7787388301274139,3,left
7.99,0.7636409004477734,0.2269579275963659,0.028091536212688478,-5.3791842618464,7.331526574957054,-1.5849983719501946,-0.35189709635367883,-0.16952835279493622,1.7217709969336656,3,left
7.9910000000000005,0.7675000037232003,0.21059214771942183,0.028670544861879175,-5.294928274407997,7.215298404107994,-1.566068345022524,-0.33141033816919147,-0.174201582122987,1.6633907666816432,3,left
7.996,0.7710822116914482,0.1946616039471895,0.029241602246808503,-5.207838055138388,7.093546218489802,-1.5468310972876431,-0.3105464237759328,-0.17847793472889598,1.6036153829380455,3,left
7.997000000000001,0.7743888887382001,0.17917723147531142,0.029805675487862435,-5.117977269473352,6.966332251922516,-1.5272977263128071,-0.28931347173718963,-0.1823582935911377,1.5424633059826673,3,left
8.0,0.7774215857232503,0.16414949124259803,0.030363744793702973,-5.0254131169978296,6.833725989822154,-1.5074790279738615,-0.26771999704956145,-0.18584431392930112,1.479954206959387,3,left
8.001,0.7801820293580807,0.1495883648320749,0.030916800930716994,-4.930216243223051,6.695804132276306,-1.4873854777897662,-0.24577490797666993,-0.1889384190920084,1.416108960099213,3,left
8.004,0.7826721123704486,0.1355033499623793,0.03146584269941688,-4.832460640100691,6.552650541388579,-1.4670272140786738,-0.22348750205679424,-0.19164379405059073,1.3509496328397574,3,left
8.005,0.7848938844605375,0.12190345660091285,0.03201187439136219,-4.732223535008267,6.404356172511166,-1.4464140228786502,-0.20086746122241897,-0.19396437650854056,1.2844994736616153,3,left
8.009,0.7868495440268285,0.10879720372773174,0.03255590318911515,-4.629585267932496,6.251018988969471,-1.425555324575335,-0.17792484596867258,-0.195904845635635,1.216782897458279,3,left
8.011000000000001,0.788541430617784,0.09619261677523348,0.03309893646555485,-4.524629156569927,6.092743859867769,-1.4044601621780788,-0.15467008850665134,-0.19747060843451134,1.1478254682524573,3,left
8.015,0.7899720180479741,0.08409722576380431,0.03364197894049569,-4.41744134905707,5.929642440550092,-1.3831371911853643,-0.13111398483666853,-0.1986677837463709,1.0776538790679575,3,left
8.015,0.7911439081052493,0.07251806414796069,0.03418602966459765,-4.308110664035363,5.761833035276062,-1.361594670979607,-0.10726768567554425,-0.1995031839013977,1.0062959287626532,3,left
8.019,0.7920598247695798,0.06146166838095541,0.03473207882126325,-4.196728417749636,5.58944044165724,-1.3398404576907526,-0.08314268617115364,-0.19998429401840281,0.9337804956244985,3,left
8.02,0.79272260886333,0.05093407819767901,0.035281104359664375,-4.083388237872345,5.412595776385701,-1.3178819984674348,-0.0587508143365876,-0.20011924895714783,0.860137507529066,3,left
8.024,0.7931352130551755,0.04094083760613641,0.03583406849012923,-3.968185863739705,5.231436281773018,-1.2957263270938253,-0.034104218135446396,-0.19991680792576444,0.7853979084536759,3,left
8.025,0.7933006971437352,0.031486996568358135,0.036391914085168835,-3.8512189326799358,5.046105112604717,-1.273380060889696,-0.009215351148987062,-0.19938632674466886,0.7095936211398649,3,left
8.029,0.7932222235506794,0.022577113343729128,0.03695556103551733,-3.7325867521082436,4.856751102802459,-1.2508493988306302,0.01590304324492056,-0.19853772776737796,0.6327575056927056,3,left
8.03,0.792903052956942,0.014215257461679592,0.037525902610926476,-3.6123900570577967,4.663528511373829,-1.2281401208247482,0.04123794920479594,-0.19738146750763802,0.5549233140427757,3,left
8.031,0.7923465400228525,0.0064050132870104755,0.03810380187082718,-3.490730752810895,4.466596747117668,-1.2052575880817642,0.06677609705992207,-0.19592850227119565,0.47612564089573073,3,left
8.033999999999999,0.7915561291441725,-0.0008505158592780574,0.03869008816258149,-3.3677116422897506,4.266120071541295,-1.182206744509666,0.09250398261307848,-0.1941902525393774,0.3963998730554326,3,left
8.035,0.7905353502044102,-0.007548703059025141,0.03928555373993688,-3.2434361378618126,4.062267279434886,-1.1589921190737897,0.11840788624419293,-0.19217856710062195,0.3157821397059274,3,left
8.039,0.7892878142843979,-0.013687392669358664,0.039890950533912645,-3.118007957800181,3.8552113571788293,-1.135617829059861,0.14447389118310314,-0.18990568767539684,0.23430926553259426,3,left
8.04,0.7878172092892108,-0.019264894739999858,0.04050698710718219,-2.99153081058489,3.6451291220554913,-1.1120875842185887,0.17068790074325088,-0.18738421432936447,0.15201872729615903,3,left
8.042,0.7861272954569498,-0.024279979003583925,0.04113432581649316,-2.8641080755356616,3.4322008515977673,-1.0884046918346053,0.19703565454368402,-0.18462707171901666,0.06894861376849751,3,left
8.044,0.7842219007193492,-0.028731868463769294,0.04177358020033355,-2.735842491212563,3.2166099152033922,-1.0645720627985882,0.2235027437942163,-0.18164747616327542,-0.014862411203739934,3,left
8.045,0.7821049158844265,-0.03262023260349354,0.042425312606111584,-2.606835860068836,2.9985424170294674,-1.040592218724446,0.2500746257190206,-0.17845890353384475,-0.09937514274399908,3,left
8.048,0.7797802896083915,-0.03594518023385439,0.04309003207054312,-2.4771887725290247,2.778186853402953,-1.0164673000873379,0.27673663719431446,-0.17507505795642062,-0.1845498663377433,3,left
8.049,0.7772520231218566,-0.03870725200262095,0.04376819246528254,-2.3470003507139783,2.5557337847693455,-0.9921990753213612,0.3034740076761393,-0.17150984131422942,-0.2703463868121077,3,left
8.052999999999999,0.7745241646748586,-0.040907412580947475,0.04446019091826161,-2.216368011442344,2.3313755215535132,-0.967788950808028,0.330271871494536,-0.16777732354476363,-0.3567240551459833,3,left
8.054,0.7716008036673149,-0.04254704254767705,0.04516636652266115,-2.085387248136318,2.105305823300068,-0.9432379816862252,0.35711527959067774,-0.1638917137200243,-0.44364179335512866,3,left
8.059,0.7684860644386091,-0.04362792999246294,0.045886999349935835,-1.9541514312578725,1.8777196104546416,-0.9185468834139501,0.3839892107737373,-0.1598673319000587,-0.5310581176986918,3,left
8.06,0.7651840997026347,-0.04415226186125389,0.046622309786920696,-1.8227516269003858,1.6488126881419638,-0.8937160440116961,0.4108785825744402,-0.15571858174910075,-0.6189311604551949,3,left
8.064,0.7616990836314756,-0.044122615069653405,0.0473724582150416,-1.6912764331596106,1.4187814812917194,-0.868745536916964,0.43776826177238426,-0.15145992390318352,-0.7072186905175821,3,left
8.064,0.7580352046100745,-0.043541947410971844,0.04813754504098552,-1.5598118339071674,1.187822780458818,-0.8436351343789669,0.4646430746742959,-0.14710585007769303,-0.7958781330583665,3,left
8.067,0.7541966577028355,-0.04241358828684043,0.04891761107574084,-1.4284410695892793,0.9561334976809047,-0.818384321322199,0.4914878172204358,-0.1426708579029768,-0.8848665885172187,3,left
8.068,0.7501876368877971,-0.04074122928944425,0.04971263824647319,-1.2972445246732356,0.7239104317127222,-0.792992309607131,0.5182872649963689,-0.13816942647580413,-0.9741408511645332,3,left
8.072000000000001,0.7460123271235948,-0.038528914665901304,0.05052255061582065,-1.1662996313641074,0.4913500419742605,-0.7674580526158982,0.5450261832272691,-0.1336159926142012,-1.0636574274955757,3,left
8.073,0.7416748963203131,-0.035781031697122205,0.05134721567547417,-1.0356807892144915,0.25864823054754243,-0.7417802600904398,0.5716893368318444,-0.12902492780295194,-1.153372554710756,3,left
8.078,0.7371794872899169,-0.03250230102547344,0.052186445873271856,-0.9054593002505538,0.026000131555348274,-0.7159574131501424,0.5982615006128373,-0.12441051581686388,-1.2432422195383974,3,left
8.079,0.7325302097575794,-0.028697766967289127,0.05304000032663269,-0.7757033192383689,-0.20640009274578017,-0.6899877794156309,0.6247274696608818,-0.11978693100874956,-1.3332221776570599,3,left
8.083,0.7277311325216028,-0.02437278784741794,0.05390758667419209,-0.6464778187154717,-0.4383594498263267,-0.6638694281649415,0.6510720700482783,-0.11516821724896498,-1.423267973975059,3,left
8.084,0.7227862758535394,-0.01953302639332594,0.05478886302341462,-0.5178445684136791,-0.6696863093662969,-0.6376002454478871,0.6772801698889914,-0.11056826750328008,-1.513334964025248,3,left
8.087,0.7176996042294975,-0.01418444022543506,0.05568343996168654,-0.3898621287005645,-0.9001905910266316,-0.611177949084009,0.7033366908408656,-0.10600080403582868,-1.6033783367334595,3,left
8.088,0.7124750194787505,-0.008333272478617737,0.056590882608328785,-0.26258585766849,-1.1296839481754808,-0.5846001034690794,0.7292266201257072,-0.10147935922389979,-1.6933531388191894,3,left
8.092,0.7071163544274225,-0.0019860425880698974,0.057510712693700096,-0.13606793150179225,-1.3579799482334725,-0.5578641341146839,0.7549350231424905,-0.09701725697138545,-1.7832143010871622,3,left
8.093,0.70162736710459,0.004850462728196089,0.05844241065834441,-0.01035737775458275,-1.5848942502997434,-0.5309673418449762,0.7804470567485084,-0.09262759470779283,-1.8729166668683548,3,left
8.097000000000001,0.6960117355673758,0.012169198258003869,0.05938541776878274,0.11449987882635655,-1.8102447807176092,-0.5039069165742477,0.8057479832828088,-0.08832322595986059,-1.9624150228688502,3,left
8.097999999999999,0.6902730533903035,0.019962868822259165,0.06033913824700684,0.23846095829692895,-2.0338519072353054,-0.47667995058850166,0.8308231853698538,-0.08411674348849255,-2.0516641325695004,3,left
8.099,0.6844148258505244,0.0282239375107289,0.06130294140943741,0.3614859556903635,-2.255538612413272,-0.44928345125375646,0.8556581813613373,-0.08002046301144411,-2.140618771743539,3,left
8.103,0.6784404668249251,0.036944633602915875,0.062276163808709324,0.4835378597297301,-2.47513066692497,-0.4217143530733368,0.8802386409505131,-0.07604640758196973,-2.2292337646230185,3,left
8.103,0.6723532964013837,0.046116960155429536,0.06325811136680226,0.6045824604343496,-2.6924568033932093,-0.3939695290159293,0.9045504003132985,-0.0722062927214353,-2.317464018668852,3,left
8.107000000000001,0.6661565391967179,0.05573270123632433,0.06424806148088207,0.7245882461093812,-2.907348891125455,-0.36604580107362183,0.9285794763091715,-0.06851151237670011,-2.405264556473781,3,left
8.107999999999999,0.6598533233659722,0.06578342878734869,0.06524526507852794,0.8435262908847936,-3.119642110740514,-0.33793995019829676,0.9523120795971183,-0.06497312572389576,-2.4925905443622813,3,left
8.107999999999999,0.6534466802791573,0.07626050910283971,0.06624894860033789,0.9613701351905295,-3.3291751252154396,-0.30964872610560207,0.9757346267005588,-0.061601844813097884,-2.579397317825698,3,left
8.111,0.646939544831641,0.08715510892258391,0.06725831589198575,1.0780956622314066,-3.5357902425094605,-0.28116885762485866,0.9988337510902493,-0.058408023043300526,-2.6656404040447392,3,left
8.112,0.6403347563448033,0.09845820113795874,0.06827254999185477,1.1936809728425255,-3.739333566279315,-0.2524970640830912,1.0215963133533097,-0.05540164445755125,-2.7512755417501036,3,left
8.117,0.6336350600085245,0.11016057010896728,0.06929081480725426,1.308106259879321,-3.939655133649534,-0.22363006786947745,1.0440094105156335,-0.05259231384858457,-2.8362586986705063,3,left
8.118,0.6268431088188573,0.1222528165903359,0.07031225668289803,1.421353682613478,-4.1366090403578895,-0.1945646081363222,1.0660603845840086,-0.0499892476658003,-2.9205460868157735,3,left
8.121,0.6199614659710654,0.13472536226845905,0.07133600587593562,1.5334072414667126,-4.3300535538604015,-0.16529745555418285,1.0877368303733153,-0.04760126571497073,-3.00409417584091,3,left
8.123,0.612992607677438,0.14756845391630144,0.0723611779596077,1.644252653411094,-4.519851214971068,-0.13582542803821224,1.1090266026831568,-0.045436783642626384,-3.0868597047351813,3,left
8.127,0.605938926388501,0.16077216718114395,0.07338687518164692,1.753877228361203,-4.705868928601802,-0.10614540736221471,1.1299178228872462,-0.04350380619766101,-3.168799692078255,3,left
8.127,0.598802734402897,0.17432641003154728,0.07441218780252343,1.8622697468799962,-4.887978044158004,-0.07625435657633131,1.1503988849977902,-0.04180992126331435,-3.2498714451033157,3,left
8.132,0.5915862678543553,0.18822092590403813,0.07543619543276746,1.9694203395167753,-5.066054426134703,-0.04614933814368255,1.1704584612660078,-0.0403622946533316,-3.330032567804823,3,left
8.133,0.5842916910656051,0.20244529660376565,0.07645796838082881,2.075320368092163,-5.239978515447397,-0.01582753271069933,1.1900855073787715,-0.03916766566676317,-3.409240968326218,3,left
8.137,0.5769211012610894,0.21698894502356614,0.07747656901544428,2.1799623092414446,-5.409635382020442,0.014713741574733352,1.2092692673101837,-0.038232343396554035,-3.4874548658603803,3,left
8.138,0.5694765336329661,0.23184113775048257,0.07849105313858076,2.283339640524073,-5.574914769144329,0.0454770092838097,1.2279992778856912,-0.03756220378777849,-3.5646327972930267,3,left
8.142000000000001,0.5619599667564741,0.24699098762847596,0.07950047135593467,2.3854467294035437,-5.735711130101219,0.07646461755312561,1.2462653731150959,-0.03716268744210218,-3.640733623816507,3,left
8.142999999999999,0.5543733283501808,0.26242745634377307,0.08050387042362366,2.4862787253982317,-5.89192365754588,0.10767871564453282,1.2640576883495513,-0.03703879816579706,-3.7157165377385923,3,left
8.146,0.5467185013735303,0.27813935709672005,0.08150029454544869,2.5858314557001574,-6.043456306116616,0.13912123430690432,1.2813666643163277,-0.03719510225939583,-3.789541069707888,3,left
8.146,0.5389973304480122,0.2941153574200413,0.08248878659682243,2.6841013245549945,-6.1902178087378745,0.1707938650288348,1.2981830510837995,-0.03763572854784903,-3.8621670965743897,3,left
8.152999999999999,0.5312116285795525,0.3103439821966402,0.0834683892581757,2.7810852166929747,-6.332121687063102,0.2026980392719502,1.314497912007746,-0.03836436915083863,-3.9335548501005073,3,left
8.154,0.5233631841501586,0.32681361692141586,0.08443814604921143,2.8767804050966714,-6.469086256492959,0.2348349077751557,1.3303026277086694,-0.039384280993706125,-4.003664926734548,3,left
8.156,0.5154537681385101,0.3435125112433999,0.08539710226304646,2.971184463387958,-6.601034626190302,0.2672053200208127,1.3455889001284203,-0.04069828806026878,-4.072458298655206,3,left
8.157,0.5074851415241544,0.3604287828180635,0.08634430580586733,3.0642951831127414,-6.727894694499424,0.299809803954499,1.360348756712981,-0.04230878438962434,-4.139896326292047,3,left
8.16,0.4994590628300027,0.37755042149410756,0.08727880795380762,3.1561104961983775,-6.849599140162847,0.33264854605067495,1.3745745547667896,-0.044217737819880164,-4.205940772523332,3,left
8.161,0.49137729576264744,0.3948652938532595,0.088199664042848,3.2466284028549546,-6.966085409714558,0.3657213718172478,1.388258986022504,-0.046426694482586746,-4.270553818748695,3,left
8.166,0.4832416169176563,0.41236114811586344,0.0891059341076276,3.3358469051879283,-7.077295701413978,0.39902772683269977,1.4013950814685878,-0.04893678405250645,-4.333698083030336,3,left
8.167,0.47505382352619413,0.4300256194211283,0.08999668348170183,3.423763946785865,-7.183176946070171,0.432566658410115,1.4139762164755687,-0.05174872575820454,-4.395336640492385,3,left
8.167,0.46681574122897407,0.44784623549030167,0.09087098336720925,3.5103773585433182,-7.283680785090775,0.466336797983114,1.4259961162444406,-0.05486283515270544,-4.455433046098806,3,left
8.171,0.45852923187056754,0.4658104226844754,0.09172791137760816,3.595684810975138,-7.378763546075035,0.5003363443093751,1.4374488615199335,-0.05827903160879309,-4.513951359600285,3,left
8.171,0.45019620131002774,0.4839055124747071,0.09256655205361565,3.6796837732747667,-7.468386216255014,0.5345630475880863,1.448328894367316,-0.061996846440451496,-4.570856171849862,3,left
8.176,0.4418186072461266,0.5021187483450783,0.09338599734852121,3.7623714793653438,-7.552514414073574,0.5690141945883376,1.458631023730616,-0.06601543151728048,-4.626112631356906,3,left
8.177,0.43339846705904495,0.5204372931464373,0.09418534707253293,3.8437449010524527,-7.631118359136487,0.603686594866905,1.468350430567674,-0.07033356827511668,-4.679686470270245,3,left
8.177999999999999,0.4249378656705526,0.53884823691641,0.09496370927857077,3.9238007277025475,-7.704172840581611,0.6385765680584475,1.4774826724982884,-0.07494967709090505,-4.731544029562965,3,left
8.18,0.4164389634194913,0.55733860518495,0.09572020056779589,4.002535350641402,-7.771657183570679,0.6736799320488424,1.4860236879792035,-0.07986182702625716,-4.7816522835123765,3,left
8.181000000000001,0.4079040039435861,0.5758953677883367,0.0964539462891832,4.079944849782088,-7.833555213414661,0.7089919917469358,1.493969800033854,-0.08506774595209755,-4.829978863628995,3,left
8.186,0.39933532205477357,0.5945054482123171,0.09716408059823274,4.156024980669261,-7.889855217006477,0.7445075282666943,1.5013177195630896,-0.09056483106765506,-4.876492082183425,3,left
8.187000000000001,0.3907353515898594,0.6131557334805671,0.09784974632981054,4.230771161348672,-7.94054990154042,0.7802207885052892,1.5080645482614092,-0.09635015982790525,-4.921160955475043,3,left
8.191,0.38210663321006094,0.6318330846017539,0.09851009463817334,4.30417845914804,-7.985636350660372,0.8161254751993343,1.5142077811615244,-0.10242050129441396,-4.963955226981214,3,left
8.192,0.37345182211492234,0.6505243475857586,0.09914428436539102,4.376241577587845,-8.02511597819852,0.852214737561287,1.5197453088283548,-0.10877232792536698,-5.004845390520626,3,left
8.193999999999999,0.36477369562936657,0.6692163650359999,0.09975148111391643,4.446954843636763,-8.0589944796502,0.8884811625985958,1.5246754192218317,-0.11540182782139867,-5.043802713558967,3,left
8.195,0.3560751606157429,0.6878959883215217,0.10033085601583898,4.516312195522584,-8.087281781514378,0.9249167672187244,1.5289967992461524,-0.12230491744465055,-5.0807992607798464,3,left
8.2,0.34735926065499156,0.7065500903295908,0.10088158420639202,4.5843071713056505,-8.109991988613224,0.9615129912237089,1.5327085360013897,-0.12947725482929873,-5.115807918038349,3,left
8.201,0.3386291829324573,0.7251655787956504,0.10140284302027117,4.650932898417928,-8.12714332948811,0.9982606912984181,1.5358101177516177,-0.13691425330258608,-5.148802416809079,3,left
8.204,0.3298882647547537,0.743729410202039,0.10189380993689352,4.716182084366936,-8.138758099953309,1.035150136097166,1.5383014346219661,-0.1446110957361805,-5.179757359234917,3,left
8.205,0.3211399996167752,0.7622286042305748,0.10235366030643185,4.78004700879987,-8.1448626048727,1.0721710025337885,1.5401827790352645,-0.15256274934845385,-5.208648243877003,3,left
8.21,0.3123880427348637,0.7806502587467046,0.1027815648931575,4.8425195171192765,-8.145487098208777,1.1093123733807284,1.5414548458971822,-0.16076398107903553,-5.235451492260676,3,left
8.211,0.3036362159624363,0.7989815652833006,0.1031766872759326,4.903591015837735,-8.140665721377413,1.1465627362830833,1.5421187325370296,-0.16920937355774066,-5.260144476306244,3,left
8.214,0.2948885120063477,0.8172098249807698,0.10353818114651833,4.963252469854967,-8.130436439925944,1.1839099842939407,1.5421759384096208,-0.177893341690705,-5.282705546727528,3,left
8.215,0.2861490978664011,0.8353224649284964,0.10386518754551559,5.021494401836843,-8.114840978536469,1.2213414180376752,1.5416283645618536,-0.18681014988727462,-5.303114062475132,3,left
8.22,0.2774223174281704,0.853307054841647,0.10415683207582158,5.078306893871694,-8.093924754340579,1.2588437496081886,1.5404783128659223,-0.19595392995189972,-5.321350421295319,3,left
8.221,0.26871269315074825,0.8711513239979453,0.10441222213531542,5.133679591575315,-8.067736808516237,1.2964031083093592,1.5387284850193297,-0.20531869966596694,-5.337396091469283,3,left
8.225,0.2600249268044969,0.8888431783517959,0.10463044421239703,5.187601710811929,-8.036329736122095,1.3340050483451973,1.5363819813101267,-0.2148983820851733,-5.351233644791372,3,left
8.226,0.25136389922761043,0.9063707177368192,0.10481056128810869,5.240062047194331,-7.999759614109258,1.3716345585674155,1.533442299144086,-0.22468682557869613,-5.362846790838638,3,left
8.231,0.24273466908460692,0.9237222530609449,0.10495161038591064,5.291048988522221,-7.958085927435395,1.4092760743882766,1.529913331328787,-0.23467782463704892,-5.3722204125777555,3,left
8.232999999999999,0.234142470626042,0.9408863233909651,0.10505260030514187,5.3405505303136405,-7.911371493191086,1.4469134919667108,1.5257993641078798,-0.24486514147612956,-5.379340603349025,3,left
8.234,0.22559271046582902,0.9578517128164995,0.10511250956970251,5.388554294580159,-7.859682382633466,1.4845301847757666,1.5211050749370942,-0.2552425284655668,-5.384194705260805,3,left
8.235,0.21709096340640077,0.9746074669799348,0.10513028462292416,5.435047551992291,-7.803087841007601,1.522109022659494,1.5158355299966397,-0.2658037513556872,-5.386771348976265,3,left
8.236,0.20864296734713045,0.9911429091679986,0.10510483830122523,5.480017247577289,-7.741660205021541,1.5596323934873468,1.5099961814568743,-0.2765426130061551,-5.387060494642955,3,left
8.238,0.20025461730813232,1.007447655882581,0.10503504861927737,5.523450030087211,-7.675474817826683,1.597082227514132,1.5035928645554764,-0.2874529768305866,-5.385053473304264,3,left
8.238999999999999,0.19193195860006573,1.0235116318215407,0.10491975790208868,5.565332285170791,-7.604609941341057,1.6344400245534179,1.4966317945665948,-0.29852878890013407,-5.380743027900361,3,left
8.243,0.18368117917683582,1.0393250841912778,0.10475777230979785,5.605650172412532,-7.52914666584577,1.6716868839887447,1.4891195637169272,-0.3097640979213809,-5.374123353184566,3,left
8.245,0.1755086012107868,1.0548785962656118,0.10454786181100323,5.644389665969453,-7.449168817304084,1.7088035372296788,1.4810631380590242,-0.3211530727936766,-5.36519013427946,3,left
8.245,0.16742067191931892,1.0701631001218437,0.10428876065995696,5.681536597939913,-7.364762863798244,1.7457703814687275,1.4724698542866173,-0.3326900177233516,-5.353940583815324,3,left
8.248,0.15942395365660417,1.0851698885074936,0.10397916842673335,5.717076703265858,-7.276017822998862,1.782567513177738,1.463347416470406,-0.34436938492707414,-5.340373477631892,3,left
8.249,0.15152511327386864,1.0998906257985388,0.10361775162370943,5.750995665293908,-7.183025172035819,1.8191747601991126,1.4537038926911734,-0.3561857849570555,-5.324489189017752,3,left
8.253,0.14373091074177324,1.1143173580093608,0.10320314596010381,5.783279161707629,-7.0858787601678195,1.855571712037485,1.443547711545564,-0.36813399468123353,-5.30628972145507,3,left
8.254,0.13604818701217655,1.1284425218194984,0.10273395923497984,5.813912910867335,-6.984674724102421,1.8917377483741096,1.4328876584983312,-0.3802089629519753,-5.285778739830661,3,left
8.259,0.12848385107640448,1.1422589525916582,0.10220877485608627,5.842882718654822,-6.879511405699597,1.9276520659090817,1.4217328720533733,-0.3924058139972322,-5.262961600067793,3,left
8.26,0.12104486615852779,1.155759891363047,0.10162615595609102,5.870174525915763,-6.770489271779975,1.9632937036359004,1.4100928397143968,-0.404719848568461,-5.237845377126425,3,left
8.264,0.11373823496798854,1.1689389907935026,0.1009846500708019,5.8957744565877,-6.657710835747213,1.9986415666522293,1.3979773937046063,-0.41714654287998854,-5.210438891312998,3,left
8.265,0.10657098392742727,1.1817903200466986,0.10028279434242442,5.919668866596884,-6.541280580722641,2.0336744486099785,1.3853967064133963,-0.4296815453748482,-5.1807527328342236,3,left
8.269,0.09955014628886225,1.194308368566422,0.09951912121075995,5.941844393602269,-6.421304883879193,2.0683710529070516,1.372361285536626,-0.4423206713524532,-5.148799284522749,3,left
8.27,0.09268274405372706,1.2064880486929173,0.09869216455553187,5.9622880076602165,-6.2978919416508665,2.102710012722262,1.3588819688756955,-0.4550598954937961,-5.114592742655986,3,left
8.272,0.08597576862100854,1.2183246970491919,0.09780046625814552,5.980987062878514,-6.171151695483456,2.1366699099940063,1.3449699187593038,-0.46789534232017543,-5.078149135782847,3,left
8.273,0.07943616010894354,1.2298140746189485,0.09684258316814404,5.997929350123376,-6.041195757782161,2.170229293442325,1.3306366160504677,-0.48082327462174873,-5.0394863414666355,3,left
8.277999999999999,0.07307078533707018,1.2409523654416683,0.09581709448791569,6.013103150838139,-5.908137337701749,2.203366695732953,1.3158938537000997,-0.4938400798925015,-4.998624100845841,3,left
8.279,0.06688641451883381,1.2517361738701511,0.09472260961471599,6.026497292027337,-5.772091166415448,2.23606064988087,1.300753729807206,-0.5069422548084952,-4.955584030908208,3,left
8.282,0.060889696794101326,1.2621625203720994,0.09355777648182183,6.038101202454792,-5.6331734214894515,2.2682897049897113,1.2852286401445534,-0.5201263877865262,-4.910389634367029,3,left
8.283,0.05508713481477832,1.2722288359065355,0.09232129040693789,6.047904970099311,-5.491501649981068,2.3000324414221844,1.26933127010748,-0.5333891396605817,-4.863066307022339,3,left
8.287,0.04948505867348756,1.2819329549611245,0.09101190338495065,6.0558994009064255,-5.347194689869924,2.331267485495378,1.253074586042382,-0.5467272225137233,-4.813641342483422,3,left
8.288,0.04408959952566211,1.2912731073900643,0.08962843366695745,6.062076078869491,-5.200372589423421,2.361973523793487,1.2364718259103056,-0.560137376703268,-4.762143934122826,3,left
8.293,0.03890666329523034,1.300247909236409,0.08816977536975856,6.06642742746829,-5.0511565240896905,2.392129317189107,1.2195364892400007,-0.5736163461173563,-4.708605174126034,3,left
8.294,0.03394190487412203,1.3088563527502035,0.08663490778069145,6.068946772488089,-4.89966871050377,2.4217137146627787,1.2022823263237665,-0.5871608517012203,-4.653058049494843,3,left
8.297,0.029200703228549757,1.3170977958209866,0.08502290397862941,6.069628406236879,-4.746032317185471,2.4507056670089455,1.1847233266084212,-0.6007675632916671,-4.5955374348565945,3,left
8.298,0.02468813781056604,1.3249719510321936,0.08333293839441665,6.068467653173276,-4.590371371500552,2.4790842405149105,1.166873706232775,-0.614433069798492,-4.536080081925516,3,left
8.302,0.02040896663883164,1.3324788745214,0.08156429298467678,6.065460936952322,-4.432810662450268,2.5068286306977368,1.1487478946620713,-0.6281538477717241,-4.474724605456678,3,left
8.302999999999999,0.016367606355138578,1.3396189548005206,0.07971636178538279,6.060605848891112,-4.273475638848214,2.5339181761823277,1.1303605203689822,-0.6419262283937862,-4.411511465527407,3,left
8.302999999999999,0.0125681144858791,1.3463929016583427,0.0777886537325686,6.05390121785093,-4.112492302437556,2.560332372802168,1.1117263955348637,-0.6557463629914722,-4.346482946024261,3,left
8.308,0.00901417405189291,1.3528017352353765,0.07578079375857052,6.045347181527236,-3.949987095496293,2.586050888002386,1.0928604998689515,-0.6696101874410788,-4.279683129452359,3,left
8.309,0.005709080591326746,1.3588467753293954,0.07369252227119434,6.034945259133555,-3.786086782473085,2.611053575622913,1.0737779638669853,-0.6835133863410695,-4.211157868617974,3,left
8.312000000000001,0.0026557315966558373,1.3645296309624821,0.07152369322700379,6.022698425460013,-3.6209183251914765,2.6353204911375743,1.0544940519548174,-0.6974513581050568,-4.140954755974222,3,left
8.312999999999999,-0.00014338168165829178,1.369852190218303,0.06927427114367321,6.00861118615867,-3.4546087514129464,2.6588319074002054,1.0350241458371225,-0.7114191818497428,-4.069123091170465,3,left
8.314,-0.002686180144501664,1.374816610341528,0.06694432749878507,5.9926896534860825,-3.2872850178303255,2.6815683308330818,1.0153837281461395,-0.7254115864516755,-3.9957138469016424,3,left
8.317,-0.0049710005611570155,1.379425308077561,0.06453403697336745,5.974941620618716,-3.1190738708725907,2.7035105177861105,0.9955883663600323,-0.7394229218685041,-3.9207796329047784,3,left
8.317,-0.006996597204208147,1.3836809502105027,0.06204367398302763,5.955376632035144,-2.9501017099838607,2.7246394906793134,0.9756536969349715,-0.7534471327648514,-3.844374657896437,3,left
8.321,-0.00876214154596124,1.3875864442227672,0.059473609969672554,5.934006048070097,-2.780494456751417,2.744936553652646,0.9555954095945483,-0.7674777344829833,-3.7665546892403423,3,left
8.322000000000001,-0.010267220202579766,1.3911449289594924,0.056824311938533795,5.910843102849718,-2.6103774309418943,2.7643833076496547,0.935429231719688,-0.7815077913985162,-3.687377010130014,3,left
8.327,-0.011511831345849642,1.3943597651516708,0.05409634263206602,5.885902955428552,-2.4398752332175033,2.782961664972886,0.91517091278183,-0.7955298977014352,-3.606900374067059,3,left
8.328,-0.012496379826271099,1.3972345256437884,0.051290362549981115,5.859202734066922,-2.269111634045336,2.8006538633693108,0.8948362087617853,-0.8095361606427123,-3.525184956411672,3,left
8.332,-0.013221671271828207,1.3997729851863268,0.048407133816709386,5.830761573582169,-2.098209468311305,2.8174424797015973,0.8744408664963732,-0.8235181862868172,-3.4422923027780197,3,left
8.333,-0.013688905442688042,1.4019791096867793,0.04544752571031188,5.800600645702149,-1.9272905351491874,2.8333104432585525,0.8540006078946769,-0.8374670678103824,-3.3582852740434594,3,left
8.337,-0.013899669121312781,1.4038570448583518,0.0424125215264766,5.768743182344333,-1.7564755024944707,2.848241048755535,0.8335311139655324,-0.8513733763872419,-3.2732279877369654,3,left
8.338,-0.013855928789554349,1.4054111042580912,0.03930322636399743,5.735214491738855,-1.5858838158723163,2.8622179690730194,0.8130480085976961,-0.8652271546999903,-3.187185755568776,3,left
8.342,-0.013560023291950232,1.406645756762539,0.036120875375138854,5.70004196730889,-1.415633610928888,2.875225267778869,0.7925668420340051,-0.8790179131181152,-3.1002250168600725,3,left
8.342,-0.013014656620462634,1.4075656135857888,0.03286684201623566,5.663255089216931,-1.2458416292156007,2.8872474114771647,0.7721030739807595,-0.8927346285826275,-3.0124132676284754,3,left
8.346,-0.012222890893790549,1.4081754149965835,0.02954264585660998,5.624885418480682,-1.0766231367364762,2.8982692820237155,0.7516720562935203,-0.9063657462369681,-2.9238189850823284,3,left
8.346,-0.011188139554774927,1.408480016931665,0.026149959551374544,5.584966583557595,-0.9080918447697789,2.908276188645582,0.7312890151805157,-0.9198991838437828,-2.834511547274108,3,left
8.351,-0.009914160779345425,1.4084843777299927,0.02269061464342702,5.543534259292437,-0.740359832476408,2.9172538799991172,0.7109690328649045,-0.9333223390269463,-2.7445611476608387,3,left
8.352,-0.008405051081836723,1.4081935452300265,0.01916660591850871,5.50062613811775,-0.5735374708091735,2.9251885561981497,0.6907270286472358,-0.9466220993779659,-2.654038704317151,3,left
8.356,-0.006665239110617248,1.4076126444844443,0.015580094087017118,5.456281893392584,-0.40773334723905247,2.932066880841032,0.6705777393095824,-0.9597848554656178,-2.5630157635445894,3,left
8.357000000000001,-0.0046994796487872595,1.406746866355792,0.011933406606172283,5.410543134760568,-0.24305419081681243,2.9378759930623124,0.650535698803006,-0.9727965167873465,-2.471564397618906,3,left
8.361,-0.002512847862966822,1.4056014572627005,0.008229036490846069,5.3634533554041415,-0.07960479709100081,2.9426035196317994,0.6306152171602359,-0.9856425307006081,-2.3797570964154597,3,left
8.362,-0.0001107338747920131,1.4041817103476302,0.0044696390014880094,5.315057871067655,0.08251204759378118,2.946237587120745,0.6108303585757099,-0.9983079043719364,-2.2876666526513816,3,left
8.366,0.002501162241442688,1.4024929583291972,0.0006580261538848763,5.2654037507180185,0.243195642891174,2.948766834151812,0.5911949185954312,-1.0107772297810818,-2.1953660404819533,3,left
8.367,0.005316834909842761,1.4005405682779786,-0.003202840930660854,5.214539738707736,0.40234745280924933,2.950180423746381,0.571722400359447,-1.0230347118170942,-2.102928287187616,3,left
8.37,0.008329976814209775,1.3983299385092083,-0.007109861733791483,5.162516168301399,0.5598711860940957,2.9504680557796052,0.552425989840141,-1.035064199502699,-2.0104263376872114,3,left
8.371,0.01153398183010734,1.3958664977238053,-0.011059807922584517,5.1093848664230865,0.7156728791021886,2.9496199795504694,0.5333185300199615,-1.0468492203827553,-1.917932911612466,3,left
8.372,0.014921947007046594,1.3931557064665567,-0.01504933654131235,5.055199049478682,0.8696609816185393,2.9476270064708796,0.514412494011166,-1.0583730180536197,-1.825520352972861,3,left
8.377,0.018486673521298347,1.390203060922324,-0.019075004494234927,5.000013210103745,1.0217464460729424,2.9444805228745903,0.4957199574131251,-1.0696185925178259,-1.7332604739125896,3,left
8.378,0.022220666579820882,1.3870140990389395,-0.02313328398774744,4.94388299468445,1.1718428206017024,2.9401725029435215,0.47725257072969685,-1.0805687425226107,-1.641224396712218,3,left
8.38,0.0261161343398719,1.3835944089341516,-0.027220578577848535,4.886865071496012,1.3198663463970142,2.9346955217457116,0.45902153296221393,-1.091206108748307,-1.5494823996606277,3,left
8.381,0.030164986021371916,1.3799496395008921,-0.03133323940380494,4.829016989565762,1.4657360594761002,2.9280427683845893,0.4410375672017858,-1.1015132170035868,-1.4581037709505318,3,left
8.382,0.03435882949717387,1.376085513079961,-0.03546758115478305,4.770397029692954,1.6093738954734316,2.9202080592995836,0.4233108985188359,-1.1114725211088614,-1.3671566721005879,3,left
8.387,0.03868896872610861,1.372007840028358,-0.039619897375793724,4.71106405144473,1.7507047933118942,2.911185851833342,0.40585123415601604,-1.1210664454400014,-1.276708010935253,3,left
8.388,0.04314640151429016,1.3677225349343258,-0.04378647481299799,4.651077341272979,1.8896567920795222,2.9009712582211407,0.3886677459728566,-1.1302774271619564,-1.1868233238600217,3,left
8.391,0.04772181832382884,1.3632356340677734,-0.047963606576850955,4.590496465566899,2.0261611169550693,2.889560060110973,0.3717690550912502,-1.1390879581808384,-1.0975666671709206,3,left
8.392000000000001,0.0524056031308987,1.3585533134232282,-0.05214760402250088,4.529381130064183,2.1601522527605934,2.876948723640818,0.3551632186916304,-1.1474806268419975,-1.0090005171385734,3,left
8.395,0.057187837536997445,1.3536819064793926,-0.05633480743964413,4.467791045714166,2.2915680052354674,2.863134415052454,0.3388577189105019,-1.1554381594005119,-0.9211856786087511,3,left
8.397,0.062058309372124656,1.348627920633962,-0.06052159581790293,4.405785800819031,2.4203495504238095,2.8481150168090363,0.32285945379079306,-1.1629434612893632,-0.8341812018631363,3,left
8.4,0.06700652684926985,1.3433980512330495,-0.06470439600374935,4.343424739277641,2.5464414725601294,2.8318891441802077,0.307174730237343,-1.169979658209373,-0.7480443074860047,3,left
8.401,0.0720217389520212,1.3379991922325778,-0.06887969146645496,4.280766844755173,2.669791790830578,2.814456162255039,0.2918092589306967,-1.17653013706372,-0.6628303189846818,3,left
8.406,0.07709296227457903,1.3324384427755573,-0.07304403066008454,4.2178706306005935,2.790351975379639,2.7958162033396627,0.27676815115326325,-1.182578586758563,-0.5785926029139578,3,left
8.406,0.0822090141103073,1.326723109259009,-0.0771940346281214,4.154794035332914,2.9080769529243815,2.7759701846929814,0.2620559174827913,-1.1881090388899513,-0.49538251625713,3,left
8.41,0.08735855124042052,1.3208607027163195,-0.08132640314179901,4.091594323516381,3.0229251023305133,2.7549198265503723,0.24767646830903137,-1.1931059083357982,-0.41324936081899394,3,left
8.411,0.09253011359427907,1.3148589315329053,-0.08543791848141893,4.028327991844037,3.134858240496487,2.7326676703818378,0.23363311613038704,-1.1975540337702648,-0.3322403443888977,3,left
8.415,0.09771217173836445,1.3087256896662067,-0.08952544610226425,3.9650506802485643,3.243841598883755,2.709217097327595,0.21992857958829737,-1.201438718116405,-0.2524005484349277,3,left
8.415,0.10289317701953932,1.3024690406749075,-0.09358593183345529,3.9018170878589826,3.3498437910230145,2.6845723467506444,0.20656498919805044,-1.2047457689513943,-0.1737729020933798,3,left
8.421,0.10806161314757977,1.2960971979846112,-0.09761639575899898,3.838680893621575,3.4528367713179358,2.658738534842391,0.19354389473569084,-1.2074615388770884,-0.09639816222089563,3,left
8.423,0.1132060480470996,1.2896185019289317,-0.10161392333701591,3.775694681403379,3.552795785459368,2.631721673213965,0.18086627424165613,-1.2095729658670429,-0.020314899279998588,3,left
8.424,0.11831518492422,1.2830413941960757,-0.10557565453086787,3.712909869396704,3.6496993127544943,2.6035286874024557,0.16853254460275574,-1.2110676135994631,0.05444051116775941,3,left
8.425,0.12337791165319706,1.2763743903640834,-0.10949877177348293,3.6503766436434186,3.743529000666746,2.574167435217851,0.15654257367508803,-1.2119337117838578,0.12783389158323405,3,left
8.43,0.1283833477633156,1.2696260512150337,-0.11338048753873414,3.5881438954981726,3.8342695918535847,2.543646724853099,0.14489569391147722,-1.212160196487436,0.19983326040419633,3,left
8.43,0.1333208884727404,1.2628049534895154,-0.1172180322120759,3.5262591628503013,3.921908843980495,2.5119763326763036,0.1335907174579982,-1.211736750465514,0.27040882504759045,3,left
8.434,0.13818024536185922,1.255919660693424,-0.1210086428612092,3.464768574924868,4.006437442580699,2.4791670206207312,0.122625952685144,-1.2106538434983993,0.3395329701703129,3,left
8.435,0.14295148340310523,1.2489786945078987,-0.12474955341286613,3.4037168004841805,4.087848907221242,2.445230553084976,0.11199922212017492,-1.2089027727353772,0.40718024139528347,3,left
8.442,0.14762505416923988,1.2419905072811908,-0.12843798664965062,3.3431469992520912,4.166139491227195,2.410179713252321,0.10170788174816942,-1.2064757030445667,0.47332732470549277,3,left
8.443,0.15219182512671967,1.2349634559964489,-0.1320711483541654,3.2831007763845435,4.241308075206779,2.3740283187350677,0.09174884162788385,-1.2033657073104047,0.5379530217263359,3,left
8.443,0.1566431049838533,1.2279057780074856,-0.13564622384027522,3.223618139811056,4.313356054611289,2.336791236446374,0.08211858765755164,-1.1995668063430707,0.6010382212212407,3,left
8.443999999999999,0.16097066511212865,1.2208255687215532,-0.13916037701639625,3.164737460273249,4.382287221554713,2.2984843965989397,0.07281320412521006,-1.1950740075662591,0.6625658673173872,3,left
8.443999999999999,0.16516675711420026,1.2137307613070427,-0.14261075202245715,3.1064954338879938,4.448107641108998,2.2591248057267146,0.06382839656715042,-1.1898833413722079,0.7225209250828858,3,left
8.45,0.16922412668623577,1.2066291084304226,-0.14599447737421495,3.048927047100024,4.510825522452307,2.2187305586249866,0.055159514570977446,-1.1839918943064536,0.7808903439634245,3,left
8.452,0.17313602399044375,1.1995281659765642,-0.14930867245609344,2.992065544068721,4.570451086090531,2.1773208491126046,0.04680157436220029,-1.177397838738756,0.8376630193858315,3,left
8.452,0.1768962107918184,1.192435278671728,-0.1525504561467253,2.935942396856299,4.6269964298967325,2.1349159795377077,0.03874928112614517,-1.1701004589501665,0.8928297527225483,3,left
8.453,0.18049896465762458,1.185357567497579,-0.15571695731158258,2.8805872789647045,4.680475397556114,2.091537368956838,0.030997051040275315,-1.1621001736193122,0.9463832097846684,3,left
8.453,0.1839390806022749,1.178301918750192,-0.15880532682031448,2.8260280425924083,4.730903452143419,2.047207559902924,0.023539032992896843,-1.1533985546889516,0.9983178780066161,3,left
8.458,0.18721187063380945,1.1712749745758608,-0.16181275067302356,2.7722906996637176,4.778297556017439,2.0019502236341262,0.016369129965106262,-1.1439983425918379,1.0486300224809262,3,left
8.459,0.19031316165732626,1.1642831248260674,-0.1647364637890948,2.7193994065072693,4.82267605735667,1.9557901637412758,0.009481020053697123,-1.1339034578129115,1.0973176409969616,3,left
8.464,0.1932392921229451,1.1573325001157682,-0.1675737640161682,2.6673764520270393,4.864058583481026,1.9087533179866003,0.0028681771135876154,-1.123119008762832,1.1443804182327502,3,left
8.465,0.19598710771847236,1.1504289660267342,-0.17032202594409782,2.6162422492115343,4.9024659410957945,1.8608667582437886,-0.0034761090008416065,-1.1116512959358507,1.1898196792444744,3,left
8.468,0.1985539563335559,1.143578118454502,-0.17297871416676625,2.566015329829278,4.937920023585356,1.812158688406838,-0.009558712615301182,-1.099507812323035,1.2336383423934774,3,left
8.468,0.20093768247173033,1.1367852801388034,-0.17554139571930086,2.5167123421611888,4.9704437254756115,1.7626584401326177,-0.015386652855049745,-1.0866972400498816,1.275840871845987,3,left
8.472999999999999,0.20313662125202434,1.1300554984335658,-0.17800775151133336,2.4683480516229896,5.000060864175491,1.7123964662796487,-0.020967074722493817,-1.0732294432053846,1.3164332297761006,3,left
8.472999999999999,0.2051495921132033,1.1233935443609055,-0.18037558666680384,2.4209353441333996,5.026796109099427,1.6614043319032352,-0.026307230650419705,-1.0591154568276981,1.3554228283979166,3,left
8.478,0.20697589230663,1.1168039129546965,-0.18264283976297063,2.374485232086506,5.050674918264307,1.6097147026648104,-0.03141446254761491,-1.0443674720096088,1.392818481948066,3,left
8.479,0.20861529023641806,1.1102908248358585,-0.18480759102930028,2.329006862789404,5.071723482446011,1.5573613305111782,-0.03629618435292568,-1.0289988170851556,1.4286303587352667,3,left
8.484,0.21006801867825808,1.1038582288826904,-0.18686806961273336,2.284507529228924,5.0899686769724095,1.504379036477233,-0.0409598651131075,-1.0130239348568761,1.4628699333689306,3,left
8.484,0.21133476788217173,1.0975098057855601,-0.18882266003052867,2.240992683034029,5.105438021221469,1.4508036904637407,-0.045413012599156054,-0.9964583558213413,1.4955499392742686,3,left
8.488,0.2124166785366889,1.0912489722303595,-0.19066990790784558,2.1984659495032557,5.118159645884994,1.3966721878398574,-0.04966315747515865,-0.9793186673488586,1.526684321596801,3,left
8.488999999999999,0.21331533453622145,1.085078885452976,-0.1924085250395144,2.1569291445693604,5.128162268050473,1.3420224227182602,-0.05371783803307989,-0.9616224787714875,1.5562881905946584,3,left
8.493,0.2140327554498009,1.0790024479449372,-0.19403739374621878,2.116382293576191,5.135475174145531,1.2868932577490626,-0.057584585506290385,-0.9433883823318134,1.5843777756125867,3,left
8.494,0.2145713885487251,1.0730223121567033,-0.19555557044145092,2.076823651745606,5.140128210781598,1.2313244902770866,-0.06127090997406438,-0.9246359099432799,1.6109703797271246,3,left
8.498,0.21493410022527856,1.06714088512691,-0.19696228830599302,2.038249726215121,5.1421517835255885,1.1753568147055857,-0.06478428686871043,-0.9053854857112835,1.6360843351480372,3,left
8.499,0.21512416662944675,1.0613603330500985,-0.19825695898729354,2.000655299529802,5.141576863620672,1.119031780908132,-0.06813214409645953,-0.885658374162691,1.6597389594567369,3,left
8.504,0.21514526336382359,1.0556825858682506,-0.1994391732934135,1.9640334544747555,5.138435002669549,1.0623917485291188,-0.07132184978271654,-0.8654766241299522,1.6819545127581221,3,left
8.505,0.21500145410368576,1.050109342021083,-0.20050870091501133,1.9283756001373868,5.132758355286139,1.0054798370121896,-0.07436070065178402,-0.8448630082345532,1.7027521558180239,3,left
8.509,0.21469717804281663,1.0446420735110724,-0.20146548926129787,1.8936714990914154,5.124579709714066,0.948339871194879,-0.07725591105069167,-0.8238409579131865,1.7221539092542528,3,left
8.511000000000001,0.21423723610035092,1.039282031431207,-0.20230966152182542,1.8599092955974266,5.113932526403012,0.8910163223068435,-0.08001460262208208,-0.8024344940503257,1.7401826138216228,3,left
8.511000000000001,0.21362677585581066,1.0340302520701192,-0.20304151406205193,1.8270755447175007,5.100850984526687,0.8335542442082869,-0.08264379460952839,-0.7806681538877306,1.7568618917097791,3,left
8.512,0.212871275206962,1.028887563662325,-0.20366151323647116,1.795155242244196,5.085370036418999,0.7759992047045265,-0.08515039474019152,-0.7585669159747724,1.77221610855722,3,left
8.513,0.21197652477116793,1.0238545938071375,-0.20417029167807632,1.7641318553468717,5.067525469897903,0.7183972117721215,-0.08754119060819131,-0.7361561255304467,1.7862703357634713,3,left
8.517000000000001,0.21094860907841811,1.0189317775447735,-0.20456864410853462,1.7339873539047004,5.047353978204263,0.6607946346761646,-0.08982284150283458,-0.7134614219788292,1.7990503127949888,3,left
8.517999999999999,0.20979388662543547,1.014119366049541,-0.20485752270280505,1.7047022428169143,5.02489323610032,0.6032381206809453,-0.09200187066354584,-0.6905086693242294,1.8105824093879828,3,left
8.517999999999999,0.20851896886794016,1.0094174358763157,-0.20503803202729481,1.6762555961567973,5.000181978549034,0.5457745093572273,-0.09408465796415481,-0.6673238894233336,1.820893587665104,3,left
8.522,0.20713069823507219,1.0048258986705623,-0.20511142355681175,1.6486250943570262,4.973260077213056,0.4884507472122655,-0.0960774330331092,-0.6439331980891961,1.8300113642027607,3,left
8.523,0.20563612527002467,1.000344511216041,-0.20507908977012174,1.6217870652978565,4.944168611181355,0.43131380464593694,-0.09798626881588661,-0.6203627439611976,1.8379637720822515,3,left
8.527999999999999,0.20404248502253972,0.9959728856586999,-0.2049425578290136,1.5957165295986648,4.912949930441578,0.3744105959354589,-0.09981707558560185,-0.5966386500744242,1.8447793229543992,3,left
8.529,0.20235717282459542,0.991710499728227,-0.20470348286000895,1.5703872500971285,4.87964771178573,0.31778790222869574,-0.10157559540754782,-0.5727869580613267,1.8504869691439314,3,left
8.533,0.20058771957211102,0.9875567067845121,-0.20436364087851372,1.5457717854388935,4.844307007065682,0.26149229738201474,-0.103267397063166,-0.5488335749180064,1.8551160658165233,3,left
8.533999999999999,0.1987417666239645,0.9835107455391816,-0.20392492141922855,1.5218415477027771,4.806974283708924,0.20557007647932385,-0.10489787143871845,-0.5248042222670298,1.8586963332281372,3,left
8.538,0.19682704042158838,0.9795717493367786,-0.20338931996113108,1.498566863988686,4.767697457399004,0.1500671868697308,-0.10647222738372515,-0.5007243880483077,1.8612578190731217,3,left
8.539,0.19485132693027846,0.9757387549212467,-0.20275893025704436,1.475917041897469,4.726525916819197,0.0950291615622005,-0.10799548804403834,-0.4766192805692831,1.8628308609444324,3,left
8.543,0.19282244600803233,0.9720107106563098,-0.20203593669308834,1.4538604388339007,4.683510540352296,0.040501054816659554,-0.10947248767424889,-0.4525137848454538,1.8634460489163243,3,left
8.544,0.19074822581830003,0.9683864842077744,-0.20122260680850007,1.4323645350658663,4.6387037046237785,-0.01347262022779815,-0.11090786893395828,-0.4284324211621066,1.8631341882569386,3,left
8.547,0.18863647741664466,0.9648648697264645,-0.2003212840970371,1.411396010474609,4.592159284770187,-0.06684795204561803,-0.11230608067230272,-0.40439930578807143,1.861926262275371,3,left
8.547,0.1864949696562297,0.9614445945896897,-0.19933438118517843,1.3909208249326146,4.543932646309263,-0.11958168949495207,-0.113671376204982,-0.3804381137722987,1.8598533953050507,3,left
8.552999999999999,0.18433140457417402,0.9581243257670646,-0.19826437344460793,1.3709043022472998,4.494080628483248,-0.17163129902024438,-0.11500781208792664,-0.3565720437541325,1.8569468158226052,3,left
8.554,0.182153393439866,0.9549026758744537,-0.19711379305766716,1.3513112176102047,4.4426615189417324,-0.22295502044047472,-0.11631924739162883,-0.33282378471828966,1.8532378196988075,3,left
8.557,0.17996843366268817,0.9517782089698156,-0.19588522352402485,1.3321058884927863,4.389735019625658,-0.2735119214744585,-0.11760934348006823,-0.30921548462576054,1.8487577335757153,3,left
8.558,0.17778388676359644,0.948749446130942,-0.19458129457858506,1.3132522689312403,4.335362203709378,-0.32326195115263845,-0.11888156429807997,-0.28576872085212035,1.8435378783617233,3,left
8.561,0.17560695760816988,0.9458148708433527,-0.19320467748136677,1.294714047143985,4.279605463453188,-0.37216599226271824,-0.12013917717094036,-0.2625044723650752,1.837609532833938,3,left
8.562000000000001,0.17344467507772365,0.942972934220895,-0.19175808063220146,1.2764547464265623,4.222528448814421,-0.4201859129742889,-0.12138525411988367,-0.23944309357346955,1.8310038973350726,3,left
8.566,0.17130387432260852,0.9402220600807498,-0.19024424545407234,1.25843782926971,4.164195996661035,-0.4672846177852826,-0.12262267369721207,-0.2166042897804441,1.823752057549939,3,left
8.568,0.16919118070140307,0.9375606498945401,-0.18866594248423035,1.2406268046472784,4.104674050427667,-0.513426097930659,-0.12385412334461769,-0.19400709417395542,1.8158849483445676,3,left
8.571,0.16711299546354938,0.9349870876360693,-0.18702596761541004,1.222985338421453,4.044029570050309,-0.5585754813911936,-0.1250821022783032,-0.17166984628845108,1.807433317649047,3,left
8.572000000000001,0.16507548318316648,0.9324997445442059,-0.18532713843761536,1.2054773668134504,3.9823304320122017,-0.6026990826375925,-0.12630892490446077,-0.14961017187213135,1.7984276903633192,3,left
8.576,0.16308456090282197,0.930096983816203,-0.1835722906431755,1.1880672128884393,3.919645319330061,-0.6457644522424103,-0.1275367247686533,-0.1278449640949211,1.7888983322633971,3,left
8.577,0.1611458889057749,0.9277771652410989,-0.18176427447620427,1.1707197060039354,3.856043601306606,-0.6877404264894001,-0.1287674590331272,-0.10639036604889279,1.778875213918781,3,left
8.578,0.1592648630136921,0.9255386497751134,-0.17990595122778275,1.1534003041712917,3.79159520287227,-0.7285971771069832,-0.13000291342857176,-0.08526175457303663,1.7683879748052311,3,left
8.581,0.15744660830462268,0.9233798040531482,-0.17800018979206972,1.136075219280196,3.7263704633361727,-0.7683062612494841,-0.1312447075413187,-0.06447372557796474,1.7574658881104905,3,left
8.582,0.15569597414392372,0.9212990048241786,-0.17604986330607164,1.1187115451362672,3.6604399843637863,-0.8068406718466548,-0.13249430024947254,-0.044040081126386056,1.7461378269040915,3,left
8.587,0.15401753040400246,0.9192946432940451,-0.1740578458998379,1.101277388261925,3.593874466996312,-0.8441748884387952,-0.13375299516898725,-0.02397381844676451,1.7344322321660919,3,left
8.588,0.15241556473206852,0.9173651293579289,-0.17202700958053305,1.0837420012183567,3.5267445378913136,-0.8802849285111791,-0.135021946056245,-0.004287120915702828,1.7223770828533829,3,left
8.589,0.15089408073107005,0.9155088957072243,-0.16996022126143814,1.0660759172446623,3.4591205667959604,-0.9151483988365835,-0.13630216216122706,0.015008649033748695,1.7099998680060788,3,left
8.591000000000001,0.14945679694371997,0.9137244017998435,-0.16786033993305094,1.0482510832790768,3.3910724805633086,-0.9487445454285024,-0.1375945135348951,0.03390295513547712,1.6973275608604295,3,left
8.591000000000001,0.14810714654686194,0.9120101376871006,-0.16573021396547458,1.0302409874652485,3.3226695808542837,-0.9810543002025773,-0.1388997362944308,0.05238609070191574,1.6843865949336752,3,left
8.595,0.1468482776596257,0.9103646276943339,-0.16357267853008156,1.0120207782078163,3.253980370832752,-1.0120603229417358,-0.1402184378500128,0.07044918027928575,1.671202842045351,3,left
8.596,0.1456830541584462,0.9087864339570992,-0.1613905531311993,0.9935673735720473,3.185072392858953,-1.0417470380596636,-0.14155110209684563,0.08808417960072819,1.6578015922386937,3,left
8.6,0.14461405689220605,0.9072741598188128,-0.15918663924135837,0.9748595607834126,3.116012077351701,-1.070100666155083,-0.14289809457619138,0.10528387389040406,1.6442075355650234,3,left
8.601,0.14364358520132528,0.9058264530975585,-0.15696371803493545,0.9558780857747113,3.0468646026221777,-1.097109250445874,-0.14425966760919334,0.12204187457043573,1.6304447456932933,3,left
8.606,0.14277365865960207,0.9044420092301393,-0.15472454821688564,0.9366057327276829,2.9776937654815026,-1.1227626781682936,-0.1456359654073209,0.13835261442133492,1.6165366653063507,3,left
8.606,0.14200601897488055,0.9031195743021102,-0.15247186394667153,0.9170273935553278,2.9085618624238316,-1.147052697022717,-0.14702702916330557,0.1542113412453133,1.6025060932449162,3,left
8.61,0.1413421320026852,0.9018579479736717,-0.15020837285995053,0.8971301272703663,2.8395295811864836,-1.1699729267434689,-0.1484328021264802,0.1696141100806053,1.5883751733597948,3,left
8.611,0.14078318984299018,0.9006559863119915,-0.14793675418895488,0.8769032091844411,2.770655902488506,-1.1915188658664218,-0.14985313466647507,0.18455777401364926,1.5741653850324067,3,left
8.615,0.14033011300238196,0.8995126045403765,-0.14565965697620323,0.8563381698817922,2.7019980117492235,-1.2116878937641287,-0.15128778932926676,0.19903997363467596,1.5598975353233895,3,left
8.615,0.13998355261298698,0.8984267797137986,-0.14337969836862838,0.8354288239102208,2.633611220588586,-1.2304792680143202,-0.15273644588961816,0.21305912518094636,1.545591752708716,3,left
8.621,0.13974389270833334,0.8973975533281143,-0.14109946197525036,0.8141712881312184,2.565548897911579,-1.2478941171636595,-0.1541987064039892,0.22661440741056205,1.5312674823625534,3,left
8.622,0.13961125256641357,0.896424033866672,-0.13882149627208704,0.7925639896701697,2.4978624103795783,-1.2639354289446922,-0.15567410026803893,0.23970574724844904,1.5169434829459234,3,left
8.625,0.13958548914122657,0.8955053992835698,-0.13654831304010498,0.7706076634065527,2.430601072072316,-1.2786080339999772,-0.15716208928287972,0.2523338042447858,1.5026378248601027,3,left
8.626,0.13966619961430743,0.894640899418047,-0.13428238582421662,0.7483053389430668,2.3638121031450314,-1.2919185851634307,-0.15866207273428348,0.26449995388481673,1.4883678899236572,3,left
8.63,0.13985272410513067,0.8938298583295636,-0.132026148404527,0.7256623169916178,2.2975405972864746,-1.30387553234498,-0.1601733924890768,0.2762062697876599,1.4741503724320006,3,left
8.63,0.1401441485825228,0.8930716765391005,-0.12978199327494389,0.7026861351130914,2.2318294977846427,-1.3144890930606892,-0.16169533811299866,0.28745550483038934,1.4600012815584162,3,left
8.634,0.14053930801875886,0.892365833159697,-0.12755227012735068,0.6793865227468595,2.1667195820084717,-1.323771218646613,-0.16322715201432808,0.29825107123234645,1.445935945055589,3,left
8.635,0.14103678982533957,0.891711887898213,-0.12533928434142874,0.6557753454649855,2.102249454115203,-1.3317355561907502,-0.16476803461762182,0.3085970196333152,1.4319690142168302,3,left
8.64,0.14163493760524531,0.8911094829110509,-0.12314529548185164,0.631866538385148,2.038455545794738,-1.3383974062136128,-0.16631714957193305,0.3184980171978853,1.4181144700563908,3,left
8.64,0.1423318552498157,0.8905583444986999,-0.12097251580652811,0.6076760286753727,1.975372124864025,-1.3437736761241041,-0.16787362899790909,0.3279593247770238,1.4043856306684848,3,left
8.644,0.14312541139905183,0.890058284626487,-0.1188231087910144,0.5832216470827754,1.9130313115263406,-1.34788282947362,-0.16943657877431528,0.3369867731712607,1.3907951597205304,3,left
8.645,0.14401324427472634,0.8896092022618118,-0.11669918767379946,0.5585230284176641,1.8514631021122911,-1.350744831027545,-0.17100508384516405,0.34558673861198236,1.3773550760144424,3,left
8.646,0.144992766889614,0.8892110845207938,-0.11460281402470955,0.5336015009235499,1.79069540012137,-1.3523810876696294,-0.1725782134937457,0.3537661177081263,1.364076764010587,3,left
8.649,0.14606117263368523,0.888864007618072,-0.1125359963352175,0.508479964462853,1.7307540543850548,-1.3528143851510959,-0.174155026510485,0.3615323021776922,1.3509709851873977,3,left
8.65,0.14721544123696675,0.8885681376129494,-0.11050068862492751,0.4831827574474026,1.6716629041746291,-1.3520688206927387,-0.17573457620095487,0.3688931536088897,1.3380478901320878,3,left
8.654,0.1484523451078685,0.8883237309451906,-0.10849878905209989,0.45773551271616414,1.6134438310000805,-1.3501697315449532,-0.17731591521529474,0.3758569783624771,1.3253170312979468,3,left
8.655,0.14976845604573938,0.8881311347549296,-0.10653213851025252,0.43216500393197815,1.5561168164530916,-1.3471436201080809,-0.17889810019968388,0.3824325026522911,1.3127873763861888,3,left
8.656,0.1511601523272309,0.88799078698215,-0.10460251919206026,0.40649898653442756,1.4997000047373314,-1.343018077113716,-0.1804801962744043,0.38862884782513063,1.3004673223152539,3,left
8.658999999999999,0.15262362616618136,0.8879032162417407,-0.10271165310606142,0.3807660386554396,1.444209768136052,-1.3378217048652155,-0.18206128134303473,0.3944555058600201,1.288364709741007,3,left
8.66,0.1541548915446842,0.8878690414710196,-0.10086120053799807,0.354995406033961,1.3896607740652585,-1.331584042031512,-0.18364045023731865,0.39992231510576043,1.2764868380918577,3,left
8.663,0.15574979240890374,0.8878889713483901,-0.09905275845629169,0.3292168524999312,1.3360660530755777,-1.3243354905835312,-0.18521681870224896,0.4050394362745891,1.2648404810834275,3,left
8.664,0.1574040112183429,0.8879638034836206,-0.09728785887046375,0.3034605162276755,1.2834370675643119,-1.3161072449585307,-0.18678952722591016,0.4098173287087086,1.2534319026780094,3,left
8.668,0.1591130778328848,0.8880944233808054,-0.09556796715892275,0.2777567716847495,1.2317837810409984,-1.3069312234345067,-0.18835774471861175,0.4142667269354096,1.2422668734547173,3,left
8.67,0.16087237871845778,0.8882818031744564,-0.09389448038303667,0.25213609720224495,1.18111472779254,-1.2968400016939163,-0.18992067204584007,0.4183986175255129,1.231350687356877,3,left
8.673,0.1626771664491211,0.8885270001385682,-0.09226872559686436,0.22662894809263165,1.1314370827967348,-1.285866748553143,-0.19147754541954498,0.42222421626887663,1.2206881787838997,3,left
8.673,0.1645225694809627,0.8888311549688953,-0.09069195815215479,0.20126563524136068,1.0827567317358406,-1.2740451638314132,-0.19302763965226383,0.42575494567977695,1.2102837399955768,3,left
8.677999999999999,0.16640360217258562,0.8891954898406104,-0.08916535999298351,0.17607620909869298,1.0350783409646298,-1.2614094183302516,-0.19457027127857177,0.4290024128440538,1.2001413387974438,3,left
8.679,0.16831517502697438,0.8896213062467712,-0.08769003793644083,0.15109034899854376,0.9884054272902348,-1.2479940958920206,-0.1961048015483291,0.43197838761903745,1.1902645364765938,3,left
8.683,0.1702521051273311,0.8901099826265202,-0.08626702194464747,0.12633725773154494,0.942740427423952,-1.2338341375036577,-0.1976306392961772,0.43469478119642335,1.1806565059580614,3,left
8.684,0.17220912673499678,0.8906629717943142,-0.08489726340603233,0.10184556130002703,0.8980847669680423,-1.2189647874093879,-0.19914724369171297,0.43716362503745027,1.1713200501526453,3,left
8.691,0.17418090201326933,0.8912817981822282,-0.08358163345500477,0.07764321378320597,0.854438928803456,-1.203421541193946,-0.20065412687474907,0.43939705018895564,1.1622576204678063,3,left
8.692,0.17616203183852594,0.8919680549070326,-0.0823209213649555,0.05375740724152718,0.8118025207472984,-1.1872400957957066,-0.20215085648004213,0.4414072669881386,1.153471335454043,3,left
8.693,0.17814706666013183,0.8927234006718364,-0.08111583305031457,0.030214486589868902,0.7701743423517593,-1.170456301407085,-0.20363705805584467,0.4432065451631484,1.1449629995599282,3,left
8.693999999999999,0.1801305173734843,0.8935495565069955,-0.0799669897117011,0.0070398693701366815,0.729552450719116,-1.1531061152176325,-0.20511241738060856,0.4448071943359405,1.136734121969783,3,left
8.7,0.18210686617623126,0.8944483023481673,-0.07887492665502197,-0.015742029645312107,0.6899342252103303,-1.1352255569534178,-0.20657668268213888,0.4462215449332016,1.1287859354987422,3,left
8.701,0.18407057738575003,0.8954214734445904,-0.07784009231001492,-0.03810786908699129,0.6513164309276442,-1.116850666164557,-0.20802966676346726,0.4474619295105399,1.1211194155207806,3,left
8.703,0.1860161082053119,0.8964709565880821,-0.07686284746606517,-0.06003544692487857,0.6136952808544747,-1.0980174612111282,-0.20947124903968234,0.44854066449456387,1.1137352989060607,3,left
8.704,0.1879379194350564,0.8975986861514591,-0.07594346473603818,-0.08150376177367381,0.5770664965387883,-1.078761899896182,-0.21090137748992296,0.4494700323469404,1.1066341029447668,3,left
8.709,0.189830486129301,0.8988066399255014,-0.07508212825720394,-0.10249306963092629,0.541425367209009,-1.0591198416931398,-0.21232007052870858,0.45026226415402154,1.0998161442354102,3,left
8.71,0.19168830820271163,0.9000968347468605,-0.07427893364267261,-0.12298493611097781,0.5067668072143725,-1.0391270115135514,-0.21372741880074758,0.4509295226451654,1.0932815575163892,3,left
8.713,0.19350592098669456,0.9014713219132512,-0.07353388820084568,-0.14296228423635182,0.47308541168449436,-1.0188189649599775,-0.21512358690099828,0.45148388564154046,1.087030314413983,3,left
8.713,0.19527790573692938,0.902932182385555,-0.07284691143817464,-0.16240943784684558,0.4403755103057529,-0.9982310550076448,-0.21650881501005273,0.45193732993227537,1.0810622420486535,3,left
8.714,0.1969989000930399,0.9044815217799215,-0.07221783585244014,-0.18131216068515646,0.4086312191149104,-0.9773984000575172,-0.21788342041387673,0.45230171556629656,1.075377041384535,3,left
8.718,0.19866360849011538,0.9061214651569778,-0.07164640801392193,-0.19965769121639765,0.3778464902132017,-0.9563558533025195,-0.21924779886523407,0.45258877054333746,1.0699743051756874,3,left
8.718,0.20026681251960118,0.9078541516191849,-0.07113228992330192,-0.21743477323733995,0.34801515930691285,-0.9351379733478448,-0.2206024257557643,0.45281007589184696,1.064853535395621,3,left
8.722000000000001,0.20180338123655162,0.909681728730671,-0.07067506062861645,-0.23463368232965406,0.31913099098324177,-0.9137789960255761,-0.22194785708865938,0.4529770511294298,1.0600141600952155,3,left
8.722999999999999,0.20326828141187075,0.9116063467767583,-0.07027421807810122,-0.251246248209831,0.29118772163299333,-0.8923128073432448,-0.22328473025352497,0.4531009401057605,1.0554555496670945,3,left
8.722999999999999,0.20465658772972362,0.9136301528829074,-0.06992918118133155,-0.26726587304732846,0.26417909997000893,-0.8707729175107402,-0.22461376460731972,0.4531927972286318,1.0511770325017373,3,left
8.726,0.20596349293058408,0.9157552850139292,-0.06963929204989562,-0.282687545923331,0.23809892527801932,-0.8491924360160351,-0.2259357618652382,0.4532634740736416,1.04717791002143,3,left
8.727,0.2071843179000915,0.9179838658732301,-0.06940381839192174,-0.2975078537853281,0.2129410838388274,-0.8276040477675173,-0.22725160630538055,0.4533236063778978,1.0434574710789557,3,left
8.732000000000001,0.20831452170276005,0.9203179967202056,-0.06922195603832103,-0.31172498935351256,0.188699584176477,-0.8060399903469598,-0.2285622647910274,0.4533836014180289,1.0400150057087323,3,left
8.732999999999999,0.20934971155637713,0.9227597511243684,-0.0690928315784825,-0.32533875633078874,0.16536859157666706,-0.7845320323905887,-0.22986878661432092,0.4534536257727255,1.0368498182189072,3,left
8.738,0.21028565273779448,0.9253111686766576,-0.0690155050809703,-0.3383505720819594,0.14294246202280397,-0.7631114530680518,-0.23117230316513301,0.453543593470008,1.0339612396137199,3,left
8.738999999999999,0.21111827840555275,0.9279742486785285,-0.06898897287447817,-0.35076346784343265,0.1214157755146536,-0.7418090226027028,-0.2324740274288889,0.4536631545194151,1.0313486393362417,3,left
8.742,0.21184369932081662,0.9307509438268293,-0.06901217036623389,-0.36258208650256063,0.10078336870255622,-0.7206549837714779,-0.23377525331710125,0.4538216838293357,1.0290114363223992,3,left
8.743,0.21245821344512875,0.9336431539089756,-0.0690839748774036,-0.373812677983996,0.08104036677276938,-0.6996790343229007,-0.23507735483436254,0.4540282705097633,1.0269491093579812,3,left
8.747,0.212958315390803,0.9366527195204176,-0.06920320847726531,-0.3844630922787349,0.062182214522086415,-0.6789103102520795,-0.2363817850855377,0.4542917075608361,1.0251612067311215,3,left
8.747,0.21334070569816696,0.9397814158148857,-0.06936864079956297,-0.3945427701498119,0.04420470656244896,-0.6583773698719937,-0.2376900751268983,0.4546204819476384,1.0236473551735454,3,left
8.752,0.21360229991420135,0.9430309462959849,-0.0695789918236674,-0.4040627315469266,0.02710401659882745,-0.6381081786208744,-0.2390038326649418,0.45502276506187533,1.0224072680846505,3,left
8.753,0.21374023744846565,0.9464029366559149,-0.06983293459936978,-0.4130355617606172,0.010876725726185848,-0.6181300945460753,-0.24032474060664633,0.4555064035711966,1.0214407530332887,3,left
8.756,0.21375189018317667,0.9498989286643821,-0.07012909789057636,-0.4214753953449613,-0.004480150306122094,-0.5984698544055094,-0.24165455546492332,0.4560789106571298,1.0207477185328961,3,left
8.757,0.2136348708147407,0.9535203741086407,-0.07046606871397115,-0.42939789783618043,-0.018969134911658105,-0.5791535603284841,-0.24299510562304508,0.456747457642798,1.0203281800864112,3,left
8.762,0.21338704090418453,0.9572686287832383,-0.07084239475395045,-0.4368202452929537,-0.03259226561252932,-0.5602066669785981,-0.2443482894618462,0.4575188660118256,1.0201822654982025,3,left
8.763,0.21300651861330241,0.9611449465253362,-0.07125658664110353,-0.4437611016827207,-0.04535107015746451,-0.5416539691622794,-0.24571607335352277,0.45839959982009315,1.0203102194510147,3,left
8.766,0.21249168610134272,0.9651504732896469,-0.07170712008546844,-0.4502405941367693,-0.05724654385396397,-0.5235195898275274,-0.24710048952588423,0.459395758502276,1.020712407346732,3,left
8.767000000000001,0.21184119655382327,0.9692862412565616,-0.07219243785878206,-0.4562802860954715,-0.06827912815366198,-0.5058269683984851,-0.2485036338009499,0.46051307007539694,1.0213893184105345,3,left
8.771,0.2110539808107251,0.9735531629673806,-0.07271095162439742,-0.46190314836364954,-0.07844869052755656,-0.48859884939259335,-0.24992766321182372,0.46175688474193693,1.0223415680588197,3,left
8.771,0.2101292535563049,0.9779520254814634,-0.07326104361955271,-0.46713352809473324,-0.08775450566528009,-0.47185727126828636,-0.2513747935018286,0.4631321688953765,1.0235698995320448,3,left
8.776,0.20906651902871565,0.9824834845509537,-0.07384106820060228,-0.47199711572110725,-0.0961952380301042,-0.4556235554524473,-0.2528472965099361,0.46464349953138956,1.025075184794435,3,left
8.777000000000001,0.20786557620538304,0.9871480588081409,-0.07444935326753513,-0.47652090984685463,-0.10376892579889159,-0.4399182954981825,-0.25434749744658647,0.4662950590682742,1.0268584247032955,3,left
8.782,0.2065265234192866,0.9919461239592855,-0.07508420159009084,-0.48073318011797717,-0.1104729662137251,-0.4247613463248647,-0.2558777720632591,0.4680906305815722,1.028920748451592,3,left
8.782,0.2050497623633946,0.9968779069799045,-0.07574389206121711,-0.484663428084123,-0.11630410236945805,-0.410171813493855,-0.257440543715206,0.47003359346318074,1.0312634122889364,3,left
8.783,0.20343600144647492,1.0019434803106213,-0.0764266809014364,-0.4883423460648764,-0.12125841145893705,-0.3961680424748297,-0.25903828030961207,0.47212691952458785,1.0338877975281169,3,left
8.787,0.20168625846897878,1.0071427560564208,-0.0771308028329897,-0.4918017740327767,-0.12533129449514932,-0.38276760785920994,-0.26067349112751403,0.4743731695692375,1.0367954078458015,3,left
8.788,0.19980186258861463,1.0124754801937834,-0.07785447224026831,-0.49507465452441995,-0.12851746752703747,-0.36998730247882317,-0.26234872351192046,0.4767744904544926,1.0399878658861588,3,left
8.791,0.19778445554480542,1.017941226791239,-0.07859588433264389,-0.4981949855902831,-0.13081095436320403,-0.357843126389605,-0.2640665594219075,0.47933261265516613,1.043466909175753,3,left
8.791,0.19563599211399688,1.0235393922502833,-0.07935321632526247,-0.5011977717932781,-0.1322050808151948,-0.3463502756818811,-0.2658296118565903,0.4820488483360693,1.0472343853582002,3,left
8.792,0.1933587397733539,1.0292691895754533,-0.08012462865225284,-0.5041189732729583,-0.1326924704836089,-0.33552313110707727,-0.26764052115378706,0.4849240899404813,1.0512922467577646,3,left
8.795,0.19095527755650615,1.0351296426852223,-0.08090826622417036,-0.5069954529290966,-0.13226504217825677,-0.32537524664517176,-0.2695019511683172,0.48795880930188956,1.0556425442818878,3,left
8.795,0.18842849409095164,1.0411195807784215,-0.08170225973700113,-0.5098649218450387,-0.1309140091879722,-0.31591933837782193,-0.2714165853350042,0.49115305728680697,1.0602874206734827,3,left
8.801,0.18578158481278165,1.0472376327727075,-0.08250472703546365,-0.5127658831082365,-0.1286298806836174,-0.30716727416665013,-0.27338712262158993,0.4945064639769267,1.0652291031246517,3,left
8.802,0.18301804836048674,1.0534822218323965,-0.08331377453034595,-0.515737574148005,-0.12540246546465178,-0.29913006450548174,-0.2754162733769154,0.49801823939933215,1.0704698952643312,3,left
8.806000000000001,0.18014168215535145,1.059851560003727,-0.08412749866958757,-0.5188199076435109,-0.12122087813000955,-0.2918178546785648,-0.2775067550798723,0.5016871748139374,1.0760121685332116,3,left
8.806000000000001,0.17715657718139413,1.0663436429767004,-0.08494398746730633,-0.5220534110178546,-0.1160735476808101,-0.28523991822617967,-0.2796612879947932,0.5055116445677913,1.0818583529601318,3,left
8.81,0.1740671119830859,1.0729562449940535,-0.08576132210225122,-0.5254791645268717,-0.10994822854560675,-0.279404651694572,-0.28188259073911437,0.5094896085263291,1.0880109273550116,3,left
8.811,0.17087794590446803,1.079686913929541,-0.08657757860289038,-0.5291387379515946,-0.10283201401613588,-0.27431957064922385,-0.28417337576932383,0.5136186150921097,1.094472408934246,3,left
8.815,0.16759401159978998,1.0865329665592225,-0.08739082963945692,-0.5330741259037509,-0.09471135207875338,-0.26999130693258294,-0.28653634479138873,0.5178958048220189,1.1012453423953628,3,left
8.816,0.16422050685356054,1.0934914840508327,-0.08819914644262282,-0.5373276817542312,-0.08557206362393403,-0.26642560714950414,-0.2889741841020497,0.5223179146543626,1.108332288458624,3,left
8.82,0.16076288575525957,1.100559307697134,-0.08900060085749743,-0.5419420501951276,-0.0753993630133619,-0.2636273323658091,-0.2914895598675686,0.5268812827577052,1.1157358118941372,3,left
8.821,0.1572268492792237,1.1077330349180423,-0.0897932675207485,-0.5469600984467418,-0.06417788098125249,-0.2616004590075424,-0.29408511334672327,0.5315818540137326,1.1234584690539386,3,left
8.826,0.15361833532311997,1.1150090155522274,-0.0905752261342298,-0.5524248461218711,-0.0518916898436201,-0.2603480809506913,-0.29676345606505966,0.5364151861468359,1.1315027949294165,3,left
8.826,0.14994350825974528,1.1223833484528225,-0.09134456381304484,-0.5583793937607244,-0.03852433098623401,-0.25987241279333895,-0.29952716494763104,0.5413764565135163,1.1398712897553434,3,left
8.832,0.1462087480578098,1.1298518783965397,-0.09209937749901234,-0.5648668500509716,-0.024058844598992542,-0.2601747943044355,-0.30237877741768804,0.5464604695651052,1.1485664051827107,3,left
8.833,0.14242063902812477,1.137410193312396,-0.09283777643375946,-0.5719302577487216,-0.008477801621384945,-0.2612556960455937,-0.30532078646901767,0.5516616649976742,1.1575905300434814,3,left
8.835,0.13858595825086326,1.1450536218348806,-0.09355788467653343,-0.5796125183176274,0.008236662139396566,-0.26311472616454507,-0.3083556357198776,0.5569741266033759,1.1669459757313025,3,left
8.835,0.1347116637361058,1.1527772311860245,-0.0942578436412458,-0.5879563153048447,0.02610280975928746,-0.2657506383611275,-0.31148571445672246,0.5623915918378083,1.1766349612231646,3,left
8.84,0.13080488236489052,1.1605758253906815,-0.09493581462411467,-0.5970040364742316,0.04513926486192294,-0.2691613410289073,-0.31471335267617845,0.5679074621183321,1.1866595977679377,3,left
8.841000000000001,0.12687289765416943,1.168443943828345,-0.0955899812972533,-0.6067976947189472,0.06536497124500694,-0.27334390757777455,-0.3180408161339903,0.5735148138685895,1.1970218732686604,3,left
8.844,0.12292313738719901,1.1763758601236656,-0.0962185521480829,-0.6173788477775117,0.08679915051984281,-0.2782945879450782,-0.32147030140993776,0.5792064103247713,1.207723636386423,3,left
8.845,0.11896316114848891,1.184365581378667,-0.09681976284530891,-0.6287885167794104,0.10946125781875327,-0.2840088213050948,-0.32500393099799807,0.5849747141194644,1.2187665803946497,3,left
8.849,0.11500064779696514,1.1924068477530285,-0.0973918785135411,-0.6410671036484634,0.1333709356285338,-0.29048124998883584,-0.3286437484294014,0.5908119006412585,1.2301522268153133,3,left
8.85,0.11104338290261764,1.2004931324032568,-0.09793319590643339,-0.6542543073944499,0.15854796581155653,-0.2977057346284071,-0.3323917134269364,0.5967098720789599,1.2418819088784483,3,left
8.85,0.10709924616358733,1.2086176417955201,-0.09844204548165096,-0.6683890393258468,0.1850122198796686,-0.305675370542324,-0.3362496970719112,0.6026602718982543,1.2539567548632111,3,left
8.855,0.10317619881728304,1.2167733164093693,-0.09891679339474112,-0.6835093372190439,0.21278360758961393,-0.31438250538036305,-0.34021947695589755,0.6086544994092873,1.2663776713885735,3,left
8.856,0.0992822710623254,1.2249528318507044,-0.09935584343747815,-0.6996522784819997,0.24188202393234845,-0.3238187580486882,-0.34430273229927905,0.6146837241733719,1.279145326713871,3,left
8.859,0.0954255495126189,1.2331486003932275,-0.09975763894571923,-0.7168538924043328,0.2723272945870459,-0.3339750389031333,-0.3485010390361907,0.6207389001584173,1.2922601340945112,3,left
8.86,0.09161416470461331,1.2413527729686882,-0.100120664694641,-0.735149071845195,0.3041391198879996,-0.34484157102564655,-0.3528158648753401,0.6268107796423618,1.3057222352302913,3,left
8.86,0.08785627867450488,1.249557241627068,-0.10044344879205439,-0.754571485174958,0.33733701730900945,-0.35640791208601713,-0.3572485643484451,0.6328899268819131,1.3195314838430063,3,left
8.865,0.0841600726200403,1.2577536424885134,-0.10072456457688267,-0.7751534895463073,0.37194026244736456,-0.3686629761180788,-0.36180037385835,0.6389667315639705,1.3336874294210204,3,left
8.866,0.08053373466520351,1.265933359209762,-0.10096263252829978,-0.7969260463169519,0.4079678285198049,-0.3815950547166151,-0.36647240673921994,0.6450314220571508,1.3481893011694763,3,left
8.869,0.07698544775157515,1.274087526988805,-0.10115632218750756,-0.8199186389876475,0.4454383244342547,-0.395191837478182,-0.3712656483415495,0.6510740784808626,1.363035992205813,3,left
8.87,0.07352337768297912,1.2822070371317191,-0.10130435408674028,-0.8441591937660303,0.484369931531504,-0.40944043168602967,-0.3761809511550642,0.6570846456093629,1.3782260440412535,3,left
8.874,0.07015566134999392,1.290282542204377,-0.10140550167245976,-0.8696740028188717,0.524780339100377,-0.42432738127624753,-0.3812190299829384,0.6630529456281977,1.3937576313899218,3,left
8.875,0.06689039515911513,1.2983044617891535,-0.10145859320845539,-0.8964876502788662,0.5666866787740683,-0.43983868512416446,-0.38638045718110087,0.6689686907603658,1.4096285473482362,3,left
8.878,0.06373562368798509,1.3062629888632242,-0.101462513651713,-0.9246229410756458,0.6101054579195252,-0.4559598146919088,-0.39166565797675096,0.6748214957794473,1.425836188988213,3,left
8.88,0.060699328583399235,1.3141480968118848,-0.10141620650323455,-0.95410083266437,0.6550524921360021,-0.472675731079863,-0.39707490588055855,0.6806008904268218,1.4423775434092923,3,left
8.883,0.05778941771386741,1.3219495470884899,-0.1013186756392959,-0.98494036972897,0.7015428369832076,-0.4899709015265408,-0.40260831820737647,0.6862963317499495,1.4592491742942748,3,left
8.884,0.055013714584764006,1.329656897531388,-0.10116898712496504,-1.0171586219409186,0.7495907190638085,-0.5078293154031689,-0.40826585172064894,0.6918972163785028,1.4764472090159222,3,left
8.888,0.05237994802147367,1.3372595113465084,-0.10096627100663035,-1.0507706248582458,0.799209466589445,-0.5262344997509574,-0.4140472984160561,0.6973928927549311,1.4939673263417321,3,left
8.889,0.04989574212267557,1.3447465667625635,-0.10070972307767763,-1.0857893240534333,0.8504114395638417,-0.54516953441071,-0.4199522814602893,0.7027726733357978,1.5118047447853489,3,left
8.892999999999999,0.0475686064808902,1.3521070673652582,-0.10039860661103948,-1.1222255225627733,0.9032079597210708,-0.5646170667960418,-0.42598025130121125,0.7080258467799536,1.5299542116540035,3,left
8.894,0.04540592666148221,1.3593298531179336,-0.10003225405362534,-1.1600878317537786,0.9576092403615383,-0.584559326363039,-0.4321304819660068,0.7131416901393131,1.5484099928423092,3,left
8.9,0.043414954926001066,1.3664036120787217,-0.09961006868060507,-1.199382625711265,1.0136243162328038,-0.6049781388307206,-0.43840206756428746,0.7181094810676659,1.5671658634236338,3,left
8.901,0.041602801181856476,1.3733168928275608,-0.09913152621092697,-1.2401139992467995,1.0712609736069285,-0.6258549402081318,-0.44479391901346516,0.7229185100625903,1.5862150990911839,3,left
8.902000000000001,0.03997642413768692,1.380058117618186,-0.09859617638803464,-1.2822837296402922,1.1305256807106494,-0.647170790685316,-0.45130476100406053,0.727558092755141,1.605550468501799,3,left
8.902999999999999,0.038542622641740985,1.3866155962694038,-0.09800364453051161,-1.3258912422266274,1.1914235186693156,-0.6689063884467858,-0.4579331292229604,0.7320175822615616,1.625164226576328,3,left
8.908999999999999,0.03730802717892313,1.392977540808225,-0.09735363305450548,-1.3709335799443463,1.2539581131301725,-0.6910420834674258,-0.46467736785298436,0.7362863816108113,1.6450481088112925,3,left
8.91,0.03627909150153524,1.3991320808774996,-0.09664592296308036,-1.4174053769675232,1.318131566735258,-0.7135578913520169,-0.47153562736745974,0.7403539562612134,1.665193326657365,3,left
8.913,0.03546208436987727,1.4050672799231099,-0.09588037529023728,-1.4652988365461015,1.3839443926188617,-0.736433507280785,-0.4785058626388445,0.744209846719013,1.6855905640209905,3,left
8.913,0.034863081380478916,1.4107711521787434,-0.0950569324825408,-1.5146037131840713,1.4513954491091963,-0.759648320124519,-0.4855858313807673,0.7478436812710839,1.7062299749462557,3,left
8.918,0.034487956859189255,1.4162316804675792,-0.09417561969971047,-1.5653072992889756,1.5204818758186347,-0.7831814267938941,-0.49277309294318294,0.7512451888434472,1.727101182534851,3,left
8.919,0.03434237579365577,1.421436834839462,-0.0932365460156302,-1.6173944164303047,1.591199031311577,-0.8070116468886755,-0.5000650074716444,0.7544042119969794,1.7481932791396186,3,left
8.92,0.03443178577854579,1.4263745920604354,-0.09223990550203182,-1.6708474113483947,1.6635404325437038,-0.8311175377134444,-0.5074587353969179,0.7573107200726673,1.7694948277524136,3,left
8.923,0.03476140894949451,1.4310329559691422,-0.09118597817875225,-1.7256461568594532,1.7374976962710778,-0.8554774097274066,-0.5149512371403182,0.7599548225010054,1.7909938642998668,3,left
8.924,0.03533623388519654,1.4353999787101095,-0.09007513081611561,-1.781768057806307,1.8130604826322305,-0.880069342496695,-0.5225392728753522,0.7623267822910539,1.812677900445829,3,left
8.927,0.03616100745809178,1.4394637828468697,-0.08890781757618217,-1.8391880621352066,1.8902164410607134,-0.9048712011983542,-0.530219402231637,0.7644170297123333,1.8345339266153182,3,left
8.927999999999999,0.03724022661506864,1.443212584351388,-0.08768458048173533,-1.8978786768169893,1.9689511584386439,-0.9298606536258498,-0.5379879839085057,0.766216176179069,1.8565484151631646,3,left
8.927999999999999,0.03857813007301831,1.4466347164628708,-0.08640604970517056,-1.957809987676095,2.0492481089535324,-0.9550151874664778,-0.545841175211073,0.767715028343902,1.8787073237265322,3,left
8.932,0.04017868991733614,1.4497186544045682,-0.08507294367135315,-2.0189496818287633,2.131088604873644,-0.9803121275215791,-0.553774931530816,0.7689046024070528,1.90099609882407,3,left
8.933,0.042045603092771305,1.4524530409355196,-0.08368606896630877,-2.0812630718012666,2.2144517477132837,-1.0057286526410725,-0.5617850057929789,0.7697761386460833,1.9233996797649082,3,left
8.937000000000001,0.04418228277785463,1.454826712696548,-0.08224632003718602,-2.144713121061211,2.2993143797167255,-1.0312418123244331,-0.5698669478933527,0.7703211161705473,1.9459025029311237,3,left
8.937999999999999,0.04659184963762655,1.456828727292337,-0.08075467866106682,-2.209260471064291,2.385651035845535,-1.0568285430407225,-0.5780161041472137,0.7705312679049247,1.9684885064976694,3,left
8.942,0.049277122952616034,1.4584483910365091,-0.07921221315540444,-2.2748634699954233,2.4734338965087095,-1.0824656843406362,-0.5862276167734202,0.7703985958023266,1.9911411356540976,3,left
8.943,0.05224061162432152,1.4596752872727872,-0.07762007730542883,-2.3414782033864565,2.562632741279368,-1.108129994833811,-0.5944964234368755,0.7699153862905183,2.013843348392684,3,left
8.947000000000001,0.055484505060136254,1.4604993051726454,-0.07597950899349064,-2.409058526795785,2.653214903845961,-1.133798168104847,-0.6028172568727577,0.7690742259508461,2.0365776219278025,3,left
8.947000000000001,0.05901066394459353,1.460910668899498,-0.07429182852507589,-2.477556100738243,2.745145228450107,-1.1594468486416416,-0.6111846446160928,0.7678680174296719,2.0593259598115856,3,left
8.953,0.0628206109087266,1.4608999670201475,-0.07255843664951019,-2.5469204280565365,2.8383860280672217,-1.1850526478497128,-0.6195929088604171,0.7662899955809107,2.0820698998110565,3,left
8.954,0.06691552111508481,1.4604581820337021,-0.0707808122723346,-2.617098893928257,2.9328970445901015,-1.2105921602261986,-0.628036166469417,0.764333743837238,2.104790522611996,3,left
8.957,0.07129621278298344,1.4595767198773084,-0.06896050985927038,-2.688036808705138,3.028635411279449,-1.2360419797671662,-0.6365083291655746,0.7619932108064901,2.1274684614148605,3,left
8.958,0.07596313768621095,1.458247439258966,-0.0670991565437678,-2.759677453783706,3.125555617749132,-1.2613787166817365,-0.6450031039199591,0.7592627270887073,2.1500839124880446,3,left
8.962,0.08091637166128916,1.456462680660599,-0.0651984489690257,-2.8319621307088196,3.22360947775757,-1.2865790144863427,-0.6535139935674049,0.7561370223081902,2.1726166467437156,3,left
8.964,0.08615560516700707,1.454215294849163,-0.06326014991373918,-2.904830213713749,3.322746100080194,-1.3116195675521845,-0.6620342976714052,0.7526112423538294,2.19504602240133,3,left
8.967,0.0916801339351853,1.4514986707313744,-0.061286084761829104,-2.9782192059024832,3.42291186274129,-1.3364771391786088,-0.670557113663107,0.7486809668198567,2.21735099880375,3,left
8.968,0.09748884974688367,1.448306762389844,-0.059278137876572226,-3.052064799281784,3.524050390886813,-1.3611285802647681,-0.6790753382788434,0.744342226638028,2.239510151450653,3,left
8.971,0.10358023135520088,1.4446341151428506,-0.05723824892779512,-3.126300938852184,3.6261025385828356,-1.3855508486514332,-0.6875816693206643,0.7395915218910956,2.261501688313615,3,left
8.972000000000001,0.1099523355567771,1.440475890473166,-0.05516840919857212,-3.2008598909686206,3.729006374827267,-1.4097210292043247,-0.6960686077643368,0.7344258397962757,2.283303467496903,3,left
8.976,0.11660278839514826,1.4358278896712802,-0.05307065787069964,-3.2756723161826984,3.8326971740652587,-1.4336163547097305,-0.7045284602392646,0.7288426728462378,2.3048930163075907,3,left
8.977,0.12352877646834934,1.4306865760350178,-0.05094707826322408,-3.3506673467796935,3.9371074115013265,-1.4572142276525144,-0.7129533419047539,0.7228400370939602,2.3262475517981107,3,left
8.982000000000001,0.1307270383190999,1.4250490954623654,-0.04879979397912943,-3.42577266922434,4.042166763503675,-1.4804922429459073,-0.7213351797469834,0.7164164905666095,2.347344002843844,3,left
8.982000000000001,0.13819385591509487,1.4189132952699037,-0.04663096490237703,-3.500914611730168,4.147802113398447,-1.5034282116816726,-0.7296657163209682,0.7095711517923984,2.368159033817705,3,left
8.986,0.14592504627602462,1.4122777410697158,-0.04444278298309365,-3.576018237167665,4.253937562953682,-1.5260001859683894,-0.7379365139555472,0.7023037183996965,2.388669069881272,3,left
8.987,0.15391595335392622,1.4051417315501815,-0.04223746775622614,-3.6510074415268736,4.360494449854665,-1.5481864849246767,-0.7461389594085318,0.6946144856290568,2.4088503237024965,3,left
8.987,0.16216144031317187,1.3975053110305065,-0.04001726155617795,-3.7258050581501174,4.46739137147391,-1.5699657218932026,-0.7542642689036204,0.6865043643862918,2.428678823033431,3,left
8.991,0.17065588241093768,1.3893692796783423,-0.037784424409269275,-3.800332967950449,4.57454421524057,-1.5913168329402716,-0.7623034934497406,0.6779748983461207,2.44813043837178,3,left
8.992,0.17939316077160603,1.380735201284059,-0.035541228603655835,-3.8745122158310736,4.681866195915157,-1.612219106704682,-0.7702475243740545,0.6690282797320977,2.467180910137901,3,left
8.996,0.18836665744224435,1.3716054084907512,-0.03328995295341814,-3.9482631333423694,4.789267900001994,-1.632652215606893,-0.7780870990550285,0.6596673636086466,2.4858058751736323,3,left
8.997,0.1975692521427466,1.3619830054024695,-0.03103287678638386,-4.021505466721876,4.896657337159876,-1.652596248170911,-0.7858128068724832,0.6498956806372238,2.503980892577038,3,left
8.998,0.20699332107103824,1.3518718675291979,-0.02877227369114556,-4.094158507858804,5.003939997801275,-1.6720317417466928,-0.7934150953974313,0.6397174482709134,2.52168146892773,3,left
9.0,0.21663073805506497,1.341276639067949,-0.02651040506765881,-4.16614122483294,5.11101891569801,-1.6909397146621161,-0.8008842768441986,0.6291375803605715,2.538883082956231,3,left
9.001,0.22647287830617416,1.3302027275656294,-0.024249513548582315,-4.237372389566793,5.2177947347838645,-1.709301697089569,-0.8082105348070058,0.6181616951444581,2.5555612097095284,3,left
9.005,0.23651062498998865,1.3186562960570525,-0.021991816388747046,-4.307770701730973,5.324165780015015,-1.7270997603740612,-0.8153839313028253,0.6067961215921245,2.5716913442636202,3,left
9.006,0.24673437875397802,1.3066442528102227,-0.019739498942387933,-4.377254908931337,5.430028132521155,-1.744316544825663,-0.8223944141419524,0.5950479040721809,2.587249025032413,3,left
9.01,0.2571340702572721,1.2941742388340898,-0.017494708352945386,-4.445743923382332,5.535275709353825,-1.760935286028976,-0.8292318246473137,0.582924805312421,2.6022098567208336,3,left
9.011000000000001,0.26769917567368673,1.2812546133105092,-0.015259547565346133,-4.513156935268617,5.639800348137308,-1.776939839720731,-0.8358859057431003,0.5704353076196721,2.616549532968439,3,left
9.015,0.2784187350928454,1.2678944371052034,-0.013036069735035013,-4.579413522994389,5.74349189692596,-1.7923147052849353,-0.8423463104328403,0.557588612325638,2.630243858728163,3,left
9.016,0.2892813737184379,1.2541034544982592,-0.010826273055479776,-4.644433760516986,5.846238309570118,-1.8070450479132731,-0.8486026106865333,0.5443946374239237,2.6432687724231263,3,left
9.021,0.30027532574635496,1.2398920732590455,-0.00863209596745642,-4.708138321958259,5.947925746890586,-1.821116719476708,-0.8546443067559388,0.5308640133623864,2.6556003679226574,3,left
9.022,0.3113884607906857,1.2252713431760573,-0.00645541266541395,-4.7704485836838835,6.048438683959376,-1.834516278152418,-0.8604608369365547,0.5170080769539263,2.6672149163768006,3,left
9.027000000000001,0.32260831270747303,1.2102529331403529,-0.004298028794253406,-4.831286724037212,6.147660023781587,-1.8472310068483524,-0.8660415877942368,0.5028388633678385,2.678088887946689,3,left
9.027000000000001,0.33392211064380717,1.19484910687402,-0.0021616772441834632,-4.890575820910516,6.245471217670301,-1.8592489304658042,-0.8713759048737929,0.4883690961628805,2.688198973466149,3,left
9.03,0.345316812115948,1.1790726973934582,-4.801400216315387e-05,-4.948239947332444,6.341752392603008,-1.8705588320384638,-0.8764531039062369,0.47361217532227656,2.6975221060678574,3,left
9.03,0.3567791378977828,1.1629370802993733,0.0020413859096931747,-5.004204265246307,6.436382485844324,-1.8811502677844558,-0.8812624825307122,0.4585821632499817,2.706035482805234,3,left
9.036,0.3682956084806921,1.146456145989517,0.004105032312042881,-5.058395117649347,6.529239387115734,-1.8910135811058586,-0.8857933325463867,0.4432937686866671,2.7137165862990624,3,left
9.037,0.37985258184657794,1.1296442708970298,0.006141523425472776,-5.110740119258477,6.6202000885886925,-1.9001399155681726,-0.8900349527088802,0.42776232850306417,2.720543206435579,3,left
9.039,0.3914362922790657,1.1125162878669865,0.008149548960595885,-5.16116824586311,6.709140842972662,-1.9085212268901455,-0.8939766620850179,0.41200378732752163,2.726493462140432,3,left
9.04,0.4030328899282124,1.0950874557943358,0.010127892612599996,-5.209609922520598,6.795937329964579,-1.9161502939722685,-0.897607813978903,0.3960346749638888,2.7315458232505327,3,left
9.045,0.4146284808413552,1.0773734286559622,0.01207543386594929,-5.255997110744492,6.880464831320788,-1.923020728990144,-0.9009178104414709,0.3798720815551426,2.7356791325033596,3,left
9.046,0.4262091671728156,1.059390224078593,0.01399114904890515,-5.300263394830352,6.962598414806674,-1.9291269865767855,-0.9038961173748239,0.3635336304475236,2.7388726276607676,3,left
9.05,0.4377610872879081,1.0411541915935534,0.015874111600074455,-5.342344067458114,7.04221312727308,-1.9344643721157544,-0.9065322802417566,0.3470374487093421,2.7411059637817643,3,left
9.05,0.4492704554855747,1.0226819807376646,0.017723491524784203,-5.382176214704131,7.119184197102055,-1.9390290491648567,-0.9088159403899568,0.33040213525806245,2.742359235656087,3,left
9.055,0.46072360108000604,1.0039905091640238,0.019538554039242914,-5.419698800589902,7.193387246257604,-1.9428180460279327,-0.9107368519994169,0.31364672654876785,2.742613000407707,3,left
9.056000000000001,0.4721070066051972,0.9850969309224914,0.02131865742822082,-5.454852751288265,7.2646985121698995,-1.9458292614900627,-0.9122848996422769,0.2967906598270238,2.7418483002640293,3,left
9.057,0.4834073449430917,0.9660186050493083,0.02306325016812081,-5.487581039101325,7.3329950796737995,-1.9480614697292982,-0.9134501163516779,0.27985373420059545,2.740046685430671,3,left
9.059,0.4946115152221745,0.9467730645708488,0.024771867384723815,-5.517828766317801,7.398155123214561,-1.9495143244157946,-0.914222701930211,0.26285607023743274,2.7371902369133485,3,left
9.06,0.5057066773604219,0.9273779860041476,0.026444126733245053,-5.545543249050642,7.460058159525362,-1.9501883620069984,-0.914593041135848,0.24581806904888517,2.733261589072404,3,left
9.065,0.5166802851182916,0.9078511594413534,0.028079723814871175,-5.570674101084267,7.51858531063112,-1.9500850042243014,-0.9145517214737721,0.2287603715650412,2.7282439517455956,3,left
9.066,0.5275201175172408,0.888210459309503,0.029678427260089735,-5.593173317430908,7.573619575317007,-1.9492065595893804,-0.9140895504863437,0.21170381825560838,2.7221211318672403,3,left
9.067,0.5382143084966609,0.8684738158774923,0.03124007360011708,-5.612995356707293,7.62504610411786,-1.9475562237072612,-0.9131975725239182,0.19466940929780052,2.714877554561777,3,left
9.07,0.5487513747016465,0.848659187559504,0.03276456203428091,-5.630097221112727,7.672752471167886,-1.9451380778759428,-0.911867084996378,0.17767826514227425,2.706498283697296,3,left
9.071,0.5591202412863481,0.828784534061092,0.03425184920463134,-5.644438533104855,7.71662893794714,-1.9419570857051693,-0.9100896541040301,0.16075158742816176,2.696969041881418,3,left
9.076,0.5693102655990905,0.8088677904183665,0.035701944095295195,-5.655981608442634,7.756568707023734,-1.9380190876136538,-0.9078571300452889,0.14391062019830922,2.6862762298786773,3,left
9.077,0.5793112586113826,0.7889268419749831,0.03711490316131439,-5.664691525581004,7.792468165587144,-1.9333307931768253,-0.9051616616973059,0.12717661136595615,2.6744069454253103,3,left
9.079,0.5891135039642549,0.7689795003286155,0.038490825760779196,-5.670536191458404,7.8242271188984605,-1.927899771315974,-0.9019957107644198,0.11057077438427522,2.6613490014140435,3,left
9.08,0.5987077745259077,0.7490434802661969,0.03982984992670002,-5.673486403710178,7.851749013772064,-1.921734438317495,-0.8983520653879963,0.09411425007043896,2.6470909434181324,3,left
9.083,0.6080853463835583,0.729136377696712,0.04113214847936897,-5.673515909332854,7.874941152191663,-1.9148440436687821,-0.894223853209902,0.07782806853618626,2.6316220665205354,3,left
9.084,0.6172380102273171,0.7092756485802911,0.042397925453318934,-5.670601459816007,7.89371489515171,-1.9072386536951818,-0.8896045538804983,0.06173311117723062,2.6149324314106797,3,left
9.088,0.6261580801204328,0.6894785888423233,0.04362741280184036,-5.664722862750126,7.9079858568030605,-1.8989291329803215,-0.884488011000673,0.045850072674279686,2.5970128797078362,3,left
9.09,0.6348383996844669,0.669762315251643,0.04482086734489507,-5.655863029910528,7.917674088969308,-1.8899271235500383,-0.8788684434860398,0.030199422958925654,2.5778550484666503,3,left
9.093,0.6432723457555131,0.6501437472322786,0.04597856793445667,-5.644008021808908,7.922704256087554,-1.8802450217980808,-0.8727404563400194,0.014801369098214138,2.557451383816856,3,left
9.094,0.6514538295846762,0.6306395895676784,0.047100812818268376,-5.629147088695568,7.923005800614422,-1.8698959531297412,-0.8660990508210917,-0.000324182947691791,2.5357951536856844,3,left
9.099,0.6593772956643904,0.6112663159444293,0.04818791718966037,-5.611272707986882,7.918513098924998,-1.8588937442975815,-0.8589396339880653,-0.01515766673966925,2.5128804595479095,3,left
9.1,0.6670377182702235,0.5920401532709396,0.049240210922332224,-5.590380618083906,7.909165607718993,-1.8472528934014691,-0.851258027605747,-0.029679893989806392,2.4887022471449063,3,left
9.104,0.6744305958239906,0.5729770666983718,0.05025803650727088,-5.5664698485394055,7.894908000934844,-1.834988537523224,-0.8430504763919261,-0.043872093450996075,2.463256316110492,3,left
9.105,0.6815519432095017,0.5540927452690462,0.05124174722934684,-5.539542746521964,7.875690297158734,-1.8221164179642952,-0.834313655585094,-0.0577159501085236,2.4365393284377164,3,left
9.107999999999999,0.6883982822010543,0.5354025881231713,0.052191705633213493,-5.509604999517155,7.851467977501537,-1.8086528430530677,-0.8250446778108248,-0.07119364471532667,2.4085488157171335,3,left
9.107999999999999,0.6949666301888833,0.5169216912074079,0.053108282325041486,-5.476665654197071,7.822202093902652,-1.7946146484865924,-0.8152410992232333,-0.08428789371165851,2.379283185073441,3,left
9.113,0.7012544874005591,0.4986648344452906,0.05399185514016529,-5.4407371313809,7.787859367805383,-1.7800191551698015,-0.8049009248964029,-0.09698198956888542,2.3487417237237436,3,left
9.113999999999999,0.7072598228234396,0.4806464693456614,0.05484280868250042,-5.4018352370005305,7.7484122791342305,-1.7648841245135678,-0.7940226134391531,-0.10925984159609949,2.3169246020770164,3,left
9.117,0.7129810590350572,0.4628807070369694,0.05566153421509607,-5.359979168976613,7.703839145489936,-1.7492277111513141,-0.7826050808049784,-0.12110601724712672,2.2838328752907033,3,left
9.118,0.7184170561489625,0.4453813067201858,0.05644842986084934,-5.315191519901887,7.6541241914635645,-1.733068413032287,-0.770647703267449,-0.1325057839643626,2.2494684831967056,3,left
9.122,0.7235670950826509,0.4281616645329189,0.057203901067277116,-5.26749827542006,7.599257607956259,-1.7164250188480499,-0.7581503195298247,-0.14344515159467316,2.2138342485053664,3,left
9.124,0.7284308603475749,0.4112348028154719,0.05792836129907383,-5.2169288081800484,7.539235601376584,-1.6993165527472611,-0.7451132319548971,-0.1539109153427109,2.176933873241049,3,left
9.126,0.7330084225409101,0.3946133597659418,0.05862223293679646,-5.163515867236979,7.474060432572613,-1.6817622162923587,-0.7315372069936386,-0.16389069888246824,2.138771933602568,3,left
9.128,0.7373002206850802,0.37830957946663635,0.05928594836917443,-5.107295562762991,7.40374044534115,-1.6637813276103732,-0.7174234750590679,-0.17337299662872557,2.0993538738760313,3,left
9.128,0.7413070445329661,0.36233530226521515,0.05991995126625132,-5.048307345922643,7.328290084341651,-1.6453932576887713,-0.7027737301843027,-0.1823472138254452,2.05868600026733,3,left
9.134,0.7450300169460534,0.3467019555060523,0.060524698014175045,-4.9865939837595725,7.247729902227642,-1.6266173637659371,-0.6875901297081106,-0.1908037034500155,2.016775475274572,3,left
9.136000000000001,0.7484705764441547,0.33142054462480813,0.06110065928708363,-4.922201528932964,7.162086555793632,-1.607472919764678,-0.6718752940603471,-0.19873379954866674,1.9736303127792145,3,left
9.136000000000001,0.7516304600053397,0.3165016446323605,0.061648321730959035,-4.8551792841338495,7.071392791032307,-1.5879790438526409,-0.6556323066240178,-0.20612984696016853,1.9292593737877355,3,left
9.137,0.7545116861711597,0.30195539201670574,0.0621681897379451,-4.785579761000243,6.975687417539348,-1.5681546238957367,-0.638864713630355,-0.21298522745208387,1.88367236270347,3,left
9.138,0.7571165384969968,0.2877914770851334,0.06266078729513144,-4.713458633336746,6.875015273691807,-1.5480182427996043,-0.6215765240417674,-0.21929438229234408,1.8368798240046809,3,left
9.145,0.7594475493857872,0.27401913676668915,0.06312665989497357,-4.638874684433542,6.769427184568708,-1.527588106416469,-0.603772209376012,-0.22505283127737744,1.7888931392014222,3,left
9.147,0.7615074843547015,0.26064714790526794,0.06356637649229421,-4.561889748275462,6.65897991401092,-1.5068819760104737,-0.5854567034234255,-0.230257188236473,1.7397245239402566,3,left
9.148,0.7632993268009531,0.2476838210879361,0.06398053148685681,-4.482568644430265,6.543736111199936,-1.4859171060436709,-0.5666354018075629,-0.23490517303049502,1.68938702512243,3,left
9.148,0.7648262633458413,0.23513699506018573,0.06436974670414577,-4.400979106401382,6.423764251563823,-1.464710187360688,-0.5473141613381047,-0.23899562006148223,1.6378945178976783,3,left
9.152000000000001,0.7660916698406397,0.22301403178035517,0.0647346733414505,-4.317191703224094,6.299138571693186,-1.4432772957126203,-0.5274992991034302,-0.2425284833080789,1.5852617023924402,3,left
9.152999999999999,0.7670990981123033,0.21132181216336018,0.06507599384011382,-4.23127975407743,6.169938997936232,-1.421633845559961,-0.5071975912487996,-0.24550483790014663,1.531504100027909,3,left
9.157,0.7678522635111421,0.20006673255938284,0.06539442363618728,-4.143319235677551,6.0362510683284425,-1.3997945490936816,-0.4864162713846553,-0.24792687824430804,1.4766380492800206,3,left
9.158,0.7683550332988475,0.18925470200643293,0.06569071273302575,-4.053388682212085,5.898165847499028,-1.3777733804129229,-0.465163028568133,-0.2497979127105738,1.4206807007302196,3,left
9.161,0.7686114158877333,0.17889114028821623,0.06596564703476594,-3.9615690775687504,5.755779834183153,-1.3555835447971538,-0.44344600479947693,-0.2511223548886079,1.3636500112526009,3,left
9.161,0.7686255509149151,0.1689809768213399,0.06622004938071639,-3.867943739605781,5.609194860956129,-1.3332374530100928,-0.42127379197367726,-0.2519057114205954,1.305564737179854,3,left
9.167,0.76840170011006,0.1595286503898001,0.06645478022779644,-3.7725981962059603,5.458517985793049,-1.3107467005721518,-0.39865542822629196,-0.25215456641609846,1.2464444262872936,3,left
9.167,0.7679442388919487,0.15053810974154977,0.06667073794203275,-3.6756200528506744,5.303861375045098,-1.2881220519376932,-0.3756003936110839,-0.251876562452716,1.1863094084311856,3,left
9.172,0.7672576486074403,0.14201281506076754,0.06686885867973705,-3.577098851445217,5.145342177411627,-1.2653734295129218,-0.3521186050457981,-0.2510803781648127,1.125180784674545,3,left
9.173,0.7663465093080369,0.13395574032737487,0.0670501158606975,-3.477125920121618,4.983082388475402,-1.2425099074498298,-0.32822041046112393,-0.24977570242104774,1.0630804147306145,3,left
9.176,0.7652154929466914,0.12636937657066266,0.0672155192551344,-3.3757942137406114,4.8172087053569825,-1.2195397101512233,-0.3039165820866311,-0.24797320508992374,1.0000309025513177,3,left
9.177,0.7638693568726613,0.11925573601630647,0.0673661137207117,-3.273198144809901,4.64785237103312,-1.1964702154214921,-0.2792183088062456,-0.24568450439108958,0.9360555798851239,3,left
9.181000000000001,0.7623129375043872,0.11261635711574858,0.06750297763515337,-3.1694334045317376,4.475149007853303,-1.1733079621974676,-0.25413718751463643,-0.24292213082867237,0.8711784876259804,3,left
9.182,0.7605511440678333,0.10645231043461838,0.06762722107482379,-3.0645967736889075,4.299238439778238,-1.1500586627933918,-0.22868521340471692,-0.2396994877014846,0.8054243547722346,3,left
9.187000000000001,0.7585889523006257,0.10076420536425502,0.067739983791722,-2.958785923074602,4.120264502854028,-1.1267272195937423,-0.20287476911533575,-0.23603080818355923,0.738818574811816,3,left
9.187999999999999,0.7564313980414509,0.09555219760993894,0.0678424330415374,-2.852099203168303,3.9383748434262373,-1.1033177461273855,-0.1767186126671315,-0.23193110896710611,0.6713871793473536,3,left
9.191,0.7540835706476084,0.09081599740292594,0.06793576131245226,-2.744635422756713,3.7537207035887805,-1.0798335924562785,-0.15022986411346045,-0.22741614045866235,0.6031568087723937,3,left
9.191,0.7515506062064918,0.08655487838095559,0.0680211839973002,-2.6364936161959798,3.5664566933538433,-1.056277374811706,-0.1234219908322788,-0.2225023335179299,0.5341546798074304,3,left
9.192,0.7488376805242507,0.08276768708325857,0.06809993704152109,-2.527772799008949,3.3767405490206093,-1.0326510094108081,-0.09630879142612414,-0.2172067428160594,0.46440854981887836,3,left
9.195,0.745950001884849,0.07945285301177629,0.06817327458799213,-2.4185717115089376,3.184732877212683,-1.008955750385941,-0.06890437840766664,-0.21154698733146163,0.3939466784257563,3,left
9.195,0.742892803576323,0.07660839921899998,0.06824246662969337,-2.308988550139585,2.990596884046584,-0.9851922317592055,-0.04122316022768939,-0.20554118929660614,0.3227977879476966,3,left
9.201,0.7396713361818725,0.0742319533894621,0.06830879667454794,-2.199120686740107,2.7944980893768583,-0.9613605133126106,-0.013279823412761868,-0.1992079133506851,0.2509910248296936,3,left
9.202,0.7362908596344246,0.07232075938420282,0.06837355942377724,-2.089064378551142,2.596604028507838,-0.9374601297958327,0.014910684632246509,-0.19256610720946274,0.1785559235930181,3,left
9.202,0.7327566350349047,0.0708716892187587,0.06843805846420595,-1.9789144764682813,2.3970839481678383,-0.9134901421783732,0.04333317198276502,-0.18563504436611192,0.10552237380868187,3,left
9.205,0.7290739162372294,0.06988125544598116,0.0685036039752489,-1.8687641416567942,2.1961085059870142,-0.8894491892444161,0.071972217752218,-0.17843426889338831,0.031920590004020435,3,left
9.205,0.725247941208994,0.06934562391281789,0.0685715104524608,-1.7587045780332748,1.9938494802638795,-0.8653355382367912,0.10081218692977,-0.17098354232810337,-0.042218915705628676,3,left
9.21,0.7212839231869128,0.06926062685679481,0.06864309445030566,-1.6488247834266634,1.790479492388946,-0.8411471339912112,0.1298372445797367,-0.16330279261802652,-0.11686535846989285,3,left
9.211,0.7171870416599236,0.06962177630637176,0.0687196723450824,-1.5392113196238426,1.5861717418387187,-0.8168816464100537,0.15903136948490043,-0.1554120651105742,-0.19198770325234907,3,left
