time,gFx,gFy,gFz,ax,ay,az,wx,wy,wz
0.056,0.1479,1.0012,0.0951,0,0,0,0,0,0
0.095,0.1234,1.0202,0.0756,0,0,0,0,0,0
0.162,0.1223,0.9933,0.0784,0,0,0,0,0,0
0.163,0.1496,0.9993,0.0864,0,0,0,0,0,0
0.163,0.1118,0.9702,0.1066,0,0,0,0,0,0
0.169,0.1118,0.9702,0.1066,0,0,0,-0.0199,-0.047,0.027
0.17,0.1473,0.9978,0.0977,0,0,0,-0.0199,-0.047,0.027
0.17,0.1473,0.9978,0.0977,0,0,0,-0.0199,-0.047,0.027
0.229,0.1207,0.9864,0.1087,0,0,0,-0.0199,-0.047,0.027
0.23,0.1524,0.9692,0.1018,0,0,0,-0.0199,-0.047,0.027
0.23,0.1524,0.9692,0.1018,0,0,0,-0.0181,-0.0219,0.0179
0.231,0.1573,0.9763,0.1145,0,0,0,-0.0181,-0.0219,0.0179
0.231,0.1573,0.9763,0.1145,0.0743,-0.1469,0.0775,-0.0181,-0.0219,0.0179
0.294,0.1357,0.986,0.0968,0.0743,-0.1469,0.0775,-0.0181,-0.0219,0.0179
0.295,0.1405,1.0073,0.0814,0.0743,-0.1469,0.0775,-0.0181,-0.0219,0.0179
0.296,0.1296,0.9883,0.1034,0.0743,-0.1469,0.0775,-0.0181,-0.0219,0.0179
0.307,0.1296,0.9883,0.1034,0.0743,-0.1469,0.0775,-0.0254,-0.0383,0.0036
0.308,0.1296,0.9883,0.1034,0.1071,-0.1622,0.13,-0.0254,-0.0383,0.0036
0.308,0.1127,0.9846,0.1165,0.1071,-0.1622,0.13,-0.0254,-0.0383,0.0036
0.362,0.1286,0.9811,0.1149,0.1071,-0.1622,0.13,-0.0254,-0.0383,0.0036
0.363,0.1785,0.9827,0.094,0.1071,-0.1622,0.13,-0.0254,-0.0383,0.0036
0.364,0.2124,0.9673,0.0745,0.1071,-0.1622,0.13,-0.0254,-0.0383,0.0036
0.365,0.2124,0.9673,0.0745,0.1071,-0.1622,0.13,-0.045,-0.1406,-0.0259
0.365,0.2124,0.9673,0.0745,-0.0471,0.0068,0.0219,-0.045,-0.1406,-0.0259
0.429,0.173,1.0154,0.0785,-0.0471,0.0068,0.0219,-0.045,-0.1406,-0.0259
0.43,0.15,0.9994,0.0868,-0.0471,0.0068,0.0219,-0.045,-0.1406,-0.0259
0.43,0.1763,0.993,0.0884,-0.0471,0.0068,0.0219,-0.045,-0.1406,-0.0259
0.445,0.1763,0.993,0.0884,0.396,-0.0921,-0.0762,-0.045,-0.1406,-0.0259
0.446,0.1598,0.9855,0.1111,0.396,-0.0921,-0.0762,-0.045,-0.1406,-0.0259
0.446,0.1598,0.9855,0.1111,0.396,-0.0921,-0.0762,-0.1078,-0.161,-0.1467
0.482,0.1507,0.9788,0.1167,0.396,-0.0921,-0.0762,-0.1078,-0.161,-0.1467
0.483,0.143,1.0001,0.1204,0.396,-0.0921,-0.0762,-0.1078,-0.161,-0.1467
0.502,0.1292,0.9789,0.1269,0.396,-0.0921,-0.0762,-0.1078,-0.161,-0.1467
0.503,0.1292,0.9789,0.1269,0.396,-0.0921,-0.0762,-0.1232,-0.1034,-0.2359
0.504,0.1292,0.9789,0.1269,0.38,0.0271,-0.1313,-0.1232,-0.1034,-0.2359
0.561,0.1327,0.9933,0.1148,0.38,0.0271,-0.1313,-0.1232,-0.1034,-0.2359
0.562,0.0978,0.9813,0.1325,0.38,0.0271,-0.1313,-0.1232,-0.1034,-0.2359
0.563,0.0966,0.9981,0.1235,0.38,0.0271,-0.1313,-0.1232,-0.1034,-0.2359
0.581,0.0966,0.9981,0.1235,0.38,0.0271,-0.1313,-0.0895,0.0142,-0.265
0.582,0.0925,0.9938,0.1337,0.38,0.0271,-0.1313,-0.0895,0.0142,-0.265
0.583,0.0925,0.9938,0.1337,0.2965,-0.0589,0.0741,-0.0895,0.0142,-0.265
0.628,0.0716,1.0031,0.1379,0.2965,-0.0589,0.0741,-0.0895,0.0142,-0.265
0.629,0.0862,0.9935,0.1354,0.2965,-0.0589,0.0741,-0.0895,0.0142,-0.265
0.639,0.0888,0.9927,0.1503,0.2965,-0.0589,0.0741,-0.0895,0.0142,-0.265
0.639,0.0888,0.9927,0.1503,0.0409,-0.0395,0.0887,-0.0895,0.0142,-0.265
0.64,0.0888,0.9927,0.1503,0.0409,-0.0395,0.0887,-0.0528,0.0819,-0.2573
0.697,0.0495,1.0053,0.1528,0.0409,-0.0395,0.0887,-0.0528,0.0819,-0.2573
0.698,0.0585,0.981,0.1331,0.0409,-0.0395,0.0887,-0.0528,0.0819,-0.2573
0.717,0.0585,0.981,0.1331,0.0418,-0.0011,0.1732,-0.0528,0.0819,-0.2573
0.717,0.0652,0.9934,0.1282,0.0418,-0.0011,0.1732,-0.0528,0.0819,-0.2573
0.718,0.038,0.9835,0.1418,0.0418,-0.0011,0.1732,-0.0528,0.0819,-0.2573
0.719,0.038,0.9835,0.1418,0.0418,-0.0011,0.1732,-0.026,0.169,-0.2324
0.762,0.0049,1.0027,0.1562,0.0418,-0.0011,0.1732,-0.026,0.169,-0.2324
0.763,0.0071,0.9791,0.1228,0.0418,-0.0011,0.1732,-0.026,0.169,-0.2324
0.776,0.0035,1.0103,0.1068,0.0418,-0.0011,0.1732,-0.026,0.169,-0.2324
0.777,0.0035,1.0103,0.1068,0.0418,-0.0011,0.1732,-0.0195,0.1771,-0.1512
0.779,0.0035,1.0103,0.1068,-0.1507,-0.0489,0.1156,-0.0195,0.1771,-0.1512
0.83,0.0026,0.9805,0.127,-0.1507,-0.0489,0.1156,-0.0195,0.1771,-0.1512
0.831,0.0584,0.9559,0.1269,-0.1507,-0.0489,0.1156,-0.0195,0.1771,-0.1512
0.854,0.0584,0.9559,0.1269,-0.4878,-0.0123,-0.0172,-0.0195,0.1771,-0.1512
0.855,-0.0088,1.0001,0.1694,-0.4878,-0.0123,-0.0172,-0.0195,0.1771,-0.1512
0.857,-0.0352,1.0175,0.1586,-0.4878,-0.0123,-0.0172,-0.0195,0.1771,-0.1512
0.858,-0.0352,1.0175,0.1586,-0.4878,-0.0123,-0.0172,-0.0239,0.1926,-0.0807
0.894,0.023,0.9993,0.1177,-0.4878,-0.0123,-0.0172,-0.0239,0.1926,-0.0807
0.896,-0.0015,0.9984,0.1354,-0.4878,-0.0123,-0.0172,-0.0239,0.1926,-0.0807
0.912,-0.0015,0.9984,0.1354,-0.3938,-0.0517,0.1792,-0.0239,0.1926,-0.0807
0.913,-0.0015,0.9984,0.1354,-0.3938,-0.0517,0.1792,0.007,0.1205,-0.0018
0.913,-0.0553,1.0163,0.157,-0.3938,-0.0517,0.1792,0.007,0.1205,-0.0018
0.962,-0.0641,0.9996,0.1581,-0.3938,-0.0517,0.1792,0.007,0.1205,-0.0018
0.963,-0.0442,1.0072,0.1142,-0.3938,-0.0517,0.1792,0.007,0.1205,-0.0018
0.991,-0.0442,1.0072,0.1142,-0.3938,-0.0517,0.1792,0.0281,-0.0272,0.1361
0.992,0.069,0.9943,0.1046,-0.3938,-0.0517,0.1792,0.0281,-0.0272,0.1361
0.993,0.0287,0.9961,0.1418,-0.3938,-0.0517,0.1792,0.0281,-0.0272,0.1361
0.993,0.0287,0.9961,0.1418,-0.6916,0.0961,0.1325,0.0281,-0.0272,0.1361
1.029,-0.0028,0.9722,0.1601,-0.6916,0.0961,0.1325,0.0281,-0.0272,0.1361
1.049,-0.0028,0.9722,0.1601,-0.5272,0.0199,-0.0619,0.0281,-0.0272,0.1361
1.05,0.0671,0.9943,0.1464,-0.5272,0.0199,-0.0619,0.0281,-0.0272,0.1361
1.05,0.0917,1.0049,0.1077,-0.5272,0.0199,-0.0619,0.0281,-0.0272,0.1361
1.051,0.0917,1.0049,0.1077,-0.5272,0.0199,-0.0619,0.0159,-0.0052,0.2074
1.094,0.075,0.9883,0.1005,-0.5272,0.0199,-0.0619,0.0159,-0.0052,0.2074
1.095,0.0204,0.9941,0.1299,-0.5272,0.0199,-0.0619,0.0159,-0.0052,0.2074
1.127,-0.0114,0.9984,0.1318,-0.5272,0.0199,-0.0619,0.0159,-0.0052,0.2074
1.128,-0.0114,0.9984,0.1318,-0.1726,-0.0329,0.023,0.0159,-0.0052,0.2074
1.128,0.0221,0.9775,0.1081,-0.1726,-0.0329,0.023,0.0159,-0.0052,0.2074
1.129,0.0221,0.9775,0.1081,-0.1726,-0.0329,0.023,0.0004,0.0369,0.2497
1.162,0.0633,1.0089,0.1163,-0.1726,-0.0329,0.023,0.0004,0.0369,0.2497
1.186,0.0633,1.0089,0.1163,-0.1726,-0.0329,0.023,0.0224,0.0524,0.4282
1.187,0.0548,0.989,0.1186,-0.1726,-0.0329,0.023,0.0224,0.0524,0.4282
1.188,-0.0086,1.0182,0.1822,-0.1726,-0.0329,0.023,0.0224,0.0524,0.4282
1.188,-0.0086,1.0182,0.1822,-0.7552,-0.0169,-0.0518,0.0224,0.0524,0.4282
1.229,-0.0537,1.0098,0.2104,-0.7552,-0.0169,-0.0518,0.0224,0.0524,0.4282
1.23,0.03,0.9963,0.1881,-0.7552,-0.0169,-0.0518,0.0224,0.0524,0.4282
1.263,0.03,0.9963,0.1881,-0.7552,-0.0169,-0.0518,0.1233,-0.205,0.6176
1.264,0.0738,0.9395,0.1694,-0.7552,-0.0169,-0.0518,0.1233,-0.205,0.6176
1.265,0.1609,0.9408,0.1441,-0.7552,-0.0169,-0.0518,0.1233,-0.205,0.6176
1.266,0.1609,0.9408,0.1441,-0.9956,0.1649,0.2737,0.1233,-0.205,0.6176
1.294,0.1701,0.9491,0.1527,-0.9956,0.1649,0.2737,0.1233,-0.205,0.6176
1.324,0.1701,0.9491,0.1527,-0.9158,-0.1584,0.6225,0.1233,-0.205,0.6176
1.325,0.1701,0.9491,0.1527,-0.9158,-0.1584,0.6225,0.2081,-0.3431,0.6755
1.326,0.0866,0.9652,0.173,-0.9158,-0.1584,0.6225,0.2081,-0.3431,0.6755
1.326,0.1099,0.9522,0.1837,-0.9158,-0.1584,0.6225,0.2081,-0.3431,0.6755
1.362,0.2222,0.9818,0.1717,-0.9158,-0.1584,0.6225,0.2081,-0.3431,0.6755
1.363,0.2019,0.972,0.1584,-0.9158,-0.1584,0.6225,0.2081,-0.3431,0.6755
1.401,0.2019,0.972,0.1584,-0.9158,-0.1584,0.6225,0.3151,-0.3806,0.6162
1.402,0.1681,1.036,0.0756,-0.9158,-0.1584,0.6225,0.3151,-0.3806,0.6162
1.403,0.1681,1.036,0.0756,-0.6811,-0.1977,0.765,0.3151,-0.3806,0.6162
1.403,0.2698,0.9646,-0.019,-0.6811,-0.1977,0.765,0.3151,-0.3806,0.6162
1.429,0.2179,0.9383,0.0248,-0.6811,-0.1977,0.765,0.3151,-0.3806,0.6162
1.46,0.2179,0.9383,0.0248,-0.2283,0.2415,0.2345,0.3151,-0.3806,0.6162
1.461,0.2179,0.9383,0.0248,-0.2283,0.2415,0.2345,0.3123,-0.3209,0.6073
1.461,0.2833,0.9173,0.0734,-0.2283,0.2415,0.2345,0.3123,-0.3209,0.6073
1.462,0.3909,0.8615,0.0812,-0.2283,0.2415,0.2345,0.3123,-0.3209,0.6073
1.482,0.4357,0.8578,0.0228,-0.2283,0.2415,0.2345,0.3123,-0.3209,0.6073
1.539,0.4357,0.8578,0.0228,-0.2283,0.2415,0.2345,0.1929,-0.3296,0.4422
1.54,0.3568,0.9329,0.0119,-0.2283,0.2415,0.2345,0.1929,-0.3296,0.4422
1.54,0.287,0.9424,0.0433,-0.2283,0.2415,0.2345,0.1929,-0.3296,0.4422
1.541,0.287,0.9424,0.0433,0.4275,-0.5837,0.0972,0.1929,-0.3296,0.4422
1.542,0.3121,0.9571,0.0193,0.4275,-0.5837,0.0972,0.1929,-0.3296,0.4422
1.561,0.1728,1.0153,0.0268,0.4275,-0.5837,0.0972,0.1929,-0.3296,0.4422
1.596,0.1728,1.0153,0.0268,0.2546,-0.1758,-0.0639,0.1929,-0.3296,0.4422
1.597,0.1728,1.0153,0.0268,0.2546,-0.1758,-0.0639,0.1512,-0.3881,0.4713
1.598,0.2095,1.0346,0.0128,0.2546,-0.1758,-0.0639,0.1512,-0.3881,0.4713
1.599,0.3877,0.9436,-0.0518,0.2546,-0.1758,-0.0639,0.1512,-0.3881,0.4713
1.628,0.5202,0.9316,-0.1334,0.2546,-0.1758,-0.0639,0.1512,-0.3881,0.4713
1.674,0.5202,0.9316,-0.1334,0.2546,-0.1758,-0.0639,0.047,-0.1542,0.4061
1.675,0.2731,1.0021,-0.0924,0.2546,-0.1758,-0.0639,0.047,-0.1542,0.4061
1.676,0.2877,0.981,-0.0432,0.2546,-0.1758,-0.0639,0.047,-0.1542,0.4061
1.676,0.355,0.9661,-0.0495,0.2546,-0.1758,-0.0639,0.047,-0.1542,0.4061
1.677,0.355,0.9661,-0.0495,-0.3566,0.4303,-0.4303,0.047,-0.1542,0.4061
1.694,0.4598,0.9691,-0.0596,-0.3566,0.4303,-0.4303,0.047,-0.1542,0.4061
1.733,0.4598,0.9691,-0.0596,-0.0651,0.3607,-0.8911,0.047,-0.1542,0.4061
1.734,0.4598,0.9691,-0.0596,-0.0651,0.3607,-0.8911,-0.0539,-0.0043,0.1247
1.735,0.593,0.9433,-0.0637,-0.0651,0.3607,-0.8911,-0.0539,-0.0043,0.1247
1.736,0.6734,1.0202,0.0053,-0.0651,0.3607,-0.8911,-0.0539,-0.0043,0.1247
1.761,0.6442,1.0616,-0.0375,-0.0651,0.3607,-0.8911,-0.0539,-0.0043,0.1247
1.812,0.8108,1.0716,-0.1117,-0.0651,0.3607,-0.8911,-0.0539,-0.0043,0.1247
1.814,0.7235,1.1893,-0.173,-0.0651,0.3607,-0.8911,-0.0539,-0.0043,0.1247
1.815,0.7005,1.2395,-0.2278,-0.0651,0.3607,-0.8911,-0.0539,-0.0043,0.1247
1.816,0.7005,1.2395,-0.2278,-0.0651,0.3607,-0.8911,-0.1347,0.7186,-0.8448
1.816,0.7005,1.2395,-0.2278,2.7291,0.2679,-0.7544,-0.1347,0.7186,-0.8448
1.871,0.7005,1.2395,-0.2278,2.7291,0.2679,-0.7544,0.0255,2.2767,-1.7976
1.872,0.603,1.3566,-0.2415,2.7291,0.2679,-0.7544,0.0255,2.2767,-1.7976
1.873,0.3155,1.4427,-0.0829,2.7291,0.2679,-0.7544,0.0255,2.2767,-1.7976
1.873,0.0503,1.3992,0.0321,2.7291,0.2679,-0.7544,0.0255,2.2767,-1.7976
1.874,0.0503,1.3992,0.0321,5.4208,1.5605,-2.1636,0.0255,2.2767,-1.7976
1.894,-0.3682,0.8937,0.109,5.4208,1.5605,-2.1636,0.0255,2.2767,-1.7976
1.95,-0.8021,0.7308,0.0078,5.4208,1.5605,-2.1636,0.0255,2.2767,-1.7976
1.951,-0.3584,0.6257,-0.3026,5.4208,1.5605,-2.1636,0.0255,2.2767,-1.7976
1.951,-0.3584,0.6257,-0.3026,5.4208,1.5605,-2.1636,0.0302,0.5556,-0.0989
1.952,0.6884,1.0305,-0.1791,5.4208,1.5605,-2.1636,0.0302,0.5556,-0.0989
1.953,0.6884,1.0305,-0.1791,0.7366,3.3624,-1.3027,0.0302,0.5556,-0.0989
2.006,0.6884,1.0305,-0.1791,-6.6112,-1.1717,-1.5417,0.0302,0.5556,-0.0989
2.007,0.6884,1.0305,-0.1791,-6.6112,-1.1717,-1.5417,-0.1373,-1.3625,4.4172
2.008,0.6678,1.0958,0.3062,-6.6112,-1.1717,-1.5417,-0.1373,-1.3625,4.4172
2.008,0.1819,1.0816,0.4502,-6.6112,-1.1717,-1.5417,-0.1373,-1.3625,4.4172
2.009,0.2609,0.9351,0.0718,-6.6112,-1.1717,-1.5417,-0.1373,-1.3625,4.4172
2.028,0.2283,0.8157,-0.2297,-6.6112,-1.1717,-1.5417,-0.1373,-1.3625,4.4172
2.084,0.2283,0.8157,-0.2297,-6.6112,-1.1717,-1.5417,0.1823,-1.4459,4.5697
2.085,0.2283,0.8157,-0.2297,-3.4341,2.7247,2.2746,0.1823,-1.4459,4.5697
2.085,0.32,0.7557,-0.3014,-3.4341,2.7247,2.2746,0.1823,-1.4459,4.5697
2.086,0.335,0.8251,-0.2647,-3.4341,2.7247,2.2746,0.1823,-1.4459,4.5697
2.087,0.1715,0.8918,-0.2211,-3.4341,2.7247,2.2746,0.1823,-1.4459,4.5697
2.143,0.1715,0.8918,-0.2211,-3.4341,2.7247,2.2746,0.2648,0.6172,3.1347
2.144,0.064,0.9479,-0.1627,-3.4341,2.7247,2.2746,0.2648,0.6172,3.1347
2.145,0.0481,0.7739,-0.0595,-3.4341,2.7247,2.2746,0.2648,0.6172,3.1347
2.145,-0.0094,0.5744,0.037,-3.4341,2.7247,2.2746,0.2648,0.6172,3.1347
2.146,-0.0094,0.5744,0.037,-5.3704,2.4247,-2.4933,0.2648,0.6172,3.1347
2.222,-0.0094,0.5744,0.037,-7.6737,2.194,-0.0097,0.2648,0.6172,3.1347
2.223,0.1712,0.6926,0.0469,-7.6737,2.194,-0.0097,0.2648,0.6172,3.1347
2.224,0.1712,0.6926,0.0469,-7.6737,2.194,-0.0097,0.4757,-0.3137,0.889
2.224,0.3917,0.5945,0.0299,-7.6737,2.194,-0.0097,0.4757,-0.3137,0.889
2.226,0.547,0.472,-0.0181,-7.6737,2.194,-0.0097,0.4757,-0.3137,0.889
2.227,0.7441,0.4174,-0.0739,-7.6737,2.194,-0.0097,0.4757,-0.3137,0.889
2.28,0.7441,0.4174,-0.0739,-1.9362,-1.2768,0.818,0.4757,-0.3137,0.889
2.281,0.7441,0.4174,-0.0739,-1.9362,-1.2768,0.818,1.1665,-0.1223,-2.5688
2.282,0.8934,0.4092,-0.0562,-1.9362,-1.2768,0.818,1.1665,-0.1223,-2.5688
2.283,0.9104,0.541,0.0265,-1.9362,-1.2768,0.818,1.1665,-0.1223,-2.5688
2.283,0.6827,0.7258,0.1231,-1.9362,-1.2768,0.818,1.1665,-0.1223,-2.5688
2.358,0.6827,0.7258,0.1231,3.291,-2.5135,2.2192,1.1665,-0.1223,-2.5688
2.36,0.4464,0.7477,0.123,3.291,-2.5135,2.2192,1.1665,-0.1223,-2.5688
2.361,0.5006,0.6501,-0.0187,3.291,-2.5135,2.2192,1.1665,-0.1223,-2.5688
2.361,0.7813,0.5605,-0.1569,3.291,-2.5135,2.2192,1.1665,-0.1223,-2.5688
2.362,0.7813,0.5605,-0.1569,3.291,-2.5135,2.2192,1.0951,-0.8827,-5.2003
2.363,0.8023,0.5273,-0.034,3.291,-2.5135,2.2192,1.0951,-0.8827,-5.2003
2.417,0.8023,0.5273,-0.034,5.2749,-3.2301,1.5827,1.0951,-0.8827,-5.2003
2.418,0.8362,0.7353,0.1099,5.2749,-3.2301,1.5827,1.0951,-0.8827,-5.2003
2.418,1.0176,1.081,0.1577,5.2749,-3.2301,1.5827,1.0951,-0.8827,-5.2003
2.419,1.2973,1.2187,0.0169,5.2749,-3.2301,1.5827,1.0951,-0.8827,-5.2003
2.42,1.2973,1.2187,0.0169,5.2749,-3.2301,1.5827,0.3296,-0.6555,-5.4801
2.483,1.32,1.3043,-0.0493,5.2749,-3.2301,1.5827,0.3296,-0.6555,-5.4801
2.484,1.1354,1.064,0.036,5.2749,-3.2301,1.5827,0.3296,-0.6555,-5.4801
2.485,0.9499,0.642,0.1351,5.2749,-3.2301,1.5827,0.3296,-0.6555,-5.4801
2.495,0.9499,0.642,0.1351,5.2749,-3.2301,1.5827,-0.1946,-0.5691,-2.1763
2.496,0.8825,0.3868,0.1027,5.2749,-3.2301,1.5827,-0.1946,-0.5691,-2.1763
2.497,0.8825,0.3868,0.1027,10.7341,1.1178,2.5452,-0.1946,-0.5691,-2.1763
2.552,0.8825,0.3868,0.1027,9.6078,-1.5422,2.5876,-0.1946,-0.5691,-2.1763
2.554,0.8825,0.3868,0.1027,9.6078,-1.5422,2.5876,0.1631,-0.3465,0.4345
2.554,0.8696,0.2692,0.0018,9.6078,-1.5422,2.5876,0.1631,-0.3465,0.4345
2.555,0.7309,0.245,-0.0517,9.6078,-1.5422,2.5876,0.1631,-0.3465,0.4345
2.555,0.4645,0.2142,0.0877,9.6078,-1.5422,2.5876,0.1631,-0.3465,0.4345
2.628,0.3722,0.1207,0.2418,9.6078,-1.5422,2.5876,0.1631,-0.3465,0.4345
2.629,0.2624,0.0604,0.3685,9.6078,-1.5422,2.5876,0.1631,-0.3465,0.4345
2.63,1.3905,4.8296,-1.1973,9.6078,-1.5422,2.5876,0.1631,-0.3465,0.4345
2.631,1.3905,4.8296,-1.1973,9.6078,-1.5422,2.5876,0.1725,-0.3427,2.2503
2.631,-0.9713,1.5947,-0.1771,9.6078,-1.5422,2.5876,0.1725,-0.3427,2.2503
2.632,-0.9713,1.5947,-0.1771,4.3585,-6.5146,2.2389,0.1725,-0.3427,2.2503
2.69,-0.9713,1.5947,-0.1771,-1.4831,9.8947,-0.2688,0.1725,-0.3427,2.2503
2.692,-0.9713,1.5947,-0.1771,-1.4831,9.8947,-0.2688,0.4802,0.7345,3.1947
2.693,0.622,2.0265,-0.085,-1.4831,9.8947,-0.2688,0.4802,0.7345,3.1947
2.693,2.2844,0.2432,0.307,-1.4831,9.8947,-0.2688,0.4802,0.7345,3.1947
2.694,1.7366,0.1599,-0.7355,-1.4831,9.8947,-0.2688,0.4802,0.7345,3.1947
2.761,0.6903,1.5135,-0.8953,-1.4831,9.8947,-0.2688,0.4802,0.7345,3.1947
2.762,1.7857,1.1305,-1.0624,-1.4831,9.8947,-0.2688,0.4802,0.7345,3.1947
2.763,0.7424,1.4118,-0.8232,-1.4831,9.8947,-0.2688,0.4802,0.7345,3.1947
2.767,0.7424,1.4118,-0.8232,-1.4831,9.8947,-0.2688,-0.4564,1.0274,0.3293
2.768,0.7424,1.4118,-0.8232,9.1177,1.2374,-1.5063,-0.4564,1.0274,0.3293
2.769,0.8973,1.9623,-0.4604,9.1177,1.2374,-1.5063,-0.4564,1.0274,0.3293
2.827,0.8973,1.9623,-0.4604,6.1486,5.5534,-6.8134,-0.4564,1.0274,0.3293
2.828,0.8973,1.9623,-0.4604,6.1486,5.5534,-6.8134,-0.2626,2.9942,0.0259
2.829,0.0473,2.1688,-0.2906,6.1486,5.5534,-6.8134,-0.2626,2.9942,0.0259
2.83,-0.6103,2.081,-0.039,6.1486,5.5534,-6.8134,-0.2626,2.9942,0.0259
2.83,-0.7512,1.7953,0.015,6.1486,5.5534,-6.8134,-0.2626,2.9942,0.0259
2.894,-1.0264,1.2864,0.1334,6.1486,5.5534,-6.8134,-0.2626,2.9942,0.0259
2.895,-1.1648,0.9834,0.1733,6.1486,5.5534,-6.8134,-0.2626,2.9942,0.0259
2.896,-1.2201,0.8157,-0.0192,6.1486,5.5534,-6.8134,-0.2626,2.9942,0.0259
2.905,-1.2201,0.8157,-0.0192,-10.5095,10.664,-1.2086,-0.2626,2.9942,0.0259
2.907,-1.291,0.6648,-0.5006,-10.5095,10.664,-1.2086,-0.2626,2.9942,0.0259
2.908,-1.291,0.6648,-0.5006,-10.5095,10.664,-1.2086,-1.056,1.4696,1.5548
2.962,-0.9738,0.8343,-0.6213,-10.5095,10.664,-1.2086,-1.056,1.4696,1.5548
2.963,-0.5619,1.1952,-0.6706,-10.5095,10.664,-1.2086,-1.056,1.4696,1.5548
2.965,-0.4363,1.274,-0.3534,-10.5095,10.664,-1.2086,-1.056,1.4696,1.5548
2.966,-0.4363,1.274,-0.3534,-10.5095,10.664,-1.2086,-0.5965,-1.2192,4.957
2.967,-0.4363,1.274,-0.3534,-19.214,2.5731,-0.8461,-0.5965,-1.2192,4.957
3.028,0.1554,1.5263,-0.3789,-19.214,2.5731,-0.8461,-0.5965,-1.2192,4.957
3.03,0.494,2.558,-0.7718,-19.214,2.5731,-0.8461,-0.5965,-1.2192,4.957
3.031,-0.0666,2.0522,-0.83,-19.214,2.5731,-0.8461,-0.5965,-1.2192,4.957
3.041,-0.0666,2.0522,-0.83,-14.0511,7.3998,-4.6517,-0.5965,-1.2192,4.957
3.043,-0.0666,2.0522,-0.83,-14.0511,7.3998,-4.6517,-0.2108,-0.7186,4.1974
3.043,0.4291,1.0095,-0.5502,-14.0511,7.3998,-4.6517,-0.2108,-0.7186,4.1974
3.095,1.034,0.6924,-0.5608,-14.0511,7.3998,-4.6517,-0.2108,-0.7186,4.1974
3.097,1.302,0.0629,-0.59,-14.0511,7.3998,-4.6517,-0.2108,-0.7186,4.1974
3.1,1.0251,-0.3316,-0.3377,-14.0511,7.3998,-4.6517,-0.2108,-0.7186,4.1974
3.101,1.0251,-0.3316,-0.3377,-14.0511,7.3998,-4.6517,-0.4,-0.8763,-1.09
3.102,1.0251,-0.3316,-0.3377,-5.1418,13.3074,-5.9058,-0.4,-0.8763,-1.09
3.162,0.7554,-0.5577,-0.1543,-5.1418,13.3074,-5.9058,-0.4,-0.8763,-1.09
3.163,0.5074,-0.4426,-0.0148,-5.1418,13.3074,-5.9058,-0.4,-0.8763,-1.09
3.164,0.1923,-0.1501,0.2463,-5.1418,13.3074,-5.9058,-0.4,-0.8763,-1.09
3.178,0.1792,0.0589,0.5138,-5.1418,13.3074,-5.9058,-0.4,-0.8763,-1.09
3.179,0.1792,0.0589,0.5138,-5.1418,13.3074,-5.9058,0.6736,-0.0818,-6.051
3.18,0.1792,0.0589,0.5138,4.9971,-6.9351,-3.1775,0.6736,-0.0818,-6.051
3.229,0.2996,0.341,0.3994,4.9971,-6.9351,-3.1775,0.6736,-0.0818,-6.051
3.23,0.6186,0.8713,0.111,4.9971,-6.9351,-3.1775,0.6736,-0.0818,-6.051
3.237,1.1475,1.2514,-0.0683,4.9971,-6.9351,-3.1775,0.6736,-0.0818,-6.051
3.238,1.1475,1.2514,-0.0683,4.9971,-6.9351,-3.1775,1.3618,-1.3241,-7.1521
3.238,1.1475,1.2514,-0.0683,2.0658,-10.9721,4.1533,1.3618,-1.3241,-7.1521
3.295,1.8185,1.178,-0.078,2.0658,-10.9721,4.1533,1.3618,-1.3241,-7.1521
3.297,1.7259,1.3481,0.1203,2.0658,-10.9721,4.1533,1.3618,-1.3241,-7.1521
3.298,1.0657,1.0777,0.64,2.0658,-10.9721,4.1533,1.3618,-1.3241,-7.1521
3.314,1.0703,0.8819,0.8418,2.0658,-10.9721,4.1533,1.3618,-1.3241,-7.1521
3.316,1.0703,0.8819,0.8418,2.0658,-10.9721,4.1533,0.1278,0.5165,-4.4761
3.317,1.0703,0.8819,0.8418,9.1736,-0.0978,3.3867,0.1278,0.5165,-4.4761
3.363,1.3455,0.6349,0.5985,9.1736,-0.0978,3.3867,0.1278,0.5165,-4.4761
3.364,1.1934,0.2576,0.3006,9.1736,-0.0978,3.3867,0.1278,0.5165,-4.4761
3.373,1.1934,0.2576,0.3006,9.1736,-0.0978,3.3867,-0.4749,-2.2676,1.0939
3.374,0.9184,-0.0524,0.0541,9.1736,-0.0978,3.3867,-0.4749,-2.2676,1.0939
3.375,0.9184,-0.0524,0.0541,13.9187,2.0452,6.0753,-0.4749,-2.2676,1.0939
3.432,1.1785,0.4084,-1.1149,13.9187,2.0452,6.0753,-0.4749,-2.2676,1.0939
3.434,0.6956,5.2216,-1.7761,13.9187,2.0452,6.0753,-0.4749,-2.2676,1.0939
3.452,-1.4335,0.2209,0.4993,13.9187,2.0452,6.0753,-0.4749,-2.2676,1.0939
3.453,1.4383,3.113,-0.3516,13.9187,2.0452,6.0753,-0.4749,-2.2676,1.0939
3.454,1.4383,3.113,-0.3516,13.9187,2.0452,6.0753,0.5324,-0.5487,4.0765
3.454,1.4383,3.113,-0.3516,8.9145,-6.4392,4.3822,0.5324,-0.5487,4.0765
3.484,1.9443,-1.178,0.0514,8.9145,-6.4392,4.3822,0.5324,-0.5487,4.0765
3.486,0.9319,1.4265,-0.7812,8.9145,-6.4392,4.3822,0.5324,-0.5487,4.0765
3.522,0.9319,1.4265,-0.7812,0.1876,17.2227,-5.4314,0.5324,-0.5487,4.0765
3.523,1.4223,0.605,-0.5403,0.1876,17.2227,-5.4314,0.5324,-0.5487,4.0765
3.524,1.5442,1.3899,-0.932,0.1876,17.2227,-5.4314,0.5324,-0.5487,4.0765
3.524,1.5442,1.3899,-0.932,0.1876,17.2227,-5.4314,0.161,0.3214,2.5614
3.561,0.8769,1.0793,-0.4006,0.1876,17.2227,-5.4314,0.161,0.3214,2.5614
3.562,1.1158,1.9188,-0.5138,0.1876,17.2227,-5.4314,0.161,0.3214,2.5614
3.579,0.6194,1.9679,-0.327,0.1876,17.2227,-5.4314,0.161,0.3214,2.5614
3.58,0.6194,1.9679,-0.327,0.1876,17.2227,-5.4314,-0.5651,0.6342,-0.1243
3.581,0.6194,1.9679,-0.327,10.8335,-4.0647,-3.5865,-0.5651,0.6342,-0.1243
3.63,-0.0638,2.039,-0.3934,10.8335,-4.0647,-3.5865,-0.5651,0.6342,-0.1243
3.632,-0.5715,1.8579,-0.2848,10.8335,-4.0647,-3.5865,-0.5651,0.6342,-0.1243
3.657,-0.5715,1.8579,-0.2848,10.8335,-4.0647,-3.5865,-0.1408,2.8387,-0.2507
3.658,-0.5715,1.8579,-0.2848,4.8891,7.4944,-3.5597,-0.1408,2.8387,-0.2507
3.659,-0.7247,1.5463,-0.1934,4.8891,7.4944,-3.5597,-0.1408,2.8387,-0.2507
3.659,-1.0588,1.2344,-0.1097,4.8891,7.4944,-3.5597,-0.1408,2.8387,-0.2507
3.698,-1.2887,0.86,0.0267,4.8891,7.4944,-3.5597,-0.1408,2.8387,-0.2507
3.716,-1.2887,0.86,0.0267,4.8891,7.4944,-3.5597,-0.6878,1.8908,2.0311
3.718,-1.2606,0.7398,-0.1525,4.8891,7.4944,-3.5597,-0.6878,1.8908,2.0311
3.719,-1.3237,0.8069,-0.2828,4.8891,7.4944,-3.5597,-0.6878,1.8908,2.0311
3.719,-1.3237,0.8069,-0.2828,-10.2385,9.0595,-2.6858,-0.6878,1.8908,2.0311
3.762,-0.8997,0.9173,-0.3854,-10.2385,9.0595,-2.6858,-0.6878,1.8908,2.0311
3.764,-0.4328,0.9163,-0.2105,-10.2385,9.0595,-2.6858,-0.6878,1.8908,2.0311
3.793,0.1306,1.0347,-0.2101,-10.2385,9.0595,-2.6858,-0.6878,1.8908,2.0311
3.797,-0.0464,1.2237,-0.4621,-10.2385,9.0595,-2.6858,-0.6878,1.8908,2.0311
3.798,-0.0464,1.2237,-0.4621,-10.2385,9.0595,-2.6858,-0.4948,-0.5137,4.4767
3.799,-0.0464,1.2237,-0.4621,-19.33,2.1786,-1.3009,-0.4948,-0.5137,4.4767
3.829,-0.7841,1.3315,-0.3577,-19.33,2.1786,-1.3009,-0.4948,-0.5137,4.4767
3.853,-0.7841,1.3315,-0.3577,-19.33,2.1786,-1.3009,-0.4288,0.088,3.1223
3.855,-0.7841,1.3315,-0.3577,-10.964,4.9717,-3.125,-0.4288,0.088,3.1223
3.856,-0.4744,1.5103,-0.3257,-10.964,4.9717,-3.125,-0.4288,0.088,3.1223
3.856,0.293,1.4109,-0.6345,-10.964,4.9717,-3.125,-0.4288,0.088,3.1223
3.896,1.0199,0.8394,-0.7813,-10.964,4.9717,-3.125,-0.4288,0.088,3.1223
3.898,0.9196,0.6772,-0.5591,-10.964,4.9717,-3.125,-0.4288,0.088,3.1223
3.93,0.9196,0.6772,-0.5591,-10.964,4.9717,-3.125,-0.6188,-1.421,-0.7455
3.931,1.0577,0.348,-0.5238,-10.964,4.9717,-3.125,-0.6188,-1.421,-0.7455
3.932,1.0577,0.348,-0.5238,-10.4559,8.5305,-3.8559,-0.6188,-1.421,-0.7455
3.933,1.1013,0.0116,-0.3562,-10.4559,8.5305,-3.8559,-0.6188,-1.421,-0.7455
3.961,0.9021,-0.047,-0.2845,-10.4559,8.5305,-3.8559,-0.6188,-1.421,-0.7455
3.989,0.9021,-0.047,-0.2845,-10.4559,8.5305,-3.8559,0.1603,-1.2012,-4.7081
3.991,0.6181,0.1126,-0.1161,-10.4559,8.5305,-3.8559,0.1603,-1.2012,-4.7081
3.992,0.563,0.2315,-0.0684,-10.4559,8.5305,-3.8559,0.1603,-1.2012,-4.7081
3.993,0.563,0.2315,-0.0684,4.5701,-1.8831,-4.6458,0.1603,-1.2012,-4.7081
4.029,0.7032,0.3607,-0.0438,4.5701,-1.8831,-4.6458,0.1603,-1.2012,-4.7081
4.03,0.9089,0.4999,-0.0565,4.5701,-1.8831,-4.6458,0.1603,-1.2012,-4.7081
4.067,0.9089,0.4999,-0.0565,4.5701,-1.8831,-4.6458,0.7861,-1.3925,-6.0916
4.069,0.9069,0.8892,-0.0456,4.5701,-1.8831,-4.6458,0.7861,-1.3925,-6.0916
4.069,0.9069,0.8892,-0.0456,5.3846,-7.7882,0.1908,0.7861,-1.3925,-6.0916
4.07,1.2548,1.1903,-0.0687,5.3846,-7.7882,0.1908,0.7861,-1.3925,-6.0916
4.095,1.5628,1.066,-0.0314,5.3846,-7.7882,0.1908,0.7861,-1.3925,-6.0916
4.126,1.5628,1.066,-0.0314,9.0043,-2.0184,1.8021,0.7861,-1.3925,-6.0916
4.128,1.4314,0.9998,0.1347,9.0043,-2.0184,1.8021,0.7861,-1.3925,-6.0916
4.128,1.1139,0.8396,0.4789,9.0043,-2.0184,1.8021,0.7861,-1.3925,-6.0916
4.129,1.1139,0.8396,0.4789,9.0043,-2.0184,1.8021,0.6833,0.5047,-4.2988
4.163,0.9893,0.6505,0.8661,9.0043,-2.0184,1.8021,0.6833,0.5047,-4.2988
4.205,1.0231,0.5456,0.8502,9.0043,-2.0184,1.8021,0.6833,0.5047,-4.2988
4.206,1.0231,0.5456,0.8502,13.861,1.1057,3.5343,0.6833,0.5047,-4.2988
4.208,0.8191,0.4375,0.6338,13.861,1.1057,3.5343,0.6833,0.5047,-4.2988
4.208,0.8191,0.4375,0.6338,13.861,1.1057,3.5343,-0.3481,-0.9466,-0.3544
4.209,1.5135,1.5507,-1.0153,13.861,1.1057,3.5343,-0.3481,-0.9466,-0.3544
4.23,1.8173,3.1476,-1.8712,13.861,1.1057,3.5343,-0.3481,-0.9466,-0.3544
4.263,1.8173,3.1476,-1.8712,7.1991,-3.0981,8.5566,-0.3481,-0.9466,-0.3544
4.265,-0.9905,0.4142,0.4857,7.1991,-3.0981,8.5566,-0.3481,-0.9466,-0.3544
4.266,1.345,2.5046,-0.139,7.1991,-3.0981,8.5566,-0.3481,-0.9466,-0.3544
4.266,1.345,2.5046,-0.139,7.1991,-3.0981,8.5566,0.4612,-0.4111,4.2111
4.296,1.3172,-0.6362,0.4403,7.1991,-3.0981,8.5566,0.4612,-0.4111,4.2111
4.341,0.8115,1.1705,-0.9558,7.1991,-3.0981,8.5566,0.4612,-0.4111,4.2111
4.342,0.8115,1.1705,-0.9558,7.1991,-3.0981,8.5566,0.2538,0.4589,2.7694
4.343,1.3204,0.8782,-0.5324,7.1991,-3.0981,8.5566,0.2538,0.4589,2.7694
4.343,1.4681,1.2086,-0.7522,7.1991,-3.0981,8.5566,0.2538,0.4589,2.7694
4.344,1.4681,1.2086,-0.7522,5.1999,12.6954,-4.708,0.2538,0.4589,2.7694
4.363,0.9959,1.2673,-0.5551,5.1999,12.6954,-4.708,0.2538,0.4589,2.7694
4.4,1.0157,1.8818,-0.6609,5.1999,12.6954,-4.708,0.2538,0.4589,2.7694
4.401,0.7281,2.0207,-0.6274,5.1999,12.6954,-4.708,0.2538,0.4589,2.7694
4.402,0.7281,2.0207,-0.6274,7.9495,-2.5051,-2.2224,0.2538,0.4589,2.7694
4.402,0.7281,2.0207,-0.6274,7.9495,-2.5051,-2.2224,-0.4333,0.9888,0.3691
4.429,0.1743,2.1356,-0.5775,7.9495,-2.5051,-2.2224,-0.4333,0.9888,0.3691
4.478,0.1743,2.1356,-0.5775,7.9495,-2.5051,-2.2224,-0.3335,2.909,-0.0221
4.479,-0.4842,1.9586,-0.2438,7.9495,-2.5051,-2.2224,-0.3335,2.909,-0.0221
4.48,-0.7014,1.5315,-0.0015,7.9495,-2.5051,-2.2224,-0.3335,2.909,-0.0221
4.481,-0.7014,1.5315,-0.0015,4.7009,8.3655,-5.3816,-0.3335,2.909,-0.0221
4.482,-0.7346,1.3788,0.0369,4.7009,8.3655,-5.3816,-0.3335,2.909,-0.0221
4.537,-0.5503,1.2215,0.0538,4.7009,8.3655,-5.3816,-0.3335,2.909,-0.0221
4.539,-0.5503,1.2215,0.0538,4.7009,8.3655,-5.3816,-0.9213,2.0807,0.9756
4.54,-0.7315,0.7831,-0.2973,4.7009,8.3655,-5.3816,-0.9213,2.0807,0.9756
4.541,-1.4782,0.6342,-0.4346,4.7009,8.3655,-5.3816,-0.9213,2.0807,0.9756
4.542,-1.4782,0.6342,-0.4346,-8.8408,9.7576,-2.6048,-0.9213,2.0807,0.9756
4.562,-1.2987,0.8106,-0.4583,-8.8408,9.7576,-2.6048,-0.9213,2.0807,0.9756
4.616,-0.4373,0.8965,-0.5289,-8.8408,9.7576,-2.6048,-0.9213,2.0807,0.9756
4.618,-0.4373,0.8965,-0.5289,-8.8408,9.7576,-2.6048,-0.615,0.0947,4.4294
4.619,0.0248,0.9949,-0.4677,-8.8408,9.7576,-2.6048,-0.615,0.0947,4.4294
4.619,0.0248,0.9949,-0.4677,-15.5827,3.2139,-2.41,-0.615,0.0947,4.4294
4.621,-0.5525,1.1633,-0.3912,-15.5827,3.2139,-2.41,-0.615,0.0947,4.4294
4.672,-0.9007,1.3321,-0.2862,-15.5827,3.2139,-2.41,-0.615,0.0947,4.4294
4.673,-0.9007,1.3321,-0.2862,-15.5827,3.2139,-2.41,-0.5749,1.056,3.0227
4.674,-0.6947,1.9695,-0.4593,-15.5827,3.2139,-2.41,-0.5749,1.056,3.0227
4.674,-0.2438,1.9198,-0.6833,-15.5827,3.2139,-2.41,-0.5749,1.056,3.0227
4.675,-0.2438,1.9198,-0.6833,-12.9758,4.5052,-5.9416,-0.5749,1.056,3.0227
4.697,0.7252,1.202,-0.8038,-12.9758,4.5052,-5.9416,-0.5749,1.056,3.0227
4.753,0.7252,1.202,-0.8038,-12.9758,4.5052,-5.9416,-0.6133,-1.9023,0.3715
4.756,1.0688,1.0685,-0.6937,-12.9758,4.5052,-5.9416,-0.6133,-1.9023,0.3715
4.757,1.2309,0.5577,-0.5012,-12.9758,4.5052,-5.9416,-0.6133,-1.9023,0.3715
4.758,1.306,0.1716,-0.5082,-12.9758,4.5052,-5.9416,-0.6133,-1.9023,0.3715
4.758,1.306,0.1716,-0.5082,-13.8074,11.7298,-4.8016,-0.6133,-1.9023,0.3715
4.811,1.306,0.1716,-0.5082,-13.8074,11.7298,-4.8016,0.059,-1.8412,-4.3538
4.813,1.0913,-0.0768,-0.3374,-13.8074,11.7298,-4.8016,0.059,-1.8412,-4.3538
4.814,0.8062,-0.0141,-0.2084,-13.8074,11.7298,-4.8016,0.059,-1.8412,-4.3538
4.815,0.5808,0.0659,-0.0379,-13.8074,11.7298,-4.8016,0.059,-1.8412,-4.3538
4.815,0.5808,0.0659,-0.0379,4.2894,1.6773,-5.6677,0.059,-1.8412,-4.3538
4.83,0.6504,0.1963,0.0046,4.2894,1.6773,-5.6677,0.059,-1.8412,-4.3538
4.889,0.6504,0.1963,0.0046,6.5221,-8.4172,-0.5393,0.059,-1.8412,-4.3538
4.891,0.6504,0.1963,0.0046,6.5221,-8.4172,-0.5393,0.9595,-1.9168,-7.0358
4.892,0.7701,0.3858,0.0599,6.5221,-8.4172,-0.5393,0.9595,-1.9168,-7.0358
4.892,0.9491,0.7501,0.0604,6.5221,-8.4172,-0.5393,0.9595,-1.9168,-7.0358
4.893,1.0558,1.3165,-0.003,6.5221,-8.4172,-0.5393,0.9595,-1.9168,-7.0358
4.948,1.0558,1.3165,-0.003,8.9696,-3.0534,2.5204,0.9595,-1.9168,-7.0358
4.95,1.7675,1.4716,-0.0848,8.9696,-3.0534,2.5204,0.9595,-1.9168,-7.0358
4.951,1.8927,1.3121,0.1205,8.9696,-3.0534,2.5204,0.9595,-1.9168,-7.0358
4.951,1.6821,0.9955,0.4215,8.9696,-3.0534,2.5204,0.9595,-1.9168,-7.0358
4.952,1.6821,0.9955,0.4215,8.9696,-3.0534,2.5204,0.6633,-0.5165,-5.62
5.024,1.6821,0.9955,0.4215,17.2807,4.0149,3.3484,0.6633,-0.5165,-5.62
5.026,1.6533,0.804,0.5472,17.2807,4.0149,3.3484,0.6633,-0.5165,-5.62
5.027,1.4443,0.5893,0.6278,17.2807,4.0149,3.3484,0.6633,-0.5165,-5.62
5.027,1.4443,0.5893,0.6278,17.2807,4.0149,3.3484,0.0629,-0.4891,0.0692
5.028,1.1064,0.2999,0.5313,17.2807,4.0149,3.3484,0.0629,-0.4891,0.0692
5.029,0.824,0.0216,0.4164,17.2807,4.0149,3.3484,0.0629,-0.4891,0.0692
5.082,0.824,0.0216,0.4164,17.2807,4.0149,3.3484,0.2222,-0.6108,3.6707
5.083,0.9273,1.4531,-0.8066,17.2807,4.0149,3.3484,0.2222,-0.6108,3.6707
5.083,0.7833,4.1699,-1.3914,17.2807,4.0149,3.3484,0.2222,-0.6108,3.6707
5.083,-1.0231,0.1952,0.5307,17.2807,4.0149,3.3484,0.2222,-0.6108,3.6707
5.084,-1.0231,0.1952,0.5307,11.508,-3.5844,7.4616,0.2222,-0.6108,3.6707
5.164,-1.0231,0.1952,0.5307,-0.5854,8.4755,-1.7316,0.2222,-0.6108,3.6707
5.166,-1.0231,0.1952,0.5307,-0.5854,8.4755,-1.7316,0.5526,0.4076,3.5719
5.167,1.9462,2.5363,-0.1905,-0.5854,8.4755,-1.7316,0.5526,0.4076,3.5719
5.168,1.7439,-1.1651,0.2937,-0.5854,8.4755,-1.7316,0.5526,0.4076,3.5719
5.169,0.9903,1.1379,-0.8692,-0.5854,8.4755,-1.7316,0.5526,0.4076,3.5719
5.169,1.2819,1.1204,-0.7328,-0.5854,8.4755,-1.7316,0.5526,0.4076,3.5719
5.22,1.2819,1.1204,-0.7328,10.3361,1.9234,-1.2178,0.5526,0.4076,3.5719
5.221,1.2819,1.1204,-0.7328,10.3361,1.9234,-1.2178,-0.2623,0.8583,0.6693
5.222,1.495,1.2271,-0.8512,10.3361,1.9234,-1.2178,-0.2623,0.8583,0.6693
5.223,0.9618,1.0627,-0.5172,10.3361,1.9234,-1.2178,-0.2623,0.8583,0.6693
5.223,1.149,2.1339,-0.6521,10.3361,1.9234,-1.2178,-0.2623,0.8583,0.6693
5.297,0.6386,2.0701,-0.446,10.3361,1.9234,-1.2178,-0.2623,0.8583,0.6693
5.299,0.0928,2.2249,-0.4764,10.3361,1.9234,-1.2178,-0.2623,0.8583,0.6693
5.299,-0.5283,1.7782,-0.263,10.3361,1.9234,-1.2178,-0.2623,0.8583,0.6693
5.3,-0.5283,1.7782,-0.263,10.3361,1.9234,-1.2178,-0.4523,2.3133,-0.1549
5.301,-0.5528,1.3845,-0.0743,10.3361,1.9234,-1.2178,-0.4523,2.3133,-0.1549
5.301,-0.5528,1.3845,-0.0743,7.74,5.009,-5.4592,-0.4523,2.3133,-0.1549
5.357,-0.5528,1.3845,-0.0743,-4.8668,11.0326,-3.5422,-0.4523,2.3133,-0.1549
5.359,-0.5528,1.3845,-0.0743,-4.8668,11.0326,-3.5422,-0.7663,2.8493,0.3048
5.36,-0.5842,1.2526,0.0071,-4.8668,11.0326,-3.5422,-0.7663,2.8493,0.3048
5.36,-0.707,0.99,0.0348,-4.8668,11.0326,-3.5422,-0.7663,2.8493,0.3048
5.361,-1.1278,0.6615,-0.249,-4.8668,11.0326,-3.5422,-0.7663,2.8493,0.3048
5.431,-1.3764,0.7837,-0.2905,-4.8668,11.0326,-3.5422,-0.7663,2.8493,0.3048
5.433,-0.8874,0.8823,-0.4539,-4.8668,11.0326,-3.5422,-0.7663,2.8493,0.3048
5.434,-0.1036,0.9157,-0.386,-4.8668,11.0326,-3.5422,-0.7663,2.8493,0.3048
5.434,-0.1036,0.9157,-0.386,-4.8668,11.0326,-3.5422,-0.8571,-0.5893,4.3571
5.435,0.085,1.0314,-0.3282,-4.8668,11.0326,-3.5422,-0.8571,-0.5893,4.3571
5.436,0.085,1.0314,-0.3282,-14.1782,3.6378,-0.8786,-0.8571,-0.5893,4.3571
5.484,-0.3536,1.3009,-0.3418,-14.1782,3.6378,-0.8786,-0.8571,-0.5893,4.3571
5.485,-0.6762,1.7661,-0.4396,-14.1782,3.6378,-0.8786,-0.8571,-0.5893,4.3571
5.503,-0.6762,1.7661,-0.4396,-14.1519,4.2301,-4.7565,-0.8571,-0.5893,4.3571
5.505,-0.7096,2.0907,-0.4801,-14.1519,4.2301,-4.7565,-0.8571,-0.5893,4.3571
5.506,-0.7096,2.0907,-0.4801,-14.1519,4.2301,-4.7565,-0.774,1.3339,3.9671
5.564,-0.7096,2.0907,-0.4801,-12.8388,12.1284,-4.1295,-0.774,1.3339,3.9671
5.567,-0.7096,2.0907,-0.4801,-12.8388,12.1284,-4.1295,-1.0054,-2.1009,1.2758
5.568,-0.1058,1.2916,-0.5609,-12.8388,12.1284,-4.1295,-1.0054,-2.1009,1.2758
5.569,0.6691,1.1532,-0.8755,-12.8388,12.1284,-4.1295,-1.0054,-2.1009,1.2758
5.57,0.9443,0.6639,-0.723,-12.8388,12.1284,-4.1295,-1.0054,-2.1009,1.2758
5.631,1.2331,0.2909,-0.6723,-12.8388,12.1284,-4.1295,-1.0054,-2.1009,1.2758
5.634,1.3175,-0.099,-0.567,-12.8388,12.1284,-4.1295,-1.0054,-2.1009,1.2758
5.635,0.9867,-0.2766,-0.3583,-12.8388,12.1284,-4.1295,-1.0054,-2.1009,1.2758
5.639,0.5609,-0.097,-0.086,-12.8388,12.1284,-4.1295,-1.0054,-2.1009,1.2758
5.64,0.5609,-0.097,-0.086,-12.8388,12.1284,-4.1295,-0.4022,-1.0805,-3.8773
5.641,0.5609,-0.097,-0.086,-0.8089,3.3537,-6.5993,-0.4022,-1.0805,-3.8773
5.698,0.3239,0.1546,0.115,-0.8089,3.3537,-6.5993,-0.4022,-1.0805,-3.8773
5.7,0.4309,0.424,0.2417,-0.8089,3.3537,-6.5993,-0.4022,-1.0805,-3.8773
5.702,0.6062,0.6941,0.1646,-0.8089,3.3537,-6.5993,-0.4022,-1.0805,-3.8773
5.703,0.6062,0.6941,0.1646,-0.8089,3.3537,-6.5993,0.9944,-1.6508,-6.7149
5.704,0.6062,0.6941,0.1646,6.405,-8.9596,-2.2418,0.9944,-1.6508,-6.7149
5.765,0.8119,1.0353,-0.1228,6.405,-8.9596,-2.2418,0.9944,-1.6508,-6.7149
5.768,1.2077,1.3529,-0.3061,6.405,-8.9596,-2.2418,0.9944,-1.6508,-6.7149
5.769,1.8333,1.289,-0.2436,6.405,-8.9596,-2.2418,0.9944,-1.6508,-6.7149
5.778,1.5121,1.1901,0.2065,6.405,-8.9596,-2.2418,0.9944,-1.6508,-6.7149
5.779,1.5121,1.1901,0.2065,5.1922,-3.648,3.4555,0.9944,-1.6508,-6.7149
5.78,1.5121,1.1901,0.2065,5.1922,-3.648,3.4555,0.8074,-0.7557,-6.4398
5.83,1.1174,1.2282,0.6245,5.1922,-3.648,3.4555,0.8074,-0.7557,-6.4398
5.831,1.4836,0.8619,0.7143,5.1922,-3.648,3.4555,0.8074,-0.7557,-6.4398
5.835,1.2852,0.5907,0.5811,5.1922,-3.648,3.4555,0.8074,-0.7557,-6.4398
5.836,1.2852,0.5907,0.5811,5.1922,-3.648,3.4555,0.1407,-0.4209,-1.4487
5.837,1.2852,0.5907,0.5811,14.8367,3.9138,0.7764,0.1407,-0.4209,-1.4487
5.899,1.2668,0.2372,0.2738,14.8367,3.9138,0.7764,0.1407,-0.4209,-1.4487
5.901,1.5139,0.3785,-0.3554,14.8367,3.9138,0.7764,0.1407,-0.4209,-1.4487
5.901,2.301,3.7452,-2.0488,14.8367,3.9138,0.7764,0.1407,-0.4209,-1.4487
5.914,-1.2442,1.0607,0.3757,14.8367,3.9138,0.7764,0.1407,-0.4209,-1.4487
5.915,-1.2442,1.0607,0.3757,14.8367,3.9138,0.7764,0.155,-0.6202,3.445
5.916,-1.2442,1.0607,0.3757,11.4643,-0.4397,7.8547,0.155,-0.6202,3.445
5.965,0.4938,1.602,-0.097,11.4643,-0.4397,7.8547,0.155,-0.6202,3.445
5.967,2.0658,0.1699,-0.1227,11.4643,-0.4397,7.8547,0.155,-0.6202,3.445
5.973,1.1773,-0.1225,-0.1804,11.4643,-0.4397,7.8547,0.155,-0.6202,3.445
5.974,1.1773,-0.1225,-0.1804,5.617,6.8416,-2.9966,0.155,-0.6202,3.445
5.975,1.1773,-0.1225,-0.1804,5.617,6.8416,-2.9966,0.5821,-0.0605,3.7688
6.031,1.1876,1.7929,-0.7847,5.617,6.8416,-2.9966,0.5821,-0.0605,3.7688
6.033,1.2772,0.9289,-0.5083,5.617,6.8416,-2.9966,0.5821,-0.0605,3.7688
6.05,1.2772,0.9289,-0.5083,8.1193,-0.6169,-0.2501,0.5821,-0.0605,3.7688
6.052,1.2772,0.9289,-0.5083,8.1193,-0.6169,-0.2501,-0.0657,0.8712,1.1628
6.052,1.1326,1.2008,-0.6766,8.1193,-0.6169,-0.2501,-0.0657,0.8712,1.1628
6.053,1.1432,1.637,-0.6568,8.1193,-0.6169,-0.2501,-0.0657,0.8712,1.1628
6.095,0.8633,1.9227,-0.6573,8.1193,-0.6169,-0.2501,-0.0657,0.8712,1.1628
6.097,0.4667,2.0711,-0.5299,8.1193,-0.6169,-0.2501,-0.0657,0.8712,1.1628
6.11,0.4667,2.0711,-0.5299,6.8109,5.4988,-4.6351,-0.0657,0.8712,1.1628
6.112,0.4667,2.0711,-0.5299,6.8109,5.4988,-4.6351,-0.518,1.5534,0.001
6.113,-0.0908,2.0763,-0.4323,6.8109,5.4988,-4.6351,-0.518,1.5534,0.001
6.164,-0.478,1.7524,-0.2211,6.8109,5.4988,-4.6351,-0.518,1.5534,0.001
6.166,-0.6578,1.5174,-0.0439,6.8109,5.4988,-4.6351,-0.518,1.5534,0.001
6.187,-0.6578,1.5174,-0.0439,-1.8337,11.7114,-4.6505,-0.518,1.5534,0.001
6.189,-0.6578,1.5174,-0.0439,-1.8337,11.7114,-4.6505,-0.4937,3.2953,0.1916
6.19,-0.7169,1.3048,-0.0063,-1.8337,11.7114,-4.6505,-0.4937,3.2953,0.1916
6.19,-0.7796,0.9806,0.0315,-1.8337,11.7114,-4.6505,-0.4937,3.2953,0.1916
6.229,-1.2695,0.6205,-0.2673,-1.8337,11.7114,-4.6505,-0.4937,3.2953,0.1916
6.231,-1.4588,0.8057,-0.263,-1.8337,11.7114,-4.6505,-0.4937,3.2953,0.1916
6.246,-1.4588,0.8057,-0.263,-13.3882,6.5122,-0.4345,-0.4937,3.2953,0.1916
6.248,-0.534,1.0018,-0.4211,-13.3882,6.5122,-0.4345,-0.4937,3.2953,0.1916
6.249,-0.534,1.0018,-0.4211,-13.3882,6.5122,-0.4345,-0.7393,0.0006,3.9529
6.296,0.2125,1.1736,-0.4245,-13.3882,6.5122,-0.4345,-0.7393,0.0006,3.9529
6.298,-0.3347,1.4397,-0.3339,-13.3882,6.5122,-0.4345,-0.7393,0.0006,3.9529
6.324,-0.3347,1.4397,-0.3339,-16.5516,3.9768,-4.2705,-0.7393,0.0006,3.9529
6.326,-0.7659,1.4158,-0.3347,-16.5516,3.9768,-4.2705,-0.7393,0.0006,3.9529
6.327,-0.7659,1.4158,-0.3347,-16.5516,3.9768,-4.2705,-0.638,1.5717,4.165
6.327,-0.8475,1.7197,-0.2645,-16.5516,3.9768,-4.2705,-0.638,1.5717,4.165
6.363,-0.4312,1.7725,-0.5288,-16.5516,3.9768,-4.2705,-0.638,1.5717,4.165
6.364,0.3905,1.106,-0.6513,-16.5516,3.9768,-4.2705,-0.638,1.5717,4.165
6.383,0.3905,1.106,-0.6513,-16.5516,3.9768,-4.2705,-0.6188,-1.7154,1.8004
6.385,0.3905,1.106,-0.6513,-13.2014,10.9665,-3.4712,-0.6188,-1.7154,1.8004
6.386,0.8539,0.9973,-0.7703,-13.2014,10.9665,-3.4712,-0.6188,-1.7154,1.8004
6.429,1.0464,0.4061,-0.5901,-13.2014,10.9665,-3.4712,-0.6188,-1.7154,1.8004
6.43,1.2834,0.1204,-0.5567,-13.2014,10.9665,-3.4712,-0.6188,-1.7154,1.8004
6.46,1.2834,0.1204,-0.5567,-13.2014,10.9665,-3.4712,-0.3424,-1.2993,-3.2626
6.463,1.1043,-0.1437,-0.4107,-13.2014,10.9665,-3.4712,-0.3424,-1.2993,-3.2626
6.464,1.1043,-0.1437,-0.4107,-3.3595,6.2366,-5.8044,-0.3424,-1.2993,-3.2626
6.464,0.7907,-0.0795,-0.2854,-3.3595,6.2366,-5.8044,-0.3424,-1.2993,-3.2626
6.483,0.5923,0.0988,-0.0639,-3.3595,6.2366,-5.8044,-0.3424,-1.2993,-3.2626
6.52,0.5923,0.0988,-0.0639,6.5312,-7.6012,-2.9366,-0.3424,-1.2993,-3.2626
6.521,0.5923,0.0988,-0.0639,6.5312,-7.6012,-2.9366,0.6762,-1.44,-6.7009
6.522,0.5758,0.2876,0.0351,6.5312,-7.6012,-2.9366,0.6762,-1.44,-6.7009
6.523,0.6795,0.4756,0.0885,6.5312,-7.6012,-2.9366,0.6762,-1.44,-6.7009
6.562,0.7088,0.7721,0.0623,6.5312,-7.6012,-2.9366,0.6762,-1.44,-6.7009
6.564,0.9107,1.3503,-0.1465,6.5312,-7.6012,-2.9366,0.6762,-1.44,-6.7009
6.597,1.5144,1.4594,-0.2523,6.5312,-7.6012,-2.9366,0.6762,-1.44,-6.7009
6.599,1.5144,1.4594,-0.2523,6.5312,-7.6012,-2.9366,0.8347,-1.3265,-6.9632
6.6,1.8427,1.2638,-0.0831,6.5312,-7.6012,-2.9366,0.8347,-1.3265,-6.9632
6.601,1.8427,1.2638,-0.0831,6.19,-5.0877,2.2721,0.8347,-1.3265,-6.9632
6.63,1.5619,1.2298,0.2473,6.19,-5.0877,2.2721,0.8347,-1.3265,-6.9632
6.656,1.5619,1.2298,0.2473,14.089,4.3032,0.9997,0.8347,-1.3265,-6.9632
6.657,1.5619,1.2298,0.2473,14.089,4.3032,0.9997,0.4308,0.1624,-2.3139
6.658,1.4764,1.0531,0.5724,14.089,4.3032,0.9997,0.4308,0.1624,-2.3139
6.658,1.5927,0.7369,0.6805,14.089,4.3032,0.9997,0.4308,0.1624,-2.3139
6.696,1.418,0.3962,0.5654,14.089,4.3032,0.9997,0.4308,0.1624,-2.3139
6.697,1.2811,0.0442,0.3612,14.089,4.3032,0.9997,0.4308,0.1624,-2.3139
6.735,1.1003,0.7389,-0.3616,14.089,4.3032,0.9997,0.4308,0.1624,-2.3139
6.737,0.7107,4.3023,-1.5804,14.089,4.3032,0.9997,0.4308,0.1624,-2.3139
6.737,0.7107,4.3023,-1.5804,14.5723,0.7184,7.1364,0.4308,0.1624,-2.3139
6.738,0.7107,4.3023,-1.5804,14.5723,0.7184,7.1364,-0.0293,-1.4964,2.6513
6.764,-0.6035,0.6159,0.6504,14.5723,0.7184,7.1364,-0.0293,-1.4964,2.6513
6.793,-0.6035,0.6159,0.6504,7.572,6.6906,-1.3143,-0.0293,-1.4964,2.6513
6.795,-0.6035,0.6159,0.6504,7.572,6.6906,-1.3143,0.6664,0.3825,4.3001
6.795,1.1021,2.1842,-0.4526,7.572,6.6906,-1.3143,0.6664,0.3825,4.3001
6.798,1.6966,-0.3011,0.3844,7.572,6.6906,-1.3143,0.6664,0.3825,4.3001
6.829,1.2287,-0.1214,-0.5093,7.572,6.6906,-1.3143,0.6664,0.3825,4.3001
6.87,1.2287,-0.1214,-0.5093,7.572,6.6906,-1.3143,0.1873,0.9377,1.5163
6.872,1.0481,1.9333,-0.9539,7.572,6.6906,-1.3143,0.1873,0.9377,1.5163
6.872,1.2851,0.6706,-0.5979,7.572,6.6906,-1.3143,0.1873,0.9377,1.5163
6.873,1.269,1.1906,-0.5768,7.572,6.6906,-1.3143,0.1873,0.9377,1.5163
6.874,1.269,1.1906,-0.5768,4.0861,-1.6481,3.6664,0.1873,0.9377,1.5163
6.897,1.2805,1.6468,-0.7162,4.0861,-1.6481,3.6664,0.1873,0.9377,1.5163
6.93,0.7739,1.9559,-0.6434,4.0861,-1.6481,3.6664,0.1873,0.9377,1.5163
6.931,0.7739,1.9559,-0.6434,4.0861,-1.6481,3.6664,-0.4625,1.5712,-0.3867
6.932,0.7739,1.9559,-0.6434,7.3574,3.6199,-5.615,-0.4625,1.5712,-0.3867
6.933,0.496,1.9661,-0.5893,7.3574,3.6199,-5.615,-0.4625,1.5712,-0.3867
6.964,-0.2594,2.0061,-0.5178,7.3574,3.6199,-5.615,-0.4625,1.5712,-0.3867
7.007,-0.2594,2.0061,-0.5178,2.7739,10.4505,-5.692,-0.4625,1.5712,-0.3867
7.009,-0.6711,1.6905,-0.2419,2.7739,10.4505,-5.692,-0.4625,1.5712,-0.3867
7.01,-0.7027,1.4347,-0.0764,2.7739,10.4505,-5.692,-0.4625,1.5712,-0.3867
7.01,-0.6844,1.1395,0.0985,2.7739,10.4505,-5.692,-0.4625,1.5712,-0.3867
7.011,-0.6844,1.1395,0.0985,2.7739,10.4505,-5.692,-0.3879,3.3967,-0.1903
7.03,-0.7847,0.8633,0.0596,2.7739,10.4505,-5.692,-0.3879,3.3967,-0.1903
7.067,-0.7847,0.8633,0.0596,-11.91,7.3424,-1.5288,-0.3879,3.3967,-0.1903
7.069,-1.2763,0.6062,-0.2925,-11.91,7.3424,-1.5288,-0.3879,3.3967,-0.1903
7.069,-1.2763,0.6062,-0.2925,-11.91,7.3424,-1.5288,-1.011,0.7045,2.4196
7.07,-1.3918,0.7696,-0.3604,-11.91,7.3424,-1.5288,-1.011,0.7045,2.4196
7.096,-0.6834,0.8622,-0.4941,-11.91,7.3424,-1.5288,-1.011,0.7045,2.4196
7.144,-0.6834,0.8622,-0.4941,-11.91,7.3424,-1.5288,-0.6736,0.6808,4.8584
7.146,0.2343,0.947,-0.4272,-11.91,7.3424,-1.5288,-0.6736,0.6808,4.8584
7.147,0.0106,1.0883,-0.3904,-11.91,7.3424,-1.5288,-0.6736,0.6808,4.8584
7.148,-0.6106,1.3734,-0.2605,-11.91,7.3424,-1.5288,-0.6736,0.6808,4.8584
7.149,-0.6106,1.3734,-0.2605,-18.1522,2.2717,-3.0995,-0.6736,0.6808,4.8584
7.203,-0.6106,1.3734,-0.2605,-9.6128,7.1255,-4.3061,-0.6736,0.6808,4.8584
7.205,-0.6106,1.3734,-0.2605,-9.6128,7.1255,-4.3061,-0.9499,-0.6872,3.0307
7.205,-0.7974,1.8542,-0.3833,-9.6128,7.1255,-4.3061,-0.9499,-0.6872,3.0307
7.206,-0.559,2.0013,-0.5273,-9.6128,7.1255,-4.3061,-0.9499,-0.6872,3.0307
7.207,0.1509,1.1687,-0.6668,-9.6128,7.1255,-4.3061,-0.9499,-0.6872,3.0307
7.231,0.7573,1.1462,-0.8578,-9.6128,7.1255,-4.3061,-0.9499,-0.6872,3.0307
7.281,0.7573,1.1462,-0.8578,-9.6128,7.1255,-4.3061,-0.6567,-1.9334,-0.8563
7.283,0.9199,0.5819,-0.6825,-9.6128,7.1255,-4.3061,-0.6567,-1.9334,-0.8563
7.284,1.2326,0.2429,-0.6502,-9.6128,7.1255,-4.3061,-0.6567,-1.9334,-0.8563
7.284,1.2326,0.2429,-0.6502,-9.944,11.4394,-5.2139,-0.6567,-1.9334,-0.8563
7.285,1.2098,-0.1128,-0.5863,-9.944,11.4394,-5.2139,-0.6567,-1.9334,-0.8563
7.34,1.2098,-0.1128,-0.5863,5.0124,-3.2141,-5.6078,-0.6567,-1.9334,-0.8563
7.342,1.2098,-0.1128,-0.5863,5.0124,-3.2141,-5.6078,0.1955,-0.8789,-5.5846
7.342,0.9088,-0.2144,-0.3843,5.0124,-3.2141,-5.6078,0.1955,-0.8789,-5.5846
7.343,0.5804,-0.0567,-0.092,5.0124,-3.2141,-5.6078,0.1955,-0.8789,-5.5846
7.344,0.3027,0.2483,0.0648,5.0124,-3.2141,-5.6078,0.1955,-0.8789,-5.5846
7.363,0.4743,0.514,0.1544,5.0124,-3.2141,-5.6078,0.1955,-0.8789,-5.5846
7.419,0.4743,0.514,0.1544,5.0124,-3.2141,-5.6078,0.9183,-2.2842,-7.1402
7.422,0.5642,0.8018,0.2426,5.0124,-3.2141,-5.6078,0.9183,-2.2842,-7.1402
7.422,0.8162,1.1151,0.0305,5.0124,-3.2141,-5.6078,0.9183,-2.2842,-7.1402
7.423,1.2402,1.4853,-0.3403,5.0124,-3.2141,-5.6078,0.9183,-2.2842,-7.1402
7.424,1.2402,1.4853,-0.3403,4.04,-7.6732,0.9655,0.9183,-2.2842,-7.1402
7.477,1.2402,1.4853,-0.3403,4.04,-7.6732,0.9655,0.4645,0.4305,-4.7428
7.478,2.0015,1.3673,-0.3435,4.04,-7.6732,0.9655,0.4645,0.4305,-4.7428
7.479,1.7757,1.1533,0.0447,4.04,-7.6732,0.9655,0.4645,0.4305,-4.7428
7.48,1.283,1.1623,0.5189,4.04,-7.6732,0.9655,0.4645,0.4305,-4.7428
7.48,1.283,1.1623,0.5189,9.0283,2.0215,2.3796,0.4645,0.4305,-4.7428
7.496,1.735,0.8388,0.6751,9.0283,2.0215,2.3796,0.4645,0.4305,-4.7428
7.557,1.5535,0.5362,0.5623,9.0283,2.0215,2.3796,0.4645,0.4305,-4.7428
7.559,1.5535,0.5362,0.5623,9.0283,2.0215,2.3796,-0.2056,-1.1042,1.1379
7.559,1.2483,0.1826,0.3665,9.0283,2.0215,2.3796,-0.2056,-1.1042,1.1379
7.56,1.5475,1.0947,-0.2701,9.0283,2.0215,2.3796,-0.2056,-1.1042,1.1379
7.561,1.5475,1.0947,-0.2701,16.6012,3.1708,3.6236,-0.2056,-1.1042,1.1379
7.615,0.7065,3.3511,-1.2657,16.6012,3.1708,3.6236,-0.2056,-1.1042,1.1379
7.617,0.7065,3.3511,-1.2657,16.6012,3.1708,3.6236,0.5216,-0.2247,4.494
7.618,0.7065,3.3511,-1.2657,12.2123,-1.8544,4.9635,0.5216,-0.2247,4.494
7.618,-0.6551,0.4717,0.4145,12.2123,-1.8544,4.9635,0.5216,-0.2247,4.494
7.619,2.5923,1.8643,-0.6128,12.2123,-1.8544,4.9635,0.5216,-0.2247,4.494
7.691,2.5923,1.8643,-0.6128,12.2123,-1.8544,4.9635,0.2973,0.808,2.2474
7.692,0.706,-0.0237,0.3871,12.2123,-1.8544,4.9635,0.2973,0.808,2.2474
7.692,0.947,0.5591,-0.4504,12.2123,-1.8544,4.9635,0.2973,0.808,2.2474
7.693,1.226,1.5929,-0.7417,12.2123,-1.8544,4.9635,0.2973,0.808,2.2474
7.694,1.226,1.5929,-0.7417,4.8821,9.0674,-1.9119,0.2973,0.808,2.2474
7.694,1.2532,0.9311,-0.6728,4.8821,9.0674,-1.9119,0.2973,0.808,2.2474
7.751,1.2532,0.9311,-0.6728,5.8548,0.183,-2.419,0.2973,0.808,2.2474
7.752,1.2532,0.9311,-0.6728,5.8548,0.183,-2.419,-0.405,1.3059,0.1067
7.753,1.2016,1.23,-0.7322,5.8548,0.183,-2.419,-0.405,1.3059,0.1067
7.754,1.1318,1.6722,-0.6999,5.8548,0.183,-2.419,-0.405,1.3059,0.1067
7.754,0.7373,1.9118,-0.6547,5.8548,0.183,-2.419,-0.405,1.3059,0.1067
7.829,0.7373,1.9118,-0.6547,4.5661,8.4864,-6.1306,-0.405,1.3059,0.1067
7.831,0.7373,1.9118,-0.6547,4.5661,8.4864,-6.1306,-0.331,3.1956,-0.0119
7.832,0.2516,2.0744,-0.6568,4.5661,8.4864,-6.1306,-0.331,3.1956,-0.0119
7.832,-0.3653,1.9926,-0.4282,4.5661,8.4864,-6.1306,-0.331,3.1956,-0.0119
7.833,-0.5648,1.5734,-0.2039,4.5661,8.4864,-6.1306,-0.331,3.1956,-0.0119
7.834,-0.6645,1.3794,-0.0334,4.5661,8.4864,-6.1306,-0.331,3.1956,-0.0119
7.887,-0.6645,1.3794,-0.0334,-9.4636,9.3199,-3.1723,-0.331,3.1956,-0.0119
7.888,-0.6645,1.3794,-0.0334,-9.4636,9.3199,-3.1723,-0.8309,2.0185,1.3199
7.889,-0.718,1.1775,0.053,-9.4636,9.3199,-3.1723,-0.8309,2.0185,1.3199
7.889,-0.7337,0.8461,-0.0229,-9.4636,9.3199,-3.1723,-0.8309,2.0185,1.3199
7.89,-1.263,0.5639,-0.3056,-9.4636,9.3199,-3.1723,-0.8309,2.0185,1.3199
7.964,-1.3995,0.765,-0.4254,-9.4636,9.3199,-3.1723,-0.8309,2.0185,1.3199
7.966,-0.8879,0.8013,-0.356,-9.4636,9.3199,-3.1723,-0.8309,2.0185,1.3199
7.967,-0.2106,0.7765,-0.3023,-9.4636,9.3199,-3.1723,-0.8309,2.0185,1.3199
7.968,-0.2106,0.7765,-0.3023,-9.4636,9.3199,-3.1723,-0.6595,-0.3251,4.1351
7.969,-0.0395,0.922,-0.453,-9.4636,9.3199,-3.1723,-0.6595,-0.3251,4.1351
7.97,-0.0395,0.922,-0.453,-16.4634,2.4316,-1.8599,-0.6595,-0.3251,4.1351
8.023,-0.0395,0.922,-0.453,-12.4488,3.6265,-4.7735,-0.6595,-0.3251,4.1351
8.024,-0.0395,0.922,-0.453,-12.4488,3.6265,-4.7735,-0.564,0.7945,2.6474
8.025,-0.43,1.063,-0.3732,-12.4488,3.6265,-4.7735,-0.564,0.7945,2.6474
8.026,-0.5543,1.9114,-0.4778,-12.4488,3.6265,-4.7735,-0.564,0.7945,2.6474
8.027,-0.4301,2.1594,-0.6126,-12.4488,3.6265,-4.7735,-0.564,0.7945,2.6474
8.096,0.2223,1.3252,-0.5155,-12.4488,3.6265,-4.7735,-0.564,0.7945,2.6474
8.098,0.791,1.248,-0.5754,-12.4488,3.6265,-4.7735,-0.564,0.7945,2.6474
8.099,1.0736,0.7072,-0.4511,-12.4488,3.6265,-4.7735,-0.564,0.7945,2.6474
8.1,1.0736,0.7072,-0.4511,-11.4224,11.8132,-4.9763,-0.564,0.7945,2.6474
8.101,1.2873,0.3986,-0.5815,-11.4224,11.8132,-4.9763,-0.564,0.7945,2.6474
8.102,1.2873,0.3986,-0.5815,-11.4224,11.8132,-4.9763,-0.8077,-1.9299,0.3019
8.161,1.2873,0.3986,-0.5815,3.6986,1.7535,-4.8319,-0.8077,-1.9299,0.3019
8.163,1.2248,0.0608,-0.5287,3.6986,1.7535,-4.8319,-0.8077,-1.9299,0.3019
8.163,1.1444,0.0366,-0.4509,3.6986,1.7535,-4.8319,-0.8077,-1.9299,0.3019
8.164,0.9067,0.0971,-0.2915,3.6986,1.7535,-4.8319,-0.8077,-1.9299,0.3019
8.165,0.9067,0.0971,-0.2915,3.6986,1.7535,-4.8319,-0.0314,-1.1323,-4.4632
8.229,0.4837,0.3163,0.0427,3.6986,1.7535,-4.8319,-0.0314,-1.1323,-4.4632
8.231,0.6542,0.5615,0.297,3.6986,1.7535,-4.8319,-0.0314,-1.1323,-4.4632
8.232,0.6546,0.8443,0.2141,3.6986,1.7535,-4.8319,-0.0314,-1.1323,-4.4632
8.238,0.6546,0.8443,0.2141,7.5894,-7.336,-1.9995,-0.0314,-1.1323,-4.4632
8.239,0.6304,1.2162,-0.0797,7.5894,-7.336,-1.9995,-0.0314,-1.1323,-4.4632
8.24,0.6304,1.2162,-0.0797,7.5894,-7.336,-1.9995,1.352,-1.5899,-6.7159
8.298,1.4697,1.3756,-0.3975,7.5894,-7.336,-1.9995,1.352,-1.5899,-6.7159
8.3,1.8814,1.1661,-0.3049,7.5894,-7.336,-1.9995,1.352,-1.5899,-6.7159
8.301,1.5308,1.0194,0.2263,7.5894,-7.336,-1.9995,1.352,-1.5899,-6.7159
8.302,1.5308,1.0194,0.2263,7.5894,-7.336,-1.9995,0.7703,-0.901,-5.2074
8.302,1.5308,1.0194,0.2263,6.7381,-0.4973,3.4323,0.7703,-0.901,-5.2074
8.364,1.4785,0.8362,0.5232,6.7381,-0.4973,3.4323,0.7703,-0.901,-5.2074
8.366,1.7032,0.6929,0.4928,6.7381,-0.4973,3.4323,0.7703,-0.901,-5.2074
8.367,1.442,0.5068,0.4693,6.7381,-0.4973,3.4323,0.7703,-0.901,-5.2074
8.375,1.2697,0.1494,0.4643,6.7381,-0.4973,3.4323,0.7703,-0.901,-5.2074
8.376,1.2697,0.1494,0.4643,6.7381,-0.4973,3.4323,0.2701,-0.6724,0.0146
8.377,1.2697,0.1494,0.4643,16.1521,2.8167,1.4858,0.2701,-0.6724,0.0146
8.431,0.9702,-0.0433,0.3747,16.1521,2.8167,1.4858,0.2701,-0.6724,0.0146
8.433,0.8596,3.3499,-1.0356,16.1521,2.8167,1.4858,0.2701,-0.6724,0.0146
8.434,0.159,2.3394,-0.3882,16.1521,2.8167,1.4858,0.2701,-0.6724,0.0146
8.434,0.159,2.3394,-0.3882,16.1521,2.8167,1.4858,0.1468,-1.0457,3.4798
8.435,0.159,2.3394,-0.3882,12.9591,-3.343,6.9001,0.1468,-1.0457,3.4798
8.485,0.1683,0.5828,0.0874,12.9591,-3.343,6.9001,0.1468,-1.0457,3.4798
8.488,1.9525,1.6368,-0.0272,12.9591,-3.343,6.9001,0.1468,-1.0457,3.4798
8.489,1.417,-0.6059,0.2443,12.9591,-3.343,6.9001,0.1468,-1.0457,3.4798
8.503,1.417,-0.6059,0.2443,12.9591,-3.343,6.9001,0.6641,0.5821,3.4471
8.504,0.6396,1.8254,-0.7771,12.9591,-3.343,6.9001,0.6641,0.5821,3.4471
8.505,0.6396,1.8254,-0.7771,1.7117,7.9124,0.5359,0.6641,0.5821,3.4471
8.565,1.3466,0.7219,-0.82,1.7117,7.9124,0.5359,0.6641,0.5821,3.4471
8.568,1.1929,1.0356,-0.9225,1.7117,7.9124,0.5359,0.6641,0.5821,3.4471
8.569,1.1851,1.2566,-0.6546,1.7117,7.9124,0.5359,0.6641,0.5821,3.4471
8.579,0.9609,1.8962,-0.622,1.7117,7.9124,0.5359,0.6641,0.5821,3.4471
8.58,0.9609,1.8962,-0.622,7.6447,2.4362,-0.411,0.6641,0.5821,3.4471
8.581,0.9609,1.8962,-0.622,7.6447,2.4362,-0.411,-0.1237,0.978,1.0578
8.629,0.4572,2.0206,-0.458,7.6447,2.4362,-0.411,-0.1237,0.978,1.0578
8.63,0.057,2.0683,-0.4349,7.6447,2.4362,-0.411,-0.1237,0.978,1.0578
8.638,-0.2486,1.7634,-0.2219,7.6447,2.4362,-0.411,-0.1237,0.978,1.0578
8.639,-0.2486,1.7634,-0.2219,7.2267,3.4952,-6.4623,-0.1237,0.978,1.0578
8.639,-0.2486,1.7634,-0.2219,7.2267,3.4952,-6.4623,-0.4735,1.8683,0.0486
8.699,-0.5686,1.5045,-0.0738,7.2267,3.4952,-6.4623,-0.4735,1.8683,0.0486
8.701,-0.7356,1.2704,0.0533,7.2267,3.4952,-6.4623,-0.4735,1.8683,0.0486
8.717,-0.7356,1.2704,0.0533,-3.0267,11.4427,-3.7885,-0.4735,1.8683,0.0486
8.719,-0.6862,1.0718,0.0686,-3.0267,11.4427,-3.7885,-0.4735,1.8683,0.0486
8.72,-0.7583,0.8424,-0.191,-3.0267,11.4427,-3.7885,-0.4735,1.8683,0.0486
8.72,-0.7583,0.8424,-0.191,-3.0267,11.4427,-3.7885,-0.6887,3.0856,0.2731
8.763,-1.287,0.7139,-0.4201,-3.0267,11.4427,-3.7885,-0.6887,3.0856,0.2731
8.765,-1.0794,0.8674,-0.4394,-3.0267,11.4427,-3.7885,-0.6887,3.0856,0.2731
8.774,-1.0794,0.8674,-0.4394,-12.9311,5.78,-0.2774,-0.6887,3.0856,0.2731
8.775,-0.3735,0.9543,-0.54,-12.9311,5.78,-0.2774,-0.6887,3.0856,0.2731
8.777,-0.3735,0.9543,-0.54,-12.9311,5.78,-0.2774,-0.8037,-0.0929,3.5497
8.829,0.4231,1.1334,-0.6264,-12.9311,5.78,-0.2774,-0.8037,-0.0929,3.5497
8.831,-0.0495,1.5045,-0.3943,-12.9311,5.78,-0.2774,-0.8037,-0.0929,3.5497
8.853,-0.0495,1.5045,-0.3943,-12.9311,5.78,-0.2774,-0.3928,1.8053,4.384
8.854,-0.439,2.023,-0.2647,-12.9311,5.78,-0.2774,-0.3928,1.8053,4.384
8.855,-0.6939,2.4175,-0.3119,-12.9311,5.78,-0.2774,-0.3928,1.8053,4.384
8.856,-0.6939,2.4175,-0.3119,-16.4879,3.8994,-5.629,-0.3928,1.8053,4.384
8.896,-0.1816,1.2,-0.3242,-16.4879,3.8994,-5.629,-0.3928,1.8053,4.384
8.898,0.3608,1.1241,-0.5791,-16.4879,3.8994,-5.629,-0.3928,1.8053,4.384
8.911,0.3608,1.1241,-0.5791,-9.2078,13.6596,-4.35,-0.3928,1.8053,4.384
8.912,0.942,0.6213,-0.6809,-9.2078,13.6596,-4.35,-0.3928,1.8053,4.384
8.913,0.942,0.6213,-0.6809,-9.2078,13.6596,-4.35,-0.7855,-1.8896,2.2942
8.963,1.3628,0.2311,-0.7427,-9.2078,13.6596,-4.35,-0.7855,-1.8896,2.2942
8.965,1.3605,-0.1168,-0.606,-9.2078,13.6596,-4.35,-0.7855,-1.8896,2.2942
8.99,1.3605,-0.1168,-0.606,-5.2906,6.6072,-4.7651,-0.7855,-1.8896,2.2942
8.991,1.3605,-0.1168,-0.606,-5.2906,6.6072,-4.7651,-0.4729,-0.9077,-2.6209
8.992,1.0795,-0.2486,-0.4142,-5.2906,6.6072,-4.7651,-0.4729,-0.9077,-2.6209
8.992,0.6171,-0.1829,-0.1398,-5.2906,6.6072,-4.7651,-0.4729,-0.9077,-2.6209
9.029,0.2486,0.0586,0.0966,-5.2906,6.6072,-4.7651,-0.4729,-0.9077,-2.6209
9.031,0.0763,0.3708,0.2264,-5.2906,6.6072,-4.7651,-0.4729,-0.9077,-2.6209
9.049,0.0763,0.3708,0.2264,6.872,-7.8571,-4.2865,-0.4729,-0.9077,-2.6209
9.051,0.0763,0.3708,0.2264,6.872,-7.8571,-4.2865,0.7279,-1.0082,-6.3887
9.051,0.3044,0.5974,0.346,6.872,-7.8571,-4.2865,0.7279,-1.0082,-6.3887
9.097,0.4231,0.8852,0.1724,6.872,-7.8571,-4.2865,0.7279,-1.0082,-6.3887
9.099,0.6832,1.2933,-0.2887,6.872,-7.8571,-4.2865,0.7279,-1.0082,-6.3887
9.127,0.6832,1.2933,-0.2887,1.9313,-5.662,3.688,0.7279,-1.0082,-6.3887
9.128,1.701,1.5088,-0.653,1.9313,-5.662,3.688,0.7279,-1.0082,-6.3887
9.129,1.701,1.5088,-0.653,1.9313,-5.662,3.688,0.8322,-3.3344,-7.2236
9.13,2.19,1.3238,-0.5998,1.9313,-5.662,3.688,0.8322,-3.3344,-7.2236
9.162,1.4293,1.323,0.1187,1.9313,-5.662,3.688,0.8322,-3.3344,-7.2236
9.187,1.4293,1.323,0.1187,12.4532,4.0465,-0.8843,0.8322,-3.3344,-7.2236
9.188,1.376,1.2135,0.5863,12.4532,4.0465,-0.8843,0.8322,-3.3344,-7.2236
9.189,1.9418,0.8396,0.6571,12.4532,4.0465,-0.8843,0.8322,-3.3344,-7.2236
9.189,1.9418,0.8396,0.6571,12.4532,4.0465,-0.8843,0.4599,0.4814,-3.7525
9.229,1.4808,0.4562,0.4983,12.4532,4.0465,-0.8843,0.4599,0.4814,-3.7525
9.231,1.478,-0.0722,0.3188,12.4532,4.0465,-0.8843,0.4599,0.4814,-3.7525
9.265,1.478,-0.0722,0.3188,16.2243,2.854,5.1479,0.4599,0.4814,-3.7525
9.266,1.478,-0.0722,0.3188,16.2243,2.854,5.1479,-0.0633,-1.5367,2.0653
9.267,1.4208,0.8516,-0.5932,16.2243,2.854,5.1479,-0.0633,-1.5367,2.0653
9.267,0.3416,3.9928,-1.8589,16.2243,2.854,5.1479,-0.0633,-1.5367,2.0653
9.296,-0.4054,0.7585,0.5985,16.2243,2.854,5.1479,-0.0633,-1.5367,2.0653
9.322,0.9987,2.2937,-0.3373,16.2243,2.854,5.1479,-0.0633,-1.5367,2.0653
9.323,0.9987,2.2937,-0.3373,10.6738,1.4194,-0.5821,-0.0633,-1.5367,2.0653
9.324,1.8194,-0.5675,0.6515,10.6738,1.4194,-0.5821,-0.0633,-1.5367,2.0653
9.324,1.8194,-0.5675,0.6515,10.6738,1.4194,-0.5821,0.65,0.4621,4.3849
9.363,0.9549,0.2764,-0.5333,10.6738,1.4194,-0.5821,0.65,0.4621,4.3849
9.364,0.965,2.0587,-0.5819,10.6738,1.4194,-0.5821,0.65,0.4621,4.3849
9.4,0.965,2.0587,-0.5819,2.8106,4.6774,3.1888,0.65,0.4621,4.3849
9.402,0.965,2.0587,-0.5819,2.8106,4.6774,3.1888,0.4006,0.9054,1.9662
9.403,1.4749,0.6529,-0.7759,2.8106,4.6774,3.1888,0.4006,0.9054,1.9662
9.404,1.2458,0.8026,-0.6025,2.8106,4.6774,3.1888,0.4006,0.9054,1.9662
9.43,1.1098,1.7831,-0.8063,2.8106,4.6774,3.1888,0.4006,0.9054,1.9662
9.46,1.1098,1.7831,-0.8063,7.2837,1.9699,-4.3283,0.4006,0.9054,1.9662
9.461,1.1098,1.7831,-0.8063,7.2837,1.9699,-4.3283,-0.4127,1.2731,-0.1441
9.462,0.7999,1.7372,-0.5818,7.2837,1.9699,-4.3283,-0.4127,1.2731,-0.1441
9.462,0.5495,1.8361,-0.628,7.2837,1.9699,-4.3283,-0.4127,1.2731,-0.1441
9.483,0.0319,1.9059,-0.6715,7.2837,1.9699,-4.3283,-0.4127,1.2731,-0.1441
9.538,0.0319,1.9059,-0.6715,4.1725,8.0834,-5.6755,-0.4127,1.2731,-0.1441
9.54,-0.4778,1.7419,-0.3591,4.1725,8.0834,-5.6755,-0.4127,1.2731,-0.1441
9.541,-0.4778,1.7419,-0.3591,4.1725,8.0834,-5.6755,-0.2321,3.3148,-0.2001
9.541,-0.7152,1.5105,-0.1057,4.1725,8.0834,-5.6755,-0.2321,3.3148,-0.2001
9.542,-0.8456,1.2392,0.0502,4.1725,8.0834,-5.6755,-0.2321,3.3148,-0.2001
9.563,-0.6823,0.9182,0.2308,4.1725,8.0834,-5.6755,-0.2321,3.3148,-0.2001
9.595,-0.6823,0.9182,0.2308,-9.3154,8.6209,-3.4746,-0.2321,3.3148,-0.2001
9.597,-0.6823,0.9182,0.2308,-9.3154,8.6209,-3.4746,-0.9131,2.2027,1.2367
9.597,-0.7651,0.5863,-0.0992,-9.3154,8.6209,-3.4746,-0.9131,2.2027,1.2367
9.598,-1.3271,0.7564,-0.2423,-9.3154,8.6209,-3.4746,-0.9131,2.2027,1.2367
9.629,-1.0273,0.8235,-0.3037,-9.3154,8.6209,-3.4746,-0.9131,2.2027,1.2367
9.674,-0.2389,0.7992,-0.3292,-9.3154,8.6209,-3.4746,-0.9131,2.2027,1.2367
9.675,-0.2389,0.7992,-0.3292,-9.3154,8.6209,-3.4746,-0.7559,-0.1923,4.6245
9.676,0.3355,0.8741,-0.4105,-9.3154,8.6209,-3.4746,-0.7559,-0.1923,4.6245
9.676,0.3355,0.8741,-0.4105,-15.696,2.2134,-0.7019,-0.7559,-0.1923,4.6245
9.677,-0.132,1.2213,-0.4857,-15.696,2.2134,-0.7019,-0.7559,-0.1923,4.6245
9.697,-0.5569,1.7973,-0.4405,-15.696,2.2134,-0.7019,-0.7559,-0.1923,4.6245
9.732,-0.5569,1.7973,-0.4405,-10.2069,4.5668,-5.0812,-0.7559,-0.1923,4.6245
9.733,-0.5569,1.7973,-0.4405,-10.2069,4.5668,-5.0812,-0.9562,1.2829,3.5834
9.734,-0.8162,2.7108,-0.645,-10.2069,4.5668,-5.0812,-0.9562,1.2829,3.5834
9.735,-0.468,1.5453,-0.4467,-10.2069,4.5668,-5.0812,-0.9562,1.2829,3.5834
9.762,0.328,1.381,-0.6943,-10.2069,4.5668,-5.0812,-0.9562,1.2829,3.5834
9.81,0.328,1.381,-0.6943,-13.4582,15.21,-5.1478,-0.9562,1.2829,3.5834
9.812,0.328,1.381,-0.6943,-13.4582,15.21,-5.1478,-1.0105,-2.4359,1.0311
9.813,0.858,0.9481,-0.7122,-13.4582,15.21,-5.1478,-1.0105,-2.4359,1.0311
9.814,1.2408,0.4583,-0.7486,-13.4582,15.21,-5.1478,-1.0105,-2.4359,1.0311
9.815,1.2884,0.0098,-0.6799,-13.4582,15.21,-5.1478,-1.0105,-2.4359,1.0311
9.869,1.2884,0.0098,-0.6799,2.1485,2.1779,-6.6936,-1.0105,-2.4359,1.0311
9.871,1.2884,0.0098,-0.6799,2.1485,2.1779,-6.6936,-0.3335,-1.023,-4.385
9.872,1.0966,-0.1803,-0.5443,2.1485,2.1779,-6.6936,-0.3335,-1.023,-4.385
9.872,0.8318,-0.1378,-0.3109,2.1485,2.1779,-6.6936,-0.3335,-1.023,-4.385
9.873,0.5098,0.0674,-0.1537,2.1485,2.1779,-6.6936,-0.3335,-1.023,-4.385
9.896,0.4269,0.2799,0.0094,2.1485,2.1779,-6.6936,-0.3335,-1.023,-4.385
9.947,0.4269,0.2799,0.0094,5.5424,-8.7831,-2.4193,-0.3335,-1.023,-4.385
9.949,0.4269,0.2799,0.0094,5.5424,-8.7831,-2.4193,0.9073,-1.6777,-7.0674
9.95,0.5822,0.46,0.1425,5.5424,-8.7831,-2.4193,0.9073,-1.6777,-7.0674
9.95,0.4493,0.7771,0.1756,5.5424,-8.7831,-2.4193,0.9073,-1.6777,-7.0674
9.951,0.5991,1.2691,-0.2701,5.5424,-8.7831,-2.4193,0.9073,-1.6777,-7.0674
10.007,0.5991,1.2691,-0.2701,5.1901,-2.4299,2.5836,0.9073,-1.6777,-7.0674
10.009,0.5991,1.2691,-0.2701,5.1901,-2.4299,2.5836,0.8589,-1.296,-6.1808
10.01,1.5482,1.4217,-0.615,5.1901,-2.4299,2.5836,0.8589,-1.296,-6.1808
10.011,2.2513,1.3147,-0.6006,5.1901,-2.4299,2.5836,0.8589,-1.296,-6.1808
10.011,1.7077,1.0391,-0.1581,5.1901,-2.4299,2.5836,0.8589,-1.296,-6.1808
10.029,1.5312,0.9234,0.3421,5.1901,-2.4299,2.5836,0.8589,-1.296,-6.1808
10.086,1.5312,0.9234,0.3421,5.1901,-2.4299,2.5836,0.6104,0.2065,-0.7767
10.088,1.7675,0.7367,0.6274,5.1901,-2.4299,2.5836,0.6104,0.2065,-0.7767
10.089,1.3524,0.4315,0.7392,5.1901,-2.4299,2.5836,0.6104,0.2065,-0.7767
10.09,1.1155,0.0181,0.6939,5.1901,-2.4299,2.5836,0.6104,0.2065,-0.7767
10.091,1.1155,0.0181,0.6939,17.1072,4.2163,-2.0637,0.6104,0.2065,-0.7767
10.144,1.1155,0.0181,0.6939,13.3476,-2.1923,8.1211,0.6104,0.2065,-0.7767
10.146,1.1155,0.0181,0.6939,13.3476,-2.1923,8.1211,0.235,-1.3028,3.3213
10.147,0.9051,0.7461,0.3485,13.3476,-2.1923,8.1211,0.235,-1.3028,3.3213
10.147,0.8793,3.8844,-1.5109,13.3476,-2.1923,8.1211,0.235,-1.3028,3.3213
10.148,0.2824,1.038,0.3277,13.3476,-2.1923,8.1211,0.235,-1.3028,3.3213
10.162,1.0601,2.4036,-0.285,13.3476,-2.1923,8.1211,0.235,-1.3028,3.3213
10.221,1.0601,2.4036,-0.285,3.9982,8.1925,1.1071,0.235,-1.3028,3.3213
10.223,1.0601,2.4036,-0.285,3.9982,8.1925,1.1071,0.7083,0.8284,3.4276
10.224,1.6651,-0.2217,0.7354,3.9982,8.1925,1.1071,0.7083,0.8284,3.4276
10.225,1.054,0.5509,-0.6402,3.9982,8.1925,1.1071,0.7083,0.8284,3.4276
10.225,0.7494,1.5513,-0.7572,3.9982,8.1925,1.1071,0.7083,0.8284,3.4276
10.281,0.7494,1.5513,-0.7572,7.0534,3.4831,0.4864,0.7083,0.8284,3.4276
10.283,0.7494,1.5513,-0.7572,7.0534,3.4831,0.4864,-0.1748,1.0871,1.0194
10.284,1.5433,0.9295,-1.1396,7.0534,3.4831,0.4864,-0.1748,1.0871,1.0194
10.285,0.8536,0.9378,-0.7426,7.0534,3.4831,0.4864,-0.1748,1.0871,1.0194
10.286,1.1829,1.8353,-0.7842,7.0534,3.4831,0.4864,-0.1748,1.0871,1.0194
10.357,1.1829,1.8353,-0.7842,7.0534,3.4831,0.4864,-0.5281,2.0213,0.0498
10.358,0.5757,1.9594,-0.471,7.0534,3.4831,0.4864,-0.5281,2.0213,0.0498
10.359,0.2908,2.0485,-0.4361,7.0534,3.4831,0.4864,-0.5281,2.0213,0.0498
10.359,-0.325,1.8993,-0.3303,7.0534,3.4831,0.4864,-0.5281,2.0213,0.0498
10.36,-0.5687,1.5841,-0.1188,7.0534,3.4831,0.4864,-0.5281,2.0213,0.0498
10.36,-0.5687,1.5841,-0.1188,6.9887,3.8288,-7.0594,-0.5281,2.0213,0.0498
10.416,-0.7153,1.3093,0.0422,6.9887,3.8288,-7.0594,-0.5281,2.0213,0.0498
10.418,-0.7153,1.3093,0.0422,6.9887,3.8288,-7.0594,-0.7407,3.1258,0.423
10.419,-0.7528,1.0915,0.1079,6.9887,3.8288,-7.0594,-0.7407,3.1258,0.423
10.419,-0.7725,0.8736,-0.1417,6.9887,3.8288,-7.0594,-0.7407,3.1258,0.423
10.42,-0.7725,0.8736,-0.1417,-4.0631,11.1793,-3.6368,-0.7407,3.1258,0.423
10.484,-1.2387,0.7375,-0.3937,-4.0631,11.1793,-3.6368,-0.7407,3.1258,0.423
10.486,-1.0913,0.863,-0.4017,-4.0631,11.1793,-3.6368,-0.7407,3.1258,0.423
10.487,-0.5103,0.8346,-0.4802,-4.0631,11.1793,-3.6368,-0.7407,3.1258,0.423
10.487,-0.5103,0.8346,-0.4802,-4.0631,11.1793,-3.6368,-0.8674,0.2127,3.4641
10.488,-0.5103,0.8346,-0.4802,-13.3715,4.9012,-0.4656,-0.8674,0.2127,3.4641
10.564,0.0371,0.8432,-0.3993,-13.3715,4.9012,-0.4656,-0.8674,0.2127,3.4641
10.566,0.0371,0.8432,-0.3993,-13.3715,4.9012,-0.4656,-0.43,1.8089,3.9068
10.568,-0.0123,1.0546,-0.4506,-13.3715,4.9012,-0.4656,-0.43,1.8089,3.9068
10.569,-0.3661,1.6198,-0.4559,-13.3715,4.9012,-0.4656,-0.43,1.8089,3.9068
10.57,-0.5792,2.6271,-0.6413,-13.3715,4.9012,-0.4656,-0.43,1.8089,3.9068
10.571,-0.5792,2.6271,-0.6413,-15.3861,3.4044,-5.4959,-0.43,1.8089,3.9068
10.623,-0.5792,2.6271,-0.6413,-10.2868,12.3024,-5.511,-0.43,1.8089,3.9068
10.625,-0.546,1.547,-0.4236,-10.2868,12.3024,-5.511,-0.43,1.8089,3.9068
10.626,0.2067,1.231,-0.4806,-10.2868,12.3024,-5.511,-0.43,1.8089,3.9068
10.627,0.778,0.8781,-0.5899,-10.2868,12.3024,-5.511,-0.43,1.8089,3.9068
10.628,0.778,0.8781,-0.5899,-10.2868,12.3024,-5.511,-0.9339,-1.6241,1.7905
10.697,1.1249,0.4677,-0.634,-10.2868,12.3024,-5.511,-0.9339,-1.6241,1.7905
10.7,1.1073,0.1257,-0.5727,-10.2868,12.3024,-5.511,-0.9339,-1.6241,1.7905
10.702,1.0787,-0.0903,-0.5344,-10.2868,12.3024,-5.511,-0.9339,-1.6241,1.7905
10.703,1.0787,-0.0903,-0.5344,-10.2868,12.3024,-5.511,-0.4534,-1.7377,-2.7214
10.704,1.0787,-0.0903,-0.5344,-4.1227,5.7472,-4.8608,-0.4534,-1.7377,-2.7214
10.705,0.8679,-0.0684,-0.3921,-4.1227,5.7472,-4.8608,-0.4534,-1.7377,-2.7214
10.757,0.8679,-0.0684,-0.3921,-4.1227,5.7472,-4.8608,0.5783,-1.1454,-6.2332
10.759,0.5942,0.0816,-0.2405,-4.1227,5.7472,-4.8608,0.5783,-1.1454,-6.2332
10.759,0.3747,0.3167,-0.0451,-4.1227,5.7472,-4.8608,0.5783,-1.1454,-6.2332
10.76,0.4076,0.55,0.1429,-4.1227,5.7472,-4.8608,0.5783,-1.1454,-6.2332
10.761,0.4076,0.55,0.1429,5.9169,-6.988,-4.0764,0.5783,-1.1454,-6.2332
10.829,0.5095,0.908,0.1689,5.9169,-6.988,-4.0764,0.5783,-1.1454,-6.2332
10.831,0.5252,1.2223,-0.0752,5.9169,-6.988,-4.0764,0.5783,-1.1454,-6.2332
10.832,1.2372,1.4844,-0.4301,5.9169,-6.988,-4.0764,0.5783,-1.1454,-6.2332
10.836,2.1165,1.4383,-0.5469,5.9169,-6.988,-4.0764,0.5783,-1.1454,-6.2332
10.836,2.1165,1.4383,-0.5469,5.9169,-6.988,-4.0764,0.9556,-2.5875,-6.8498
10.837,2.1165,1.4383,-0.5469,4.3681,-4.5586,1.6837,0.9556,-2.5875,-6.8498
10.895,2.1165,1.4383,-0.5469,4.3681,-4.5586,1.6837,0.5388,0.2624,-2.7664
10.897,1.5701,1.2077,-0.0149,4.3681,-4.5586,1.6837,0.5388,0.2624,-2.7664
10.897,1.4128,1.032,0.4544,4.3681,-4.5586,1.6837,0.5388,0.2624,-2.7664
10.898,2.0241,0.6577,0.5281,4.3681,-4.5586,1.6837,0.5388,0.2624,-2.7664
10.899,2.0241,0.6577,0.5281,12.6449,4.7886,-0.4523,0.5388,0.2624,-2.7664
10.963,1.5338,0.3624,0.5775,12.6449,4.7886,-0.4523,0.5388,0.2624,-2.7664
10.965,1.4462,0.351,0.4292,12.6449,4.7886,-0.4523,0.5388,0.2624,-2.7664
10.967,2.086,3.2005,-0.729,12.6449,4.7886,-0.4523,0.5388,0.2624,-2.7664
10.973,2.086,3.2005,-0.729,12.6449,4.7886,-0.4523,0.08,-1.1705,3.1326
10.974,-0.4126,1.9219,-0.4376,12.6449,4.7886,-0.4523,0.08,-1.1705,3.1326
10.975,-0.4126,1.9219,-0.4376,15.5502,0.4419,5.6853,0.08,-1.1705,3.1326
11.03,0.1785,0.8023,0.2562,15.5502,0.4419,5.6853,0.08,-1.1705,3.1326
11.032,2.3103,1.4623,-0.1407,15.5502,0.4419,5.6853,0.08,-1.1705,3.1326
11.033,1.1471,-0.8139,0.2706,15.5502,0.4419,5.6853,0.08,-1.1705,3.1326
11.034,1.1471,-0.8139,0.2706,15.5502,0.4419,5.6853,0.6085,0.6265,3.9686
11.034,1.1471,-0.8139,0.2706,7.5535,7.8977,1.0781,0.6085,0.6265,3.9686
11.097,0.6904,1.7943,-0.8841,7.5535,7.8977,1.0781,0.6085,0.6265,3.9686
11.099,1.3822,0.6772,-0.5619,7.5535,7.8977,1.0781,0.6085,0.6265,3.9686
11.1,1.36,1.135,-0.7278,7.5535,7.8977,1.0781,0.6085,0.6265,3.9686
11.11,1.36,1.135,-0.7278,7.5535,7.8977,1.0781,0.1348,0.9106,1.4526
11.111,1.36,1.135,-0.7278,6.6792,-1.8484,2.0527,0.1348,0.9106,1.4526
11.112,1.0469,1.1851,-0.7299,6.6792,-1.8484,2.0527,0.1348,0.9106,1.4526
11.164,0.9134,1.7903,-0.8063,6.6792,-1.8484,2.0527,0.1348,0.9106,1.4526
11.167,0.6364,1.8408,-0.6172,6.6792,-1.8484,2.0527,0.1348,0.9106,1.4526
11.17,0.1686,2.1244,-0.5205,6.6792,-1.8484,2.0527,0.1348,0.9106,1.4526
11.171,0.1686,2.1244,-0.5205,6.6792,-1.8484,2.0527,-0.5297,1.5054,0.1284
11.172,0.1686,2.1244,-0.5205,7.2829,4.4104,-5.411,-0.5297,1.5054,0.1284
11.231,-0.2375,1.8983,-0.3467,7.2829,4.4104,-5.411,-0.5297,1.5054,0.1284
11.233,-0.3993,1.575,-0.2127,7.2829,4.4104,-5.411,-0.5297,1.5054,0.1284
11.233,-0.6048,1.4346,-0.0263,7.2829,4.4104,-5.411,-0.5297,1.5054,0.1284
11.247,-0.6013,1.2336,0.0182,7.2829,4.4104,-5.411,-0.5297,1.5054,0.1284
11.248,-0.6013,1.2336,0.0182,7.2829,4.4104,-5.411,-0.3745,3.3303,0.2982
11.249,-0.6013,1.2336,0.0182,-0.3327,11.3048,-5.6317,-0.3745,3.3303,0.2982
11.296,-0.6821,0.7632,-0.0864,-0.3327,11.3048,-5.6317,-0.3745,3.3303,0.2982
11.298,-1.2999,0.6424,-0.2758,-0.3327,11.3048,-5.6317,-0.3745,3.3303,0.2982
11.304,-1.2999,0.6424,-0.2758,-10.8799,7.5722,-1.5813,-0.3745,3.3303,0.2982
11.305,-1.3181,1.0053,-0.4504,-10.8799,7.5722,-1.5813,-0.3745,3.3303,0.2982
11.306,-1.3181,1.0053,-0.4504,-10.8799,7.5722,-1.5813,-0.8361,1.3656,2.4846
11.365,-0.7932,0.92,-0.3566,-10.8799,7.5722,-1.5813,-0.8361,1.3656,2.4846
11.368,-0.1495,0.7971,-0.4032,-10.8799,7.5722,-1.5813,-0.8361,1.3656,2.4846
11.381,0.037,0.9777,-0.4891,-10.8799,7.5722,-1.5813,-0.8361,1.3656,2.4846
11.382,0.037,0.9777,-0.4891,-10.8799,7.5722,-1.5813,-0.5473,0.6712,3.9843
11.383,0.037,0.9777,-0.4891,-17.8243,3.1413,-3.8399,-0.5473,0.6712,3.9843
11.384,-0.119,1.376,-0.6825,-17.8243,3.1413,-3.8399,-0.5473,0.6712,3.9843
11.43,-0.4907,2.2286,-0.6247,-17.8243,3.1413,-3.8399,-0.5473,0.6712,3.9843
11.432,-0.6415,1.6611,-0.3944,-17.8243,3.1413,-3.8399,-0.5473,0.6712,3.9843
11.441,-0.6415,1.6611,-0.3944,-9.153,6.0686,-6.1947,-0.5473,0.6712,3.9843
11.442,-0.6415,1.6611,-0.3944,-9.153,6.0686,-6.1947,-0.9627,0.3596,2.0371
11.443,0.282,1.2767,-0.3667,-9.153,6.0686,-6.1947,-0.9627,0.3596,2.0371
11.483,0.8252,1.0307,-0.365,-9.153,6.0686,-6.1947,-0.9627,0.3596,2.0371
11.485,1.0398,0.6089,-0.3664,-9.153,6.0686,-6.1947,-0.9627,0.3596,2.0371
11.52,1.0398,0.6089,-0.3664,-8.5776,11.3126,-4.7285,-0.9627,0.3596,2.0371
11.521,1.2242,0.3352,-0.48,-8.5776,11.3126,-4.7285,-0.9627,0.3596,2.0371
11.522,1.2242,0.3352,-0.48,-8.5776,11.3126,-4.7285,-0.6548,-2.2751,-1.3197
11.523,1.2217,0.0606,-0.4465,-8.5776,11.3126,-4.7285,-0.6548,-2.2751,-1.3197
11.563,1.1285,0.0218,-0.4025,-8.5776,11.3126,-4.7285,-0.6548,-2.2751,-1.3197
11.565,0.7881,0.0507,-0.1759,-8.5776,11.3126,-4.7285,-0.6548,-2.2751,-1.3197
11.577,0.4739,0.2307,0.1071,-8.5776,11.3126,-4.7285,-0.6548,-2.2751,-1.3197
11.578,0.4739,0.2307,0.1071,-8.5776,11.3126,-4.7285,0.4734,-1.2141,-5.5542
11.579,0.4739,0.2307,0.1071,5.9457,-3.0065,-3.5495,0.4734,-1.2141,-5.5542
11.63,0.4367,0.4955,0.1954,5.9457,-3.0065,-3.5495,0.4734,-1.2141,-5.5542
11.633,0.4891,0.8498,0.1192,5.9457,-3.0065,-3.5495,0.4734,-1.2141,-5.5542
11.657,0.7894,1.263,-0.1185,5.9457,-3.0065,-3.5495,0.4734,-1.2141,-5.5542
11.659,0.7894,1.263,-0.1185,5.9457,-3.0065,-3.5495,1.4879,-2.3078,-6.984
11.659,1.3275,1.4797,-0.2981,5.9457,-3.0065,-3.5495,1.4879,-2.3078,-6.984
11.66,1.3275,1.4797,-0.2981,6.1166,-6.9081,0.7273,1.4879,-2.3078,-6.984
11.695,1.8933,1.418,-0.2324,6.1166,-6.9081,0.7273,1.4879,-2.3078,-6.984
11.696,1.4753,1.1998,0.2261,6.1166,-6.9081,0.7273,1.4879,-2.3078,-6.984
11.715,1.6176,0.9422,0.5392,6.1166,-6.9081,0.7273,1.4879,-2.3078,-6.984
11.716,1.6176,0.9422,0.5392,8.9037,2.5794,1.6611,1.4879,-2.3078,-6.984
11.717,1.6176,0.9422,0.5392,8.9037,2.5794,1.6611,0.6764,-0.4511,-3.9967
11.764,1.8606,0.6409,0.4908,8.9037,2.5794,1.6611,0.6764,-0.4511,-3.9967
11.766,1.5102,0.3422,0.4695,8.9037,2.5794,1.6611,0.6764,-0.4511,-3.9967
11.793,1.5102,0.3422,0.4695,8.9037,2.5794,1.6611,-0.0181,-1.3178,1.5068
11.794,1.4008,0.1045,0.4299,8.9037,2.5794,1.6611,-0.0181,-1.3178,1.5068
11.795,1.4008,0.1045,0.4299,16.6725,2.5315,4.2375,-0.0181,-1.3178,1.5068
11.796,1.6165,2.585,-0.4434,16.6725,2.5315,4.2375,-0.0181,-1.3178,1.5068
11.829,-0.0395,2.4227,-0.9415,16.6725,2.5315,4.2375,-0.0181,-1.3178,1.5068
11.852,-0.0395,2.4227,-0.9415,16.6725,2.5315,4.2375,0.6975,0.1106,4.6702
11.854,-0.0395,2.4227,-0.9415,12.4242,1.3935,4.2436,0.6975,0.1106,4.6702
11.855,0.0915,0.3548,0.4073,12.4242,1.3935,4.2436,0.6975,0.1106,4.6702
11.857,2.357,1.821,-0.4462,12.4242,1.3935,4.2436,0.6975,0.1106,4.6702
11.897,0.9761,-0.4707,0.4826,12.4242,1.3935,4.2436,0.6975,0.1106,4.6702
11.898,0.8213,1.0834,-0.8446,12.4242,1.3935,4.2436,0.6975,0.1106,4.6702
11.93,0.8213,1.0834,-0.8446,4.1623,4.8779,0.2387,0.6975,0.1106,4.6702
11.931,0.8213,1.0834,-0.8446,4.1623,4.8779,0.2387,0.2692,0.8405,2.1952
11.932,1.3302,1.2448,-0.8001,4.1623,4.8779,0.2387,0.2692,0.8405,2.1952
11.932,1.2168,1.0246,-0.7335,4.1623,4.8779,0.2387,0.2692,0.8405,2.1952
11.962,1.2416,1.1586,-0.6731,4.1623,4.8779,0.2387,0.2692,0.8405,2.1952
11.99,1.2416,1.1586,-0.6731,6.1181,1.1328,-4.2948,0.2692,0.8405,2.1952
11.992,1.2416,1.1586,-0.6731,6.1181,1.1328,-4.2948,-0.5206,0.9933,0.153
11.993,1.1216,1.8502,-0.5689,6.1181,1.1328,-4.2948,-0.5206,0.9933,0.153
11.993,0.71,1.9407,-0.4576,6.1181,1.1328,-4.2948,-0.5206,0.9933,0.153
12.03,0.2359,2.1817,-0.5018,6.1181,1.1328,-4.2948,-0.5206,0.9933,0.153
12.032,-0.3605,1.8753,-0.3538,6.1181,1.1328,-4.2948,-0.5206,0.9933,0.153
12.066,-0.3605,1.8753,-0.3538,4.3543,9.2342,-4.7325,-0.5206,0.9933,0.153
12.068,-0.614,1.4662,-0.1717,4.3543,9.2342,-4.7325,-0.5206,0.9933,0.153
12.069,-0.614,1.4662,-0.1717,4.3543,9.2342,-4.7325,-0.3131,2.9889,0.0643
12.069,-0.5851,1.253,-0.049,4.3543,9.2342,-4.7325,-0.3131,2.9889,0.0643
12.096,-0.4655,1.0782,0.0733,4.3543,9.2342,-4.7325,-0.3131,2.9889,0.0643
12.125,-0.4655,1.0782,0.0733,-9.7003,8.6588,-2.7292,-0.3131,2.9889,0.0643
12.127,-0.4655,1.0782,0.0733,-9.7003,8.6588,-2.7292,-0.9213,2.0622,1.4588
12.127,-0.6039,0.8517,-0.147,-9.7003,8.6588,-2.7292,-0.9213,2.0622,1.4588
12.128,-1.4137,0.7431,-0.2912,-9.7003,8.6588,-2.7292,-0.9213,2.0622,1.4588
12.163,-1.3177,0.8693,-0.311,-9.7003,8.6588,-2.7292,-0.9213,2.0622,1.4588
12.203,-1.3177,0.8693,-0.311,-16.2116,3.4882,-2.2282,-0.9213,2.0622,1.4588
12.205,-1.3177,0.8693,-0.311,-16.2116,3.4882,-2.2282,-0.7099,0.4006,4.7959
12.206,-0.4005,0.9381,-0.4536,-16.2116,3.4882,-2.2282,-0.7099,0.4006,4.7959
12.207,0.2318,1.0687,-0.4234,-16.2116,3.4882,-2.2282,-0.7099,0.4006,4.7959
12.207,-0.2564,1.3227,-0.3505,-16.2116,3.4882,-2.2282,-0.7099,0.4006,4.7959
12.229,-0.5627,2.0554,-0.3703,-16.2116,3.4882,-2.2282,-0.7099,0.4006,4.7959
12.261,-0.5627,2.0554,-0.3703,-10.7459,7.0525,-5.1291,-0.7099,0.4006,4.7959
12.263,-0.5627,2.0554,-0.3703,-10.7459,7.0525,-5.1291,-1.1075,0.1964,3.2304
12.264,-0.8202,2.4767,-0.5537,-10.7459,7.0525,-5.1291,-1.1075,0.1964,3.2304
12.265,-0.2432,1.2355,-0.3715,-10.7459,7.0525,-5.1291,-1.1075,0.1964,3.2304
12.296,0.3832,1.2281,-0.729,-10.7459,7.0525,-5.1291,-1.1075,0.1964,3.2304
12.34,0.3832,1.2281,-0.729,-11.9706,14.1172,-4.744,-1.1075,0.1964,3.2304
12.342,0.3832,1.2281,-0.729,-11.9706,14.1172,-4.744,-0.7963,-2.0489,-0.1434
12.344,0.8631,0.7207,-0.6357,-11.9706,14.1172,-4.744,-0.7963,-2.0489,-0.1434
12.344,1.1919,0.3364,-0.6395,-11.9706,14.1172,-4.744,-0.7963,-2.0489,-0.1434
12.345,1.2584,-0.0071,-0.5922,-11.9706,14.1172,-4.744,-0.7963,-2.0489,-0.1434
12.363,1.0474,-0.2023,-0.4352,-11.9706,14.1172,-4.744,-0.7963,-2.0489,-0.1434
12.399,0.7613,-0.1191,-0.2084,-11.9706,14.1172,-4.744,-0.7963,-2.0489,-0.1434
12.401,0.7613,-0.1191,-0.2084,-11.9706,14.1172,-4.744,-0.0164,-0.9112,-5.3593
12.401,0.3826,0.156,-0.0217,-11.9706,14.1172,-4.744,-0.0164,-0.9112,-5.3593
12.402,0.3826,0.156,-0.0217,3.9673,-1.6909,-5.9051,-0.0164,-0.9112,-5.3593
12.429,0.3358,0.4334,0.131,3.9673,-1.6909,-5.9051,-0.0164,-0.9112,-5.3593
12.478,0.3358,0.4334,0.131,4.4039,-8.1069,-0.1646,-0.0164,-0.9112,-5.3593
12.48,0.3358,0.4334,0.131,4.4039,-8.1069,-0.1646,1.2281,-1.8851,-7.4408
12.481,0.6035,0.6526,0.1795,4.4039,-8.1069,-0.1646,1.2281,-1.8851,-7.4408
12.482,0.6662,0.9651,-0.0151,4.4039,-8.1069,-0.1646,1.2281,-1.8851,-7.4408
12.483,0.8655,1.236,-0.2652,4.4039,-8.1069,-0.1646,1.2281,-1.8851,-7.4408
12.498,1.62,1.5634,-0.4267,4.4039,-8.1069,-0.1646,1.2281,-1.8851,-7.4408
12.536,1.62,1.5634,-0.4267,7.556,0.4058,2.0162,1.2281,-1.8851,-7.4408
12.538,1.62,1.5634,-0.4267,7.556,0.4058,2.0162,0.868,-0.0003,-5.7979
12.539,1.9673,1.4521,-0.1654,7.556,0.4058,2.0162,0.868,-0.0003,-5.7979
12.539,1.3877,1.4074,0.4369,7.556,0.4058,2.0162,0.868,-0.0003,-5.7979
12.563,1.4576,1.0673,0.7903,7.556,0.4058,2.0162,0.868,-0.0003,-5.7979
12.615,1.4576,1.0673,0.7903,16.3202,5.642,2.5533,0.868,-0.0003,-5.7979
12.618,1.4576,1.0673,0.7903,16.3202,5.642,2.5533,-0.0172,-1.5028,0.5443
12.618,1.941,0.6262,0.6144,16.3202,5.642,2.5533,-0.0172,-1.5028,0.5443
12.619,1.6508,0.2682,0.3648,16.3202,5.642,2.5533,-0.0172,-1.5028,0.5443
12.62,1.467,-0.1828,0.262,16.3202,5.642,2.5533,-0.0172,-1.5028,0.5443
12.674,1.467,-0.1828,0.262,14.7731,-4.843,6.5584,-0.0172,-1.5028,0.5443
12.675,1.467,-0.1828,0.262,14.7731,-4.843,6.5584,0.3758,-0.4584,3.8672
12.676,1.2287,1.2684,-0.6138,14.7731,-4.843,6.5584,0.3758,-0.4584,3.8672
12.677,-0.0608,4.131,-1.462,14.7731,-4.843,6.5584,0.3758,-0.4584,3.8672
12.678,-0.5729,0.469,0.4767,14.7731,-4.843,6.5584,0.3758,-0.4584,3.8672
12.697,1.7859,2.3927,-0.2504,14.7731,-4.843,6.5584,0.3758,-0.4584,3.8672
12.751,1.7859,2.3927,-0.2504,-0.5258,11.4927,-3.1885,0.3758,-0.4584,3.8672
12.753,1.7859,2.3927,-0.2504,-0.5258,11.4927,-3.1885,0.6394,0.797,3.2471
12.753,1.4744,-0.7141,0.6091,-0.5258,11.4927,-3.1885,0.6394,0.797,3.2471
12.754,0.8735,0.4803,-0.4957,-0.5258,11.4927,-3.1885,0.6394,0.797,3.2471
12.755,1.1992,1.6729,-0.8234,-0.5258,11.4927,-3.1885,0.6394,0.797,3.2471
12.809,1.3933,0.6998,-0.753,-0.5258,11.4927,-3.1885,0.6394,0.797,3.2471
12.811,1.3933,0.6998,-0.753,9.3653,0.4123,0.0494,0.6394,0.797,3.2471
12.812,1.3933,0.6998,-0.753,9.3653,0.4123,0.0494,-0.23,1.0502,0.5075
12.812,1.1217,1.0303,-0.6981,9.3653,0.4123,0.0494,-0.23,1.0502,0.5075
12.813,1.0579,1.9147,-0.6925,9.3653,0.4123,0.0494,-0.23,1.0502,0.5075
12.828,0.578,1.796,-0.5508,9.3653,0.4123,0.0494,-0.23,1.0502,0.5075
12.887,0.578,1.796,-0.5508,9.3653,0.4123,0.0494,-0.5155,1.7677,-0.2357
12.888,0.4734,1.8913,-0.4963,9.3653,0.4123,0.0494,-0.5155,1.7677,-0.2357
12.889,-0.0689,1.9165,-0.4258,9.3653,0.4123,0.0494,-0.5155,1.7677,-0.2357
12.889,-0.3865,1.7202,-0.244,9.3653,0.4123,0.0494,-0.5155,1.7677,-0.2357
12.89,-0.3865,1.7202,-0.244,6.5685,4.9454,-5.6957,-0.5155,1.7677,-0.2357
12.947,-0.3865,1.7202,-0.244,6.5685,4.9454,-5.6957,-0.6436,3.531,0.1875
12.948,-0.643,1.489,-0.1241,6.5685,4.9454,-5.6957,-0.6436,3.531,0.1875
12.949,-0.8566,1.2541,-0.0556,6.5685,4.9454,-5.6957,-0.6436,3.531,0.1875
12.949,-1.1561,0.7861,0.0218,6.5685,4.9454,-5.6957,-0.6436,3.531,0.1875
12.95,-1.1561,0.7861,0.0218,-3.6835,10.0661,-4.1958,-0.6436,3.531,0.1875
12.967,-1.3201,0.4795,-0.2171,-3.6835,10.0661,-4.1958,-0.6436,3.531,0.1875
13.025,-1.3201,0.4795,-0.2171,-3.6835,10.0661,-4.1958,-0.7075,-0.2703,4.177
13.027,-1.3067,0.8134,-0.4201,-3.6835,10.0661,-4.1958,-0.7075,-0.2703,4.177
13.028,-0.7941,0.8755,-0.5537,-3.6835,10.0661,-4.1958,-0.7075,-0.2703,4.177
13.028,-0.7941,0.8755,-0.5537,-15.4627,4.1102,-0.9945,-0.7075,-0.2703,4.177
13.03,-0.3585,0.9052,-0.4145,-15.4627,4.1102,-0.9945,-0.7075,-0.2703,4.177
13.083,-0.3585,0.9052,-0.4145,-16.233,3.4754,-5.333,-0.7075,-0.2703,4.177
13.085,-0.3585,0.9052,-0.4145,-16.233,3.4754,-5.333,-0.4595,1.0138,3.977
13.086,0.0281,1.0165,-0.4313,-16.233,3.4754,-5.333,-0.4595,1.0138,3.977
13.087,-0.2554,1.3327,-0.4265,-16.233,3.4754,-5.333,-0.4595,1.0138,3.977
13.088,-0.3978,2.0425,-0.5807,-16.233,3.4754,-5.333,-0.4595,1.0138,3.977
13.162,-0.3978,2.0425,-0.5807,-10.0725,10.8548,-5.2487,-0.4595,1.0138,3.977
13.164,-0.3978,2.0425,-0.5807,-10.0725,10.8548,-5.2487,-0.7531,-1.3103,0.8859
13.165,-0.4146,1.6446,-0.5039,-10.0725,10.8548,-5.2487,-0.7531,-1.3103,0.8859
13.166,0.3166,1.063,-0.4613,-10.0725,10.8548,-5.2487,-0.7531,-1.3103,0.8859
13.167,0.6574,0.8964,-0.644,-10.0725,10.8548,-5.2487,-0.7531,-1.3103,0.8859
13.168,0.9245,0.4848,-0.5199,-10.0725,10.8548,-5.2487,-0.7531,-1.3103,0.8859
13.22,0.9245,0.4848,-0.5199,-10.0725,10.8548,-5.2487,-0.0001,-1.6468,-3.6171
13.222,0.9245,0.4848,-0.5199,-1.3924,2.7235,-4.6923,-0.0001,-1.6468,-3.6171
13.223,1.1255,0.3504,-0.4956,-1.3924,2.7235,-4.6923,-0.0001,-1.6468,-3.6171
13.223,1.0577,0.0247,-0.3548,-1.3924,2.7235,-4.6923,-0.0001,-1.6468,-3.6171
13.224,0.7242,0.1061,-0.0926,-1.3924,2.7235,-4.6923,-0.0001,-1.6468,-3.6171
13.298,0.5032,0.3609,-0.0422,-1.3924,2.7235,-4.6923,-0.0001,-1.6468,-3.6171
13.3,0.5696,0.5798,-0.0136,-1.3924,2.7235,-4.6923,-0.0001,-1.6468,-3.6171
13.3,0.8041,0.7659,-0.0776,-1.3924,2.7235,-4.6923,-0.0001,-1.6468,-3.6171
13.301,0.8041,0.7659,-0.0776,-1.3924,2.7235,-4.6923,0.7313,-2.3036,-6.2202
13.302,1.1007,0.9722,-0.3059,-1.3924,2.7235,-4.6923,0.7313,-2.3036,-6.2202
13.302,1.1007,0.9722,-0.3059,5.6532,-6.0787,-1.0652,0.7313,-2.3036,-6.2202
13.356,1.0582,1.0453,-0.2195,5.6532,-6.0787,-1.0652,0.7313,-2.3036,-6.2202
13.358,1.0582,1.0453,-0.2195,5.6532,-6.0787,-1.0652,0.8408,-0.1439,-6.0653
13.358,1.2778,1.352,-0.0113,5.6532,-6.0787,-1.0652,0.8408,-0.1439,-6.0653
13.359,1.563,1.3286,0.2263,5.6532,-6.0787,-1.0652,0.8408,-0.1439,-6.0653
13.36,1.563,1.3286,0.2263,7.6825,-1.2611,0.9169,0.8408,-0.1439,-6.0653
13.43,1.4551,1.1703,0.4983,7.6825,-1.2611,0.9169,0.8408,-0.1439,-6.0653
13.432,1.4361,0.8477,0.7364,7.6825,-1.2611,0.9169,0.8408,-0.1439,-6.0653
13.433,1.5941,0.5059,0.6597,7.6825,-1.2611,0.9169,0.8408,-0.1439,-6.0653
13.434,1.5941,0.5059,0.6597,7.6825,-1.2611,0.9169,0.0306,-0.6731,-0.9162
13.435,1.5941,0.5059,0.6597,13.487,3.7899,2.6339,0.0306,-0.6731,-0.9162
13.436,1.4345,0.192,0.5028,13.487,3.7899,2.6339,0.0306,-0.6731,-0.9162
13.483,1.081,-0.1097,0.4217,13.487,3.7899,2.6339,0.0306,-0.6731,-0.9162
13.485,1.6597,2.2702,-1.1722,13.487,3.7899,2.6339,0.0306,-0.6731,-0.9162
13.485,0.3706,2.864,-1.0494,13.487,3.7899,2.6339,0.0306,-0.6731,-0.9162
13.502,0.3706,2.864,-1.0494,13.487,3.7899,2.6339,0.1001,-0.5951,3.3096
13.503,-0.059,0.424,0.7264,13.487,3.7899,2.6339,0.1001,-0.5951,3.3096
13.504,-0.059,0.424,0.7264,12.9153,-2.3592,8.1153,0.1001,-0.5951,3.3096
13.563,-0.059,0.424,0.7264,3.8194,6.6138,-1.252,0.1001,-0.5951,3.3096
13.565,2.0991,2.0612,-0.204,3.8194,6.6138,-1.252,0.1001,-0.5951,3.3096
13.566,0.5069,-0.365,0.2347,3.8194,6.6138,-1.252,0.1001,-0.5951,3.3096
13.567,1.425,1.1934,-1.0765,3.8194,6.6138,-1.252,0.1001,-0.5951,3.3096
13.568,1.425,1.1934,-1.0765,3.8194,6.6138,-1.252,0.5421,0.4755,3.5887
13.631,1.3599,0.9973,-0.5359,3.8194,6.6138,-1.252,0.5421,0.4755,3.5887
13.632,1.3069,1.184,-0.8209,3.8194,6.6138,-1.252,0.5421,0.4755,3.5887
13.633,1.0716,1.2798,-0.6627,3.8194,6.6138,-1.252,0.5421,0.4755,3.5887
13.639,1.0716,1.2798,-0.6627,8.0018,1.6511,-0.6569,0.5421,0.4755,3.5887
13.64,1.0716,1.2798,-0.6627,8.0018,1.6511,-0.6569,-0.1677,1.1302,0.8749
13.641,0.9579,1.9448,-0.6986,8.0018,1.6511,-0.6569,-0.1677,1.1302,0.8749
13.696,0.5146,1.9904,-0.6065,8.0018,1.6511,-0.6569,-0.1677,1.1302,0.8749
13.697,-0.0381,2.0317,-0.3507,8.0018,1.6511,-0.6569,-0.1677,1.1302,0.8749
13.698,-0.0381,2.0317,-0.3507,8.0018,1.6511,-0.6569,-0.623,1.9527,-0.1006
13.699,-0.536,1.7215,-0.1356,8.0018,1.6511,-0.6569,-0.623,1.9527,-0.1006
13.699,-0.536,1.7215,-0.1356,7.4478,4.7836,-5.6259,-0.623,1.9527,-0.1006
13.763,-0.6628,1.3912,-0.04,7.4478,4.7836,-5.6259,-0.623,1.9527,-0.1006
13.764,-0.7452,1.2382,-0.0318,7.4478,4.7836,-5.6259,-0.623,1.9527,-0.1006
13.765,-0.745,0.8779,-0.0168,7.4478,4.7836,-5.6259,-0.623,1.9527,-0.1006
13.775,-0.745,0.8779,-0.0168,7.4478,4.7836,-5.6259,-0.7501,2.5043,0.4856
13.776,-0.878,0.5914,-0.2539,7.4478,4.7836,-5.6259,-0.7501,2.5043,0.4856
13.776,-0.878,0.5914,-0.2539,-3.9848,11.147,-4.1913,-0.7501,2.5043,0.4856
13.831,-1.1874,0.8319,-0.3841,-3.9848,11.147,-4.1913,-0.7501,2.5043,0.4856
13.833,-0.8813,0.9447,-0.3346,-3.9848,11.147,-4.1913,-0.7501,2.5043,0.4856
13.834,-0.8813,0.9447,-0.3346,-3.9848,11.147,-4.1913,-0.8974,-0.0676,3.6688
13.834,-0.8813,0.9447,-0.3346,-13.4862,4.4042,-1.0535,-0.8974,-0.0676,3.6688
13.836,-0.3949,0.9235,-0.2402,-13.4862,4.4042,-1.0535,-0.8974,-0.0676,3.6688
13.899,0.0147,0.8743,-0.2721,-13.4862,4.4042,-1.0535,-0.8974,-0.0676,3.6688
13.902,-0.2019,1.1456,-0.3328,-13.4862,4.4042,-1.0535,-0.8974,-0.0676,3.6688
13.903,-0.3699,1.8585,-0.381,-13.4862,4.4042,-1.0535,-0.8974,-0.0676,3.6688
13.912,-0.5866,2.3221,-0.6753,-13.4862,4.4042,-1.0535,-0.8974,-0.0676,3.6688
13.913,-0.5866,2.3221,-0.6753,-13.4862,4.4042,-1.0535,-0.5771,0.4689,3.9262
13.914,-0.5866,2.3221,-0.6753,-15.8579,3.984,-3.9802,-0.5771,0.4689,3.9262
13.964,0.0618,1.2152,-0.5777,-15.8579,3.984,-3.9802,-0.5771,0.4689,3.9262
13.967,0.7159,1.0981,-0.7897,-15.8579,3.984,-3.9802,-0.5771,0.4689,3.9262
13.971,0.7159,1.0981,-0.7897,-10.2228,10.905,-3.8621,-0.5771,0.4689,3.9262
13.973,0.7159,1.0981,-0.7897,-10.2228,10.905,-3.8621,-0.9021,-1.732,1.6294
13.974,1.0963,0.6013,-0.7271,-10.2228,10.905,-3.8621,-0.9021,-1.732,1.6294
13.99,1.2102,0.3902,-0.7304,-10.2228,10.905,-3.8621,-0.9021,-1.732,1.6294
14.03,1.0943,0.0222,-0.5975,-10.2228,10.905,-3.8621,-0.9021,-1.732,1.6294
14.031,0.8892,-0.1026,-0.4588,-10.2228,10.905,-3.8621,-0.9021,-1.732,1.6294
14.049,0.8892,-0.1026,-0.4588,-2.452,5.5617,-6.4689,-0.9021,-1.732,1.6294
14.051,0.8892,-0.1026,-0.4588,-2.452,5.5617,-6.4689,-0.5169,-0.8785,-3.2309
14.052,0.7456,-0.0113,-0.2987,-2.452,5.5617,-6.4689,-0.5169,-0.8785,-3.2309
14.096,0.3413,0.2107,0.0667,-2.452,5.5617,-6.4689,-0.5169,-0.8785,-3.2309
14.097,0.1356,0.6002,0.2186,-2.452,5.5617,-6.4689,-0.5169,-0.8785,-3.2309
14.107,0.3954,0.965,0.2698,-2.452,5.5617,-6.4689,-0.5169,-0.8785,-3.2309
14.108,0.3954,0.965,0.2698,-2.452,5.5617,-6.4689,0.8005,-0.9246,-6.6564
14.109,0.3954,0.965,0.2698,6.2163,-6.8862,-4.4068,0.8005,-0.9246,-6.6564
14.163,0.5387,1.2249,0.0007,6.2163,-6.8862,-4.4068,0.8005,-0.9246,-6.6564
14.165,1.1046,1.4943,-0.5463,6.2163,-6.8862,-4.4068,0.8005,-0.9246,-6.6564
14.186,1.8502,1.4025,-0.5876,6.2163,-6.8862,-4.4068,0.8005,-0.9246,-6.6564
14.187,1.621,1.2426,0.0152,6.2163,-6.8862,-4.4068,0.8005,-0.9246,-6.6564
14.188,1.621,1.2426,0.0152,6.2163,-6.8862,-4.4068,1.1356,-1.9201,-6.8802
14.188,1.621,1.2426,0.0152,3.5794,-3.3739,3.1397,1.1356,-1.9201,-6.8802
14.229,1.0607,1.2463,0.641,3.5794,-3.3739,3.1397,1.1356,-1.9201,-6.8802
14.231,1.9216,0.9216,0.7205,3.5794,-3.3739,3.1397,1.1356,-1.9201,-6.8802
14.245,1.9279,0.4966,0.6036,3.5794,-3.3739,3.1397,1.1356,-1.9201,-6.8802
14.246,1.9279,0.4966,0.6036,3.5794,-3.3739,3.1397,0.491,0.0074,-2.1182
14.247,1.9279,0.4966,0.6036,13.3792,4.9812,-1.2106,0.491,0.0074,-2.1182
14.296,1.4234,0.177,0.351,13.3792,4.9812,-1.2106,0.491,0.0074,-2.1182
14.297,1.5813,1.0777,-0.2337,13.3792,4.9812,-1.2106,0.491,0.0074,-2.1182
14.323,0.4126,3.6738,-1.283,13.3792,4.9812,-1.2106,0.491,0.0074,-2.1182
14.327,0.4126,3.6738,-1.283,13.3792,4.9812,-1.2106,0.0562,-1.1902,3.5943
14.327,0.4126,3.6738,-1.283,14.8582,0.8773,7.907,0.0562,-1.1902,3.5943
14.328,-0.2367,0.5812,0.6233,14.8582,0.8773,7.907,0.0562,-1.1902,3.5943
14.364,1.8951,1.658,-0.581,14.8582,0.8773,7.907,0.0562,-1.1902,3.5943
14.366,1.2917,-0.4314,0.3967,14.8582,0.8773,7.907,0.0562,-1.1902,3.5943
14.38,1.2917,-0.4314,0.3967,14.8582,0.8773,7.907,0.5271,0.1542,4.0021
14.382,0.941,0.5003,-0.5095,14.8582,0.8773,7.907,0.5271,0.1542,4.0021
14.382,0.941,0.5003,-0.5095,5.4205,7.8606,-0.2334,0.5271,0.1542,4.0021
14.429,1.3768,1.8833,-0.6023,5.4205,7.8606,-0.2334,0.5271,0.1542,4.0021
14.431,1.2421,0.9553,-0.4815,5.4205,7.8606,-0.2334,0.5271,0.1542,4.0021
14.46,1.2421,0.9553,-0.4815,7.5327,-2.8638,1.2972,0.5271,0.1542,4.0021
14.462,1.2421,0.9553,-0.4815,7.5327,-2.8638,1.2972,0.1289,0.8572,1.2354
14.462,1.244,1.0742,-0.6259,7.5327,-2.8638,1.2972,0.1289,0.8572,1.2354
14.463,1.2469,1.7523,-0.7715,7.5327,-2.8638,1.2972,0.1289,0.8572,1.2354
14.483,0.6506,1.8069,-0.6745,7.5327,-2.8638,1.2972,0.1289,0.8572,1.2354
14.52,0.3977,1.944,-0.7155,7.5327,-2.8638,1.2972,0.1289,0.8572,1.2354
14.522,0.3977,1.944,-0.7155,8.2953,5.5427,-4.2927,0.1289,0.8572,1.2354
14.523,0.3977,1.944,-0.7155,8.2953,5.5427,-4.2927,-0.459,1.703,-0.2701
14.524,-0.2629,1.943,-0.5452,8.2953,5.5427,-4.2927,-0.459,1.703,-0.2701
14.564,-0.516,1.5603,-0.281,8.2953,5.5427,-4.2927,-0.459,1.703,-0.2701
14.566,-0.6458,1.3737,-0.131,8.2953,5.5427,-4.2927,-0.459,1.703,-0.2701
14.597,-0.6458,1.3737,-0.131,8.2953,5.5427,-4.2927,-0.2876,3.3893,0.0902
14.598,-0.6242,1.2343,-0.0184,8.2953,5.5427,-4.2927,-0.2876,3.3893,0.0902
14.599,-0.6242,1.2343,-0.0184,-0.8756,10.7424,-6.1607,-0.2876,3.3893,0.0902
14.599,-0.8228,0.9353,-0.0881,-0.8756,10.7424,-6.1607,-0.2876,3.3893,0.0902
14.631,-1.3798,0.5449,-0.2536,-0.8756,10.7424,-6.1607,-0.2876,3.3893,0.0902
14.655,-1.3798,0.5449,-0.2536,-12.0825,6.4358,-1.4202,-0.2876,3.3893,0.0902
14.658,-1.4146,0.7862,-0.3422,-12.0825,6.4358,-1.4202,-0.2876,3.3893,0.0902
14.658,-0.8388,0.9122,-0.264,-12.0825,6.4358,-1.4202,-0.2876,3.3893,0.0902
14.659,-0.8388,0.9122,-0.264,-12.0825,6.4358,-1.4202,-0.7682,0.7073,3.2017
14.696,-0.2136,0.8489,-0.2078,-12.0825,6.4358,-1.4202,-0.7682,0.7073,3.2017
14.698,-0.1378,0.9675,-0.3198,-12.0825,6.4358,-1.4202,-0.7682,0.7073,3.2017
14.733,-0.1378,0.9675,-0.3198,-18.8195,2.5592,-3.3277,-0.7682,0.7073,3.2017
14.734,-0.598,1.2827,-0.3036,-18.8195,2.5592,-3.3277,-0.7682,0.7073,3.2017
14.735,-0.598,1.2827,-0.3036,-18.8195,2.5592,-3.3277,-0.5351,0.7397,4.1372
14.736,-0.7396,1.9133,-0.3944,-18.8195,2.5592,-3.3277,-0.5351,0.7397,4.1372
14.763,-0.3294,2.0077,-0.6512,-18.8195,2.5592,-3.3277,-0.5351,0.7397,4.1372
14.791,-0.3294,2.0077,-0.6512,-18.8195,2.5592,-3.3277,-0.71,-1.0583,1.9423
14.793,-0.3294,2.0077,-0.6512,-11.5323,7.1247,-3.0525,-0.71,-1.0583,1.9423
14.794,0.4546,1.3336,-0.7118,-11.5323,7.1247,-3.0525,-0.71,-1.0583,1.9423
14.795,0.7985,1.1978,-0.6617,-11.5323,7.1247,-3.0525,-0.71,-1.0583,1.9423
14.83,1.0386,0.706,-0.4911,-11.5323,7.1247,-3.0525,-0.71,-1.0583,1.9423
14.869,1.0386,0.706,-0.4911,-11.5323,7.1247,-3.0525,-0.4497,-1.5416,-2.3081
14.871,1.2322,0.3723,-0.4854,-11.5323,7.1247,-3.0525,-0.4497,-1.5416,-2.3081
14.872,1.0569,0.0824,-0.3931,-11.5323,7.1247,-3.0525,-0.4497,-1.5416,-2.3081
14.873,1.0569,0.0824,-0.3931,-5.3625,10.476,-5.8557,-0.4497,-1.5416,-2.3081
14.874,0.8664,0.0816,-0.2763,-5.3625,10.476,-5.8557,-0.4497,-1.5416,-2.3081
14.895,0.7488,0.1646,-0.1161,-5.3625,10.476,-5.8557,-0.4497,-1.5416,-2.3081
14.928,0.7488,0.1646,-0.1161,6.339,-4.2345,-3.0865,-0.4497,-1.5416,-2.3081
14.929,0.7488,0.1646,-0.1161,6.339,-4.2345,-3.0865,0.4018,-1.1419,-6.2686
14.93,0.6444,0.3084,-0.0549,6.339,-4.2345,-3.0865,0.4018,-1.1419,-6.2686
14.93,0.8142,0.5107,0.0422,6.339,-4.2345,-3.0865,0.4018,-1.1419,-6.2686
14.964,0.9431,0.7915,-0.0188,6.339,-4.2345,-3.0865,0.4018,-1.1419,-6.2686
15.005,0.9431,0.7915,-0.0188,7.0289,-5.505,1.2506,0.4018,-1.1419,-6.2686
15.006,0.9431,0.7915,-0.0188,7.0289,-5.505,1.2506,1.2073,-0.7305,-6.9863
15.007,0.8767,1.4138,-0.209,7.0289,-5.505,1.2506,1.2073,-0.7305,-6.9863
15.009,1.3721,1.6751,-0.2073,7.0289,-5.505,1.2506,1.2073,-0.7305,-6.9863
15.01,1.6867,1.4153,0.0064,7.0289,-5.505,1.2506,1.2073,-0.7305,-6.9863
15.027,1.4153,1.1104,0.4493,7.0289,-5.505,1.2506,1.2073,-0.7305,-6.9863
15.064,1.4153,1.1104,0.4493,12.2571,4.6345,0.871,1.2073,-0.7305,-6.9863
15.066,1.4153,1.1104,0.4493,12.2571,4.6345,0.871,0.5709,-0.4136,-2.3896
15.066,1.6696,0.7608,0.5086,12.2571,4.6345,0.871,0.5709,-0.4136,-2.3896
15.067,1.8632,0.4254,0.4037,12.2571,4.6345,0.871,0.5709,-0.4136,-2.3896
15.097,1.5203,0.3711,0.3508,12.2571,4.6345,0.871,0.5709,-0.4136,-2.3896
15.143,1.5203,0.3711,0.3508,15.6657,-0.1351,6.0602,0.5709,-0.4136,-2.3896
15.144,1.2216,0.0614,0.3759,15.6657,-0.1351,6.0602,0.5709,-0.4136,-2.3896
15.145,0.6914,0.2611,0.3833,15.6657,-0.1351,6.0602,0.5709,-0.4136,-2.3896
15.146,0.6914,0.2611,0.3833,15.6657,-0.1351,6.0602,-0.104,-0.8403,2.1105
15.146,0.2855,3.8597,-1.0054,15.6657,-0.1351,6.0602,-0.104,-0.8403,2.1105
15.163,0.0697,1.313,-0.0528,15.6657,-0.1351,6.0602,-0.104,-0.8403,2.1105
15.202,1.9446,1.2531,-0.1851,15.6657,-0.1351,6.0602,-0.104,-0.8403,2.1105
15.204,1.9446,1.2531,-0.1851,15.6657,-0.1351,6.0602,0.6331,-0.2183,4.5469
15.205,1.9446,1.2531,-0.1851,6.9432,-1.5978,4.9989,0.6331,-0.2183,4.5469
15.206,1.098,0.707,0.3095,6.9432,-1.5978,4.9989,0.6331,-0.2183,4.5469
15.229,0.9453,0.443,-0.2611,6.9432,-1.5978,4.9989,0.6331,-0.2183,4.5469
15.28,0.9453,0.443,-0.2611,4.5912,8.513,0.0992,0.6331,-0.2183,4.5469
15.282,0.9453,0.443,-0.2611,4.5912,8.513,0.0992,0.3238,0.922,2.317
15.282,0.6768,1.3056,-0.7003,4.5912,8.513,0.0992,0.3238,0.922,2.317
15.283,1.9365,0.3988,-1.0334,4.5912,8.513,0.0992,0.3238,0.922,2.317
15.284,0.987,0.9602,-0.881,4.5912,8.513,0.0992,0.3238,0.922,2.317
15.34,1.3843,1.5386,-0.7269,4.5912,8.513,0.0992,0.3238,0.922,2.317
15.342,0.7662,1.9678,-0.4307,4.5912,8.513,0.0992,0.3238,0.922,2.317
15.343,0.5224,2.1745,-0.3766,4.5912,8.513,0.0992,0.3238,0.922,2.317
15.343,0.5224,2.1745,-0.3766,6.8521,0.0641,-5.3566,0.3238,0.922,2.317
15.344,0.5224,2.1745,-0.3766,6.8521,0.0641,-5.3566,-0.6534,0.9066,0.1443
15.363,-0.0078,2.203,-0.3047,6.8521,0.0641,-5.3566,-0.6534,0.9066,0.1443
15.418,-0.3932,1.7963,-0.1138,6.8521,0.0641,-5.3566,-0.6534,0.9066,0.1443
15.42,-0.7899,1.4902,0.0421,6.8521,0.0641,-5.3566,-0.6534,0.9066,0.1443
15.421,-0.7899,1.4902,0.0421,6.8521,0.0641,-5.3566,-0.4241,2.657,0.0854
15.422,-0.7791,1.1915,0.1715,6.8521,0.0641,-5.3566,-0.4241,2.657,0.0854
15.423,-0.7791,1.1915,0.1715,3.4301,9.7853,-4.5532,-0.4241,2.657,0.0854
15.476,-0.5218,0.9524,0.0918,3.4301,9.7853,-4.5532,-0.4241,2.657,0.0854
15.478,-0.7921,0.6774,-0.2805,3.4301,9.7853,-4.5532,-0.4241,2.657,0.0854
15.479,-1.29,0.6931,-0.273,3.4301,9.7853,-4.5532,-0.4241,2.657,0.0854
15.48,-1.29,0.6931,-0.273,3.4301,9.7853,-4.5532,-0.9635,1.6258,1.3897
15.481,-1.29,0.6931,-0.273,-10.1759,10.042,-1.1722,-0.9635,1.6258,1.3897
15.497,-0.8888,0.8253,-0.3369,-10.1759,10.042,-1.1722,-0.9635,1.6258,1.3897
15.556,-0.8888,0.8253,-0.3369,-10.1759,10.042,-1.1722,-0.5853,0.0374,4.6003
15.558,0.0427,0.9541,-0.4813,-10.1759,10.042,-1.1722,-0.5853,0.0374,4.6003
15.559,0.3083,1.2323,-0.5431,-10.1759,10.042,-1.1722,-0.5853,0.0374,4.6003
15.56,-0.4,1.5186,-0.365,-10.1759,10.042,-1.1722,-0.5853,0.0374,4.6003
15.561,-0.4,1.5186,-0.365,-15.6058,2.995,-1.6306,-0.5853,0.0374,4.6003
15.613,-0.4,1.5186,-0.365,-15.6058,2.995,-1.6306,-0.848,0.5992,3.4429
15.615,-0.6656,2.3754,-0.3229,-15.6058,2.995,-1.6306,-0.848,0.5992,3.4429
15.616,-0.6446,2.2619,-0.4526,-15.6058,2.995,-1.6306,-0.848,0.5992,3.4429
15.617,0.0489,1.406,-0.4727,-15.6058,2.995,-1.6306,-0.848,0.5992,3.4429
15.618,0.0489,1.406,-0.4727,-9.9896,7.1792,-5.4002,-0.848,0.5992,3.4429
15.691,0.0489,1.406,-0.4727,-9.9896,7.1792,-5.4002,-0.5431,-2.169,0.4317
15.693,0.5685,1.1422,-0.6996,-9.9896,7.1792,-5.4002,-0.5431,-2.169,0.4317
15.694,1.0952,0.7172,-0.7229,-9.9896,7.1792,-5.4002,-0.5431,-2.169,0.4317
15.695,1.4354,0.3933,-0.7566,-9.9896,7.1792,-5.4002,-0.5431,-2.169,0.4317
15.696,1.2872,-0.0507,-0.6275,-9.9896,7.1792,-5.4002,-0.5431,-2.169,0.4317
15.697,1.2872,-0.0507,-0.6275,-12.295,15.8588,-3.8483,-0.5431,-2.169,0.4317
15.747,1.2872,-0.0507,-0.6275,-12.295,15.8588,-3.8483,-0.175,-0.4167,-5.0277
15.749,1.0536,-0.2227,-0.4709,-12.295,15.8588,-3.8483,-0.175,-0.4167,-5.0277
15.75,0.7385,-0.1594,-0.2718,-12.295,15.8588,-3.8483,-0.175,-0.4167,-5.0277
15.75,0.319,0.0238,0.0248,-12.295,15.8588,-3.8483,-0.175,-0.4167,-5.0277
15.751,0.319,0.0238,0.0248,4.0597,0.5429,-6.6214,-0.175,-0.4167,-5.0277
15.829,0.319,0.0238,0.0248,4.7832,-9.2029,-1.2482,-0.175,-0.4167,-5.0277
15.831,0.1681,0.2511,0.1767,4.7832,-9.2029,-1.2482,-0.175,-0.4167,-5.0277
15.832,0.1681,0.2511,0.1767,4.7832,-9.2029,-1.2482,1.2045,-1.6854,-7.5015
15.832,0.2725,0.5261,0.2311,4.7832,-9.2029,-1.2482,1.2045,-1.6854,-7.5015
15.833,0.454,0.8207,0.2136,4.7832,-9.2029,-1.2482,1.2045,-1.6854,-7.5015
15.833,0.7699,1.3386,-0.1696,4.7832,-9.2029,-1.2482,1.2045,-1.6854,-7.5015
15.887,0.7699,1.3386,-0.1696,4.1713,-2.1332,3.6722,1.2045,-1.6854,-7.5015
15.889,0.7699,1.3386,-0.1696,4.1713,-2.1332,3.6722,0.7177,-0.9361,-6.2428
15.889,1.7035,1.4688,-0.425,4.1713,-2.1332,3.6722,0.7177,-0.9361,-6.2428
15.89,2.1741,1.403,-0.2193,4.1713,-2.1332,3.6722,0.7177,-0.9361,-6.2428
15.891,1.5182,1.2774,0.3719,4.1713,-2.1332,3.6722,0.7177,-0.9361,-6.2428
15.967,1.5182,1.2774,0.3719,4.1713,-2.1332,3.6722,0.1617,-1.1211,0.0614
15.969,1.8144,0.8832,0.6109,4.1713,-2.1332,3.6722,0.1617,-1.1211,0.0614
15.97,2.2149,0.4996,0.512,4.1713,-2.1332,3.6722,0.1617,-1.1211,0.0614
15.971,1.6935,0.1041,0.4243,4.1713,-2.1332,3.6722,0.1617,-1.1211,0.0614
15.972,1.4091,0.0124,0.2361,4.1713,-2.1332,3.6722,0.1617,-1.1211,0.0614
15.973,1.4091,0.0124,0.2361,16.9678,5.2814,0.8164,0.1617,-1.1211,0.0614
15.984,1.1031,3.7113,-1.7282,16.9678,5.2814,0.8164,0.1617,-1.1211,0.0614
16.022,1.1031,3.7113,-1.7282,15.9639,-4.0589,7.0027,0.1617,-1.1211,0.0614
16.023,1.1031,3.7113,-1.7282,15.9639,-4.0589,7.0027,0.5167,-0.7091,4.1247
16.024,-0.7033,2.0458,0.0139,15.9639,-4.0589,7.0027,0.5167,-0.7091,4.1247
16.024,1.3825,0.9551,-0.098,15.9639,-4.0589,7.0027,0.5167,-0.7091,4.1247
16.096,1.7522,1.2127,0.238,15.9639,-4.0589,7.0027,0.5167,-0.7091,4.1247
16.097,0.8847,-0.6064,0.12,15.9639,-4.0589,7.0027,0.5167,-0.7091,4.1247
16.098,1.1586,2.1135,-0.9596,15.9639,-4.0589,7.0027,0.5167,-0.7091,4.1247
16.099,1.1586,2.1135,-0.9596,15.9639,-4.0589,7.0027,0.6495,0.827,3.0654
16.1,1.5617,0.5049,-0.6364,15.9639,-4.0589,7.0027,0.6495,0.827,3.0654
16.1,1.5617,0.5049,-0.6364,3.3472,11.3541,-2.5222,0.6495,0.827,3.0654
16.16,1.5617,0.5049,-0.6364,3.3472,11.3541,-2.5222,-0.2158,0.9773,0.3411
16.162,1.1543,1.1583,-0.8833,3.3472,11.3541,-2.5222,-0.2158,0.9773,0.3411
16.162,1.1543,1.1583,-0.8833,8.6546,0.7724,-0.3641,-0.2158,0.9773,0.3411
16.163,1.157,1.395,-0.6919,8.6546,0.7724,-0.3641,-0.2158,0.9773,0.3411
16.164,0.7699,1.9939,-0.6074,8.6546,0.7724,-0.3641,-0.2158,0.9773,0.3411
16.232,0.5155,1.9167,-0.4743,8.6546,0.7724,-0.3641,-0.2158,0.9773,0.3411
16.234,-0.1634,1.9585,-0.4367,8.6546,0.7724,-0.3641,-0.2158,0.9773,0.3411
16.235,-0.4905,1.6529,-0.2236,8.6546,0.7724,-0.3641,-0.2158,0.9773,0.3411
16.238,-0.5921,1.3774,-0.0935,8.6546,0.7724,-0.3641,-0.2158,0.9773,0.3411
16.239,-0.5921,1.3774,-0.0935,8.6546,0.7724,-0.3641,-0.2871,2.4791,-0.1893
16.24,-0.5921,1.3774,-0.0935,6.2861,5.6895,-5.966,-0.2871,2.4791,-0.1893
16.299,-0.6551,1.2025,0.0449,6.2861,5.6895,-5.966,-0.2871,2.4791,-0.1893
16.3,-0.5879,0.8556,0.093,6.2861,5.6895,-5.966,-0.2871,2.4791,-0.1893
16.301,-0.8344,0.7073,-0.2657,6.2861,5.6895,-5.966,-0.2871,2.4791,-0.1893
16.302,-0.8344,0.7073,-0.2657,6.2861,5.6895,-5.966,-0.6211,3.2244,0.4979
16.302,-0.8344,0.7073,-0.2657,-5.9292,9.6521,-3.4321,-0.6211,3.2244,0.4979
16.364,-1.3159,0.9082,-0.3637,-5.9292,9.6521,-3.4321,-0.6211,3.2244,0.4979
16.366,-1.0462,0.8002,-0.3378,-5.9292,9.6521,-3.4321,-0.6211,3.2244,0.4979
16.367,-0.355,0.716,-0.2999,-5.9292,9.6521,-3.4321,-0.6211,3.2244,0.4979
16.374,-0.355,0.716,-0.2999,-13.1625,3.4232,-0.8699,-0.6211,3.2244,0.4979
16.376,-0.355,0.716,-0.2999,-13.1625,3.4232,-0.8699,-0.6548,0.2689,3.9981
16.378,-0.0004,0.9089,-0.3987,-13.1625,3.4232,-0.8699,-0.6548,0.2689,3.9981
16.429,-0.4154,1.2645,-0.3389,-13.1625,3.4232,-0.8699,-0.6548,0.2689,3.9981
16.432,-0.6307,1.8136,-0.2922,-13.1625,3.4232,-0.8699,-0.6548,0.2689,3.9981
16.433,-0.6101,2.6445,-0.6337,-13.1625,3.4232,-0.8699,-0.6548,0.2689,3.9981
16.434,-0.6101,2.6445,-0.6337,-13.1625,3.4232,-0.8699,-0.6072,1.6538,3.6644
16.435,-0.6101,2.6445,-0.6337,-15.0483,3.4983,-4.6908,-0.6072,1.6538,3.6644
16.485,-0.1788,1.6427,-0.5402,-15.0483,3.4983,-4.6908,-0.6072,1.6538,3.6644
16.488,0.4953,1.2978,-0.7555,-15.0483,3.4983,-4.6908,-0.6072,1.6538,3.6644
16.5,0.4953,1.2978,-0.7555,-15.0483,3.4983,-4.6908,-1.176,-2.1641,1.7514
16.502,0.9402,0.8898,-0.656,-15.0483,3.4983,-4.6908,-1.176,-2.1641,1.7514
16.503,0.9402,0.8898,-0.656,-12.4899,13.6998,-4.6354,-1.176,-2.1641,1.7514
16.566,1.3253,0.5162,-0.7974,-12.4899,13.6998,-4.6354,-1.176,-2.1641,1.7514
16.568,1.3053,0.1334,-0.6638,-12.4899,13.6998,-4.6354,-1.176,-2.1641,1.7514
16.569,1.1547,-0.1119,-0.546,-12.4899,13.6998,-4.6354,-1.176,-2.1641,1.7514
16.578,1.1547,-0.1119,-0.546,-12.4899,13.6998,-4.6354,-0.76,-1.2964,-3.0808
16.58,1.1547,-0.1119,-0.546,-1.5694,6.174,-6.4743,-0.76,-1.2964,-3.0808
16.581,0.8339,-0.1365,-0.3494,-1.5694,6.174,-6.4743,-0.76,-1.2964,-3.0808
16.629,0.5322,-0.0138,-0.0739,-1.5694,6.174,-6.4743,-0.76,-1.2964,-3.0808
16.631,0.333,0.2031,0.1105,-1.5694,6.174,-6.4743,-0.76,-1.2964,-3.0808
16.639,0.3186,0.6041,0.1787,-1.5694,6.174,-6.4743,-0.76,-1.2964,-3.0808
16.64,0.3186,0.6041,0.1787,-1.5694,6.174,-6.4743,0.6764,-1.1497,-6.7034
16.64,0.3186,0.6041,0.1787,7.1982,-7.3595,-4.5437,0.6764,-1.1497,-6.7034
16.697,0.5133,0.9951,0.1553,7.1982,-7.3595,-4.5437,0.6764,-1.1497,-6.7034
16.698,0.9082,1.3812,-0.3027,7.1982,-7.3595,-4.5437,0.6764,-1.1497,-6.7034
16.699,1.4831,1.4835,-0.6126,7.1982,-7.3595,-4.5437,0.6764,-1.1497,-6.7034
16.714,1.4831,1.4835,-0.6126,7.1982,-7.3595,-4.5437,1.024,-2.3088,-6.8084
16.715,2.1314,1.2993,-0.4265,7.1982,-7.3595,-4.5437,1.024,-2.3088,-6.8084
16.716,2.1314,1.2993,-0.4265,4.0095,-4.9019,2.6147,1.024,-2.3088,-6.8084
16.763,1.644,1.1042,0.0383,4.0095,-4.9019,2.6147,1.024,-2.3088,-6.8084
16.765,1.4412,0.9105,0.6106,4.0095,-4.9019,2.6147,1.024,-2.3088,-6.8084
16.774,1.4412,0.9105,0.6106,4.0095,-4.9019,2.6147,0.5701,0.5244,-2.0545
16.776,1.4412,0.9105,0.6106,14.4165,4.8423,-1.4183,0.5701,0.5244,-2.0545
16.777,1.7896,0.595,0.7381,14.4165,4.8423,-1.4183,0.5701,0.5244,-2.0545
16.83,1.4132,0.3286,0.7023,14.4165,4.8423,-1.4183,0.5701,0.5244,-2.0545
16.831,1.0467,-0.1561,0.6194,14.4165,4.8423,-1.4183,0.5701,0.5244,-2.0545
16.852,1.0467,-0.1561,0.6194,14.9207,-0.4401,6.9586,0.5701,0.5244,-2.0545
16.854,1.0659,1.7013,-0.6293,14.9207,-0.4401,6.9586,0.5701,0.5244,-2.0545
16.854,1.0659,1.7013,-0.6293,14.9207,-0.4401,6.9586,0.1268,-1.5601,3.1719
16.855,0.857,3.979,-1.5287,14.9207,-0.4401,6.9586,0.1268,-1.5601,3.1719
16.896,0.3099,-0.1829,0.5138,14.9207,-0.4401,6.9586,0.1268,-1.5601,3.1719
16.898,2.2944,2.4269,-0.562,14.9207,-0.4401,6.9586,0.1268,-1.5601,3.1719
16.911,0.7954,-0.6028,0.9158,14.9207,-0.4401,6.9586,0.1268,-1.5601,3.1719
16.912,0.7954,-0.6028,0.9158,14.9207,-0.4401,6.9586,0.6549,0.5074,3.8142
16.913,0.7954,-0.6028,0.9158,6.9045,7.965,-0.9522,0.6549,0.5074,3.8142
16.964,0.8509,1.5415,-0.8724,6.9045,7.965,-0.9522,0.6549,0.5074,3.8142
16.966,1.3564,0.8998,-0.5775,6.9045,7.965,-0.9522,0.6549,0.5074,3.8142
16.989,1.3564,0.8998,-0.5775,6.4609,-2.0484,3.7812,0.6549,0.5074,3.8142
16.99,1.3564,0.8998,-0.5775,6.4609,-2.0484,3.7812,0.2173,0.9415,1.1401
16.991,1.2166,1.0334,-0.8711,6.4609,-2.0484,3.7812,0.2173,0.9415,1.1401
16.991,1.2961,0.9277,-0.6598,6.4609,-2.0484,3.7812,0.2173,0.9415,1.1401
17.029,0.844,1.8238,-0.8061,6.4609,-2.0484,3.7812,0.2173,0.9415,1.1401
17.031,0.6476,1.7416,-0.6728,6.4609,-2.0484,3.7812,0.2173,0.9415,1.1401
17.047,0.4005,1.8731,-0.6653,6.4609,-2.0484,3.7812,0.2173,0.9415,1.1401
17.048,0.4005,1.8731,-0.6653,6.4609,-2.0484,3.7812,-0.5379,1.4216,-0.4209
17.049,0.4005,1.8731,-0.6653,8.0567,3.7265,-5.9065,-0.5379,1.4216,-0.4209
17.096,-0.3117,1.9261,-0.399,8.0567,3.7265,-5.9065,-0.5379,1.4216,-0.4209
17.097,-0.658,1.5835,-0.0671,8.0567,3.7265,-5.9065,-0.5379,1.4216,-0.4209
17.125,-0.6526,1.3845,0.0544,8.0567,3.7265,-5.9065,-0.5379,1.4216,-0.4209
17.126,-0.6526,1.3845,0.0544,8.0567,3.7265,-5.9065,-0.353,3.5424,-0.157
17.127,-0.6479,1.0914,0.1302,8.0567,3.7265,-5.9065,-0.353,3.5424,-0.157
17.127,-0.6479,1.0914,0.1302,0.7889,10.0568,-6.2013,-0.353,3.5424,-0.157
17.164,-0.7071,0.8164,0.0829,0.7889,10.0568,-6.2013,-0.353,3.5424,-0.157
17.185,-1.0885,0.6005,-0.2882,0.7889,10.0568,-6.2013,-0.353,3.5424,-0.157
17.186,-1.0885,0.6005,-0.2882,-11.4827,6.596,-0.4804,-0.353,3.5424,-0.157
17.187,-1.3335,0.8137,-0.3783,-11.4827,6.596,-0.4804,-0.353,3.5424,-0.157
17.188,-1.3335,0.8137,-0.3783,-11.4827,6.596,-0.4804,-1.1119,0.9864,2.2266
17.229,-0.8632,0.7924,-0.3637,-11.4827,6.596,-0.4804,-1.1119,0.9864,2.2266
17.231,-0.2582,0.8621,-0.2894,-11.4827,6.596,-0.4804,-1.1119,0.9864,2.2266
17.263,-0.2582,0.8621,-0.2894,-17.2157,2.0409,-2.933,-1.1119,0.9864,2.2266
17.265,-0.1787,0.9974,-0.3708,-17.2157,2.0409,-2.933,-1.1119,0.9864,2.2266
17.266,-0.1787,0.9974,-0.3708,-17.2157,2.0409,-2.933,-0.8253,0.2226,4.6374
17.267,-0.5574,1.2537,-0.3936,-17.2157,2.0409,-2.933,-0.8253,0.2226,4.6374
17.297,-0.663,2.0324,-0.4321,-17.2157,2.0409,-2.933,-0.8253,0.2226,4.6374
17.321,-0.663,2.0324,-0.4321,-11.599,6.0403,-4.1562,-0.8253,0.2226,4.6374
17.323,-0.663,2.0324,-0.4321,-11.599,6.0403,-4.1562,-0.9093,-0.5722,3.1071
17.324,-0.5521,2.322,-0.789,-11.599,6.0403,-4.1562,-0.9093,-0.5722,3.1071
17.325,0.0512,1.4044,-0.7207,-11.599,6.0403,-4.1562,-0.9093,-0.5722,3.1071
17.363,0.7247,1.259,-0.7345,-11.599,6.0403,-4.1562,-0.9093,-0.5722,3.1071
17.366,1.1776,0.8275,-0.7034,-11.599,6.0403,-4.1562,-0.9093,-0.5722,3.1071
17.399,1.2323,0.5139,-0.6993,-11.599,6.0403,-4.1562,-0.9093,-0.5722,3.1071
17.401,1.1593,0.0921,-0.5156,-11.599,6.0403,-4.1562,-0.9093,-0.5722,3.1071
17.401,1.1593,0.0921,-0.5156,-9.961,13.7274,-6.4306,-0.9093,-0.5722,3.1071
17.402,1.1593,0.0921,-0.5156,-9.961,13.7274,-6.4306,-0.6934,-1.6285,-0.5265
17.429,1.0331,-0.0447,-0.403,-9.961,13.7274,-6.4306,-0.6934,-1.6285,-0.5265
17.458,1.0331,-0.0447,-0.403,-9.961,13.7274,-6.4306,-0.1343,-1.1778,-5.1568
17.46,0.8315,-0.0067,-0.2606,-9.961,13.7274,-6.4306,-0.1343,-1.1778,-5.1568
17.461,0.4844,0.1674,-0.0458,-9.961,13.7274,-6.4306,-0.1343,-1.1778,-5.1568
17.461,0.4844,0.1674,-0.0458,5.4899,-0.9264,-5.6066,-0.1343,-1.1778,-5.1568
17.483,0.4032,0.4027,0.0262,5.4899,-0.9264,-5.6066,-0.1343,-1.1778,-5.1568
17.537,0.4032,0.4027,0.0262,5.4899,-0.9264,-5.6066,0.7518,-1.9224,-6.9709
17.539,0.6666,0.6406,-0.1008,5.4899,-0.9264,-5.6066,0.7518,-1.9224,-6.9709
17.539,0.6598,0.8527,-0.1056,5.4899,-0.9264,-5.6066,0.7518,-1.9224,-6.9709
17.54,0.6598,0.8527,-0.1056,5.0664,-7.4453,-0.2619,0.7518,-1.9224,-6.9709
17.541,0.9718,1.225,-0.3571,5.0664,-7.4453,-0.2619,0.7518,-1.9224,-6.9709
17.563,1.6676,1.2055,-0.364,5.0664,-7.4453,-0.2619,0.7518,-1.9224,-6.9709
17.595,2.0617,1.085,-0.1902,5.0664,-7.4453,-0.2619,0.7518,-1.9224,-6.9709
17.597,1.6132,1.038,0.1026,5.0664,-7.4453,-0.2619,0.7518,-1.9224,-6.9709
17.598,1.6132,1.038,0.1026,5.0664,-7.4453,-0.2619,0.839,0.0872,-4.9935
17.598,1.6132,1.038,0.1026,7.8412,-0.0539,0.5182,0.839,0.0872,-4.9935
17.63,1.5652,0.6598,0.5324,7.8412,-0.0539,0.5182,0.839,0.0872,-4.9935
17.673,1.5652,0.6598,0.5324,7.8412,-0.0539,0.5182,0.1831,-0.2923,0.338
17.674,1.5807,0.4264,0.7442,7.8412,-0.0539,0.5182,0.1831,-0.2923,0.338
17.675,1.4401,0.1317,0.6848,7.8412,-0.0539,0.5182,0.1831,-0.2923,0.338
17.675,0.9178,0.6603,0.5024,7.8412,-0.0539,0.5182,0.1831,-0.2923,0.338
17.676,0.9178,0.6603,0.5024,17.415,1.9408,1.6006,0.1831,-0.2923,0.338
17.695,1.253,4.3527,-1.2726,17.415,1.9408,1.6006,0.1831,-0.2923,0.338
17.73,1.253,4.3527,-1.2726,17.415,1.9408,1.6006,0.5469,-0.6317,4.8416
17.731,-0.6669,1.0545,0.3196,17.415,1.9408,1.6006,0.5469,-0.6317,4.8416
17.732,2.6038,1.1204,-0.1808,17.415,1.9408,1.6006,0.5469,-0.6317,4.8416
17.732,2.6038,1.1204,-0.1808,10.7501,-3.5554,8.6006,0.5469,-0.6317,4.8416
17.763,1.2807,0.3672,0.2426,10.7501,-3.5554,8.6006,0.5469,-0.6317,4.8416
17.81,0.4711,0.0005,-0.1618,10.7501,-3.5554,8.6006,0.5469,-0.6317,4.8416
17.812,0.4711,0.0005,-0.1618,10.7501,-3.5554,8.6006,0.4137,1.057,2.3065
17.813,1.3436,2.1883,-0.9947,10.7501,-3.5554,8.6006,0.4137,1.057,2.3065
17.814,1.2301,0.5929,-0.6576,10.7501,-3.5554,8.6006,0.4137,1.057,2.3065
17.815,1.2301,0.5929,-0.6576,7.6749,12.8147,-1.2839,0.4137,1.057,2.3065
17.829,1.1578,1.1168,-0.8634,7.6749,12.8147,-1.2839,0.4137,1.057,2.3065
17.868,1.1578,1.1168,-0.8634,5.0425,-0.7343,-2.0381,0.4137,1.057,2.3065
17.87,1.1799,1.5564,-0.7479,5.0425,-0.7343,-2.0381,0.4137,1.057,2.3065
17.87,1.1799,1.5564,-0.7479,5.0425,-0.7343,-2.0381,-0.5682,0.805,0.2348
17.871,0.7931,1.6673,-0.6067,5.0425,-0.7343,-2.0381,-0.5682,0.805,0.2348
17.897,0.8234,1.8515,-0.5993,5.0425,-0.7343,-2.0381,-0.5682,0.805,0.2348
17.947,0.8234,1.8515,-0.5993,5.0425,-0.7343,-2.0381,-0.3471,2.7758,-0.1973
17.949,-0.0194,2.0202,-0.4541,5.0425,-0.7343,-2.0381,-0.3471,2.7758,-0.1973
17.95,-0.5241,1.7616,-0.2337,5.0425,-0.7343,-2.0381,-0.3471,2.7758,-0.1973
17.951,-0.5241,1.7616,-0.2337,5.4499,6.9707,-6.0783,-0.3471,2.7758,-0.1973
17.952,-0.7159,1.397,-0.1566,5.4499,6.9707,-6.0783,-0.3471,2.7758,-0.1973
17.967,-0.7755,1.3193,-0.1207,5.4499,6.9707,-6.0783,-0.3471,2.7758,-0.1973
18.004,-0.7755,1.3193,-0.1207,-7.567,9.6226,-3.3847,-0.3471,2.7758,-0.1973
18.005,-0.7755,1.3193,-0.1207,-7.567,9.6226,-3.3847,-0.6422,2.6114,1.1168
18.006,-0.7057,0.9498,-0.0359,-7.567,9.6226,-3.3847,-0.6422,2.6114,1.1168
18.007,-1.0433,0.5851,-0.2358,-7.567,9.6226,-3.3847,-0.6422,2.6114,1.1168
18.029,-1.5024,0.8459,-0.2631,-7.567,9.6226,-3.3847,-0.6422,2.6114,1.1168
18.084,-1.5024,0.8459,-0.2631,-15.9651,3.3252,-1.9494,-0.6422,2.6114,1.1168
18.087,-1.5024,0.8459,-0.2631,-15.9651,3.3252,-1.9494,-0.7939,0.0151,4.2707
18.088,-1.0319,0.9416,-0.2917,-15.9651,3.3252,-1.9494,-0.7939,0.0151,4.2707
18.089,-0.4533,0.9333,-0.2545,-15.9651,3.3252,-1.9494,-0.7939,0.0151,4.2707
18.09,-0.3497,0.8878,-0.2991,-15.9651,3.3252,-1.9494,-0.7939,0.0151,4.2707
18.142,-0.3497,0.8878,-0.2991,-14.865,4.8142,-3.1583,-0.7939,0.0151,4.2707
18.145,-0.3497,0.8878,-0.2991,-14.865,4.8142,-3.1583,-0.9129,-0.6258,3.2572
18.146,-0.7925,1.1852,-0.156,-14.865,4.8142,-3.1583,-0.9129,-0.6258,3.2572
18.147,-0.8545,1.7758,-0.2451,-14.865,4.8142,-3.1583,-0.9129,-0.6258,3.2572
18.148,-0.4131,2.3606,-0.6964,-14.865,4.8142,-3.1583,-0.9129,-0.6258,3.2572
18.163,0.3914,1.4638,-0.9574,-14.865,4.8142,-3.1583,-0.9129,-0.6258,3.2572
18.222,1.0406,1.27,-1.0531,-14.865,4.8142,-3.1583,-0.9129,-0.6258,3.2572
18.224,1.2509,0.8754,-0.9693,-14.865,4.8142,-3.1583,-0.9129,-0.6258,3.2572
18.226,1.2509,0.8754,-0.9693,-14.865,4.8142,-3.1583,-0.8492,-1.6355,0.6562
18.227,1.2509,0.8754,-0.9693,-13.1549,13.1206,-4.0041,-0.8492,-1.6355,0.6562
18.228,1.4721,0.3633,-0.7768,-13.1549,13.1206,-4.0041,-0.8492,-1.6355,0.6562
18.28,1.4721,0.3633,-0.7768,5.2361,2.6931,-8.8067,-0.8492,-1.6355,0.6562
18.282,1.4721,0.3633,-0.7768,5.2361,2.6931,-8.8067,-0.1017,-0.0999,-4.3753
18.282,1.3325,-0.034,-0.5314,5.2361,2.6931,-8.8067,-0.1017,-0.0999,-4.3753
18.283,0.8914,-0.1852,-0.227,5.2361,2.6931,-8.8067,-0.1017,-0.0999,-4.3753
18.284,0.4213,-0.0448,0.0456,5.2361,2.6931,-8.8067,-0.1017,-0.0999,-4.3753
18.357,0.4213,-0.0448,0.0456,5.0649,-8.5886,-0.206,-0.1017,-0.0999,-4.3753
18.359,0.4213,-0.0448,0.0456,5.0649,-8.5886,-0.206,0.9741,-1.8807,-6.7863
18.36,0.3043,0.1806,0.1766,5.0649,-8.5886,-0.206,0.9741,-1.8807,-6.7863
18.361,0.551,0.3615,0.0797,5.0649,-8.5886,-0.206,0.9741,-1.8807,-6.7863
18.362,0.7786,0.5488,-0.0671,5.0649,-8.5886,-0.206,0.9741,-1.8807,-6.7863
18.363,0.9247,0.7781,-0.1962,5.0649,-8.5886,-0.206,0.9741,-1.8807,-6.7863
18.417,0.9247,0.7781,-0.1962,5.0649,-8.5886,-0.206,0.901,0.1502,-5.9441
18.419,0.9247,0.7781,-0.1962,7.2731,-3.2396,1.777,0.901,0.1502,-5.9441
18.42,1.1641,1.2896,-0.367,7.2731,-3.2396,1.777,0.901,0.1502,-5.9441
18.421,1.6511,1.2856,-0.2172,7.2731,-3.2396,1.777,0.901,0.1502,-5.9441
18.422,1.6078,1.2978,0.2211,7.2731,-3.2396,1.777,0.901,0.1502,-5.9441
18.486,1.2606,1.1671,0.6331,7.2731,-3.2396,1.777,0.901,0.1502,-5.9441
18.488,1.2606,1.1671,0.6331,7.2731,-3.2396,1.777,0.1248,-0.9466,0.0315
18.489,1.5806,0.8225,0.669,7.2731,-3.2396,1.777,0.1248,-0.9466,0.0315
18.49,1.6154,0.4505,0.5551,7.2731,-3.2396,1.777,0.1248,-0.9466,0.0315
18.491,1.3479,0.0724,0.482,7.2731,-3.2396,1.777,0.1248,-0.9466,0.0315
18.492,1.3479,0.0724,0.482,14.5131,4.2541,1.8116,0.1248,-0.9466,0.0315
18.563,1.3479,0.0724,0.482,14.5131,4.2541,1.8116,0.2196,-0.7776,3.7569
18.565,1.108,-0.1132,0.3741,14.5131,4.2541,1.8116,0.2196,-0.7776,3.7569
18.566,1.108,-0.1132,0.3741,12.6301,-2.8317,7.8039,0.2196,-0.7776,3.7569
18.567,1.0026,3.438,-1.333,12.6301,-2.8317,7.8039,0.2196,-0.7776,3.7569
18.568,-0.4158,2.4517,-0.263,12.6301,-2.8317,7.8039,0.2196,-0.7776,3.7569
18.568,1.917,0.442,0.5539,12.6301,-2.8317,7.8039,0.2196,-0.7776,3.7569
18.62,1.917,0.442,0.5539,1.9419,7.6394,0.2342,0.2196,-0.7776,3.7569
18.622,1.917,0.442,0.5539,1.9419,7.6394,0.2342,0.4524,0.6349,3.2516
18.623,1.616,1.2824,-0.0452,1.9419,7.6394,0.2342,0.4524,0.6349,3.2516
18.624,0.679,-0.1071,-0.1687,1.9419,7.6394,0.2342,0.4524,0.6349,3.2516
18.624,1.1086,1.8342,-1.1253,1.9419,7.6394,0.2342,0.4524,0.6349,3.2516
18.696,1.3216,0.6187,-0.714,1.9419,7.6394,0.2342,0.4524,0.6349,3.2516
18.698,1.1606,1.0975,-0.9119,1.9419,7.6394,0.2342,0.4524,0.6349,3.2516
18.699,1.0776,1.5696,-0.6386,1.9419,7.6394,0.2342,0.4524,0.6349,3.2516
18.699,1.0776,1.5696,-0.6386,1.9419,7.6394,0.2342,-0.3813,0.9192,0.7424
18.7,0.8063,1.8044,-0.6249,1.9419,7.6394,0.2342,-0.3813,0.9192,0.7424
18.701,0.8063,1.8044,-0.6249,9.5887,3.1854,-1.9725,-0.3813,0.9192,0.7424
18.757,0.8063,1.8044,-0.6249,6.6127,4.0489,-6.3626,-0.3813,0.9192,0.7424
18.759,0.8063,1.8044,-0.6249,6.6127,4.0489,-6.3626,-0.5169,2.0009,-0.0493
18.76,0.4949,2.0533,-0.5685,6.6127,4.0489,-6.3626,-0.5169,2.0009,-0.0493
18.761,-0.1667,2.0445,-0.265,6.6127,4.0489,-6.3626,-0.5169,2.0009,-0.0493
18.762,-0.5655,1.6544,0.019,6.6127,4.0489,-6.3626,-0.5169,2.0009,-0.0493
18.831,-0.6079,1.4026,0.1448,6.6127,4.0489,-6.3626,-0.5169,2.0009,-0.0493
18.833,-0.4577,1.2215,0.1137,6.6127,4.0489,-6.3626,-0.5169,2.0009,-0.0493
18.834,-0.354,0.9817,-0.0709,6.6127,4.0489,-6.3626,-0.5169,2.0009,-0.0493
18.835,-0.994,0.6155,-0.3287,6.6127,4.0489,-6.3626,-0.5169,2.0009,-0.0493
18.836,-0.994,0.6155,-0.3287,-4.4952,11.0253,-3.2691,-0.5169,2.0009,-0.0493
18.837,-0.994,0.6155,-0.3287,-4.4952,11.0253,-3.2691,-0.6421,2.7746,0.2944
18.894,-1.3097,0.6591,-0.3229,-4.4952,11.0253,-3.2691,-0.6421,2.7746,0.2944
18.896,-0.4541,0.8696,-0.3235,-4.4952,11.0253,-3.2691,-0.6421,2.7746,0.2944
18.897,-0.4541,0.8696,-0.3235,-4.4952,11.0253,-3.2691,-0.8094,0.0825,3.9866
18.898,0.2155,1.0611,-0.382,-4.4952,11.0253,-3.2691,-0.8094,0.0825,3.9866
18.898,0.2155,1.0611,-0.382,-11.5041,4.862,-0.548,-0.8094,0.0825,3.9866
18.964,-0.3049,1.2509,-0.2657,-11.5041,4.862,-0.548,-0.8094,0.0825,3.9866
18.965,-0.8239,1.4143,-0.1929,-11.5041,4.862,-0.548,-0.8094,0.0825,3.9866
18.967,-0.8593,2.2346,-0.358,-11.5041,4.862,-0.548,-0.8094,0.0825,3.9866
18.972,-0.8593,2.2346,-0.358,-13.7014,3.9271,-4.8853,-0.8094,0.0825,3.9866
18.973,-0.8593,2.2346,-0.358,-13.7014,3.9271,-4.8853,-0.9941,1.3681,4.1728
18.973,-0.7901,2.1894,-0.6225,-13.7014,3.9271,-4.8853,-0.9941,1.3681,4.1728
18.991,0.0788,1.2714,-0.6605,-13.7014,3.9271,-4.8853,-0.9941,1.3681,4.1728
19.03,0.7092,1.309,-0.9015,-13.7014,3.9271,-4.8853,-0.9941,1.3681,4.1728
19.032,0.7092,1.309,-0.9015,-13.7014,3.9271,-4.8853,-0.7956,-2.6547,2.5067
19.032,1.1869,0.7282,-0.899,-13.7014,3.9271,-4.8853,-0.7956,-2.6547,2.5067
19.033,1.1869,0.7282,-0.899,-15.0077,14.4554,-3.4145,-0.7956,-2.6547,2.5067
19.111,1.1869,0.7282,-0.899,-2.8081,7.3474,-7.2877,-0.7956,-2.6547,2.5067
19.112,1.3546,0.4582,-0.8653,-2.8081,7.3474,-7.2877,-0.7956,-2.6547,2.5067
19.113,1.313,0.0772,-0.6929,-2.8081,7.3474,-7.2877,-0.7956,-2.6547,2.5067
19.113,1.1129,-0.1621,-0.5002,-2.8081,7.3474,-7.2877,-0.7956,-2.6547,2.5067
19.113,1.1129,-0.1621,-0.5002,-2.8081,7.3474,-7.2877,-0.4455,-1.092,-2.5273
19.114,0.6969,-0.0783,-0.238,-2.8081,7.3474,-7.2877,-0.4455,-1.092,-2.5273
19.165,0.3888,0.1152,0.0008,-2.8081,7.3474,-7.2877,-0.4455,-1.092,-2.5273
19.166,0.3888,0.1152,0.0008,-2.8081,7.3474,-7.2877,0.6788,-1.2518,-6.2817
19.166,0.1816,0.3032,0.134,-2.8081,7.3474,-7.2877,0.6788,-1.2518,-6.2817
19.166,0.2383,0.4881,0.1577,-2.8081,7.3474,-7.2877,0.6788,-1.2518,-6.2817
19.166,0.2383,0.4881,0.1577,6.7025,-6.0645,-4.8608,0.6788,-1.2518,-6.2817
19.244,0.4264,0.7705,0.0573,6.7025,-6.0645,-4.8608,0.6788,-1.2518,-6.2817
19.246,0.6045,1.0478,-0.073,6.7025,-6.0645,-4.8608,0.6788,-1.2518,-6.2817
19.246,1.177,1.39,-0.3888,6.7025,-6.0645,-4.8608,0.6788,-1.2518,-6.2817
19.247,1.177,1.39,-0.3888,6.7025,-6.0645,-4.8608,0.861,-2.2812,-7.6135
19.248,1.177,1.39,-0.3888,2.431,-5.7469,2.7529,0.861,-2.2812,-7.6135
19.249,2.0241,1.4391,-0.4815,2.431,-5.7469,2.7529,0.861,-2.2812,-7.6135
19.304,2.0241,1.4391,-0.4815,2.431,-5.7469,2.7529,0.6188,0.519,-4.0656
19.306,1.7148,1.3978,-0.0104,2.431,-5.7469,2.7529,0.6188,0.519,-4.0656
19.307,1.672,0.9558,0.3427,2.431,-5.7469,2.7529,0.6188,0.519,-4.0656
19.307,2.1191,0.6486,0.6679,2.431,-5.7469,2.7529,0.6188,0.519,-4.0656
19.308,2.1191,0.6486,0.6679,10.2292,2.9334,0.6681,0.6188,0.519,-4.0656
19.379,1.7699,0.3448,0.955,10.2292,2.9334,0.6681,0.6188,0.519,-4.0656
19.381,1.344,-0.0494,0.7506,10.2292,2.9334,0.6681,0.6188,0.519,-4.0656
19.383,0.9115,2.0711,-1.3494,10.2292,2.9334,0.6681,0.6188,0.519,-4.0656
19.384,0.9115,2.0711,-1.3494,10.2292,2.9334,0.6681,0.0517,-1.0831,2.2807
19.385,-1.1093,4.5971,-1.4961,10.2292,2.9334,0.6681,0.0517,-1.0831,2.2807
19.386,-1.1093,4.5971,-1.4961,18.3211,2.216,4.6661,0.0517,-1.0831,2.2807
19.442,-1.1093,4.5971,-1.4961,18.3211,2.216,4.6661,0.5024,0.628,4.9528
19.444,1.3032,0.1772,0.8846,18.3211,2.216,4.6661,0.5024,0.628,4.9528
19.445,2.4234,1.9313,-0.3392,18.3211,2.216,4.6661,0.5024,0.628,4.9528
19.445,0.5423,-0.7732,0.6967,18.3211,2.216,4.6661,0.5024,0.628,4.9528
19.446,0.5423,-0.7732,0.6967,7.061,7.2641,-0.3062,0.5024,0.628,4.9528
19.483,1.0191,0.3701,-0.6706,7.061,7.2641,-0.3062,0.5024,0.628,4.9528
19.484,1.5013,1.8632,-0.8648,7.061,7.2641,-0.3062,0.5024,0.628,4.9528
19.51,1.0325,0.3961,-0.318,7.061,7.2641,-0.3062,0.5024,0.628,4.9528
19.517,1.0325,0.3961,-0.318,7.061,7.2641,-0.3062,0.4132,0.5881,1.9865
19.518,1.3529,1.1362,-0.5642,7.061,7.2641,-0.3062,0.4132,0.5881,1.9865
19.518,1.3529,1.1362,-0.5642,5.847,1.0051,5.8394,0.4132,0.5881,1.9865
19.579,1.0063,1.5841,-0.6208,5.847,1.0051,5.8394,0.4132,0.5881,1.9865
19.58,0.877,1.5544,-0.7479,5.847,1.0051,5.8394,0.4132,0.5881,1.9865
19.581,0.9327,1.4873,-0.6093,5.847,1.0051,5.8394,0.4132,0.5881,1.9865
19.582,0.9327,1.4873,-0.6093,5.847,1.0051,5.8394,-0.3563,0.9878,-0.0168
19.583,0.9327,1.4873,-0.6093,7.3262,1.4143,-3.8386,-0.3563,0.9878,-0.0168
19.645,0.2879,1.9211,-0.6748,7.3262,1.4143,-3.8386,-0.3563,0.9878,-0.0168
19.647,-0.0755,1.9041,-0.4967,7.3262,1.4143,-3.8386,-0.3563,0.9878,-0.0168
19.648,-0.2977,1.5847,-0.1685,7.3262,1.4143,-3.8386,-0.3563,0.9878,-0.0168
19.656,-0.6071,1.4962,0.0094,7.3262,1.4143,-3.8386,-0.3563,0.9878,-0.0168
19.658,-0.6071,1.4962,0.0094,7.3262,1.4143,-3.8386,-0.3024,2.7387,-0.3481
19.658,-0.6071,1.4962,0.0094,5.0798,7.2118,-4.9972,-0.3024,2.7387,-0.3481
19.712,-0.7517,1.273,0.1393,5.0798,7.2118,-4.9972,-0.3024,2.7387,-0.3481
19.714,-1.044,0.665,-0.0421,5.0798,7.2118,-4.9972,-0.3024,2.7387,-0.3481
19.715,-1.044,0.665,-0.0421,5.0798,7.2118,-4.9972,-0.8651,2.6383,0.5485
19.716,-1.4914,0.7231,-0.3118,5.0798,7.2118,-4.9972,-0.8651,2.6383,0.5485
19.717,-1.4914,0.7231,-0.3118,-6.0238,9.657,-3.7752,-0.8651,2.6383,0.5485
19.778,-1.129,0.8492,-0.3666,-6.0238,9.657,-3.7752,-0.8651,2.6383,0.5485
19.78,-0.4359,0.7401,-0.5297,-6.0238,9.657,-3.7752,-0.8651,2.6383,0.5485
19.781,0.2067,0.8896,-0.5145,-6.0238,9.657,-3.7752,-0.8651,2.6383,0.5485
19.791,0.2067,0.8896,-0.5145,-16.842,3.69,-0.7997,-0.8651,2.6383,0.5485
19.793,0.2067,0.8896,-0.5145,-16.842,3.69,-0.7997,-0.7496,-0.1053,4.2809
19.794,-0.1499,1.2113,-0.4655,-16.842,3.69,-0.7997,-0.7496,-0.1053,4.2809
19.842,-0.6128,1.4884,-0.418,-16.842,3.69,-0.7997,-0.7496,-0.1053,4.2809
19.843,-0.8023,2.0462,-0.4266,-16.842,3.69,-0.7997,-0.7496,-0.1053,4.2809
19.85,-0.5651,2.0353,-0.5816,-16.842,3.69,-0.7997,-0.7496,-0.1053,4.2809
19.851,-0.5651,2.0353,-0.5816,-11.3262,4.2477,-6.034,-0.7496,-0.1053,4.2809
19.851,-0.5651,2.0353,-0.5816,-11.3262,4.2477,-6.034,-0.8967,1.7855,3.267
19.913,0.2429,1.2657,-0.6565,-11.3262,4.2477,-6.034,-0.8967,1.7855,3.267
19.915,0.774,1.0743,-0.8041,-11.3262,4.2477,-6.034,-0.8967,1.7855,3.267
19.916,1.2415,0.5512,-0.6729,-11.3262,4.2477,-6.034,-0.8967,1.7855,3.267
19.929,1.2415,0.5512,-0.6729,-13.6935,13.509,-4.7756,-0.8967,1.7855,3.267
19.931,1.5025,0.1058,-0.7184,-13.6935,13.509,-4.7756,-0.8967,1.7855,3.267
19.932,1.5025,0.1058,-0.7184,-13.6935,13.509,-4.7756,-0.8045,-2.4135,0.9881
19.977,1.161,-0.198,-0.5735,-13.6935,13.509,-4.7756,-0.8045,-2.4135,0.9881
19.979,0.7425,-0.1958,-0.3788,-13.6935,13.509,-4.7756,-0.8045,-2.4135,0.9881
19.988,0.6271,-0.0187,-0.1815,-13.6935,13.509,-4.7756,-0.8045,-2.4135,0.9881
19.99,0.6271,-0.0187,-0.1815,-13.6935,13.509,-4.7756,-0.3066,-1.4606,-4.2695
19.991,0.6271,-0.0187,-0.1815,2.1512,2.3611,-6.4557,-0.3066,-1.4606,-4.2695
20.006,0.508,0.1925,-0.0579,2.1512,2.3611,-6.4557,-0.3066,-1.4606,-4.2695
20.043,0.5611,0.4616,-0.0086,2.1512,2.3611,-6.4557,-0.3066,-1.4606,-4.2695
20.065,0.5451,0.8063,0.0458,2.1512,2.3611,-6.4557,-0.3066,-1.4606,-4.2695
20.067,0.5451,0.8063,0.0458,2.1512,2.3611,-6.4557,0.7905,-1.4861,-7.0058
20.068,0.7627,1.2642,-0.1524,2.1512,2.3611,-6.4557,0.7905,-1.4861,-7.0058
20.068,0.7627,1.2642,-0.1524,6.3409,-9.1276,-2.6977,0.7905,-1.4861,-7.0058
20.11,1.3435,1.5414,-0.4666,6.3409,-9.1276,-2.6977,0.7905,-1.4861,-7.0058
20.111,1.966,1.3167,-0.2925,6.3409,-9.1276,-2.6977,0.7905,-1.4861,-7.0058
20.125,1.966,1.3167,-0.2925,6.3409,-9.1276,-2.6977,0.9417,-0.5342,-6.2524
20.126,1.6026,1.1145,0.1242,6.3409,-9.1276,-2.6977,0.9417,-0.5342,-6.2524
20.127,1.6026,1.1145,0.1242,6.1338,-2.6251,1.9173,0.9417,-0.5342,-6.2524
20.177,1.1387,1.0059,0.6305,6.1338,-2.6251,1.9173,0.9417,-0.5342,-6.2524
20.178,1.7241,0.7605,0.7631,6.1338,-2.6251,1.9173,0.9417,-0.5342,-6.2524
20.203,1.4346,0.5005,0.6735,6.1338,-2.6251,1.9173,0.9417,-0.5342,-6.2524
20.205,1.4346,0.5005,0.6735,6.1338,-2.6251,1.9173,0.292,-0.2352,-0.6401
20.206,1.1509,0.2486,0.4625,6.1338,-2.6251,1.9173,0.292,-0.2352,-0.6401
20.206,1.1509,0.2486,0.4625,15.7358,4.8133,0.0137,0.292,-0.2352,-0.6401
20.243,0.925,0.3243,0.2556,15.7358,4.8133,0.0137,0.292,-0.2352,-0.6401
20.245,-0.0695,4.0687,-1.4224,15.7358,4.8133,0.0137,0.292,-0.2352,-0.6401
20.261,-0.0695,4.0687,-1.4224,12.2732,-1.3737,8.5644,0.292,-0.2352,-0.6401
20.262,-0.0695,4.0687,-1.4224,12.2732,-1.3737,8.5644,0.025,-1.6418,3.8978
20.263,0.3766,1.6355,0.2936,12.2732,-1.3737,8.5644,0.025,-1.6418,3.8978
20.31,1.8276,0.9006,-0.0309,12.2732,-1.3737,8.5644,0.025,-1.6418,3.8978
20.311,1.1483,0.6293,0.25,12.2732,-1.3737,8.5644,0.025,-1.6418,3.8978
20.341,1.1483,0.6293,0.25,12.2732,-1.3737,8.5644,0.514,0.4931,3.7524
20.343,1.0797,-0.3599,-0.1504,12.2732,-1.3737,8.5644,0.514,0.4931,3.7524
20.343,1.0656,2.1945,-1.0412,12.2732,-1.3737,8.5644,0.514,0.4931,3.7524
20.344,1.0656,2.1945,-1.0412,1.5422,9.4196,0.3444,0.514,0.4931,3.7524
20.378,1.3745,0.4061,-0.6445,1.5422,9.4196,0.3444,0.514,0.4931,3.7524
20.398,1.1735,1.1582,-0.7868,1.5422,9.4196,0.3444,0.514,0.4931,3.7524
20.399,1.1735,1.1582,-0.7868,8.6724,-0.7377,0.2376,0.514,0.4931,3.7524
20.4,1.1735,1.1582,-0.7868,8.6724,-0.7377,0.2376,-0.0563,0.8501,1.097
20.401,1.2047,1.3591,-0.6464,8.6724,-0.7377,0.2376,-0.0563,0.8501,1.097
20.443,0.9196,1.7008,-0.6971,8.6724,-0.7377,0.2376,-0.0563,0.8501,1.097
20.445,0.6949,1.8596,-0.6335,8.6724,-0.7377,0.2376,-0.0563,0.8501,1.097
20.475,-0.0912,2.1432,-0.5426,8.6724,-0.7377,0.2376,-0.0563,0.8501,1.097
20.477,-0.0912,2.1432,-0.5426,8.6724,-0.7377,0.2376,-0.5518,1.5791,-0.1507
20.478,-0.3873,1.8635,-0.2784,8.6724,-0.7377,0.2376,-0.5518,1.5791,-0.1507
20.479,-0.3873,1.8635,-0.2784,7.2686,3.4252,-5.5381,-0.5518,1.5791,-0.1507
20.51,-0.5949,1.4819,-0.0488,7.2686,3.4252,-5.5381,-0.5518,1.5791,-0.1507
20.534,-0.5935,1.2999,0.1475,7.2686,3.4252,-5.5381,-0.5518,1.5791,-0.1507
20.535,-0.5935,1.2999,0.1475,7.2686,3.4252,-5.5381,-0.3167,3.1008,0.2099
20.536,-0.5547,1.017,0.1568,7.2686,3.4252,-5.5381,-0.3167,3.1008,0.2099
20.536,-0.5547,1.017,0.1568,-0.9878,11.043,-5.5028,-0.3167,3.1008,0.2099
20.576,-0.7847,0.707,-0.0427,-0.9878,11.043,-5.5028,-0.3167,3.1008,0.2099
20.578,-1.3291,0.6887,-0.1527,-0.9878,11.043,-5.5028,-0.3167,3.1008,0.2099
20.612,-1.3291,0.6887,-0.1527,-11.6252,6.4988,0.1819,-0.3167,3.1008,0.2099
20.615,-0.9045,0.9077,-0.2106,-11.6252,6.4988,0.1819,-0.3167,3.1008,0.2099
20.615,-0.9045,0.9077,-0.2106,-11.6252,6.4988,0.1819,-0.9168,0.0795,3.0879
20.616,-0.1083,1.0051,-0.2972,-11.6252,6.4988,0.1819,-0.9168,0.0795,3.0879
20.643,-0.032,1.0974,-0.3645,-11.6252,6.4988,0.1819,-0.9168,0.0795,3.0879
