time,gFx,gFy,gFz,ax,ay,az,wx,wy,wz,subject_number,foot
11.28,0.5237086115930594,1.0695782633424946,-0.2713895156915268,1.1242078025435254,3.3202385757549324,-1.6109401702076998,-0.1551649594850145,-0.02604517539425072,0.0774814316557396,2,left
11.315999999999999,0.5240814444029313,1.0686812088784705,-0.2702029540077079,1.13370293138009,3.3142309532126895,-1.608847398044243,-0.15509337650403168,-0.026542652490913872,0.07783380694219455,2,left
11.318,0.5244816191340059,1.0677915686224198,-0.2690173270704078,1.1434885357031168,3.30791420785428,-1.6065053122967772,-0.1549608102413759,-0.02695655778923166,0.07817113749241592,2,left
11.319,0.5249055617000901,1.066910562097195,-0.2678346589680682,1.153531262396726,3.301308575692501,-1.6039148583910532,-0.15476969606531868,-0.027282448258716615,0.07850441005337438,2,left
11.319,0.525349660927986,1.0660392579300975,-0.26665697419841844,1.1637950845562994,3.2944345938671944,-1.6010777935570797,-0.1545226879060762,-0.027516241109968965,0.07884447591588488,2,left
11.347000000000001,0.5258102932581687,1.0651785619103888,-0.26548628645249545,1.1742416064067691,3.287312923539624,-1.597996653632275,-0.1542226351004574,-0.027654251850472763,0.07920191298203227,2,left
11.374,0.526283845783807,1.0643292084543912,-0.2643245867267962,1.1848303946677554,3.2799641510833375,-1.5946747097644338,-0.15387255698309865,-0.027693227271801936,0.07958688975733788,2,left
11.376,0.526766737964906,1.0634917555401961,-0.2631738310118408,1.1955193319255393,3.2724085689247238,-1.591115914706589,-0.1534756152739174,-0.027630373013318384,0.08000903231911721,2,left
11.376,0.5272554424474164,1.062666583063366,-0.2620359278781045,1.2062649828866425,3.2646659465301857,-1.5873248387974994,-0.1530350843193078,-0.027463375705305666,0.08047729464315932,2,left
11.377,0.5277465054049687,1.061853894442264,-0.2609127262749185,1.2170229617849957,3.2567553071164204,-1.583306595944357,-0.15255431948602075,-0.027190420062550017,0.0809998335258927,2,left
11.413,0.5282365667687566,1.061053721191259,-0.25980600383055213,1.227748292202604,3.248694721928996,-1.5790667598623673,-0.15203672445644542,-0.02681020185544771,0.08158389119336612,2,left
11.415,0.5287223806295906,1.0602659300505244,-0.258717455931147,1.2383957558262058,3.24050112681377,-1.5746112706662774,-0.15148571842383474,-0.026321937994507848,0.0822356897185354,2,left
11.452,0.5292008359233332,1.0594902321124453,-0.25764868581167083,1.2489202296481212,3.2321901619840236,-1.5699463320771896,-0.1509047039359524,-0.02572537465472817,0.08296034033846901,2,left
11.454,0.5296689772788035,1.058726193327655,-0.2566011957627827,1.2592770120146375,3.2237760357668392,-1.5650783007757723,-0.15029703572846378,-0.025020793748614694,0.08376176897385235,2,left
11.454,0.5301240257780936,1.0579732458873874,-0.255576379403256,1.269422138483989,3.2152714143217898,-1.5600135717472725,-0.14966599085365803,-0.024209017442012946,0.08464265854658015,2,left
11.455,0.5305633993779455,1.0572307001447272,-0.2545755148463849,1.2793126887661745,3.2066873399968987,-1.5547584647492034,-0.14901474074577056,-0.023291409795421207,0.08560440906727697,2,left
11.479000000000001,0.530984732621235,1.0564977567837162,-0.2535997584570898,1.2889070857058404,3.198033180314317,-1.5493191157459294,-0.14834632607840903,-0.022269874307941365,0.08664711678805309,2,left
11.497,0.5313858949231971,1.0557735189176038,-0.25265013882356874,1.298165386709909,3.1893166083679416,-1.5437013748388886,-0.14766363505520785,-0.021146846445921935,0.08776957339277906,2,left
11.51,0.5317650065365725,1.055057003867584,-0.2517275507747075,1.3070495677103842,3.180543614742775,-1.5379107109345824,-0.14696938536863238,-0.01992528089070731,0.08896928552256382,2,left
11.511,0.5321204516436193,1.054347154535484,-0.25083274971821884,1.3155237995165512,3.1717185505456573,-1.5319521231791657,-0.14626610974555587,-0.01860863406127918,0.09024251414621237,2,left
11.512,0.5324508885738123,1.053642850400762,-0.24996634686540165,1.323554715543541,3.162844199209197,-1.5258300594101908,-0.14555614477184264,-0.01720084345796123,0.09158433238421515,2,left
11.546,0.5327552573796617,1.0529429182385217,-0.24912880588633268,1.3311116683438486,3.1539218712608155,-1.5195483422755802,-0.14484162258619987,-0.015706305889539876,0.09298869993015067,2,left
11.589,0.5330327848977096,1.0522461427661158,-0.2483204414446545,1.3381669711296513,3.1449515142348505,-1.5131101039434318,-0.14412446513547114,-0.01412985612941803,0.09444855267848162,2,left
11.59,0.5332829872345611,1.0515512775492433,-0.24754142000681562,1.344696119482403,3.1359318314020608,-1.5065177303624624,-0.14340638083086515,-0.012476746516440148,0.0959559067507828,2,left
11.59,0.5335056695157868,1.0508570565178825,-0.24679176318985768,1.3506779866626357,3.126860405684549,-1.4997728160984463,-0.14268886336580155,-0.010752626998898267,0.09750197530782544,2,left
11.591,0.5337009228050376,1.0501622064172662,-0.24607135371295472,1.3560949849413584,3.1177338266205363,-1.4928761308082241,-0.14197319215111084,-0.008963524115951388,0.09907729434265161,2,left
11.591,0.5338691182607034,1.0494654604959897,-0.24537994377213249,1.3609331874025896,3.1085478190598717,-1.4858275981090632,-0.14126043364258772,-0.007115816910054537,0.10067185238022641,2,left
11.614,0.5340108986560553,1.0487655732682486,-0.24471716518811001,1.3651824080064991,3.0992973730469253,-1.4786262871346818,-0.14055144301663333,-0.005216208264207366,0.10227522027904637,2,left
11.648,0.5341271675025746,1.0480613350122796,-0.2440825400839206,1.3688362397432958,3.0899768750365904,-1.4712704169497812,-0.1398468659750502,-0.0032716910583963374,0.10387667961559079,2,left
11.65,0.5342190765159326,1.0473515837431628,-0.2434754907542662,1.3718920520070412,3.080580241965948,-1.4637573746420844,-0.13914714067266645,-0.001289509090041144,0.10546534922329853,2,left
11.651,0.5342880127188967,1.0466352128695329,-0.24289534803918084,1.3743509499898399,3.0711010620274153,-1.4560837491693186,-0.13845249995697084,0.0007228869458713216,0.10703030881701393,2,left
11.651,0.5343355864208175,1.0459111743511766,-0.2423413583389092,1.3762176998245736,3.061532747279782,-1.448245383737509,-0.13776297439577528,0.002757887669722659,0.10856071702338052,2,left
11.681,0.5343636204738368,1.0451784787108054,-0.24181268985048626,1.3775006222732176,3.0518687019425323,-1.4402374487871223,-0.1370783967282838,0.004807776425195486,0.11004592024292557,2,left
11.727,0.5343741398247943,1.0444361939537485,-0.24130843867325105,1.3782114565063772,3.042102507196611,-1.432054535944798,-0.13639840821561336,0.00686478313515421,0.11147554966420962,2,left
11.729000000000001,0.5343693593007777,1.0436834455970303,-0.24082763545800556,1.3783651967048764,3.032228118530963,-1.4236907703012691,-0.1357224670715489,0.0089211402448414,0.11283960545329957,2,left
11.73,0.5343516677981414,1.0429194198900744,-0.24036925331947137,1.3779799078360313,3.0222400651287598,-1.415139934100588,-0.13504985895272245,0.010969140316053883,0.11412852849901657,2,left
11.73,0.5343236083879765,1.0421433713199328,-0.23993221734577294,1.3770765290719076,3.0121336372941383,-1.4063955926279812,-0.13437970937947996,0.013001194298140062,0.11533326110591118,2,left
11.731,0.5342878551093373,1.041354633661994,-0.2395154152121079,1.3756786711989686,3.0019050514127725,-1.3974512153804264,-0.13371099791644947,0.015009889174974549,0.1164452984893531,2,left
11.747,0.5342471875002617,1.0405526326732344,-0.2391177079127537,1.3738124105576166,2.991551588226236,-1.3883002897386247,-0.13304257398409544,0.01698804401372617,0.11745673246428567,2,left
11.785,0.5342044633314956,1.0397368989274236,-0.23873793983359073,1.3715060799323435,2.981071703692566,-1.378936426655778,-0.13237317424861872,0.018928764029220488,0.11836028788623452,2,left
11.787,0.5341625895093699,1.038907080191497,-0.23837494780204435,1.3687900563885342,2.9704651124036348,-1.36935345833746,-0.13170144155105454,0.020825492586854316,0.119149352039449,2,left
11.787,0.5341244912176424,1.0380629529249221,-0.23802756894191554,1.3656965460506196,2.9597328435295873,-1.359545527886282,-0.13102594520101196,0.022672061044965088,0.11981799757012618,2,left
11.788,0.5340930796529594,1.0372044322746805,-0.23769464721600714,1.362259365555319,2.9488772699140675,-1.3495071710497937,-0.13034520220154605,0.024462736180303646,0.12036100045494841,2,left
11.812999999999999,0.5340712188161204,1.036331580048599,-0.23737503862683057,1.3585137186140075,2.937902114212773,-1.3392333910361895,-0.12965769882778497,0.026192264852829328,0.12077385499072121,2,left
11.864,0.5340616918309073,1.0354446104339197,-0.2370676151333112,1.3544959637798402,2.926812441852024,-1.3287197288499264,-0.12896191212538588,0.0278559155897422,0.12105278730314985,2,left
11.866,0.5340671672691188,1.0345438933432234,-0.2367712673715026,1.3502433682157484,2.9156146538528573,-1.3179623324254615,-0.1282563311518304,0.0294495166083305,0.12119476802223873,2,left
11.867,0.5340901660032417,1.033629955286605,-0.23648490630580868,1.3457938435570658,2.9043164892966304,-1.3069580270098757,-0.12753947792381676,0.03096948931315617,0.12119752435185423,2,left
11.868,0.5341330292187314,1.0327034777806505,-0.23620746407125096,1.3411856622990979,2.8929270413233064,-1.295704387756289,-0.12680992806075664,0.03241287600304945,0.12105955170382629,2,left
11.868,0.5341978883143047,1.0317652935318329,-0.23593789444344046,1.3364571545765551,2.881456786862222,-1.2841998144286828,-0.12606633111635462,0.033777360840508155,0.12078012502417822,2,left
11.921,0.5342866373603028,1.0308163808090696,-0.23567517343657313,1.3316463861546897,2.869917627531661,-1.27244360678355,-0.12530743057495372,0.035061283697044386,0.12035930983312415,2,left
11.924000000000001,0.5344009085723331,1.0298578563975058,-0.23541830042054407,1.3267908197003486,2.85832293534641,-1.260436037088635,-0.1245320833970083,0.03626364675498937,0.11979797281148122,2,left
11.925,0.5345420510379771,1.028890967382551,-0.23516629997431904,1.3219269626338825,2.8466875946480275,-1.2481784151714497,-0.12373927882869339,0.037384113719258115,0.11909779149410832,2,left
11.925,0.5347111128127997,1.0279170819393788,-0.2349182245816851,1.317090006865288,2.8350280332073305,-1.2356731430700574,-0.12292815609633162,0.03842300144220735,0.11826126248438348,2,left
11.925999999999998,0.5349088264579183,1.0269376793660727,-0.2346731582134017,1.3123134693226581,2.8233622382114847,-1.2229237593828448,-0.12209802070055634,0.03938126381462562,0.1172917077495253,2,left
11.946,0.535135598130031,1.025954339751709,-0.23443022072202704,1.3076288441836539,2.811709754382969,-1.2099349750938146,-0.12124835919479077,0.04026046786590914,0.11619327881931825,2,left
12.0,0.5353915005269538,1.0249687337803564,-0.23418857279926636,1.3030652748855673,2.800091662473847,-1.196712702371655,-0.12037885242291811,0.0410627621838771,0.11497095871282195,2,left
12.002,0.5356762702045896,1.0239826130668217,-0.23394742114846517,1.2986492491360824,2.7885305374126386,-1.1832640769196412,-0.1194893871901375,0.041790838361951355,0.11363056072757925,2,left
12.002,0.535989309660879,1.0229978011322816,-0.23370602358241543,1.2944043174506294,2.777050385955492,-1.169597473941345,-0.1185800663055163,0.042447887238653066,0.11217872193140623,2,left
12.003,0.5363296940276574,1.0220161848967073,-0.23346369387654833,1.2903508355284878,2.7656765640669265,-1.1557225178086716,-0.11765121691500954,0.04303755228162277,0.11062288847756929,2,left
12.005,0.5366961816048939,1.021039706515963,-0.23321980629476657,1.2865057324062426,2.7544356755486215,-1.1416500861405035,-0.11670339706334358,0.043563881880684385,0.10897129058274081,2,left
12.058,0.537087227260209,1.0200703554230752,-0.23297379975605237,1.282882309254546,2.7433554557623863,-1.1273923101199708,-0.11573740045853315,0.04403128125681728,0.1072329063008699,2,left
12.06,0.5375009979431534,1.019110160386656,-0.2327251816312828,1.2794900753107183,2.7324646455867803,-1.1129625735001827,-0.11475425943184443,0.044444464059417474,0.10541741396220153,2,left
12.061,0.5379353899615328,1.0181611812205185,-0.23247353114532557,1.2763346258142696,2.7217928594542222,-1.0983755121252734,-0.11375524608698219,0.044808403372469725,0.10353513337753745,2,left
12.062000000000001,0.5383880479996354,1.017225499492416,-0.2322185023060043,1.2734175638927692,2.7113704489524397,-1.0836470144881996,-0.11274187162697505,0.04512828142873475,0.10159695606481314,2,left
12.062999999999999,0.5388563860405913,1.016305207293495,-0.2319598262057384,1.2707364667529641,2.701228362001653,-1.0687942223011264,-0.11171588384426694,0.04540943709681759,0.0996142648421937,2,left
12.079,0.5393376104274832,1.0154023931930622,-0.23169731252862708,1.2682848962666575,2.6913979970369164,-1.053835528268474,-0.11067926276239531,0.045657310439925186,0.097598843044352,2,left
12.138,0.5398287452659545,1.0145191251817494,-0.23143085021485776,1.2660524540743854,2.6819110514457645,-1.0387905673296052,-0.1096342144064099,0.04587738422433517,0.09556277356192075,2,left
12.140999999999998,0.5403266601388204,1.0136574312732483,-0.2311604073881618,1.2640248812977526,2.672799363692108,-1.0236801985604702,-0.10858316259988113,0.04607512327952723,0.09351832832021552,2,left
12.142000000000001,0.5408280997105974,1.0128192787929617,-0.23088603065843444,1.2621842028927837,2.6640947488822126,-1.0085264765840498,-0.10752873853896343,0.04625591408057118,0.09147784970220833,2,left
12.142999999999999,0.5413297144159172,1.0120065532360496,-0.23060784374523052,1.2605089166444237,2.655828827709588,-0.9933526122618899,-0.1064737678117682,0.04642500771324322,0.08945362592425428,2,left
12.144,0.5418280911519021,1.0112210374573727,-0.23032604520208969,1.2589742266262414,2.6480328483358275,-0.9781829226194713,-0.10542125461347139,0.04658746859232057,0.08745776186946792,2,left
12.196,0.5423197828711478,1.0104643919937737,-0.23004090500271646,1.257552319652322,2.6407374991949832,-0.963042769923023,-0.10437436305550804,0.04674812988153334,0.08550204597721182,2,left
12.197000000000001,0.5428013362873463,1.0097381372176002,-0.22975275984018192,1.256212679482073,2.633972709526316,-0.9479584897124914,-0.10333639557563735,0.04691155571827622,0.08359781352033759,2,left
12.198,0.5432693173439486,1.0090436377289955,-0.22946200708197803,1.25492242866383,2.627767436979005,-0.9329573074358761,-0.10231076860333216,0.04708200991124464,0.08175580768475063,2,left
12.199000000000002,0.5437203344061613,1.008382089195645,-0.22916909739220317,1.2536466865178473,2.622149446285531,-0.9180672432718788,-0.10130098587116924,0.04726343028068574,0.07998604199640343,2,left
12.2,0.544151059336791,1.0077545078725305,-0.22887452612926518,1.2523489355262167,2.6171450841859443,-0.9033170048408099,-0.10031060989414825,0.04745940753403455,0.07829766882453494,2,left
12.274000000000001,0.5445582468009994,1.0071617230949128,-0.22857882377472652,1.2509913929601406,2.6127790537693842,-0.8887358677423423,-0.09934323200767717,0.04767316784665269,0.076698857506585,2,left
12.276,0.5449387522766244,1.0066043729458953,-0.22828254576850118,1.2495353854186042,2.6090741918498743,-0.8743535443351975,-0.09840244111880189,0.04790755881588572,0.07519668350999867,2,left
12.277000000000001,0.5452895492700617,1.0060829030897065,-0.22798626213636694,1.2479417215871527,2.60605125716107,-0.8602000418998361,-0.0974917912614531,0.04816503872273447,0.07379702899711005,2,left
12.277999999999999,0.5456077461983371,1.0055975685622116,-0.22769054723928683,1.2461710569627924,2.603728739756135,-0.8463055117201788,-0.09661476835713288,0.048447669036423675,0.072504495594384,2,left
12.277999999999999,0.5458906033380984,1.0051484381714346,-0.2273959699431186,1.2441842458532621,2.602122699401143,-0.8327000902264926,-0.09577475718883009,0.04875710999920487,0.07132233137635176,2,left
12.279000000000002,0.5461355501096999,1.0047354010455476,-0.2271030845054637,1.2419426787710097,2.6012466360729674,-0.8194137326322034,-0.09497500993286796,0.049094619074348304,0.0702523747464149,2,left
12.331,0.5463402027398931,1.0043581747447676,-0.22681242242249197,1.2394086049928756,2.601111392836198,-0.8064760394004205,-0.09421861725665583,0.04946105209479777,0.06929501722545085,2,left
12.334000000000001,0.5465023821585794,1.004016314301874,-0.22652448533969732,1.2365454408117018,2.601725089661995,-0.7939160772816178,-0.09350848239259361,0.04985686708146109,0.06844918595123095,2,left
12.334000000000001,0.5466201319615668,1.003709221659711,-0.2262397389843193,1.2333180648033804,2.6030930846051192,-0.7817621993355367,-0.09284729830397019,0.05028213092172606,0.06771234602317312,2,left
12.335,0.5466917363107519,1.0034361551357063,-0.22595860795650646,1.2296931018753539,2.6052179575637555,-0.7700418698350918,-0.09223752806760573,0.05073652941052518,0.067080522697891,2,left
12.335999999999999,0.5467157374641602,1.0031962385872464,-0.22568147106151082,1.2256391974182999,2.6080995130426183,-0.7587814984674264,-0.09168138864042559,0.051219381323445716,0.06654834344405634,2,left
12.409,0.5466909521645318,1.002988469933708,-0.22540865675715555,1.2211272820836676,2.611734800490788,-0.7480062855777271,-0.09118083810409733,0.051729656950398356,0.0661090996427291,2,left
12.411,0.5466164858026141,1.002811728807678,-0.22514043842883763,1.216130827265256,2.6161181519816195,-0.7377400787189325,-0.09073756625140526,0.05226600084779182,0.0657548266150059,2,left
12.413,0.5464917435832604,1.0026647833333397,-0.2248770296019732,1.210626091273123,2.621241237242997,-0.7280052404750373,-0.09035298805786723,0.05282675773435573,0.06547639867697132,2,left
12.414000000000001,0.5463164386086589,1.0025462962236216,-0.22461857965790155,1.2045923561868093,2.6270931360483685,-0.7188225275270924,-0.0900282394193422,0.05341000005252701,0.06526363482197893,2,left
12.415,0.5460905971127109,1.0024548305834182,-0.22436517087049337,1.1980121549872758,2.633660427623201,-0.7102109807656761,-0.08976417469099524,0.05401355608727654,0.06510541173020469,2,left
12.415999999999999,0.5458145608402365,1.0023888560207352,-0.2241168174600001,1.1908714866345345,2.640927294934019,-0.7021878254212348,-0.08956136584117218,0.054635038200118405,0.06498978278504279,2,left
12.468,0.5454889863325751,1.0023467557567993,-0.22387346698877492,1.1831600132529783,2.648875638729671,-0.6947683790448244,-0.08942010318836234,0.055271871105995234,0.06490410287577397,2,left
12.469000000000001,0.5451148410475104,1.002326835328369,-0.22363500408012027,1.1748712315153456,2.657485195525696,-0.6879659661423868,-0.08934039772049193,0.055921320194768434,0.06483515898602633,2,left
12.47,0.5446933965238141,1.0023273332379161,-0.22340125622866994,1.1660026119962452,2.6667336575100338,-0.6817918423464389,-0.08932198498015675,0.05658051994058614,0.06476930633146309,2,left
12.47,0.5442262188242866,1.0023464334250922,-0.22317200125747316,1.1565557036017406,2.676596796680378,-0.6762551343146641,-0.08936433042053492,0.05724650264991061,0.06469260862918667,2,left
12.470999999999998,0.5437151563404018,1.0023822785048655,-0.22294697562465668,1.1465362022493581,2.6870485962062247,-0.6713628005777066,-0.08946663599461434,0.05791622817246048,0.06459097895554133,2,left
12.499,0.5431623252661231,1.0024329818620006,-0.22272588256030817,1.1359539836067918,2.6980613903726387,-0.6671196154818865,-0.089627847661501,0.058586615406816,0.06445031646797433,2,left
12.536,0.5425700938680061,1.002496637157191,-0.22250839942131675,1.1248230998344746,2.709606013355779,-0.6635281765715199,-0.08984666359493976,0.05925457617210893,0.06425663541909851,2,left
12.539000000000001,0.5419410670444601,1.0025713254463449,-0.2222941844147908,1.1131617403032494,2.7216519568601383,-0.6605889353967993,-0.09012154313236681,0.059917051379388145,0.06399618487429944,2,left
12.539000000000001,0.5412780715217139,1.0026551211957497,-0.22208288320002328,1.1009921562567733,2.73416753664908,-0.6583002517350502,-0.09045071678135032,0.06057104875286219,0.06365555846850139,2,left
12.54,0.540584140412965,1.002746098619725,-0.22187413585798274,1.088340549718728,2.7471200675681384,-0.6566584708326378,-0.09083219772698364,0.06121368104531623,0.06322179363117891,2,left
12.615,0.5398624956890966,1.0028423398606883,-0.2216675846350538,1.0752369286034567,2.760476044493833,-0.6556580213646144,-0.09126379517322203,0.0618422039563889,0.06268245985109126,2,left
12.617,0.5391165282897277,1.002941946076163,-0.2214628825193512,1.0617149329752973,2.7742013227394393,-0.6552915283693734,-0.09174312965198585,0.06245405343829722,0.06202573580863522,2,left
12.618,0.5383497764193977,1.0030430509970136,-0.22125970213104842,1.0478116390605663,2.7882612892822363,-0.6555499335053763,-0.09226765032326856,0.0630468823379691,0.06124047534602692,2,left
12.619000000000002,0.5375659023191801,1.0031438355296634,-0.22105774417786883,1.0335673459547978,2.802621018346083,-0.6564226168909081,-0.09283465424596117,0.06361859634861569,0.06031626238949581,2,left
12.62,0.5367686672676614,1.0032425424716476,-0.22085674499878943,1.0190253469785429,2.817245408776894,-0.6578975182313308,-0.09344130749162624,0.0641673890998899,0.05924345551612621,2,left
12.620999999999999,0.5359619044888417,1.0033374911276878,-0.22065648303725985,1.004231685906373,2.8320993033519035,-0.6599612569628988,-0.09408466777987666,0.06469177595681345,0.0580132238994336,2,left
12.673,0.5351494899867594,1.003427091621579,-0.22045678419148498,0.9892348976231796,2.847147593269147,-0.6625992520801619,-0.09476170820652065,0.06519062595375658,0.056617576946154026,2,left
12.675,0.5343353116653333,1.0035098584510962,-0.22025752599747883,0.9740857321533859,2.862355315872194,-0.6657958433125266,-0.095469341716948,0.06566319140883092,0.05504938941313887,2,left
12.675999999999998,0.5335232371886502,1.0035844227217767,-0.22005864059499242,0.9588368606704031,2.877687756336884,-0.6695344158710163,-0.09620444603896675,0.06610913489941425,0.053302423029116495,2,left
12.675999999999998,0.532717080981474,1.0036495425432626,-0.21986011643244865,0.9435425624306532,2.8931105613763117,-0.6737975304341369,-0.09696388865927015,0.0665285532010226,0.051371345567470965,2,left
12.677,0.53192057073478,1.0037041112494904,-0.2196619987152404,0.9282583922174733,2.9085898678662288,-0.6785670587870922,-0.09774455131724666,0.06692199769695614,0.04925174847807502,2,left
12.748,0.5311373138315801,1.0037471632555943,-0.2194643886615195,0.9130408283865222,2.9240924448887142,-0.6838243236791169,-0.09854335362200252,0.06729049088955193,0.04694016390756424,2,left
12.75,0.5303707642121603,1.003777877422036,-0.2192674416879181,0.8979469019759326,2.9395858440376155,-0.6895502390194136,-0.09935727563627789,0.0676355388660707,0.044434081436262214,2,left
12.751,0.5296241903256595,1.0037955779158314,-0.21907136476406686,0.8830338075135026,2.9550385510958246,-0.6957254452363877,-0.10018337940307681,0.0679591396956535,0.041731964581288084,2,left
12.752,0.5289006449340218,1.0037997328073636,-0.21887641334021338,0.868358495984394,2.970420133928095,-0.7023304359235215,-0.10101882941729937,0.0682637877584099,0.038833267059200295,2,left
12.753,0.5282029375439515,1.003789950869789,-0.2186828883414777,0.8539772504469032,2.9857013843106945,-0.7093456741743733,-0.10186091204470778,0.06855247400763347,0.03573844880097415,2,left
12.754000000000001,0.5275336100801945,1.0037659771070224,-0.21849113365683362,0.8399452462552767,3.00085445193828,-0.7167516980215689,-0.10270705389153612,0.06882868208433218,0.03244899171027457,2,left
12.811,0.5268949161588463,1.0037276874191667,-0.21830153438894082,0.8263161012690445,3.015852967142647,-0.7245292143480861,-0.1035548391327936,0.06909637979447218,0.02896741514904942,2,left
12.815,0.5262888041050785,1.0036750826236194,-0.218114515979608,0.8131414255780919,3.0306721483109915,-0.7326591813932566,-0.10440202579351471,0.0693600048252982,0.025297291024096943,2,left
12.815999999999999,0.5257169037493812,1.0036082819172816,-0.21793054423704034,0.8004703831499744,3.0452888924069974,-0.7411228821335617,-0.10524656087043617,0.06962444367699949,0.02144325784964406,2,left
12.815999999999999,0.5251805170220405,1.0035275158863683,-0.21775012622617382,0.7883492773643068,3.0596818498510663,-0.7499019923735426,-0.10608659397617712,0.0698950041103187,0.017411032281760937,2,left
12.817,0.5246806124461734,1.0034331193366617,-0.21757381185711847,0.7768211682514499,3.0738314855621907,-0.7589786466302018,-0.10692048906801531,0.07017738265509167,0.01320741613968471,2,left
12.882,0.524217823761572,1.003325524339383,-0.21740219581675554,0.7659255244099934,3.0877201270045647,-0.7683355030820938,-0.10774683393013015,0.07047762862476958,0.008840297426659325,2,left
12.884,0.5237924528865744,1.003205253752256,-0.21723591937486367,0.7556979100701033,3.101331999413759,-0.7779558078161058,-0.10856444727792502,0.07080210524812368,0.004318644748699113,2,left
12.885,0.5234044770757875,1.0030729151744637,-0.21707567168116737,0.7461697072697029,3.114653248243069,-0.7878234583979634,-0.1093723834645214,0.07115744802069217,-0.00034750497912007316,2,left
12.888,0.5230535596556185,1.002929195120644,-0.2169221903868128,0.7373678731122632,3.1276719488698994,-0.7979230667933075,-0.11016993481415878,0.07155052030734138,-0.005147065651837756,2,left
12.889000000000001,0.5227390635038855,1.0027748531934517,-0.2167762615924474,0.7293147320768887,3.140378103601264,-0.8082400216669433,-0.11095663171902176,0.0719883663798627,-0.010067928535037879,2,left
12.89,0.522460066612527,1.002610715974185,-0.2166387191526983,0.722027803615275,3.1527636262117222,-0.8187605499666238,-0.1117322408372503,0.07247816234807862,-0.015096997786951272,2,left
12.948,0.5222153794254527,1.0024376701219762,-0.21651044330272012,0.7155196665816409,3.1648223152216475,-0.829471777088637,-0.11249676184167169,0.07302716559551993,-0.020220236965380684,2,left
12.950999999999999,0.522003563925791,1.0022566539164595,-0.21639235849664412,0.7097978644008903,3.176549818878594,-0.8403617838255251,-0.11325042305695078,0.07364266317838479,-0.02542272804059705,2,left
12.952,0.5218229545776546,1.0020686465130422,-0.21628543033660586,0.7048648561918964,3.187943595779037,-0.8514196576870902,-0.11399367612156064,0.07433191937217776,-0.030688743531440195,2,left
12.953,0.5216716811903892,1.0018746547238635,-0.21619066159839065,0.700718017755582,3.1990028740914083,-0.8626355367961501,-0.11472718968652454,0.075102122415677,-0.03600183179284731,2,left
12.954,0.5215476935637858,1.0016756978565975,-0.21610908754691438,0.6973496936671815,3.209728610356774,-0.8740006455899088,-0.11545184207744372,0.07596033055937097,-0.04134491494813104,2,left
13.009,0.5214487875555791,1.0014727913938024,-0.21604177077857653,0.6947472988272779,3.2201234467279067,-0.8855073218246209,-0.1161687127328182,0.0769134176837537,-0.04670039817712556,2,left
13.012,0.5213726321250951,1.001266930070215,-0.21598979568720134,0.6928934647268773,3.23019166326088,-0.8971490338854753,-0.11687907216859769,0.0779680188408984,-0.05205028863679463,2,left
13.014000000000001,0.5213167967998134,1.0010590707837737,-0.2159542624776341,0.6917662241064104,3.2399391207331174,-0.9089203870606224,-0.11758437028191752,0.07913047598518307,-0.05737632272563898,2,left
13.032,0.5212787788244119,1.0008501159781826,-0.21593628057855954,0.6913392292683411,3.2493731906001164,-0.9208171177821093,-0.11828622292043026,0.08040678400127799,-0.06266010118565946,2,left
13.034,0.5212560292388212,1.000640898353852,-0.2159369613500342,0.6915820021448875,3.258502670752724,-0.9328360754550429,-0.11898639671004774,0.08180253714439858,-0.06788323179647797,2,left
13.035,0.5212459773937426,1.0004321677236878,-0.21595741006516098,0.6924602156946,3.2673376867028567,-0.94497519187193,-0.119686792163403,0.08332287646258035,-0.07302747863410165,2,left
13.079,0.5212460537212303,1.0002245805627132,-0.21599871719657143,0.6939360059818607,3.275889577191145,-0.9572334384373403,-0.12038942512175169,0.08497243962066502,-0.07807491530253115,2,left
13.08,0.5212537107858218,1.0000186924933216,-0.21606194907639706,0.6959683133283271,3.284170761658638,-0.9696107717148477,-0.12109640659992701,0.08675531501803302,-0.08300807867726048,2,left
13.082,0.5212664428343825,0.9998149537091953,-0.21614813808658356,0.6985132503899564,3.292194586162487,-0.9821080679677014,-0.12180992108706414,0.08867500162047084,-0.0878101205684698,2,left
13.083,0.5212818042752613,0.9996137071597881,-0.2162582726704432,0.7015244955521555,3.299975145176083,-0.9947270472058751,-0.1225322033565299,0.09073437503338982,-0.09246495606487398,2,left
13.083,0.5212974276003187,0.9994151892034921,-0.21639328754375314,0.7049537104160017,3.3075270789897373,-1.007470187003093,-0.1232655139772731,0.09293565965231723,-0.09695740713422263,2,left
13.149000000000001,0.5213110411281273,0.999219532441414,-0.2165540544393935,0.7087509777463384,3.3148653509181587,-1.020340626373975,-0.1240121139956485,0.09528040623715787,-0.10127333833335213,2,left
13.151,0.5213204867183646,0.9990267704975144,-0.21674137356584253,0.7128652510678806,3.322005015225735,-1.0333420603035588,-0.12477423941245928,0.09776947403744925,-0.1053997804266497,2,left
13.152000000000001,0.5213237374342485,0.9988368444520854,-0.21695596579801305,0.7172448041558609,3.328960990309512,-1.0464786257071654,-0.12555407592432832,0.10040301681591446,-0.10932503876494466,2,left
13.161,0.5213189150328695,0.9986496104546841,-0.2171984655156894,0.7218376716005294,3.3357478481580953,-1.0597547796129105,-0.12635373411834747,0.10318047251344128,-0.11303878517285354,2,left
13.162,0.5213043071024722,0.9984648479147287,-0.21746941395645578,0.7265920768738204,3.342379625113386,-1.0731751710225361,-0.1271752251533318,0.10610055651870316,-0.1165321331456844,2,left
13.163,0.5212783835896928,0.9982822676826592,-0.21776925291945354,0.7314568471864261,3.3488696563083593,-1.0867445095151513,-0.1280204369694824,0.10916125857233105,-0.1197976962968351,2,left
13.215,0.5212398123286165,0.9981015197113442,-0.21809831862115844,0.7363818149669215,3.3552304359701415,-1.1004674346184007,-0.12889111126610983,0.11235984344767909,-0.12282962964441978,2,left
13.217,0.5211874730246027,0.997922199803988,-0.2184568355165203,0.7413182058404232,3.3614735052347493,-1.1143483889753931,-0.12978882184315851,0.11569285575173542,-0.125623652692357,2,left
13.220999999999998,0.5211204690705653,0.9977438552783678,-0.21884491006831835,0.746219013066215,3.3676093681430865,-1.1283914965422972,-0.13071495510013298,0.11915612930185479,-0.12817705290890474,2,left
13.222000000000001,0.521038136729661,0.9975659896496952,-0.21926252479982722,0.7510393582737672,3.3736474355602954,-1.1426004460629,-0.13167069328830702,0.122744801422661,-0.13048866855655608,2,left
13.222999999999999,0.5209400515855414,0.9973880665940978,-0.21970953330592766,0.7557368375179561,3.379595994728334,-1.1569783799053166,-0.13265700074532177,0.1264533322362671,-0.1325588505854295,2,left
13.282,0.5208260324307619,0.9972095134555046,-0.22018565694315023,0.7602718501842776,3.3854621986991966,-1.1715277884144462,-0.13367461308943432,0.13027552855518496,-0.13438940428333318,2,left
13.284,0.5206961426874596,0.9970297245397828,-0.22069048365746877,0.7646079074468989,3.3912520679725238,-1.1862504099719993,-0.13472402921376536,0.13420457133094357,-0.1359835125795609,2,left
13.285,0.5205506891889975,0.9968480645712527,-0.22122346909724555,0.7687119178097684,3.396970498584474,-1.2011471369186533,-0.13580550586684878,0.1382330452593518,-0.13734564352892462,2,left
13.298,0.5203902180513155,0.996663872938259,-0.22178393994656925,0.7725544484469784,3.4026212743069686,-1.216217927552394,-0.13691905466000795,0.1423529694960932,-0.13848144387170527,2,left
13.3,0.5202155075333155,0.9964764694956241,-0.22237109928912768,0.7761099603683272,3.4082070822912383,-1.2314617250146298,-0.13806444140176188,0.14655582914420917,-0.1393976196873552,2,left
13.3,0.5200275579926624,0.9962851625494678,-0.22298403377145892,0.7793570128695824,3.4137295314270406,-1.2468763850112246,-0.13924118752442488,0.1508326078937185,-0.14010180581437442,2,left
13.347000000000001,0.5198275790903552,0.9960892591061227,-0.22362172222345258,0.7822784312087884,3.419189172440356,-1.262458614950882,-0.14044857303830657,0.15517382292313608,-0.14060242789581182,2,left
13.35,0.5196169744478579,0.99588807635541,-0.22428304496951368,0.7848614329665606,3.4245855190005483,-1.2782039264490168,-0.1416856402597468,0.15956956353887236,-0.14090856219460388,2,left
13.357000000000001,0.5193973244185514,0.9956809522673236,-0.2249667927463046,0.7870977114028479,3.4299170698984915,-1.2941066020568792,-0.14295119774857315,0.16400953466272378,-0.14102979703696578,2,left
13.357999999999999,0.5191703685093053,0.9954672534973021,-0.2256716747609524,0.7889834762595531,3.4351813343237243,-1.3101596767101245,-0.14424382426323126,0.16848310554356577,-0.14097609757775442,2,left
13.359000000000002,0.518937989432568,0.9952463804005774,-0.22639632653687985,0.7905194538776759,3.4403748654112203,-1.3263549347482537,-0.14556187289069214,0.17297936332594827,-0.14075767504573727,2,left
13.415,0.5187021999666139,0.9950177700020284,-0.2271393184647037,0.7917108491170752,3.4454933089465505,-1.3426829236255358,-0.1469034758332802,0.17748717035557077,-0.1403848627190258,2,left
13.417,0.5184651320949898,0.9947808977710474,-0.22789916541575853,0.7925672709455349,3.450531472399658,-1.3591329851657141,-0.14826655049414852,0.18199522372412538,-0.1398680016303932,2,left
13.436,0.5182290265351333,0.9945352792567429,-0.22867433741209744,0.7931026224460578,3.4554834163641877,-1.3756933047294864,-0.14964880734079639,0.18649211590444245,-0.13921733817751783,2,left
13.437000000000001,0.5179962207849522,0.9942804732807655,-0.2294632713073955,0.7933349553699193,3.460342568760739,-1.3923509783953847,-0.15104775972448495,0.19096639586054315,-0.13844293409160607,2,left
13.437999999999999,0.5177691349424437,0.9940160880989788,-0.23026438320144466,0.7932862892379666,3.465101861818503,-1.4090920982012913,-0.15246073564786813,0.1954066301319617,-0.1375545877992914,2,left
13.439,0.5175502554814131,0.9937417903295273,-0.23107608093016735,0.7929823955336525,3.469753890962224,-1.4259018551420006,-0.1538848914268108,0.19980146332116758,-0.13656176569111786,2,left
13.48,0.5173421172519306,0.993457315281559,-0.2318967759083503,0.7924525502399766,3.474291090294841,-1.4427646578578779,-0.15531722720691232,0.2041396775588701,-0.13547354218077118,2,left
13.481,0.5171472837106951,0.9931624776800879,-0.23272489392323045,0.7917292628488973,3.4787059113804646,-1.4596642617807223,-0.15675460432139046,0.20841025078471714,-0.13429854810707267,2,left
13.494000000000002,0.5169683253145653,0.9928571824417067,-0.23355888480365705,0.7908479926805968,3.4829909875957203,-1.4765839017424995,-0.15819376445782363,0.21260241380404254,-0.1330449272943152,2,left
13.495999999999999,0.5168077961464183,0.9925414351879912,-0.2343972309964279,0.7898468606397968,3.4871392707534774,-1.4935064228133998,-0.1596313504357353,0.216705705996637,-0.13172030062375764,2,left
13.495999999999999,0.5166682089674185,0.992215352032696,-0.2352384550466227,0.7887663593192477,3.491144135549022,-1.510414407381445,-0.16106392809383382,0.2207100293486278,-0.13033173600273062,2,left
13.548,0.5165520089082822,0.991879168145131,-0.23608112590146124,0.7876490599538549,3.494999456119642,-1.5272902986289998,-0.1624880086172889,0.22460570036460833,-0.1288857220808487,2,left
13.55,0.5164615460243803,0.9915332446144862,-0.23692386392490855,0.7865393111326647,3.4986996676443765,-1.5441165216020651,-0.16390007080385727,0.22838349953062423,-0.12738814409934948,2,left
13.571,0.5163990470599725,0.9911780732509268,-0.2377653445853341,0.7854829226230555,3.5022398297499473,-1.5608756032631073,-0.16529658307084255,0.23203471820303423,-0.12584426122550887,2,left
13.573,0.5163665869255485,0.9908142791010741,-0.2386043008795859,0.7845268300781139,3.505615701857212,-1.5775502915981086,-0.16667402516841476,0.23555120285519787,-0.12425868524123174,2,left
13.574000000000002,0.5163660604177658,0.9904426205358838,-0.23943952458832246,0.7837187407483149,3.508823828665776,-1.594123671472435,-0.1680289095741172,0.2389253963539658,-0.12263536046504661,2,left
13.575,0.5163991546527671,0.9900639868355801,-0.24026986648650775,0.7831067627355157,3.5118616273426744,-1.6105792736099303,-0.1693578024995127,0.24215037542930332,-0.1209775446118784,2,left
13.613,0.5164673227548282,0.9896793933239226,-0.24109423576998165,0.7827390199468224,3.514727469445892,-1.6269011739304813,-0.17065734441551456,0.24521988321760851,-0.11928779019778489,2,left
13.614,0.51657175949031,0.9892899743075477,-0.24191159915385646,0.7826632536101971,3.5174207548003658,-1.6430740821685725,-0.17192427002723468,0.24812835604126227,-0.11756792619379945,2,left
13.630999999999998,0.5167133795046501,0.9888969742847741,-0.24272098018499869,0.782926410963455,3.519941976728176,-1.6590834196871818,-0.17315542767293807,0.2508709440948033,-0.11581903980764283,2,left
13.633,0.5168927985869843,0.9885017379639782,-0.24352145921784718,0.783574223931453,3.5222927777906485,-1.6749153868616065,-0.1743477981320536,0.2534435259727371,-0.11404145839533475,2,left
13.633,0.517110318149405,0.9881056995296577,-0.24431217431371038,0.784650784830738,3.524475993923839,-1.6905570208989897,-0.17549851276243938,0.25584271694339283,-0.11223473165553396,2,left
13.682,0.5173659130102428,0.9877103714664884,-0.2450923231313274,0.7861981284883631,3.5264956841396113,-1.7059962452319453,-0.17660487076184525,0.2580658707168731,-0.11039761449600045,2,left
13.684000000000001,0.517659222679793,0.9873173332674807,-0.2458611656789312,0.7882558278162088,3.528357143672797,-1.7212219113510772,-0.177664355278875,0.260111074368046,-0.10852805109296249,2,left
13.708,0.517989546613928,0.9869282204371724,-0.24661802760173426,0.7908606060248023,3.5300668999811093,-1.7362238336300673,-0.17867464816816117,0.2619771361616403,-0.10662316053261259,2,left
13.71,0.5183558440716972,0.9865447141445897,-0.24736230360076358,0.7940459681407738,3.5316326929672237,-1.7509928183285022,-0.1796336433066939,0.26366356631860305,-0.10467922434854406,2,left
13.710999999999999,0.5187567390572018,0.9861685316829112,-0.24809346068546972,0.7978418573097271,3.533063443191777,-1.7655206895316944,-0.18053945844365749,0.26517055153250657,-0.10269167694400391,2,left
13.712,0.5191905303556628,0.9858014177192983,-0.24881104111887492,0.8022743431931347,3.534369213100079,-1.7798003156912987,-0.18139044554472666,0.26649892529195907,-0.10065510131337865,2,left
13.745,0.5196552060116394,0.9854451362054873,-0.24951466495739896,0.8073653479442576,3.5355611650304457,-1.7938256395246743,-0.18218519957764456,0.26765013674798716,-0.09856323328384729,2,left
13.767000000000001,0.5201484610076615,0.9851014627029845,-0.2502040320300634,0.8131324120300706,3.5366515175429627,-1.807591712140977,-0.1829225656997349,0.2686262201813149,-0.09640897669137694,2,left
13.769,0.5206677167954102,0.984772176786535,-0.2508789231716668,0.819588500671226,3.537653500499334,-1.8210947300563198,-0.18360164483054242,0.269429765769417,-0.09418443045078971,2,left
13.77,0.5212101418021866,0.9844590541957289,-0.25153920059077567,0.8267418519002234,3.5385813093371894,-1.8343320712390174,-0.18422179759427348,0.2700638910482941,-0.09188092766100975,2,left
13.770999999999999,0.5217726727564134,0.9841638584027242,-0.2521848073786585,0.8345958675683871,3.5394500591285847,-1.8473023250254368,-0.1847826465971215,0.2705322112091027,-0.0894890867038022,2,left
13.812999999999999,0.5223520373330914,0.9838883310461856,-0.25281576628158187,0.8431490483057199,3.540275738865549,-1.8600053120459699,-0.18528407699205193,0.27083880574838803,-0.08699887428228421,2,left
13.815,0.5229447789643288,0.9836341804143208,-0.25343217791720996,0.8523949728483926,3.541075166151336,-1.8724420926394494,-0.18572623529579593,0.27098817961107224,-0.08439968035708816,2,left
13.847000000000001,0.5235472844430179,0.9834030674150407,-0.2540342185955829,0.8623223218221294,3.5418659423292476,-1.8846149635333145,-0.18610952644485132,0.27098521808248266,-0.08168040495909101,2,left
13.85,0.5241558142476,0.9831965893052669,-0.2546221377949585,0.8729149458523314,3.542666407544923,-1.8965274428772985,-0.18643460908946244,0.2708351353061315,-0.07882955686916789,2,left
13.850999999999999,0.5247665348244024,0.9830162620909644,-0.25519625516134503,0.8841519771051923,3.543495592705386,-1.9081842439740089,-0.18670238912685067,0.2705434164276869,-0.07583536415747902,2,left
13.850999999999999,0.525375551765132,0.9828635025064075,-0.25575695676060284,0.896007981982587,3.544373160739546,-1.9195912385104876,-0.18691401145410005,0.27011575360606166,-0.07268589649676441,2,left
13.88,0.5259789428232314,0.9827396102547892,-0.256304690309606,0.9084531519268431,3.5453193270323298,-1.9307554103504565,-0.1870708498174519,0.26955797733674125,-0.06936919877529407,2,left
13.904000000000002,0.5265727898148813,0.9826457511197464,-0.2568399591924091,0.9214535300619153,3.5463547514372578,-1.9416848006898584,-0.18717449446797788,0.2688759866521992,-0.06587343460553306,2,left
13.905999999999999,0.5271532086354966,0.982582941549126,-0.2573633151418144,0.9349712727826767,3.547500398830975,-1.9523884449161168,-0.18722673732823503,0.26807568272756815,-0.06218703678583041,2,left
13.907,0.5277163769133414,0.9825520352705094,-0.2578753495515074,0.9489649461742918,3.548777367706001,-1.9628763012544794,-0.18722955465473531,0.26716290878111437,-0.05829886009066692,2,left
13.907,0.5282585591769947,0.9825537124518704,-0.25837668352847126,0.9633898569911062,3.5502066872322837,-1.9731591712504237,-0.18718508746546447,0.26614339674948795,-0.05419833131383131,2,left
13.946,0.52877612974955,0.9825884718430078,-0.25886795696641385,0.9781984163868049,3.5518090853563127,-1.983248612224284,-0.18709562000674432,0.2650227202536693,-0.04987559302665199,2,left
13.947000000000001,0.5292655938176071,0.982656626156054,-0.2593498170424185,0.9933405318184776,3.553604734355072,-1.9931568419917074,-0.1869635563773855,0.2638062535639149,-0.0453216396602641,2,left
13.982000000000001,0.5297236072759346,0.9827583006805779,-0.25982290661293267,1.0087640204672255,3.5556129829916885,-2.0028966362404748,-0.18679139532966374,0.26249913651260476,-0.04052844567013967,2,left
13.984000000000002,0.5301469960240257,0.9828934348980682,-0.26028785301756835,1.0244150363478468,3.5578520852387956,-2.0124812189142762,-0.1865817033012612,0.26110624531916404,-0.03548908560722741,2,left
13.985,0.5305327752903033,0.9830617867766467,-0.2607452577204511,1.0402385011729274,3.5603389370097833,-2.021924145882617,-0.18633708600415952,0.25963216912786236,-0.030197845103305535,2,left
13.985,0.5308781693023972,0.9832629394463545,-0.26119568704745266,1.0561785278662705,3.56308883315737,-2.03123918213615,-0.18606015938589637,0.2580811917654606,-0.024650320308520983,2,left
14.014000000000001,0.5311806313572484,0.9834963099123853,-0.261639664133278,1.0721788286394385,3.566115253615499,-2.040440172680301,-0.18575352105045748,0.2564572780623345,-0.018843502502302933,2,left
14.020999999999999,0.5314378641233949,0.9837611593246773,-0.2620776620743898,1.088183104424315,3.5694296822395652,-2.0495409072124597,-0.18541972295400788,0.25476406424356385,-0.012775845414198479,2,left
14.04,0.5316478398158773,0.9840566042082544,-0.2625100981056411,1.1041354151652847,3.573041458944193,-2.0585549786192154,-0.18506124570103338,0.2530048521898273,-0.006447314259390596,2,left
14.04,0.5318088197336656,0.9843816280231935,-0.2629373284307126,1.1199805310168753,3.5769576651472934,-2.067495635320092,-0.18468047451784927,0.25118260754250543,0.0001405837208206155,2,left
14.040999999999999,0.5319193725499368,0.9847350924568437,-0.2633596432864632,1.1356642646697332,3.5811830423917317,-2.076375627823486,-0.18427967704316156,0.2492999617182116,0.006984787409912692,2,left
14.08,0.5319783907516845,0.9851157479865209,-0.26377726194114814,1.1511337859127242,3.585719943325799,-2.085207051557851,-0.18386098328625144,0.247359218002896,0.014080689123859643,2,left
14.081,0.531985104756361,0.985522243474347,-0.26419032753014204,1.1663379211317748,3.5905683129807273,-2.0940011910966607,-0.18342636822048833,0.24536236195388197,0.0214221616909551,2,left
14.12,0.5319390944153547,0.9859531347694085,-0.2645989018801708,1.1812274413306834,3.595725697593382,-2.102768372593112,-0.18297763734539285,0.24331107619909698,0.029001605596031793,2,left
14.120999999999999,0.5318402978309322,0.9864068924335996,-0.26500296074501845,1.1957553413734419,3.601187278914142,-2.111517829542778,-0.18251641525332502,0.24120675921484666,0.036810015340572606,2,left
14.120999999999999,0.5316890175825363,0.9868819088074721,-0.26540239005413574,1.209877111553727,3.6069459331846874,-2.1202575839366227,-0.18204413696458105,0.2390505468801832,0.04483706245014332,2,left
14.122,0.5314859243616085,0.9873765047663232,-0.2657969837580363,1.22355100135146,3.6129923143069016,-2.1289943430145124,-0.18156204168506518,0.23684333519145243,0.05307119165828576,2,left
14.148,0.531232057723231,0.9878889366832627,-0.26618644367837857,1.236738273259348,3.619314959086142,-2.1377334107167822,-0.1810711687268028,0.2345858029230819,0.06149972766981884,2,left
14.177,0.5309288235725215,0.9884174042039342,-0.266570381542121,1.2494034411988322,3.6259004093141405,-2.1464786117888415,-0.18057235548657657,0.23227843374526053,0.0701089914787977,2,left
14.179,0.530577988239578,0.9889600593893998,-0.2669483232052185,1.2615144856234501,3.632733344079419,-2.1552322269649675,-0.18006623743982766,0.22992153778479932,0.07888442582129769,2,left
14.179,0.5301816692581472,0.9895150176392523,-0.2673197150003456,1.2730430380869802,3.639796718188769,-2.1639949406699244,-0.17955325000292763,0.22751527306162522,0.08781072817422969,2,left
14.18,0.5297423230156766,0.9900803704543668,-0.2676839320443178,1.2839645306691398,3.647071906181533,-2.17276580531259,-0.17903363189867477,0.22505966789161938,0.09687198729244513,2,left
14.213,0.5292627294837007,0.990654199268083,-0.2680402880002237,1.2942583080701626,3.654538852797331,-2.181542225774635,-0.17850742953860807,0.22255464571214872,0.10605181793271669,2,left
14.255999999999998,0.528745974679583,0.991234588682082,-0.2683880454078527,1.3039077016618683,3.662176230396058,-2.190319965612421,-0.1779745020569509,0.22000005342071752,0.11533348975776096,2,left
14.257,0.5281954321502798,0.9918196377130061,-0.2687264258268506,1.3129000654023169,3.6699616034307723,-2.1990931752461393,-0.1774345268748853,0.21739569358772695,0.12470004877356396,2,left
14.258,0.5276147446552083,0.9924074690982801,-0.2690546195785579,1.3212267738933625,3.6778715997228284,-2.207854441913767,-0.17688700592347456,0.2147413601839395,0.13413443069897105,2,left
14.259,0.527007806163012,0.9929962376671982,-0.2693717951763354,1.328883184107477,3.6858820869287983,-2.2165948599292973,-0.17633127290889541,0.21203687675190405,0.1436195653978084,2,left
14.259,0.526378743236377,0.9935841386344004,-0.2696771086082307,1.3358685645563537,3.6939683501406484,-2.225304117556051,-0.17576650213201897,0.20928213559598657,0.15313847120526006,2,left
14.282,0.5257318946109094,0.9941694163849562,-0.2699697127974842,1.342185996920793,3.7021052652007027,-2.2339705955677167,-0.1751917192459587,0.20647713691997485,0.16267433827920588,2,left
14.312999999999999,0.5250717883574074,0.9947503741498879,-0.27024876750956206,1.347842253910564,3.710267463673502,-2.242581473807829,-0.1746058141040647,0.2036220274791263,0.17221060064518837,2,left
14.314,0.5244031168249291,0.9953253844626502,-0.2705134494925497,1.3528476548729877,3.71842948786539,-2.251122844286928,-0.17400755570229245,0.20071713864321325,0.1817309970147894,2,left
14.315,0.5237307096561884,0.9958928999242996,-0.2707629622783849,1.3572158994181884,3.726565935643097,-2.2595798305946455,-0.1733956090935293,0.1977630237146787,0.1912196210781531,2,left
14.315,0.5230595047434287,0.9964514640832028,-0.27099654519983996,1.3609638792280023,3.7346515955387964,-2.267936713773158,-0.1727685539702872,0.19476049412412882,0.20066096298145933,2,left
14.347000000000001,0.5223945169285115,0.9969997224500167,-0.27121348142887697,1.3641114689672718,3.742661574949606,-2.276177065406934,-0.1721249045114981,0.19171065400205506,0.21003994426125544,2,left
14.392000000000001,0.5217408044936807,0.9975364334023032,-0.2714131049072493,1.366681298512477,3.750571428043604,-2.284283889419527,-0.17146313018974446,0.188614932748728,0.21934194794631587,2,left
14.392999999999999,0.5211034335483319,0.9980604785248861,-0.27159480603214825,1.368698509172338,3.7583572904414297,-2.2922397728787627,-0.17078167738900893,0.1854751154085919,0.22855284460721942,2,left
14.392999999999999,0.5204874403329877,0.9985708720145493,-0.27175803599489456,1.3701904952938453,3.7659960220678688,-2.3000270422666307,-0.17007899164686738,0.18229337059244316,0.2376590149711237,2,left
14.394,0.5198977915050771,0.9990667688602701,-0.2719023097377987,1.3711866309968954,3.773465353527357,-2.3076279187763813,-0.1693535401089814,0.1790722753802065,0.24664737032427025,2,left
14.395,0.5193393427245404,0.9995474714130441,-0.2720272075777808,1.37171798131768,3.780744030899832,-2.315024667387996,-0.1686038336469427,0.17581483645089624,0.25550537232310905,2,left
14.414000000000001,0.5188167962556332,1.000012433802334,-0.27213237563823633,1.3718169974146028,3.7878119567428326,-2.322199737587027,-0.16782844822720752,0.17252450687232965,0.26422105343601615,2,left
14.450999999999999,0.5183346587064432,1.0004612637092483,-0.2722175253333818,1.3715171960203993,3.7946503266703098,-2.329135895347388,-0.16702604536493829,0.16920519831802738,0.27278303851973595,2,left
14.453,0.5178972002102668,1.0008937213397717,-0.272282432252867,1.3708528245771263,3.8012417598592525,-2.335816346149474,-0.166195391633246,0.16586128866473013,0.2811805676356912,2,left
14.454,0.5175084161358654,1.0013097158330886,-0.27232693485272125,1.369858515642033,3.8075704193300353,-2.342224848429555,-0.16533537722560332,0.16249762496108777,0.2894035201311751,2,left
14.454,0.5171719919407123,1.001709299592069,-0.27235093334776056,1.3685689353470853,3.813622116454248,-2.34834581664752,-0.1644450335678905,0.15911952169359658,0.29744244000416226,2,left
14.481,0.5168912713970806,1.0020926610957224,-0.27235438914287086,1.3670184294979608,3.819384395534545,-2.354164413367503,-0.1635235499703064,0.1557327539537969,0.30528856254083037,2,left
14.495999999999999,0.5166692282770049,1.0024601167022824,-0.2723373250346163,1.3652406687448084,3.824846596804914,-2.359666630119923,-0.1625702892982234,0.15234354453110074,0.312933842161865,2,left
14.527999999999999,0.516508441632175,1.002812101934032,-0.27229982623190757,1.3632682930603133,3.829999897590424,-2.364839357020854,-0.1615848026348291,0.1489585436335853,0.3203709813839176,2,left
14.529000000000002,0.5164110750031939,1.0031491628210458,-0.27224204200678176,1.3611325555206863,3.8348373316429933,-2.3696704411653986,-0.1605668428910902,0.14558480038269983,0.327593460717725,2,left
14.53,0.5163788601187993,1.0034719478856646,-0.2721641876157042,1.358862966006565,3.8393537868488257,-2.3741487340466785,-0.15951637721271167,0.14222972641562576,0.3345955688089063,2,left
14.530999999999999,0.5164130856595659,1.0037812011384177,-0.27206654614931336,1.356486938550365,3.843545982402265,-2.3782641294302165,-0.15843359782951277,0.13890105334581712,0.34137243113465715,2,left
14.589,0.5165145913685567,1.0040777561560432,-0.27194947011986825,1.3540294519195886,3.8474124283865594,-2.382007595113064,-0.15731893087693608,0.13560678650489225,0.347920035007348,2,left
14.591,0.5166837674046552,1.0043625310850202,-0.27181338272170064,1.3515127374614644,3.8509533727349408,-2.385371202565776,-0.15617304285319397,0.13235515677956483,0.3542352490910805,2,left
14.592,0.5169205586063272,1.0046365243237574,-0.2716587787418908,1.3489560075109446,3.8541707416854822,-2.3883481561783384,-0.1549968446709684,0.1291545712559789,0.36031583609921997,2,left
14.594000000000001,0.5172244731956497,1.0049008106570088,-0.2714862250897519,1.3463752333917738,3.857068079356184,-2.390932821098311,-0.153791493532679,0.12601356276378123,0.3661604569019138,2,left
14.594000000000001,0.5175945951758074,1.0051565376152407,-0.271296360891237,1.3437829776039085,3.8596504900320356,-2.3931207480785774,-0.15255839296680793,0.12294073828412584,0.3717686638266546,2,left
14.614,0.5180295994686552,1.005404921686529,-0.27108989710117193,1.3411882817813574,3.8619245845339196,-2.39490869461203,-0.1512991912774881,0.11994472619257188,0.3771408814930475,2,left
14.665999999999999,0.5185277691718108,1.0056472437210717,-0.2708676156294522,1.3385966102889515,3.8638984305730446,-2.3962946421806683,-0.15001577850612888,0.11703412231992522,0.38227837452804647,2,left
14.668,0.5190870150070674,1.0058848426014206,-0.2706303679926677,1.3360098471146262,3.86558150510987,-2.3972778092770914,-0.14871028189962834,0.11421743487642888,0.38718320215527074,2,left
14.669,0.5197048974092184,1.0061191062695183,-0.27037907346757245,1.3334263402097983,3.866984643752826,-2.397858659332734,-0.1473850597678522,0.11150302856394217,0.39185816020934955,2,left
14.67,0.5203786515894885,1.0063514595994933,-0.2701147167013301,1.3308409854837624,3.8681199805742477,-2.398038902395792,-0.14604269344243118,0.10889906870083567,0.3963067119288428,2,left
14.67,0.5211052155675089,1.0065833492299514,-0.26983834474550983,1.3282453446046962,3.869000873377145,-2.3978214896908954,-0.14468597695411023,0.10641346646228894,0.40053290932687796,2,left
14.724,0.5218812607251977,1.0068162260833828,-0.2695510634560451,1.325627794247689,3.869641812352043,-2.3972106007080853,-0.14331790414058235,0.10405382606128108,0.40454130649172493,2,left
14.725,0.5227032240406934,1.007051526598895,-0.26925403310978263,1.322973706296035,3.8700583113376785,-2.39621162272881,-0.1419416530672503,0.10182739419603862,0.4083368653656097,2,left
14.725,0.523567341037815,1.0072906535988642,-0.2689484630332745,1.3202656587458523,3.870266780542897,-2.39483112270139,-0.14056056773807393,0.09974101181235467,0.4119248541031702,2,left
14.725999999999999,0.5244696785494548,1.0075349575719719,-0.26863560511251544,1.3174836769832108,3.870284379204687,-2.3930768113483243,-0.13917813709258017,0.09780106817401667,0.41531073802107926,2,left
14.725999999999999,0.5254061664526233,1.0077857192328457,-0.2683167461777147,1.314605505183647,3.8701288470383695,-2.3909574994156495,-0.13779797130728513,0.09601345728703366,0.4185000633458775,2,left
14.745999999999999,0.5263726276971639,1.0080441342615352,-0.26799319933575727,1.3116069077292636,3.869818314022489,-2.3884830460256397,-0.1364237755307471,0.09438353698412055,0.4214983349470956,2,left
14.804,0.5273648063232398,1.0083113009243208,-0.2676662943758168,1.308461999935119,3.869371089201467,-2.3856642991231447,-0.1350593213812319,0.09291609144497036,0.42431089100730934,2,left
14.806,0.5283783935766914,1.0085882109716924,-0.26733736744118985,1.3051436039720339,3.8688054330614476,-2.3825130280162097,-0.13370841664696032,0.09161529818864665,0.42694277856083873,2,left
14.807,0.5294090525178012,1.0088757439618743,-0.26700775024193235,1.301623619715763,3.868139324868116,-2.3790418480206537,-0.13237487351794439,0.09048470031451579,0.4293986328516194,2,left
14.808,0.530452441698179,1.0091746649547155,-0.2666787591772228,1.2978733968315939,3.867390240151413,-2.375264137222889,-0.13106247552447578,0.08952718425314159,0.43168256190624466,2,left
14.808,0.5315042385728267,1.0094856253362785,-0.2663516847972309,1.2938640978234028,3.8665749497251722,-2.37119394536872,-0.12977494347537685,0.08874496279464013,0.433798037792751,2,left
14.862,0.5325601632231723,1.0098091664172673,-0.2660277819714742,1.2895670479324364,3.8657093447956767,-2.366845894874886,-0.1285159011197107,0.0881395627417822,0.4357477978093284,2,left
14.864,0.5336160026917748,1.0101457254066626,-0.26570826096282224,1.2849540711908949,3.8648082889163007,-2.3622350739536437,-0.12728884168747107,0.08771181656480205,0.4375337602520136,2,left
14.865,0.5346676359349556,1.010495643333485,-0.26539427946087607,1.2799978126187364,3.8638854967859544,-2.357376921838726,-0.1260970966008496,0.08746185814319747,0.4391569589835687,2,left
14.865,0.5357110591984666,1.0108591743910886,-0.2650869355342131,1.2746720465512975,3.8629534398888583,-2.3522871061002197,-0.1249438074383558,0.08738912336479492,0.4406174994745961,2,left
14.866,0.5367424115337157,1.0112364959753515,-0.26478726133089797,1.2689519712090294,3.8620232790627345,-2.3469813923344516,-0.12383190180239258,0.08749235632368642,0.4419145375821001,2,left
14.939,0.5377580001983884,1.0116277185252533,-0.2644962172054131,1.2628144902427099,3.861104824530617,-2.3414755080107454,-0.12276407330501499,0.087769621328717,0.44304628135756063,2,left
14.940999999999999,0.538754325777097,1.0120328943744357,-0.26421468592098135,1.2562384828873692,3.860206524230623,-2.33578500490674,-0.121742765558005,0.08821832015420122,0.44401001516563326,2,left
14.942,0.5397281069044774,1.0124520251477893,-0.2639434666907105,1.2492050638773373,3.8593354791882795,-2.329925125843804,-0.12077015978628729,0.08883521298127883,0.4448021441346734,2,left
14.942,0.540676304318614,1.0128850675180192,-0.2636832689266935,1.2416978316656282,3.858497479659587,-2.3239106795482027,-0.11984816555790771,0.08961644096152475,0.4454182562989677,2,left
14.943,0.5415961436312212,1.0133319372892708,-0.2634347056532027,1.2337031012653954,3.857697052428388,-2.3177559245534143,-0.1189784142498585,0.09055754885221287,0.445853200452911,2,left
14.944,0.5424851360598643,1.0137925119524274,-0.26319828683022334,1.225210118509582,3.856937511731404,-2.3114744617780576,-0.1181622550958451,0.0916535071042447,0.44610117892638407,2,left
14.997,0.5433410966393221,1.014266632091182,-0.2629744133250623,1.2162112543838723,3.8562210107630364,-2.305079135502956,-0.11740075375095314,0.09289873338905229,0.4461558548612091,2,left
14.999,0.5441621596982553,1.0147541021738227,-0.2627633725389828,1.2067021791894046,3.8555485932500524,-2.2985819426864857,-0.11669469314745451,0.09428711409236624,0.44601047225162826,2,left
14.999,0.5449467913535128,1.015254691320776,-0.2625653364531794,1.1966820165108312,3.854920245093982,-2.291993950600188,-0.1160445760812473,0.09581202709098169,0.4456579844037767,2,left
15.0,0.5456937987304664,1.015768134684901,-0.26238036231694833,1.1861534769638666,3.854334946079169,-2.2853252227663066,-0.1154506287825257,0.09746636756674805,0.44509118501998907,2,left
15.001,0.546402335778266,1.0162941360567244,-0.2622083957127656,1.1751229713690634,3.8537907216349585,-2.2785847533473937,-0.11491280491048979,0.09924257817475317,0.44430283756177796,2,left
15.075999999999999,0.5470719057308846,1.016832372050984,-0.2620492754745169,1.1636007014301317,3.853284694709548,-2.2717804109733053,-0.11443078974696283,0.10113268409526571,0.4432858011521667,2,left
15.077,0.5477023603065553,1.0173824978731987,-0.261902739952162,1.1516007233738388,3.852813138311045,-2.264918894467014,-0.11400400457742439,0.10312833300371647,0.4420331525900461,2,left
15.078,0.5482938957103437,1.0179441543473382,-0.26176843427493296,1.1391409789419138,3.8523715302749593,-2.258005703697411,-0.11363161142246735,0.10522083961587088,0.4405383036584555,2,left
15.078,0.5488470456516554,1.0185169752742904,-0.26164591829302486,1.1262432900672998,3.8519546124495307,-2.251045127900295,-0.11331251852967728,0.1074012339437721,0.4387951116843004,2,left
15.079,0.5493626721334575,1.0191005935023176,-0.2615346747874458,1.11293331618555,3.851556455992476,-2.2440402523322325,-0.11304538717321899,0.10966031210839293,0.43679798062649217,2,left
15.08,0.5498419552293943,1.019694644532557,-0.2614341176195591,1.099240474196029,3.8511705334692845,-2.2369929833548623,-0.11282864017144237,0.11198868884515574,0.43454195064865203,2,left
15.135,0.5502863823174102,1.0202987680285527,-0.26134359979038496,1.0851978214834466,3.8507897976360304,-2.2299040917498925,-0.11266047228614189,0.11437685136063186,0.43202277535553807,2,left
15.137,0.5506977355554997,1.0209126086574711,-0.26126242172774716,1.0708419042703037,3.8504067655096654,-2.222773273217338,-0.11253886253012473,0.11681521448890059,0.42923698655147824,2,left
15.137,0.5510780759037728,1.0215358176478535,-0.261189840261806,1.0562125770328983,3.8500136042349755,-2.215599223468479,-0.11246158838246068,0.1192941771542367,0.42618194651431907,2,left
15.138,0.551429723427809,1.0221680557628166,-0.2611250783743595,1.041352800636501,3.849602214094152,-2.2083797244687737,-0.11242624191092657,0.12180418014696587,0.4228558877776454,2,left
15.139000000000001,0.5517552348884353,1.0228089974870374,-0.2610673351897277,1.0263084249204497,3.849164305168171,-2.2011117392419575,-0.11243024778665808,0.12433576516445975,0.4192579405295457,2,left
15.215,0.5520573792861269,1.0234583358996836,-0.261015795514054,1.0111279579882833,3.848691466541673,-2.193791514024842,-0.11247088310298378,0.12687963479429418,0.41538814831684057,2,left
15.217,0.5523391111497367,1.0241157882525234,-0.2609696385545236,0.9958623224748481,3.8481752295498692,-2.1864146866055707,-0.11254529875063746,0.12942671261014882,0.41124747387576743,2,left
15.217,0.5526035411709034,1.024781102711707,-0.2609280457459787,0.9805645985716077,3.847607129397117,-2.1789763983862334,-0.11265054188748155,0.13196820221892944,0.4068377979222898,2,left
15.218,0.5528539041405413,1.0254540664014218,-0.26089020767026055,0.9652897535324307,3.846978770920331,-2.171471406897847,-0.11278357886032517,0.13449564426992147,0.4021619139297746,2,left
15.219000000000001,0.5530935245082319,1.0261345142442948,-0.2608553299958221,0.9500943574404582,3.8462819028266555,-2.1638941963083016,-0.1129413179272028,0.13700097087481375,0.3972235213059972,2,left
15.219000000000001,0.5533257800694122,1.0268223376389873,-0.26082263833253794,0.9350362851219574,3.8455085021361013,-2.1562390849266015,-0.11312063134274397,0.13947655721957553,0.39202721836771126,2,left
15.270999999999999,0.5535540643481454,1.0275174919099337,-0.26079138196277246,0.9201744041516894,3.844650869116064,-2.1485003295192793,-0.11331837664539607,0.14191527023017753,0.38657849562127083,2,left
15.273,0.5537817482856847,1.0282200016731478,-0.26076083653085563,0.9055682490200885,3.843701732304073,-2.140672226327932,-0.11353141716433986,0.14431051382749122,0.3808837294458366,2,left
15.274000000000001,0.5540121418206884,1.028929963615258,-0.26073030583387885,0.8912776821020592,3.8426543612067756,-2.1327492082301966,-0.11375664186059523,0.14665626962739436,0.37495017622525045,2,left
15.274000000000001,0.554248455870993,1.0296475464867578,-0.2606991228560405,0.877362543092172,3.841502680648287,-2.1247259366827342,-0.11399098465486442,0.14894713155831654,0.36878596699427485,2,left
15.275,0.5544937652950659,1.0303729883262427,-0.26066665024256624,0.8638822891408882,3.840241378732641,-2.1165973866381362,-0.11423144335670693,0.15117833325202393,0.3624001026438519,2,left
15.347000000000001,0.5547509735924139,1.0311065911791657,-0.2606322805436042,0.8508956273582372,3.838866002392933,-2.1083589230737996,-0.11447509824128212,0.15334576775394307,0.3558024496927564,2,left
15.349,0.5550227801101495,1.0318487138531336,-0.2605954366535016,0.838460140328035,3.837373038114067,-2.100006368574033,-0.11471913028192574,0.15544599948285698,0.34900373661201955,2,left
15.35,0.5553116502799024,1.0325997633986952,-0.26055557281378205,0.8266319047078728,3.835759977423865,-2.091536061852753,-0.11496083903924481,0.15747626844637364,0.34201555068380085,2,left
15.350999999999999,0.5556197891405047,1.0333601860034385,-0.2605121763351838,0.81546510287769,3.8340253671485627,-2.082944907193092,-0.11519766018189778,0.1594344867579361,0.33485033532162056,2,left
15.350999999999999,0.5559491183392904,1.0341304579431672,-0.26046476993085693,0.8050116276013258,3.8321688444284105,-2.0742304147799207,-0.11542718248659348,0.16131922769869791,0.32752138750751564,2,left
15.352,0.556301256967046,1.0349110770981955,-0.2604129144020577,0.7953206802371238,3.830191156490085,-2.0653907320671077,-0.11564716393509397,0.163129707923334,0.3200428545137373,2,left
15.408,0.5566775067860582,1.0357025552678196,-0.2603562114454265,0.7864383661550203,3.8280941654349485,-2.0564246671485114,-0.11585554639835792,0.1648657636063987,0.31242972880532427,2,left
15.41,0.5570788424400979,1.0365054112732512,-0.2602943064579822,0.7784072974980295,3.825880839593561,-2.047331706580265,-0.11605046853171956,0.16652782120898155,0.30469784014329593,2,left
15.411,0.5575059070276592,1.0373201647695918,-0.26022689129108556,0.7712662187061506,3.823555235306453,-2.038112030902576,-0.11623027676543937,0.16811686359473665,0.29686384366068147,2,left
15.412,0.5579590130706719,1.038147330699456,-0.2601537069225447,0.7650496687224199,3.821122474263628,-2.0287665302615028,-0.11639353445786826,0.16963439275626896,0.28894520163189374,2,left
15.413,0.5584381484586962,1.0389874142856075,-0.26007454598239843,0.7597876873248351,3.8185887202432296,-2.019296821051893,-0.11653902933468079,0.1710823907785814,0.28096015597527324,2,left
15.479000000000001,0.5589429864581149,1.0398409063755751,-0.2599892550133016,0.7555055677524918,3.815961156779513,-2.009705263701289,-0.11666577930686531,0.17246328026059662,0.27292768926283684,2,left
15.481,0.5594728987253693,1.040708278857933,-0.25989773634962915,0.7522236558779455,3.813247966009057,-1.9999949815646438,-0.11677303670480732,0.17377988468569538,0.2648674733331223,2,left
15.482000000000001,0.5600269707310465,1.041589979726955,-0.25979994958462044,0.7499571959107394,3.8104583086879593,-1.9901698809026451,-0.11686029093502648,0.17503538882653263,0.25679980533733093,2,left
15.485999999999999,0.560604019660961,1.0424864270991345,-0.2596959126418181,0.7487162224419448,3.807602305234905,-1.9802346717564498,-0.11692726955992996,0.17623329918810454,0.24874553119573467,2,left
15.487,0.561202615091023,1.0433980012160784,-0.25958570238242407,0.7485054977529548,3.8046910169668617,-1.9701948887329974,-0.11697393780088926,0.17737740449285555,0.2407259564412379,2,left
15.488,0.5618211025458658,1.0443250336136156,-0.25946945457318465,0.7493244917136319,3.801736425455772,-1.960056909277841,-0.11700049645453064,0.17847173616846065,0.23276274448502204,2,left
15.497,0.5624576298097846,1.0452677933113674,-0.25934736303978634,0.7511674007083736,3.7987514072465096,-1.9498279662138296,-0.11700737816027286,0.1795205285838598,0.22487780262954543,2,left
15.548,0.5631101756167488,1.046226470581788,-0.25921967789392003,0.7540232029210804,3.7957497018641084,-1.939516152121968,-0.11699524186384958,0.18052817839215796,0.21709315667681625,2,left
15.55,0.5637765799514978,1.047201159200519,-0.2590867027620242,0.7578757489139997,3.792745872276346,-1.9291304145774038,-0.11696496526969793,0.18149920212396803,0.20943081527032265,2,left
15.554,0.5644545747541098,1.0481918382174462,-0.25894879096671714,0.762703887362689,3.7897552573086175,-1.9186805420793527,-0.1169176351268374,0.18243819138953687,0.20191262481892516,2,left
15.555,0.5651418136928001,1.0491983543699472,-0.25880634064710034,0.7684816261644442,3.786793913860892,-1.9081771408123611,-0.11685453528604721,0.18334976543468623,0.19456011532875975,2,left
15.556,0.5658359000031311,1.050220406183999,-0.2586597888463417,0.7751783294541668,3.783878543564087,-1.8976316026266058,-0.11677713251243994,0.1842385211697544,0.18739433730130245,2,left
15.614,0.5665344119256167,1.0512575305722511,-0.2585096046302946,0.7827589512387493,3.781026396728575,-1.8870560647639112,-0.11668706004618307,0.18510898157533645,0.18043569065829895,2,left
15.617,0.5672349256700985,1.0523090924720133,-0.2583562813210778,0.7911843061894605,3.77825514822228,-1.8764633617168531,-0.1165860989831258,0.1859655445473372,0.173703749002852,2,left
15.618,0.567935036067444,1.053374277845672,-0.25820032795865977,0.8004113778206738,3.7755827431284166,-1.86586696935768,-0.11647615775046842,0.186812434544725,0.16721708538607968,2,left
15.619000000000002,0.568632375316947,1.0544520902109182,-0.2580422601929805,0.8103936641114948,3.773027211817762,-1.8552809413345328,-0.11635925010803906,0.18765365833100758,0.16099310638869307,2,left
15.620999999999999,0.569324630477962,1.0555413507456433,-0.2578825909306329,0.8210815598706751,3.7706064550517944,-1.8447198376592762,-0.11623747202666304,0.18849296494161702,0.15504789897937485,2,left
15.682,0.5700095603656764,1.0566407018720116,-0.25772182109781466,0.832422771528888,3.7683380028544637,-1.8341986451847836,-0.11611297759166288,0.1893338097084211,0.1493960917529576,2,left
15.684000000000001,0.5706850122600566,1.0577486140919108,-0.25756043080619523,0.8443627535310972,3.7662387565088293,-1.8237326892619432,-0.11598795395679237,0.19017932228868803,0.14405073078047967,2,left
15.685,0.5713489385322897,1.0588633957346252,-0.2573988711201558,0.8568451518851637,3.764324726156378,-1.8133375356402668,-0.11586459534825941,0.19103227870092301,0.13902317005407125,2,left
15.692,0.5719994131202664,1.0599832051329598,-0.25723755657330355,0.8698122439763062,3.76261077381994,-1.8030288821105611,-0.11574507611848474,0.1918950773699987,0.1343229765104623,2,left
15.693,0.5726346477821705,1.0611060646149013,-0.25707685851935613,0.8832053699371941,3.761110368372786,-1.7928224408359412,-0.1156315229115221,0.19276971918559901,0.12995784973692331,2,left
15.694,0.5732530081277154,1.0622298757119264,-0.25691709931291595,0.8969653538805212,3.7598353600305945,-1.782733814416187,-0.11552598631346982,0.19365779158593896,0.1259335570600695,2,left
15.748,0.5738530293880691,1.0633524350613652,-0.25675854722157193,0.9110329136909622,3.758795783638627,-1.7727783698160322,-0.11543041292173466,0.19456045669301028,0.1222538857911741,2,left
15.751,0.5744334315909374,1.0644714504301134,-0.2566014118602491,0.9253490584096968,3.757999697707731,-1.7629711132482229,-0.1153466190784253,0.19547844353355923,0.11892061499830682,2,left
15.751,0.574993133363709,1.065584556249855,-0.25644583989040864,0.9398554728488384,3.757453061978704,-1.7533265672304494,-0.11527626720177614,0.19641204437211737,0.11593350858087645,2,left
15.752,0.57553126344476,1.0666893283004215,-0.25629191091723386,0.9544948894090372,3.7571596539759096,-1.7438586499955908,-0.11522084508495274,0.19736111512073298,0.11329033028134358,2,left
15.753,0.5760471694042717,1.0677832975593073,-0.25613963388738814,0.9692114470616062,3.7571210242286193,-1.7345805573646782,-0.11518164819993525,0.19832507954490178,0.11098688032654845,2,left
15.814,0.5765404236369671,1.068863963422865,-0.25598894450285076,0.9839510370587877,3.7573364882430194,-1.7255046478802047,-0.11515976494541492,0.19930293655656858,0.10901705264726573,2,left
15.815999999999999,0.577010826854351,1.0699288065365984,-0.25583970410306733,0.9986616342192595,3.75780315043528,-1.71664233323586,-0.11515606475739258,0.20029326964784658,0.10737291127798103,2,left
15.817,0.5774584091245917,1.070975301590623,-0.25569170033566985,1.0132936122379328,3.758515953640569,-1.7080039767270652,-0.1151711890215027,0.2012942577564109,0.1060447848874565,2,left
15.829,0.5778834283543327,1.0720009306467038,-0.25554464982880737,1.0278000414808794,3.759467749043206,-1.6995988016945562,-0.1152055447626557,0.20230368728064954,0.10502137901728874,2,left
15.831,0.5782863661650837,1.0730031976580525,-0.2553982029346149,1.0421369665102314,3.7606493824138245,-1.691434810371146,-0.11525930108042512,0.2033189652273699,0.1042899056862497,2,left
15.831,0.5786679212809592,1.0739796447258083,-0.25525195049397387,1.0562636575028979,3.7620497908364308,-1.683518712270095,-0.11533238816518529,0.20433713365940573,0.10383622874889963,2,left
15.882,0.5790290006234377,1.0749278703638163,-0.2551054325142164,1.0701428278734364,3.763656102594883,-1.675855860791854,-0.11542449848250232,0.20535488585720088,0.10364502098632554,2,left
15.885,0.5793707083381148,1.075845549462503,-0.25495814845686193,1.0837408123437409,3.7654537347222727,-1.668450197051415,-0.11553508957580406,0.20636858474552267,0.10369992756796875,2,left
15.886,0.5796943332085832,1.076730453516967,-0.25480956837970037,1.0970277031806759,3.767426486017238,-1.6613042005138106,-0.11566338807523852,0.2073742839931937,0.10398373167886082,2,left
15.887,0.5800013353732609,1.0775804685805128,-0.25465914379232557,1.1099774444039336,3.7695566255357047,-1.654418846623492,-0.1158083947497227,0.2083677519159569,0.10447851959301836,2,left
15.888,0.5802933335450644,1.0783936085563315,-0.2545063172552633,1.1225678848973613,3.771824978786567,-1.6477935730424849,-0.11596889057943569,0.20934449811960557,0.10516584214768736,2,left
15.947000000000001,0.5805720936223341,1.0791680232134833,-0.25435053052068063,1.134780792697486,3.7742110171954106,-1.6414262585672093,-0.1161434438550471,0.21029980276201174,0.10602686891590138,2,left
15.949000000000002,0.580839518548953,1.079902002469109,-0.25419123181535425,1.1466018334772108,3.776692958253649,-1.6353132201580687,-0.1163304183085387,0.21122874834371452,0.10704253230125058,2,left
15.95,0.5810976380302746,1.080593979401385,-0.25402788305948504,1.158020515496426,3.7792478819180135,-1.6294492321531822,-0.11652798227785463,0.21212625399258894,0.10819366044580206,2,left
15.965,0.5813485965161618,1.0812425338664482,-0.2538599673738982,1.169030101948837,3.781851865490598,-1.6238275692841275,-0.11673411890617463,0.2129871122391175,0.10946109876843818,2,left
15.966,0.5815946389669356,1.081846397368746,-0.2536869966647368,1.1796274914828189,3.7844801368943406,-1.6184400734581856,-0.11694663737634303,0.2138060282849221,0.11082582013648938,2,left
15.967,0.5818380947310713,1.0824044588177049,-0.2535085188091045,1.189813070498102,3.7871072435747273,-1.6132772425464408,-0.11716318519687553,0.21457766172336326,0.11226902369150014,2,left
16.005,0.5820813596436611,1.0829157704939427,-0.2533241240698547,1.199590546172437,3.7897072300938506,-1.6083283368021084,-0.11738126163528129,0.21529667045211007,0.11377222243816669,2,left
16.006,0.5823268761238314,1.0833795538752677,-0.2531334505826129,1.2089667721453923,3.7922538151692677,-1.60358149708097,-0.11759823253718171,0.21595775612362378,0.11531731986392207,2,left
16.021,0.582577111108979,1.0837952053272792,-0.2529361888139723,1.2179515758110844,3.7947205612238735,-1.5990238704896063,-0.11781134681823162,0.2165557102329463,0.11688667606719938,2,left
16.023,0.5828345318502686,1.084162301685525,-0.2527320848600274,1.2265575908169548,3.7970810336776677,-1.5946417417033925,-0.1180177546826677,0.21708546002273815,0.11846316439703082,2,left
16.024,0.5831015797278776,1.08448060551486,-0.25252094249552104,1.23480009483129,3.7993089497794883,-1.5904206695551728,-0.118214527202572,0.21754211353061534,0.12003022055077756,2,left
16.081,0.5833806422987127,1.0847500695159655,-0.2523026239663,1.24269684925074,3.801378318507031,-1.5863456283127118,-0.11839867665874228,0.21792100318435972,0.12157188660130952,2,left
16.084,0.5836740238417063,1.0849708393833912,-0.2520770495903409,1.2502679324861408,3.80326357534514,-1.5824011522103696,-0.11856717718207593,0.2182177275322344,0.12307285179508437,2,left
16.101,0.5839839148412787,1.085143254482907,-0.251844196304501,1.2575355558570127,3.804939716906791,-1.5785714811772689,-0.11871698551135455,0.21842819094399374,0.12451849086037554,2,left
16.102999999999998,0.5843123610900031,1.085267845879979,-0.2516040953435873,1.2645238548625504,3.8063824385284244,-1.5748407054303108,-0.11884506183717299,0.21854864125604923,0.1258948999525087,2,left
16.104,0.5846612332451911,1.0853453314676051,-0.25135682925985425,1.2712586553251815,3.807568274672532,-1.5711929061069987,-0.11894839073249042,0.21857570536163382,0.12718893024038705,2,left
16.104,0.5850321977476679,1.085376608287591,-0.2511025285495873,1.277767217640335,3.8084747401374917,-1.5676122888390276,-0.119024002156438,0.21850642270677456,0.12838821918026752,2,left
16.146,0.5854266900123303,1.0853627425233798,-0.2508413682423952,1.2840779619814082,3.809080470384993,-1.5640833080109795,-0.11906899244901001,0.21833827645368784,0.1294812197317451,2,left
16.147000000000002,0.5858458905955078,1.085304957839328,-0.25057356483096643,1.2902201756108806,3.8093653603109185,-1.5605907807956507,-0.11908054511009203,0.2180692217148585,0.13045722814721628,2,left
16.163,0.5862907046327592,1.0852046227277297,-0.25029937386298745,1.2962237025049228,3.8093107013493177,-1.557119990806031,-0.11905595108725478,0.2176977100618509,0.13130641117501582,2,left
16.165,0.5867617444370341,1.0850632374613642,-0.25001908842086745,1.302118615309693,3.8088993169111727,-1.5536567813537605,-0.11899262835809474,0.21722270967054133,0.13201983329717848,2,left
16.165,0.5872593149452929,1.0848824211843537,-0.24973303856596513,1.3079348701604296,3.808115695804506,-1.55018763837502,-0.11888814067938422,0.216643720617195,0.1325894841971712,2,left
16.213,0.5877834017629054,1.0846638995464981,-0.24944159166809207,1.313701947461034,3.8069461215102454,-1.5466997634399404,-0.11874021537659059,0.2159607846693393,0.13300830635568242,2,left
16.214000000000002,0.5883336618400186,1.084409493123872,-0.24914515345492064,1.319448486342118,3.805378791999181,-1.5431811379007756,-0.11854676002347661,0.21517448874981235,0.1332702225816033,2,left
16.237000000000002,0.5889094171703698,1.084121106752859,-0.24884416957172203,1.3252019230822378,3.803403923003122,-1.5396205795891424,-0.11830587789890208,0.21428596145713252,0.1333701633336493,2,left
16.238,0.5895096520297393,1.083800719827871,-0.2485391274073628,1.330988141209917,3.80101382942341,-1.5360077931175076,-0.11801588216805045,0.21329686250994054,0.13330409363708867,2,left
16.239,0.5901330139743501,1.0834503775299635,-0.24823055794606508,1.336831136383411,3.798202982746884,-1.5323334142008755,-0.1176753087361168,0.21220936576698002,0.13306903875704545,2,left
16.24,0.5907778182957646,1.083072182872551,-0.2479190374358114,1.3427526968792842,3.794968044473169,-1.528589048249581,-0.11728292766401396,0.2110261375569041,0.1326631065548336,2,left
16.279,0.5914420552425278,1.0826682893768003,-0.24760518869134845,1.3487721015130103,3.791307877729224,-1.5247673043635879,-0.11683775299893086,0.2097503126308537,0.13208550376203024,2,left
16.281,0.5921233993273506,1.0822408940872925,-0.2472896818905987,1.3549058395247686,3.7872235425200667,-1.5208618275697445,-0.11633905090901456,0.20838546947152584,0.13133654409778675,2,left
16.295,0.5928192204924184,1.0817922304910277,-0.24697323480867558,1.3611673584692776,3.78271828188238,-1.5168673330939133,-0.11578634608140755,0.20693560555527923,0.13041764736351266,2,left
16.297,0.5935265974798589,1.0813245607938253,-0.2466566125381853,1.3675668448039238,3.7777975044237198,-1.5127796452851106,-0.11517942640060153,0.20540511211063373,0.1293313291640075,2,left
16.298,0.5942423339920557,1.0808401670233239,-0.24634062678956117,1.3741110399629162,3.772468765635705,-1.508595740977897,-0.11451834596957,0.20379874694731576,0.1280811807253641,2,left
16.348,0.5949629780914985,1.0803413404259627,-0.24602613480452556,1.3808030946454162,3.766741748875353,-1.504313794113336,-0.11380342655728606,0.20212160345578037,0.12667183810363813,2,left
16.35,0.5956848450656784,1.0798303685399937,-0.24571403781598963,1.3876424645478507,3.760628246724801,-1.499933217128981,-0.11303525753477764,0.20037907435088673,0.1251089402536427,2,left
16.375,0.5964040437218158,1.079309519557079,-0.245405278968071,1.3946248498462261,3.754142142768221,-1.4954546957085852,-0.11221469432338026,0.19857680958634957,0.12339907574327526,2,left
16.375999999999998,0.5971165056825867,1.0787810242811333,-0.24510084066692375,1.4017421786801723,3.7472993910515493,-1.4908802153022125,-0.11134285535739445,0.1967206683403644,0.12154971807417209,2,left
16.377,0.5978180168674212,1.0782470565412072,-0.24480174132925306,1.4089826329913464,3.740117985905595,-1.4862130785960517,-0.11042111755894313,0.19481666506741294,0.1195691496042142,2,left
16.378,0.5985042501094353,1.0777097129493811,-0.2445090313841276,1.416330714299442,3.7326179123297543,-1.481457913140115,-0.10945111030433326,0.192870909798305,0.1174663741291077,2,left
16.414,0.5991707977445344,1.0771709927817066,-0.24422378829735822,1.4237673476086266,3.7248210695785837,-1.476620668536471,-0.10843470776937657,0.1908895438064666,0.11525101849045336,2,left
16.434,0.5998132030895601,1.0766327787674865,-0.24394711043379383,1.431270022734137,3.7167511649953946,-1.4717086029409185,-0.10737401937591587,0.1888786734433387,0.11293322413641133,2,left
16.436,0.6004269900849937,1.0760968196105407,-0.24368010970700255,1.4388129729482588,3.7084335775821646,-1.4667302588255167,-0.10627137796996228,0.18684430588173928,0.11052352987130792,2,left
16.437,0.6010076908746022,1.0755647150355505,-0.24342390311388426,1.4463673907348733,3.699895191484575,-1.4616954280060024,-0.10512932545341878,0.18479228956983168,0.10803274671961813,2,left
16.437,0.60155087150402,1.0750379039842086,-0.24317960337323677,1.4539016792812922,3.691164200576029,-1.4566151060275498,-0.10395059577508517,0.1827282605095823,0.10547182549152238,2,left
16.479,0.6020521560902574,1.0745176563058971,-0.2429483089321339,1.4613817362470287,3.6822698871342623,-1.4515014361634364,-0.1027380953721242,0.18065759451901447,0.10285171843200173,2,left
16.48,0.6025072498045682,1.0740050680350528,-0.24273109359945416,1.4687712651885325,3.6732423786093413,-1.4463676433706365,-0.10149488134042195,0.1785853654171649,0.10018323826320252,2,left
16.496,0.6029119610604516,1.073501060156834,-0.24252899612057316,1.4760321111795043,3.6641123854754754,-1.4412279584566265,-0.10022413770607197,0.1765163090522109,0.09747691903522071,2,left
16.511,0.6032622234315465,1.0730063805767744,-0.24234301010125778,1.4831246186237497,3.6549109220972444,-1.4360975325515706,-0.09892915007621417,0.1744547931116207,0.09474288209466483,2,left
16.512,0.6035541177961546,1.0725216088769507,-0.24217407468059018,1.4900080072595712,3.6456690152801334,-1.4309923418968795,-0.09761327877834702,0.1724047926862999,0.09199070849009955,2,left
16.512999999999998,0.6037838949452335,1.0720471634428372,-0.24202306620641467,1.4966407569014335,3.6364174117157386,-1.4259290829548688,-0.09627993055130984,0.1703698715299817,0.08922931822027265,2,left
16.546,0.603947998618456,1.0715833106158057,-0.24189079097262592,1.5029809883058072,3.6271862992772967,-1.4209250578507528,-0.09493252907258182,0.168353168713124,0.08646685747248091,2,left
16.572,0.6040430888236651,1.0711301755132094,-0.2417779789055728,1.5089868307058343,3.6180050533755814,-1.4159980501518095,-0.09357448503902416,0.1663573899283737,0.08371059673116041,2,left
16.574,0.6040660652612467,1.0706877539895046,-0.24168527793633493,1.5146167722437647,3.60890201284325,-1.4111661909769835,-0.09220916675844104,0.16438480245901516,0.08096684359941582,2,left
16.574,0.6040140904934701,1.070255924988044,-0.24161324866890224,1.5198299926876213,3.599904286070293,-1.4064478154238944,-0.09083987200626409,0.16243723309451558,0.07824087326850028,2,left
16.575,0.6038846121826936,1.0698344624743545,-0.24156235891005662,1.5245866786159514,3.5910375873574827,-1.4018613096236405,-0.08946980165544148,0.1605160688543688,0.0755368781122842,2,left
16.613,0.6036753836139896,1.0694230463510828,-0.2415329777282716,1.528848322086952,3.582326103421014,-1.3974249503566285,-0.08810203568271488,0.15862226086981926,0.07285793741575859,2,left
16.614,0.6033844820006643,1.0690212720924035,-0.24152536898564303,1.5325780053073441,3.5737923899207287,-1.3931567420835818,-0.08673951229274193,0.1567563319570509,0.07020600832893055,2,left
16.648,0.6030103245134866,1.0686286590993523,-0.24153968471504772,1.535740674648569,3.565457297850781,-1.3890742578688082,-0.08538501069372258,0.15491838820344264,0.06758193870505737,2,left
16.65,0.6025516822785841,1.0682446578957296,-0.24157595911017093,1.5383034065229584,3.5573399296659582,-1.3851944890506955,-0.08404113761551399,0.1531081342596259,0.06498550119921849,2,left
16.651,0.6020076925914715,1.067868656359241,-0.24163410399016977,1.5402356661307142,3.549457625078464,-1.3815337055942756,-0.08271031728182665,0.15132489119999706,0.06241544630941038,2,left
16.652,0.601377869256315,1.0674999853839249,-0.24171390638057116,1.5415095589924666,3.5418259760433104,-1.3781073273164635,-0.08139478440359126,0.14956761540114238,0.05986957119908233,2,left
16.68,0.6006621105240418,1.0671379246648296,-0.24181502855408313,1.542100073709051,3.534458868202071,-1.374929805239589,-0.08009657986787247,0.14783491727402823,0.05734480192849413,2,left
16.707,0.5998607040061288,1.066781709438827,-0.2419370106180447,1.5419853120398515,3.5273685419949268,-1.3720145112295499,-0.0788175489898038,0.14612507938125255,0.054837288141444805,2,left
16.708,0.5989743283047234,1.0664305389398767,-0.24207927550261138,1.5411467010844546,3.5205656643958663,-1.3693736334645272,-0.07755934226075717,0.1444360739530246,0.05234250977236972,2,left
16.708,0.5980040515550076,1.0660835871905436,-0.24224113606566727,1.5395691834851097,3.514059404461218,-1.3670180761780015,-0.07632341833965961,0.14276558037277565,0.049855394146511314,2,left
16.709,0.5969513272326513,1.0657400164679274,-0.24242180401107608,1.5372413830638931,3.507857509836748,-1.36495736465057,-0.07511104866038049,0.14111100406719534,0.047370439415867584,2,left
16.746,0.5958179874991562,1.0653989929250727,-0.2426204001811677,1.534155743081015,3.501966383434031,-1.3631995596111064,-0.0739233228203707,0.13946949871545106,0.04488183892362965,2,left
16.748,0.5946062344676394,1.0650597026132522,-0.2428359654614953,1.530308633709471,3.496391159832626,-1.3617511867609384,-0.07276115412360022,0.13783799321249682,0.042383602439868974,2,left
16.785,0.5933186301136819,1.064721365940971,-0.24306747154541017,1.5257004261691567,3.491135781071636,-1.3606171857054516,-0.07162528502495129,0.13621322395759675,0.03986967264128971,2,left
16.785999999999998,0.5919580852991562,1.0643832499282462,-0.24331383140286722,1.5203355324915042,3.4862030716863117,-1.3598008800042154,-0.07051629246130564,0.1345917724827809,0.03733403642198062,2,left
16.787,0.5905278471111042,1.0640446786231708,-0.24357390977135784,1.5142224107510083,3.4815948130689134,-1.3593039684842536,-0.06943459324724005,0.1329701079572976,0.03477083021258725,2,left
16.787,0.5890314827421809,1.0637050417530844,-0.2438465338801324,1.5073735358550155,3.477311817837642,-1.3591265369897418,-0.06838044998519736,0.13134463341528135,0.032174437262195786,2,left
16.813,0.5874728588056,1.0633638017051,-0.24413050446027984,1.4998053361378973,3.4733540059466663,-1.359267088507117,-0.06735397809111977,0.12971173417116266,0.02953957415766675,2,left
16.844,0.585856116617993,1.0630204998437929,-0.2444246071164903,1.4915380960907434,3.4697204848536205,-1.3597225889192734,-0.06635515438556648,0.12806782727004784,0.026861364534569263,2,left
16.845,0.584185644861949,1.0626747633035625,-0.24472762392221867,1.48259582546845,3.4664096354794713,-1.360488526329662,-0.06538382741815232,0.12640941146629547,0.02413539927572459,2,left
16.846,0.5824660505513259,1.062326312385775,-0.24503834475321118,1.4730060951762474,3.463419204438629,-1.3615589830475094,-0.06443972949024687,0.12473311739193256,0.021357783767091,2,left
16.846,0.580702128320618,1.0619749680706978,-0.24535557789412288,1.462799841844261,3.46074640138748,-1.3629267195839463,-0.06352249021726339,0.12303575726738328,0.018525173986311566,2,left
16.879,0.5788988277400288,1.0616206593992321,-0.2456781597066639,1.4520111458516174,3.458387998337197,-1.3645832693755708,-0.06263165142001222,0.12131437329267698,0.015634803793452185,2,left
16.922,0.5770612185476475,1.061263430763508,-0.24600496323611235,1.4406769891554705,3.456340426729385,-1.366519042524297,-0.06176668318660471,0.11956628407151658,0.012684505198968226,2,left
16.924,0.5751944538838645,1.0609034490155176,-0.24633490560642288,1.4288369976828366,3.4545998691222417,-1.3687234372717338,-0.06092700100374149,0.11778912879460278,0.009672722409368189,2,left
16.925,0.5733037316718546,1.060541009931819,-0.2466669540966385,1.4165331701691874,3.4531623442225983,-1.3711849586985714,-0.06011198372717856,0.11598090906479175,0.0065985203335448975,2,left
16.925,0.5713942543611411,1.0601765433360262,-0.24700013088798872,1.4038095937304658,3.4520237850483135,-1.3738913445688017,-0.05932099184573649,0.11414002818501179,0.0034615889723207476,2,left
16.926,0.5694711874552219,1.059810616259385,-0.24733351655176636,1.3907121461427971,3.4511801104439597,-1.3768296981126062,-0.0585533853122411,0.11226532767176658,0.00026224559058671975,2,left
16.947,0.5675396174890184,1.0594439337028951,-0.24766625237711612,1.3772881848438279,3.450627291313434,-1.37998662648011,-0.05780854039590432,0.11035612081497972,-0.0029985639057715924,2,left
16.980999999999998,0.5656045102692971,1.0590773367072657,-0.24799754165037013,1.3635862227421742,3.450361414985625,-1.3833483816866265,-0.05708586533661196,0.10841222320927074,-0.006319263824761683,2,left
16.984,0.5636706702840967,1.058711797668755,-0.24832665009112465,1.3496555909613916,3.450378752269899,-1.3869009998083204,-0.056384814771037524,0.1064339801584551,-0.009697647682120534,2,left
16.984,0.5617427022283525,1.0583484131651748,-0.24865290580004515,1.3355460886029435,3.4506758306192213,-1.3906304352502052,-0.05570490297845354,0.10442229046047766,-0.013130877303550711,2,left
16.985,0.5598249754341194,1.0579883947679065,-0.24897569911743447,1.3213076195720692,3.4512495144366624,-1.3945226887224407,-0.05504571606919441,0.10237862534893255,-0.01661548194510828,2,left
17.012999999999998,0.5579215916801542,1.0576330583163853,-0.24929448268760387,1.3069898166386804,3.452097090765818,-1.3985639281297222,-0.05440692328046417,0.10030504096113717,-0.02014735730839816,2,left
17.058,0.5560363566117559,1.0572838120572805,-0.24960877189159236,1.292641653202481,3.4532163553973354,-1.4027406009021868,-0.05378828750256628,0.09820418310872095,-0.023721764360649555,2,left
17.06,0.5541727548971901,1.0569421440788744,-0.24991814572364485,1.2783110440586924,3.4546056926899844,-1.4070395359141394,-0.05318967508367353,0.09607928385755708,-0.027333327929759982,2,left
17.06,0.5523339292335218,1.0566096096037332,-0.25022224811652505,1.26404443957912,3.4562641436701362,-1.411448034188963,-0.05261106491963799,0.09393414982986835,-0.030976035077791557,2,left
17.061,0.5505226634081126,1.0562878187556866,-0.2505207896273171,1.2498864233366367,3.458191459250623,-1.4159539494818771,-0.05205255680470548,0.0917731422595731,-0.03464323333228352,2,left
17.063,0.5487413698061604,1.0559784252670865,-0.2508135492851063,1.2358793263197938,3.460388136675372,-1.4205457608841898,-0.0515143789072673,0.08960114901734038,-0.03832762920038635,2,left
17.079,0.5469920818248887,1.0556831163010458,-0.25110037633095716,1.2220628675620142,3.4628554380198038,-1.4252126391342859,-0.050996894033617894,0.0874235491556136,-0.04202128801287548,2,left
17.118,0.5452764514025403,1.0554036032527596,-0.2513811915921728,1.2084738250909295,3.4655953902826306,-1.4299445073173154,-0.050500604238595384,0.08524617079263849,-0.04571563662827592,2,left
17.119,0.5435957513977867,1.05514161321279,-0.25165598830978664,1.1951457378153965,3.4686107669970467,-1.4347320960782524,-0.05002615349202854,0.0830752433857781,-0.049401470869681004,2,left
17.12,0.5419508821721447,1.0548988808230608,-0.25192483234631774,1.1821086383105806,3.4719050513683984,-1.439566993361711,-0.049574328379952036,0.08091734586068146,-0.05306897018302141,2,left
17.12,0.5403423816250538,1.0546771404214266,-0.25218786181612474,1.1693888168030293,3.4754823812693165,-1.444441688713856,-0.04914605696960132,0.07877935229415231,-0.056707722347845206,2,left
17.147000000000002,0.538770438127202,1.054478118465672,-0.25244528626836743,1.1570086183628239,3.479347478039524,-1.4493496122907032,-0.048742405951420965,0.07666837639474032,-0.060306760314696714,2,left
17.195999999999998,0.5372349061797355,1.0543035261874847,-0.25269738557032495,1.144986278378699,3.4835055639461894,-1.4542851689131007,-0.04836457610262856,0.07459171527496865,-0.06385461200501572,2,left
17.198,0.5357353249580316,1.0541550522338523,-0.2529445085656464,1.1333358030973548,3.4879622747769665,-1.4592437676176024,-0.04801389608388976,0.07255679259159506,-0.06733936313560594,2,left
17.199,0.5342709400029941,1.054034354763124,-0.25318707145358926,1.1220669001175418,3.4927235723136056,-1.464221846939283,-0.04769181459881151,0.0705711010429025,-0.07074873256229572,2,left
17.2,0.5328407282324005,1.0539430523124411,-0.25342555573989295,1.1111849597266383,3.4977956579788803,-1.469216895444555,-0.04739989099233069,0.06864214420468069,-0.07407015886372811,2,left
17.202,0.5314434262428187,1.0538827128942283,-0.2536605055842848,1.1006910845794418,3.503184886348356,-1.4742274659832897,-0.04713978438987356,0.06677737768255101,-0.07729089645629306,2,left
17.255,0.5300775615116702,1.0538548411264388,-0.2538925243542631,1.0905821639431943,3.508897676348165,-1.4792531815856105,-0.04691324145352412,0.06498414956255753,-0.08039811996073958,2,left
17.257,0.5287414855810689,1.0538608636651472,-0.2541222701780532,1.0808509896698686,3.5149404185089743,-1.484294731451014,-0.04672208278523008,0.06326964014954356,-0.08337903631429086,2,left
17.258,0.5274334079057552,1.0539021136327444,-0.2543504503587512,1.0714864127424735,3.521319377633892,-1.4893538564175295,-0.046568187976747506,0.061640801083800684,-0.08622100442578418,2,left
17.259,0.5261514291085908,1.053979814874711,-0.25457781468399615,1.0624735401791432,3.528040590787108,-1.4944333238209133,-0.046453479277479476,0.06010429441077827,-0.08891166162821114,2,left
17.26,0.5248935727979183,1.054095066768695,-0.25480514781873115,1.0537939722197802,3.535109760362071,-1.4995368917701364,-0.04637990380916953,0.05866643304875322,-0.09143905505088562,2,left
17.279,0.5236578154885215,1.0542488301919306,-0.25503326100098905,1.0454260794848043,3.5425321406961277,-1.5046692629243446,-0.04634941423301962,0.0573331245828758,-0.09379177540429877,2,left
17.331,0.5224421144127038,1.0544419151767417,-0.2552629832059973,1.0373453193712978,3.5503124143724287,-1.5098360279625052,-0.04636394782882365,0.056109819820695205,-0.09595909109322967,2,left
17.333,0.521244433208064,1.054674970669345,-0.2554951518816334,1.0295245899547296,3.558454553501124,-1.5150435989946192,-0.04642540414017523,0.0550014666231356,-0.09793108067586244,2,left
17.334,0.5200627656168901,1.0549484766560124,-0.2557306033216742,1.0219346160925846,3.566961664781186,-1.5202991330983269,-0.04653562163712529,0.05401246894916922,-0.09969876046248895,2,left
17.335,0.5188951573962427,1.055262738774596,-0.25597016275201123,1.0145443559961251,3.575835823460132,-1.5256104460475508,-0.046696354004546914,0.05314665090456423,-0.10125420314346419,2,left
17.335,0.5177397267070514,1.0556178853937321,-0.2562146342773348,1.00732141296451,3.5850779048182146,-1.530985916234787,-0.04690924651254661,0.05240722563694383,-0.10259064436465702,2,left
17.392,0.5165946833428201,1.0560138670107668,-0.2564647909330027,1.0002324407543397,3.594687420147921,-1.5364343789974195,-0.047175812651705805,0.051796769012488114,-0.10370257602049612,2,left
17.394000000000002,0.5154583471559633,1.0564504577253238,-0.2567213651237727,0.9932435375241314,3.60466236171322,-1.5419650126404396,-0.04749741110453409,0.05131719808370221,-0.10458582597823662,2,left
17.395,0.5143291659104228,1.0569272585395098,-0.25698503966744873,0.9863206264001063,3.614999061659257,-1.5475872193814029,-0.04787522329678213,0.05096975447939114,-0.10523762372726578,2,left
17.396,0.5132057326204238,1.0574437022775844,-0.2572564395322355,0.9794298210815193,3.6256920709014966,-1.5533105055154635,-0.048310232136966225,0.05075499304823888,-0.10565665068161081,2,left
17.397000000000002,0.5120868022833529,1.0579990598850386,-0.25753612421614946,0.972537775294383,3.63673406252403,-1.55914436402802,-0.04880320275514177,0.050672776198813364,-0.1058430734381501,2,left
17.413,0.5109713077849626,1.058592447727758,-0.2578245806057105,0.9656120156052279,3.6481157615171433,-1.5650981609557948,-0.04935466584959617,0.05072227426814748,-0.10579855871737526,2,left
17.468,0.5098583746481876,1.0592228353651918,-0.25812221610844116,0.9586212574969624,3.6598259011849263,-1.5711810257269203,-0.04996490388000931,0.050901971965544676,-0.10552626954084797,2,left
17.47,0.5087473342136345,1.0598890532386391,-0.2584293519067761,0.9515357046869657,3.6718512062546194,-1.5774017454968072,-0.05063394011458558,0.051209680397619715,-0.10503084293858174,2,left
17.47,0.5076377347967811,1.0605897998724394,-0.2587462163303066,0.94432733166745,3.684176402720369,-1.5837686634969188,-0.05136153044669474,0.05164255338481151,-0.10431835013045918,2,left
17.471,0.5065293504183594,1.061323648485741,-0.2590729385716342,0.9369701493318863,3.696784254202928,-1.590289581457329,-0.05214715786804509,0.05219710635000978,-0.10339624043988813,2,left
17.471,0.5054221868942618,1.0620890531717726,-0.2594095432032028,0.9294404529707297,3.709655623347345,-1.596971666381249,-0.052990029514263,0.05286923649027105,-0.10227326988251798,2,left
17.497,0.504316485297518,1.0628843548927416,-0.2597559460612795,0.9217170508748029,3.7227695545128454,-1.6038213623405706,-0.053889076250548874,0.0536542437168992,-0.10095941480567801,2,left
17.537,0.5032127228574775,1.0637077875560794,-0.26011195199525244,0.9137814712039825,3.736103372749528,-1.610844308178829,-0.05484295479392823,0.0545468522794813,-0.09946577063885659,2,left
17.539,0.5021116112301652,1.0645574845421366,-0.26047725477039646,0.9056181453586353,3.74963279531763,-1.6180452617915368,-0.05585005233813645,0.05554123312030442,-0.0978044359983668,2,left
17.539,0.5010140920003178,1.0654314862157572,-0.2608514391397115,0.8972145671352286,3.7633320542745246,-1.6254280312638754,-0.056908493465434286,0.056631027228426625,-0.09598838362055034,2,left
17.54,0.4999213293950787,1.0663277490291008,-0.2612339849098019,0.8885614272976751,3.777174029762807,-1.632995413034721,-0.05801614880238362,0.057809370663527954,-0.09403132181451036,2,left
17.598,0.49883470038199873,1.0672441567784097,-0.26162427279839734,0.8796527221636368,3.791130393121386,-1.6407491377401366,-0.059170644694863044,0.059068922142482626,-0.09194755135663592,2,left
17.6,0.497755782455627,1.0681785344484216,-0.26202159193208374,0.8704858327383904,3.8051717575666366,-1.648689825338651,-0.06036937336989066,0.06040189386265059,-0.08975182167187608,2,left
17.6,0.49668633947164254,1.0691286647241451,-0.2624251487868886,0.8610615697803923,3.819267833426996,-1.6568169516482036,-0.061609503430579825,0.06180008585213591,-0.08745918870361233,2,left
17.601,0.495628305928951,1.070092306345187,-0.26283407704676265,0.8513841813297037,3.833387585678798,-1.6651288278981364,-0.0628879908047374,0.06325492394474065,-0.08508487703587138,2,left
17.602,0.494583770333096,1.071067212293214,-0.26324744743016,0.8414613213702039,3.8474993932149064,-1.6736225941026952,-0.06420159035531389,0.06475750144958842,-0.08264414935939704,2,left
17.675,0.4935549587736917,1.0720511455611648,-0.2636642766476372,0.8313039803845288,3.861571211061635,-1.682294226938614,-0.06554686830984065,0.06629862456903764,-0.08015218559837364,2,left
17.677,0.4925442200872449,1.0730418914337343,-0.2640835353571553,0.8209263823017035,3.8755707370796775,-1.6911385622981074,-0.06692021557395149,0.06786886158889381,-0.07762397262035135,2,left
17.678,0.49155401328661713,1.074037266690567,-0.2645041555254757,0.8103458578236881,3.8894655815342607,-1.7001493302640556,-0.06831786194299355,0.0694585958485254,-0.07507420467728414,2,left
17.678,0.49058689646333287,1.0750351269505076,-0.2649250377091971,0.7995827065848667,3.9032234337723186,-1.7093191977313151,-0.06973589121558435,0.0710580824952904,-0.07251719457055392,2,left
17.679000000000002,0.4896455152411363,1.07603337365192,-0.26534505880779224,0.7886600570856822,3.9168122200769058,-1.7186398143049555,-0.07117025723586318,0.07265750895597672,-0.06996679553211663,2,left
17.68,0.4887325891931505,1.0770299622824786,-0.265763080848565,0.7776037278540857,3.9302002499192676,-1.728101859531752,-0.0726168010053117,0.0742470586990809,-0.06743633381067893,2,left
17.733,0.4878508960049374,1.0780229129851449,-0.2661779609866021,0.7664420903721781,3.9433563501267486,-1.7376950911378013,-0.07407126917527666,0.07581697719576555,-0.06493855183003322,2,left
17.734,0.4870032540581056,1.0790103230664778,-0.2665885621501331,0.755205933331568,3.956249987245841,-1.7474083943584962,-0.07552933416992501,0.07735763852875331,-0.06248556120321763,2,left
17.735,0.48619250401069075,1.0799903795140084,-0.26699376327965335,0.7439283257548502,3.968851379580819,-1.757229832744893,-0.0769866157594294,0.07885961127795485,-0.06008880384482158,2,left
17.736,0.48542148943731805,1.080961370079693,-0.2673924683604853,0.7326444728739582,3.981131602550773,-1.767146701366192,-0.07843870352239628,0.08031372285800695,-0.057759018849231625,2,left
17.736,0.48469303614196696,1.0819216930528306,-0.26778361400164685,0.7213915566301929,3.9930626922088375,-1.777145583625788,-0.079881179698009,0.08171112194139556,-0.05550621338621873,2,left
17.811,0.4840099296558885,1.082869866582606,-0.26816617557188877,0.7102085546863568,4.004617750564844,-1.7872124126112672,-0.0813096422067642,0.08304333881111556,-0.05333963685763426,2,left
17.813,0.48337489073027357,1.08380453794711,-0.26853917191716997,0.6991360354877617,4.015771054188648,-1.797332537363684,-0.08271972772071433,0.08430234338250032,-0.05126775787452271,2,left
17.814,0.4827905489610764,1.0847244924689337,-0.26890166874439175,0.6882159289347177,4.026498166368708,-1.8074907941542864,-0.08410713456698025,0.0854806002867291,-0.04929824325330515,2,left
17.815,0.48225941483231904,1.085628661435442,-0.2692527808700195,0.6774912726344648,4.036776052859035,-1.8176715827975831,-0.08546764517480165,0.08657112020450439,-0.04743793796496824,2,left
17.815,0.4817838506598175,1.0865161283293814,-0.26959167358214764,0.6670059337008276,4.046583201246515,-1.827858948029791,-0.08679714784979652,0.08756750684201137,-0.04569284523642913,2,left
17.816,0.4813660412685498,1.0873861328196976,-0.2699175633408014,0.6568043061382217,4.055899743964788,-1.838036665738621,-0.08809165779125848,0.08846399930793418,-0.04406810648047548,2,left
17.87,0.48100796545459307,1.088238072236313,-0.27022971799923756,0.6469309846210776,4.064707584569332,-1.848188332689473,-0.08934733734169985,0.08925550985388198,-0.04256798099595614,2,left
17.872,0.4807113691080444,1.0890715004904585,-0.27052745669204525,0.6374304182633646,4.072990524908914,-1.8582974565793025,-0.09056051547442645,0.08993765689139607,-0.041195825444563364,2,left
17.872,0.4804777404719864,1.0898861245155353,-0.27081014949519533,0.6283465522224492,4.080734387317768,-1.8683475427081728,-0.09172770653470466,0.0905067927500306,-0.03995407316760509,2,left
17.873,0.4803082877571583,1.090681798402971,-0.27107721695883713,0.6197224668147285,4.08792712403731,-1.878322175149232,-0.0928456282677449,0.09096002483359128,-0.03884421350860715,2,left
17.874000000000002,0.48020391933405115,1.0914585156158907,-0.2713281297007967,0.6116000210386275,4.094558908052809,-1.8882050921115363,-0.09391121917647945,0.09129522838291076,-0.03786677136466504,2,left
17.949,0.4801652267669146,1.0922163998819534,-0.2715624083625335,0.6040195031530038,4.10062220303832,-1.8979802557311922,-0.09492165524210568,0.09151104950160913,-0.0370212871331233,2,left
17.951,0.4801924708592397,1.092955695438771,-0.2717796242241761,0.5970192887206341,4.106111812043118,-1.907631916394403,-0.09587436599602486,0.09160689804109524,-0.036306297255894536,2,left
17.952,0.48028557076953415,1.093676757250137,-0.27197940061299075,0.5906355060935341,4.111024904938671,-1.9171446716207763,-0.09676704978965865,0.09158293105427043,-0.03571931619460611,2,left
17.953,0.4804440963635564,1.0943800416863552,-0.2721614150319469,0.5849017093184181,4.115361024643558,-1.9265035195349414,-0.09759768786867073,0.09144002881400302,-0.03525682189577747,2,left
17.954,0.4806672642344546,1.0950660979605802,-0.2723254017987044,0.5798485584422662,4.1191220721421,-1.9356939069541697,-0.09836455672583205,0.09117976605725002,-0.034914247492816,2,left
17.955,0.48095393782547546,1.0957355603829522,-0.27247115494619495,0.5755035076425732,4.122312270572814,-1.9447017722814213,-0.09906623833872004,0.0908043804502086,-0.034685981304772684,2,left
18.004,0.48130263164464976,1.0963891413404507,-0.2725985311651624,0.5718905038229178,4.124938109971164,-1.953513584203453,-0.09970162814336245,0.09031673902869938,-0.034565376014979866,2,left
18.005,0.48171151908841375,1.09702762487765,-0.272707452629125,0.5690297023020098,4.127008276607467,-1.9621163786523106,-0.10026994076325749,0.0897203024846408,-0.03454476752485764,2,left
18.005,0.48217844323206616,1.097651860768277,-0.27279790959698696,0.566937208440598,4.128533572169162,-1.9704977972986444,-0.10077071360492529,0.08901908664397301,-0.03461550437931963,2,left
18.006,0.48270092997775776,1.098262758893357,-0.27286996272212927,0.5656248518385208,4.129526826725053,-1.9786461300340896,-0.10120380846733605,0.08821762026321203,-0.03476798895954966,2,left
18.006,0.4832762031858989,1.098861283519812,-0.27292374503214123,0.5650999959822091,4.130002807143628,-1.9865503622742224,-0.10156941127598815,0.08732089848936009,-0.03499173134017235,2,left
18.081,0.4839012019130919,1.099448446791358,-0.2729594635804673,0.5653653851682129,4.129978121796586,-1.9942002262725815,-0.10186802998673065,0.08633433171973998,-0.035275416169840416,2,left
18.084,0.4845726002650225,1.1000253005613247,-0.272977400742432,0.5664190321707883,4.129471122962318,-2.001586253979888,-0.10210049066785143,0.08526368981588993,-0.03560698263546107,2,left
18.085,0.485286830287733,1.100592925843416,-0.2729779150302368,0.5682541512810904,4.12850180881318,-2.0086998281521553,-0.10226793176148184,0.08411504166895521,-0.035973717510679716,2,left
18.086,0.4860401078310335,1.1011524198008422,-0.27296144124857735,0.5708591401905213,4.127091726398357,-2.0155332292404013,-0.10237179650072807,0.08289469025458553,-0.036362361197720586,2,left
18.087,0.4868284607386215,1.1017048809670982,-0.2729284898392978,0.5742176121099594,4.125263876185654,-2.02207967708746,-0.10241382333650154,0.08160910401926338,-0.036759226213371875,2,left
18.088,0.4876477584255309,1.1022513936340876,-0.27287964529353204,0.578308478063998,4.123042617864452,-2.028333367240301,-0.10239603400778738,0.0802648467072465,-0.03715032674479686,2,left
18.144000000000002,0.4884937420130194,1.102793012059865,-0.2728155635290615,0.5831060774617923,4.12045357519082,-2.0342895015850893,-0.1023207187666604,0.07886850844125769,-0.03752151744246642,2,left
18.146,0.48936205448018516,1.1033307448332708,-0.2727369681685,0.5885803517679776,4.117523534751522,-2.0399443124167926,-0.10219041841616093,0.07742664018932711,-0.037858639868258326,2,left
18.147000000000002,0.4902482705267496,1.1038655395852077,-0.27264464568853836,0.5946970535274951,4.114280332655311,-2.045295078499931,-0.102007903162681,0.07594569260061587,-0.03814767480335242,2,left
18.148,0.4911479258665485,1.1043982682750586,-0.2725394394118044,0.6014179838858786,4.11075272570371,-2.0503401317264616,-0.10177614862918721,0.07443195970127614,-0.03837489720945191,2,left
18.149,0.4920565454607484,1.1049297135548695,-0.2724222422944831,0.6087012550287796,4.106970246495605,-2.0550788535705573,-0.10149830952356041,0.07289152791851532,-0.038527029689847316,2,left
18.215999999999998,0.49296967007558185,1.1054605570468627,-0.2722939884782177,0.6165015765380664,4.102963042786252,-2.0595116610935262,-0.10117769133252116,0.0713302307828446,-0.038591391335307756,2,left
18.218,0.49388288085592247,1.1059913704297135,-0.2721556436705717,0.6247705655632833,4.098761701210454,-2.063639982477361,-0.10081772018887644,0.06975360944586534,-0.03855604070909733,2,left
18.219,0.49479182217283263,1.106522609924098,-0.2720081945860564,0.6334570808292982,4.0943970553591145,-2.067466222100532,-0.10042191093602917,0.06816687903279504,-0.038409912763805246,2,left
18.222,0.495692223391483,1.1070546143081117,-0.2718526378508119,0.6425075805024392,4.089899978197721,-2.0709937151687625,-0.09999383344338719,0.06657490075126463,-0.038142949484883226,2,left
18.223,0.4965799202549201,1.1075876062243246,-0.2716899688467597,0.6518665039387674,4.085301158814753,-2.074226671912646,-0.09953707749894836,0.06498215930789666,-0.03774622302916998,2,left
18.224,0.49745087639383784,1.1081216963476372,-0.2715211709109574,0.6614766766614442,4.080630864230223,-2.077170111346933,-0.09905521709619003,0.06339274451818715,-0.037212048278974605,2,left
18.281,0.49830120520003646,1.108656889902068,-0.2713472052002294,0.671279734525793,4.075918690707601,-2.0798297845045655,-0.09855177520505157,0.061810335625220175,-0.03653408070561687,2,left
18.283,0.4991271920766551,1.1091930949558846,-0.2711690014446476,0.6812165569306233,4.071193315696205,-2.0822120869120955,-0.09803018984396285,0.06023818721271904,-0.0357073964622814,2,left
18.284000000000002,0.4999253169520834,1.1097301318313972,-0.2709874496774582,0.6912276955456991,4.0664822652443515,-2.0843239599914263,-0.09749378177884525,0.05867911626390348,-0.03472855347304279,2,left
18.284000000000002,0.5006922768261026,1.1102677428445582,-0.27080339277045706,0.7012537884151903,4.061811708010033,-2.0861727811528623,-0.09694572394984388,0.05713549037658401,-0.03359563327684054,2,left
18.285,0.501425007934761,1.110805601567366,-0.2706176193298417,0.7112359555447458,4.057206280298352,-2.087766242790427,-0.09638901291018154,0.05560921766377285,-0.03230826342003982,2,left
18.347,0.5021207069587016,1.111343321004557,-0.2704308564372888,0.7211161762019431,4.052688942774817,-2.089112221976294,-0.09582644299030509,0.05410173966981223,-0.030867619884806574,2,left
18.349,0.5027768505775941,1.1118804604348367,-0.2702437619077232,0.7308376501562954,4.0482808686409,-2.0902186453770066,-0.09526058413869587,0.05261402907688917,-0.02927640887010167,2,left
18.35,0.5033912125846284,1.112416531021508,-0.2700569160919323,0.740345145817379,4.04400136299169,-2.091093355419224,-0.09469376415245541,0.05114659353202976,-0.02753882741164314,2,left
18.357,0.5039618780238886,1.1129510005271115,-0.2698708137527791,0.7495853374968444,4.039867813142475,-2.0917439822262165,-0.09412805554690401,0.04969948600855932,-0.02566050280597003,2,left
18.358,0.5044872544324385,1.1134832975432039,-0.2696858570081743,0.7585071327011265,4.0358956698315325,-2.0921778231352537,-0.09356526690001532,0.04827232109387126,-0.02364841183953835,2,left
18.358,0.5049660805342043,1.1140128156599374,-0.2695023503922705,0.7670619893774759,4.032098458742156,-2.092401730084661,-0.09300693814455462,0.046864295467165556,-0.02151078241659386,2,left
18.413,0.5053974322996239,1.1145389180549987,-0.269320498715569,0.7752042216333153,4.028487819143923,-2.0924220047829567,-0.09245433910562205,0.045474210253500576,-0.019256981045406244,2,left
18.415,0.5057807258669792,1.1150609430414529,-0.26914040796320604,0.7828912901883552,4.025073561671385,-2.092244301437666,-0.0919084707564791,0.04410049351793294,-0.01689738877582638,2,left
18.416,0.506115717038573,1.1155782111199393,-0.2689620891701192,0.7900840725625027,4.021863734602076,-2.0918735367462347,-0.0913700689449984,0.04274122229191674,-0.014443266876468271,2,left
18.417,0.5064024976039394,1.116090034016163,-0.26878546500875206,0.796747109256773,4.018864690653063,-2.091313806925457,-0.0908396103389861,0.04139414454689978,-0.011906613947907626,2,left
18.417,0.5066414889823572,1.1165957258849182,-0.26861037858075404,0.8028488241601466,4.016081151242001,-2.090568311953045,-0.09031732005098031,0.04005670244718929,-0.009300018289132775,2,left
18.482,0.5068334335190176,1.1170946161405972,-0.2684366035029578,0.8083617172561454,4.013516268535632,-2.0896392885869997,-0.08980318022387412,0.03872605865954185,-0.0066365106088768664,2,left
18.484,0.5069793836496671,1.117586062427568,-0.26826385401365094,0.8132625254088562,4.011171687435933,-2.088527956115261,-0.08929693903801002,0.03739912705162517,-0.003929420898561238,2,left
18.485,0.5070806893889878,1.1180694618446803,-0.26809179407202816,0.8175323455934077,4.009047610374295,-2.087234480105588,-0.08879811992311362,0.036072608309912754,-0.0011922409889858667,2,left
18.494,0.5071389848730685,1.1185442592737511,-0.2679200454369917,0.821156716551453,4.007142866993345,-2.0857579578423433,-0.08830603093773384,0.03474303056225067,0.0015615069619233303,2,left
18.495,0.5071561744658158,1.1190099526749238,-0.267748195538259,0.8241256584146309,4.005454989142255,-2.084096425440233,-0.08781977434174221,0.03340679490131041,0.004318395941187219,2,left
18.496,0.5071344183528952,1.1194660954565312,-0.26757580581616924,0.8264336730873012,4.003980290246005,-2.0822468829239162,-0.0873382565225062,0.03206022520531014,0.007065212819275026,2,left
18.548,0.507076117118704,1.1199122963557626,-0.26740242077601467,0.8280797094811867,4.002713947606685,-2.0802053319746094,-0.08686019867844368,0.03069962075267728,0.009789068609853447,2,left
18.55,0.5069838947208138,1.1203482183771891,-0.26722757788711504,0.8290670966721254,4.001650086554607,-2.077966822367939,-0.08638414879872282,0.0293213096274731,0.012477497921257066,2,left
18.552,0.5068605794977276,1.1207735786562905,-0.26705081815338,0.8294034462102299,4.000781866014077,-2.075525505509328,-0.08590849534284442,0.027921701412203598,0.015118545854479987,2,left
18.553,0.5067091831118753,1.1211881498319056,-0.26687169661597127,0.8291005237923064,4.000101565408324,-2.072874694796313,-0.08543148276950814,0.026497338551435563,0.017700841770239138,2,left
18.554000000000002,0.5065328772502922,1.1215917625156373,-0.26668979193968295,0.8281740906452608,3.9996006728406277,-2.070006932994076,-0.08495122887277391,0.025044946205097444,0.020213660511801644,2,left
18.613,0.5063349676714533,1.1219843088283095,-0.26650471466026604,0.8266437166967463,3.999269974189738,-2.0669140677735363,-0.08446574375508353,0.023561480394469824,0.02264697283080344,2,left
18.615,0.5061188653368713,1.1223657473276871,-0.2663161140535748,0.8245325707203723,3.9990996422190737,-2.0635873382953083,-0.08397295021034813,0.02204417417947754,0.024991487343007133,2,left
18.616,0.5058880548382751,1.1227361090589143,-0.26612368370886336,0.8218671943704007,3.999079324500248,-2.0600174766858492,-0.08347070534665275,0.020490581670137648,0.02723868576086081,2,left
18.631,0.5056460606666898,1.1230955037137116,-0.26592716588680515,0.8186772651220218,3.9991982294443025,-2.0561948268457724,-0.08295682337955315,0.018898619790708948,0.02938085210569388,2,left
18.633,0.5053964119301199,1.1234441247544638,-0.26572635471131484,0.8149953491801863,3.999445211238019,-2.0521094790847916,-0.08242909954676714,0.017266607760309576,0.0314110961184765,2,left
18.634,0.5051426060327971,1.1237822527443793,-0.26552109821500697,0.8108566421795681,3.9998088565185617,-2.0477514141349173,-0.08188533492377617,0.015593304171505621,0.033323371452974156,2,left
18.68,0.5048880716926538,1.124110256553343,-0.26531129923582747,0.8062986943122897,4.000277576644392,-2.0431106476897964,-0.0813233615912637,0.013877941377219944,0.03511249010091766,2,left
18.682000000000002,0.5046361317030801,1.1244285923095327,-0.26509691515044664,0.8013611173572028,4.00083970845637,-2.0381773688276104,-0.08074106742274642,0.012120256801171625,0.03677413497964969,2,left
18.689,0.5043899661949139,1.1247378000358885,-0.2648779564999412,0.7960852725926292,4.001483624687346,-2.032942069652655,-0.08013641994323924,0.010320520881963557,0.03830487213121137,2,left
18.69,0.5041525775396624,1.1250384980472095,-0.26465448476134984,0.7905139395783685,4.002197853825757,-2.027395665674465,-0.07950748903829806,0.008479561531860242,0.03970216311539196,2,left
18.69,0.5039267580176248,1.1253313753717977,-0.2644266097049754,0.7846909667920198,4.002971207102654,-2.0215296067559203,-0.07885246848316164,0.006598784996079093,0.040964377693551636,2,left
18.745,0.5037150609778548,1.125617182530716,-0.264194486768487,0.778660906602419,4.003792906773548,-2.0153359782293365,-0.07816969633767838,0.004680192566688649,0.04209080678248212,2,left
18.746,0.5035197758252681,1.1258967209754023,-0.2639583147387355,0.7724686378947676,4.004652707923257,-2.008807591650017,-0.07745767432377496,0.0027263917939825254,0.04308167561949691,2,left
18.766,0.5033429069919839,1.1261708315642363,-0.2637183339671478,0.7661589788286817,4.005541007965504,-2.001938064784453,-0.07671508631729843,0.0007406004470026208,0.04393815697309984,2,left
18.768,0.503186156996583,1.1264403826656089,-0.26347482535720235,0.7597762907110848,4.006448941507445,-1.9947218906610014,-0.07594081592459452,-0.0012733577769425235,0.04466238382654369,2,left
18.768,0.5030509136746788,1.126706258558383,-0.2632281102659613,0.7533640731327738,4.007368460192896,-1.987154495638537,-0.0751339628236007,-0.0033110654471145296,0.04525746022923508,2,left
18.769000000000002,0.5029382417118892,1.1269693486244854,-0.2629785512127646,0.7469645510332835,4.008292397484376,-1.9792322865667615,-0.07429385738775593,-0.0053675304036983175,0.04572746860390907,2,left
18.812,0.5028488786905555,1.1272305375129559,-0.2627265530820178,0.7406182577717436,4.009214518132208,-1.9709526875779881,-0.07342007322490053,-0.007437210684453888,0.046077472228895175,2,left
18.813,0.5027832357759153,1.1274906961698268,-0.2624725644786284,0.7343636244252326,4.010129551697353,-1.9623141678900573,-0.07251243748260701,-0.009514045022312331,0.04631351238408725,2,left
18.825,0.502741402808863,1.127750673466082,-0.26221707894857615,0.7282365889494491,4.0110332092827266,-1.9533162624661489,-0.07157103889910581,-0.011591488791427535,0.04644259995762352,2,left
18.826,0.5027231571638971,1.128011288134345,-0.2619606358164639,0.7222702354233861,4.011922182839707,-1.9439595869091109,-0.07059623363300736,-0.013662554994508141,0.04647270080127386,2,left
18.827,0.5027279756058678,1.1282733207891384,-0.26170382044927804,0.7164944677309248,4.012794127121229,-1.9342458472304234,-0.06958864895849236,-0.015719859264611682,0.0464127130526739,2,left
18.88,0.5027550485778772,1.1285375058641525,-0.2614472638459615,0.7109357199937009,4.013647626180596,-1.924177845187678,-0.06854918494230546,-0.017755667510326933,0.046272434048055755,2,left
18.882,0.5028032966833872,1.1288045232977568,-0.26119164154490404,0.7056167078612352,4.014482149265899,-1.9137594807294576,-0.06747901418903271,-0.019761945177508004,0.04606251504302729,2,left
18.903,0.5028713894289096,1.1290749897187997,-0.26093767191598743,0.7005562261392192,4.015298002575641,-1.9029957536073763,-0.0663795796874817,-0.02173040772034563,0.045794403028227286,2,left
18.905,0.5029577664111169,1.1293494487432658,-0.26068611391119084,0.6957689968631023,4.016096281725365,-1.891892765692125,-0.06525259074811578,-0.023652572244363016,0.045480269593943606,2,left
18.905,0.5030606609764497,1.1296283599303423,-0.260437764273172,0.6912655694509701,4.016878826866618,-1.8804577245899,-0.06410001695036857,-0.025519810480728322,0.04513292728294041,2,left
18.906,0.5031781261032577,1.1299120861860157,-0.2601934541551188,0.6870522729535616,4.017648180566146,-1.868698948421602,-0.06292407990142816,-0.027323403481636303,0.04476573453031167,2,left
18.945999999999998,0.5033080620521334,1.130200879908576,-0.2599540451621068,0.6831312189325931,4.018407547142086,-1.8566258704663696,-0.06172724254291601,-0.02905459855441694,0.0443924906555677,2,left
18.947,0.5034482452301999,1.1304948685761744,-0.25972042488068,0.6795003513167084,4.019160750195518,-1.8442490404702379,-0.06051219580689827,-0.030704668823832278,0.044027322005546765,2,left
18.962,0.5035963576379934,1.1307940405779053,-0.25949350191888254,0.6761535383726169,4.019912183987776,-1.8315801183643146,-0.05928184253975424,-0.03226497558137025,0.0436845596869513,2,left
18.964000000000002,0.5037500161544356,1.131098232057545,-0.2592742003917827,0.6730807031423934,4.02066675540182,-1.8186318571914428,-0.05803927869422661,-0.03372703330423727,0.04337860911297169,2,left
18.965,0.5039068008605355,1.1314071154803829,-0.25906345374444273,0.6702679907768392,4.0214298150547885,-1.8054180740153785,-0.056787771886813485,-0.03508257646160812,0.04312381227618572,2,left
19.011,0.5040642817486503,1.1317201904708813,-0.2588621978152723,0.6676979718854291,4.022207076569175,-1.7919536090217378,-0.055530737568585536,-0.03632362589468994,0.042934305029795075,2,left
19.012999999999998,0.5042200434523197,1.132036777270464,-0.25867136309464295,0.665349880325674,4.023004522062011,-1.7782542739153235,-0.05427171314134725,-0.037442551817572674,0.0428238724203713,2,left
