time,gFx,gFy,gFz,ax,ay,az,wx,wy,wz,subject_number,foot
14.373,0.5090458819178809,1.0210109039932738,-0.28233258858567445,1.4040183382790263,2.860756961829724,-1.171741344303419,0.005888631867402607,-0.04840050367276298,0.1544387766179866,4,left
14.374,0.5066318364983385,1.0242692896611916,-0.2822446002627273,1.390573515631807,2.8598726208484213,-1.1711084752935499,0.006328505166408267,-0.04805991261534394,0.15163263436246424,4,left
14.392000000000001,0.5042147846078061,1.0275460535199792,-0.2821444012623687,1.3767766540234783,2.859458297269984,-1.170534308147947,0.00678670702823822,-0.047702112627005626,0.14859315920134725,4,left
14.392999999999999,0.5017998367912541,1.0308369788374072,-0.28203204493960393,1.3626656120412337,2.8594892627942454,-1.1700200209776932,0.007261992897558176,-0.0473329196470114,0.14531449708795774,4,left
14.394,0.4993921826044725,1.0341378972932567,-0.2819076210401843,1.3482811545431683,2.8599400501951835,-1.1695661710379786,0.007753214027294646,-0.04695809113295583,0.1417915083376675,4,left
14.44,0.4969970609651176,1.0374447030728375,-0.28177126007929304,1.3336667238964885,2.8607846138212727,-1.1691727418655111,0.0082593145998334,-0.04658327869820927,0.13801981412512662,4,left
14.442,0.49461972789862113,1.0407533672619325,-0.28162313639197584,1.3188681857465714,2.861996499204261,-1.168839200630427,0.008779327162611587,-0.04621398317195818,0.1339958356750673,4,left
14.47,0.4922654222496615,1.0440599517694853,-0.28146346996151606,1.3039335514430357,2.8635490153981706,-1.1685645636852717,0.009312366486216465,-0.04585551248416221,0.1297168268171479,4,left
14.472000000000001,0.4899393299890235,1.0473606219717455,-0.2812925271971792,1.288912678798608,2.8654154054112255,-1.1683474686218966,0.009857621864226573,-0.04551294244159422,0.1251809000074278,4,left
14.472000000000001,0.4876465477488001,1.050651657366202,-0.281110620838239,1.2738569523413679,2.867569013689786,-1.1681862511748498,0.010414347856287292,-0.045191080393913605,0.12038704580490639,4,left
14.472999999999999,0.4853920462698967,1.0539294597405096,-0.2809181090984409,1.258818944507889,2.8699834525134653,-1.1680790242306127,0.010981853522165425,-0.04489443179572047,0.11533514588476004,4,left
14.509,0.4831806345129044,1.0571905586311245,-0.2807153941031391,1.243852059576825,2.8726327702050494,-1.1680237554233122,0.011559490425638154,-0.04462716970541515,0.11002598013882005,4,left
14.529000000000002,0.4810169252024451,1.0604316140750272,-0.2805029196762389,1.2290101619192486,2.875491622927713,-1.1680183406148066,0.012146640103040748,-0.04439310732444395,0.10446122925846153,4,left
14.530999999999999,0.47890530250757674,1.063649416846397,-0.280281168594681,1.214347190500487,2.8785354485016525,-1.1680606718277278,0.012742701922403933,-0.044195673715415246,0.09864347466398025,4,left
14.532,0.47684989241225484,1.0668408865510364,-0.2800506595080734,1.199916763245313,2.8817406362819655,-1.1681486985166682,0.013347082028065504,-0.04403789280282222,0.0925761971741502,4,left
14.532,0.4748545361383152,1.0700030680980244,-0.27981194380518865,1.1857717759741313,2.885084684958416,-1.1682804809258793,0.01395918364170653,-0.043922365766334376,0.08626377497032699,4,left
14.573,0.47292276680884743,1.0731331270815563,-0.27956560276508974,1.1719639994307662,2.888546342175138,-1.1684542345948852,0.014578398719584076,-0.043851257246036904,0.07971148097293446,4,left
14.574000000000002,0.47105778941770265,1.076228344472245,-0.27931224529387805,1.1585436757855543,2.8921057235351784,-1.16866836563678,0.015204100847309917,-0.04382628639160381,0.07292547971444702,4,left
14.607999999999999,0.46926246412733796,1.0792861109208034,-0.2790525063948817,1.1455591153884517,2.8957444107036587,-1.1689214968545458,0.015835639213418296,-0.04384872413165546,0.06591282382612312,4,left
14.61,0.46753929298347086,1.0823039210271537,-0.2787870463167717,1.1330562971989129,2.899445529288972,-1.1692124854611552,0.016472333546557555,-0.04391939762064063,0.05868145013948849,4,left
14.61,0.46589041025715366,1.0852793679609825,-0.27851655019529714,1.1210784815198995,2.903193808186025,-1.169540434317246,0.01711346999060424,-0.044038701826788956,0.05124017493335437,4,left
14.610999999999999,0.46431757674012764,1.0882101386968628,-0.27824172801765584,1.1096658465532176,2.9069756226236985,-1.1699046992379891,0.017758297963128652,-0.04420661720663316,0.04359868708713972,4,left
14.64,0.4628221784010205,1.0910940099292248,-0.27796331481913045,1.0988551574061636,2.9107790226009307,-1.1703048942831575,0.018406028067895153,-0.044422731968443464,0.03576753748524678,4,left
14.665999999999999,0.46140522967759506,1.0939288445726072,-0.2776820710727254,1.0886794709814782,2.914593747391705,-1.1707408957966052,0.01905583109566793,-0.04468626776498353,0.0277581233156137,4,left
14.668,0.46006738123304775,1.0967125886755646,-0.2773987832500506,1.0791678772956197,2.9184112262413544,-1.1712128453237487,0.019706838020561234,-0.04499610814748552,0.019582666092274395,4,left
14.668,0.4588089315369427,1.0994432685640192,-0.27711426451609683,1.0703452771943727,2.922224565265091,-1.1717211514081987,0.020358140709064762,-0.04535082915850673,0.0112541816529989,4,left
14.669,0.45762984143040963,1.1021189879599071,-0.2768293554330008,1.0622321966963766,2.9260285207248,-1.1722664903111584,0.021008792959380913,-0.04574873133367085,0.002786439916058592,4,left
14.707,0.45652975091729864,1.1047379245709794,-0.27654492440934636,1.0548446394958233,2.9298194596856284,-1.17284980590913,0.02165781158477102,-0.04618787256511706,-0.0058060872720713955,4,left
14.708,0.45550799777770135,1.1072983252595783,-0.276261867547467,1.0481939814953267,2.933595310539769,-1.1734723094068478,0.022304177427511136,-0.04666610160844709,-0.01450829087986034,4,left
14.744000000000002,0.4545636381126634,1.109798498720195,-0.275981107627514,1.0422869125407586,2.9373555067102908,-1.1741354797142816,0.022946836309449478,-0.047181092170404094,-0.02330450207442977,4,left
14.745999999999999,0.4536954692303836,1.1122368050982347,-0.27570359223452234,1.0371254292331564,2.941100926022362,-1.1748410651248498,0.023584700061046553,-0.04773037741433666,-0.03217858176506896,4,left
14.747,0.4529020550749492,1.1146116429968642,-0.27543029127230007,1.0327068801095218,2.944833826568839,-1.1755910864646004,0.024216647980799696,-0.048311384474307724,-0.041114021068014366,4,left
14.748,0.4521817538323717,1.116921435008,-0.2751621940865375,1.029024061949627,2.948557778199456,-1.1763878412393536,0.024841529193625256,-0.04892146843197691,-0.050094051033048884,4,left
14.775,0.451532746890065,1.1191646128607013,-0.2749003062231216,1.0260653634798198,2.9522775870276576,-1.177233907488635,0.025458166260075518,-0.049557945347319506,-0.05910176039386911,4,left
14.805,0.4509530681900481,1.121339602899011,-0.2746456456944714,1.0238149513746457,2.9559992092441916,-1.1781321455699296,0.026065360178222086,-0.05021812418064209,-0.0681202208624501,4,left
14.807,0.45044063307205523,1.123444812359986,-0.27439923856738707,1.0222529940260516,2.959729650235284,-1.1790856962561762,0.026661896795354065,-0.050899337539898615,-0.077132619718266,4,left
14.808,0.4499932658857208,1.125478616874402,-0.2741621136996522,1.021355919572342,2.9634768444789823,-1.1800979738162294,0.027246554583374917,-0.051598971012877734,-0.08612239857419432,4,left
14.808,0.4496087259580139,1.127439349610914,-0.2739352965365125,1.021096705247928,2.967249511402005,-1.181172652907423,0.027818113659927535,-0.05231449048052133,-0.09507339548494494,4,left
14.83,0.4492847318023316,1.1293252925325827,-0.2737198019846436,1.0214451960357018,2.9710569837173906,-1.1823136484675505,0.028375365897342384,-0.05304346660581819,-0.10396998661049384,4,left
14.882,0.4490189836694047,1.1311346703005514,-0.27351662645085206,1.0223684511630218,2.9749090076452394,-1.1835250882764687,0.028917126001373392,-0.053783595894646624,-0.11279722460028155,4,left
14.885,0.4488091846790491,1.1328656472739853,-0.27332673915124117,1.0238311144006738,2.9788155195207935,-1.1848112780968152,0.02944224348994206,-0.054532718149714915,-0.1215409723717685,4,left
14.886,0.4486530608029687,1.134516327830694,-0.2731510727885755,1.0257957984017925,2.982786410616036,-1.186176659299031,0.029949615424303536,-0.055288830647418276,-0.13018803086974998,4,left
14.887,0.4485483799277572,1.136084760034483,-0.2729905137216521,1.0282234700647153,2.986831295939508,-1.1876257588433752,0.030438199541178834,-0.0560500999599962,-0.13872625771062322,4,left
14.888,0.44849297024852575,1.1375689425303415,-0.2728458918646077,1.0310738271599433,2.9909592988408114,-1.189163131524538,0.030907027316679946,-0.05681487265215414,-0.1471446725751829,4,left
14.907,0.44848473831806496,1.138966834372018,-0.27271797070915094,1.0343056623211866,2.9951788561573105,-1.1907932944435455,0.03135521661047357,-0.05758168577458005,-0.1554335462536246,4,left
14.939,0.44852168704006395,1.1402763672520675,-0.27260743794003967,1.0378772137763863,2.9994975448240635,-1.1925206538952517,0.03178198375038113,-0.05834927752464398,-0.1635844721188064,4,left
14.940999999999999,0.44860193372046664,1.1414954594091007,-0.27251489704826504,1.0417465029464195,3.003921930689115,-1.194349425819827,0.032186655035225956,-0.05911659813782544,-0.17159041984385584,4,left
14.942,0.44872372813854183,1.142622030455343,-0.2724408601438697,1.0458716592196893,3.0084574413719394,-1.196283552682906,0.03256867762268692,-0.05988282093230084,-0.1794457713401299,4,left
14.942,0.4488854705136089,1.1436540164732225,-0.2723857418910287,1.0502112323114539,3.013108265611638,-1.1983266206026444,0.03292762959622302,-0.06064735303028755,-0.18714633865221159,4,left
14.972999999999999,0.44908572898304944,1.1445893848394737,-0.2723498542291387,1.0547244925179307,3.0178772809432637,-1.2004817795889111,0.0332632286943302,-0.06140984456183113,-0.19468936311613777,4,left
15.017000000000001,0.4493232556465263,1.1454261483333537,-0.2723334014104969,1.0593717189965401,3.0227660104455722,-1.2027516680441677,0.03357533901269364,-0.06217019475788085,-0.2020734948476933,4,left
15.017999999999999,0.44959699988771346,1.1461623783317707,-0.2723364750630274,1.0641144761046042,3.027774608695265,-1.205138341722572,0.033863975162366125,-0.06292855373833318,-0.20929875186609487,4,left
15.019,0.4499061181149826,1.1467962174012811,-0.2723590495734524,1.0689158778093768,3.0329018769414344,-1.2076432071535064,0.03412930372189062,-0.06368531958260817,-0.21636645878015562,4,left
15.02,0.4502499798208408,1.1473258921234404,-0.2724009786897139,1.0737408399941617,3.0381453070234445,-1.2102669596040079,0.034371642214423605,-0.06444113098906261,-0.2232791661632026,4,left
15.02,0.45062817012177603,1.1477497271053392,-0.272461994300454,1.078556319542979,3.0435011511017303,-1.213009525994716,0.03459145627240486,-0.06519685648513683,-0.23004055351962055,4,left
15.04,0.4510404887013394,1.1480661608205593,-0.2725417078895091,1.083331537389782,3.0489645098540143,-1.2158700137959013,0.03478935587282495,-0.0659535814700338,-0.23665531970615203,4,left
15.075999999999999,0.4514869449865192,1.1482737634782951,-0.2726396145523566,1.088038181775734,3.0545294293356804,-1.218846667270276,0.034966091305503766,-0.06671259405182095,-0.2431290637099335,4,left
15.078,0.4519677500144184,1.1483712562541792,-0.2727550987811217,1.0926505889005993,3.060188999157449,-1.2219368320898352,0.035122549139699456,-0.06747537006501522,-0.24946815695554844,4,left
15.079,0.4524833066147621,1.1483575296345974,-0.2728874408182445,1.097145899850819,3.065935449051143,-1.2251369287426892,0.03525974821836313,-0.0682435572778526,-0.25567960761945685,4,left
15.079,0.45303420020208945,1.14823165740586,-0.27303582300093937,1.1015041932167489,3.071760243466939,-1.2284424349175094,0.035378835588334226,-0.0690189584496871,-0.26177091857363977,4,left
15.107999999999999,0.4536211918524648,1.1479929035650973,-0.27319933676254227,1.1057085909374114,3.0776541749277126,-1.2318478775411534,0.03548108213639128,-0.06980351238636771,-0.2677499429847539,4,left
15.154000000000002,0.45424521356301883,1.1476407222893297,-0.27337699134297627,1.109745331198502,3.083607457930453,-1.235346836145401,0.03556787762417221,-0.07059927185667511,-0.2736247429307491,4,left
15.155999999999999,0.4549073635111138,1.1471747542051842,-0.27356772446284777,1.11360380090633,3.0896098251637696,-1.2389319596267783,0.0356407248917722,-0.07140837751770343,-0.27940345506053266,4,left
15.157,0.4556088982717569,1.146594822855901,-0.2737704142546391,1.1172765261208109,3.09565062415817,-1.2425949970689754,0.03570123313810102,-0.07223302750970684,-0.2850941649171025,4,left
15.157,0.45635122024331687,1.1459009331652408,-0.2739838915037503,1.1207591293797112,3.1017189059112362,-1.246326840787068,0.03575111026288326,-0.07307544266574485,-0.2907047902082476,4,left
15.158,0.4571358607763576,1.1450932716252535,-0.27420695170486037,1.124050268706722,3.107803493377426,-1.2501175783582412,0.03579215424438139,-0.07393782745174013,-0.29624297311464814,4,left
15.222000000000001,0.4579644606998075,1.1441722075298006,-0.274438366793186,1.1271515691755782,3.1138930216538534,-1.2539565512169946,0.035826243396221646,-0.07482232731902905,-0.301715982091026,4,left
15.224,0.45883874956762716,1.143138294921994,-0.27467689628861314,1.1300675483956015,3.1199759521957926,-1.25783241932853,0.03585532511147652,-0.07573098417109679,-0.3071306242746949,4,left
15.225,0.4597605238956351,1.141992275209878,-0.27492129748515826,1.1328055286807723,3.126040575442203,-1.2617332330583724,0.03588140257146775,-0.07666569221266792,-0.31249316998172083,4,left
15.225999999999999,0.4607316239033098,1.140735080562803,-0.2751703344952551,1.1353755252351874,3.1320750218355853,-1.26564651394926,0.035906519059047924,-0.07762815587786095,-0.3178092902916843,4,left
15.227,0.46175390827336865,1.1393678380972274,-0.2754227861509982,1.1377901023562442,3.1380672962287623,-1.2695593456914358,0.0359327399095479,-0.0786198504891066,-0.32308400749813027,4,left
15.280999999999999,0.46282922692909884,1.1378918745329998,-0.275677452804851,1.140064194726504,3.1440053412552516,-1.273458475462899,0.03596213254807799,-0.0796419856862489,-0.3283216568189187,4,left
15.283,0.46395939213046966,1.136308720763804,-0.2759331620190173,1.1422148948631516,3.1498771280942277,-1.2773304236680907,0.03599674524624847,-0.08069547152652581,-0.3335258571225325,4,left
15.284,0.46514614812178584,1.1346201157869684,-0.2761887731146453,1.1442612107202943,3.1556707681856393,-1.2811615969168462,0.03603858511415712,-0.0817808872077381,-0.3386994889181504,4,left
15.285,0.46639113947797844,1.1328280095619345,-0.27644318063921053,1.1462237987683677,3.1613746372970013,-1.284938397362295,0.036089595763786536,-0.08289845254299395,-0.3438446785091545,4,left
15.286,0.4676958783872944,1.1309345644581241,-0.2766953169140051,1.1481246765451432,3.1669775054970706,-1.2886473232394295,0.03615163529095794,-0.08404800257512864,-0.34896278711802897,4,left
15.305,0.4690617113382638,1.128942154969521,-0.2769441538479498,1.1499869162795684,3.172468670468376,-1.2922750585475704,0.036226455396490255,-0.08522896585415189,-0.3540544035387946,4,left
15.33,0.4704897859771459,1.1268533654261292,-0.2771887041899326,1.1518343198600132,3.1778380937441955,-1.2958085515429223,0.03631568226210851,-0.08644034677110876,-0.35911933923772466,4,left
15.357999999999999,0.47198101914281726,1.124670985637589,-0.27742802239451547,1.1536910755635343,3.1830765395043352,-1.2992350821305316,0.03642079942744083,-0.08768071210772535,-0.3641566254794294,4,left
15.36,0.4735360671174549,1.1223980046647584,-0.27766120526789156,1.1555813990181993,3.188175713655274,-1.3025423186381266,0.036543132705331355,-0.08894818185916978,-0.36916451242301984,4,left
15.36,0.4751552988945763,1.1200376030252122,-0.27788739252892236,1.1575291645704187,3.19312839748455,-1.3057183651621833,0.03668383711162461,-0.09024042450097546,-0.3741404702210252,4,left
15.360999999999999,0.4768387728792975,1.1175931435995148,-0.2781057674364094,1.1595575352847958,3.197928568270412,-1.3087518010696668,0.03684388574946602,-0.0915546571226112,-0.37908119218084335,4,left
15.401,0.4785862170948964,1.1150681615163605,-0.27831555772315564,1.1616885977485687,3.2025715011358478,-1.3116317138451445,0.03702406056812569,-0.09288765098990155,-0.3839826000635228,4,left
15.402999999999999,0.4803970128458724,1.112466353433677,-0.2785160370846396,1.1639430041529253,3.20705384987099,-1.3143477257644598,0.0372249449364918,-0.09423574295892867,-0.38883985157947537,4,left
15.417,0.48227018200128147,1.1097915667425047,-0.27870652728372375,1.166339622561248,3.2113737064962913,-1.3168900146307045,0.03744691800759089,-0.09559485291275456,-0.39364735011343094,4,left
15.419,0.4842043784319028,1.107047789138429,-0.2788864007250785,1.168895198328924,3.2155306404215325,-1.3192493294709482,0.03769015086712656,-0.09696050717564347,-0.3983987568166213,4,left
15.42,0.4861978842067293,1.104239138772174,-0.2790550833279966,1.1716240340774038,3.2195257193179425,-1.3214170034270236,0.03795460444555362,-0.09832786744622798,-0.40308700580551776,4,left
15.44,0.48824861077298876,1.1013698549556474,-0.27921205763669243,1.174537698090984,3.223361514521683,-1.3233849668150017,0.03824002914167402,-0.09969176409746254,-0.4077043242943781,4,left
15.498,0.4903541048049586,1.0984442892406039,-0.2793568661926841,1.1776447685398541,3.2270420930850325,-1.3251457625856335,0.03854596606241412,-0.10104673232119618,-0.4122422601258581,4,left
15.5,0.4925115580645628,1.0954668966433085,-0.2794891151814038,1.1809506164957366,3.2305729973285118,-1.3266925650821748,0.0388717496718707,-0.10238705005714864,-0.4166917187226611,4,left
15.501,0.4947178205687787,1.0924422268570497,-0.27960847827763186,1.1844572282415884,3.23396121204527,-1.328019202249598,0.03921651144183429,-0.10370677747757236,-0.42104301068901473,4,left
15.501,0.4969694164248633,1.089374915316111,-0.27971470048022257,1.1881630671055399,3.237215119485446,-1.3291201812509852,0.03957918398442417,-0.10499979826080551,-0.4252859108494369,4,left
15.502,0.49926256178169814,1.0862696737610191,-0.279807601565995,1.192062976156021,3.240344442833488,-1.329990717200038,0.03995850528021939,-0.10625986288734972,-0.429409729227711,4,left
15.555,0.5015931846388724,1.0831312794852586,-0.2798870786981379,1.196148125086755,3.2433601799452134,-1.330626764274759,0.040353022884741574,-0.1074806339911979,-0.4334033940613237,4,left
15.558,0.503956946757428,1.079964562001005,-0.27995310779717636,1.2004060057270718,3.2462745296966884,-1.331025048230471,0.04076109830981837,-0.1086557334076057,-0.4372555462164761,4,left
15.559000000000001,0.5063492682232832,1.0767743860878616,-0.2800057435242973,1.2048204792000943,3.249100812344152,-1.331183099415954,0.04118091213422943,-0.10977878997634469,-0.4409546433161549,4,left
15.56,0.5087653550499194,1.0735656313069226,-0.28004511803782633,1.2093718742244612,3.251853382405502,-1.3310992850391963,0.041610470582518634,-0.11084348684450569,-0.44448907132693527,4,left
15.561,0.511200229707865,1.0703431691573062,-0.28007143885454555,1.214037132184308,3.2545475286864365,-1.3307728382350898,0.042047614126456336,-0.11184360732764659,-0.44784726191622093,4,left
15.574000000000002,0.5136487638552709,1.067111839246351,-0.2800849860405075,1.2187899928351893,3.2571993541227893,-1.3302038807360983,0.04249002833167961,-0.11277307895466965,-0.45101781491079,4,left
15.633,0.5161057120618586,1.0638764254708502,-0.28008610872499096,1.2236012157396754,3.2598256303528514,-1.329393436781763,0.04293525698762747,-0.11362601563650222,-0.4539896257534866,4,left
15.636,0.5185657452852912,1.060641632921909,-0.28007522081227115,1.228438833739038,3.262443627276276,-1.3283434375202845,0.04338071749901307,-0.11439675795465894,-0.4567520177506723,4,left
15.637,0.521023483277044,1.0574120660895137,-0.280052795792615,1.2332684335087603,3.2650709233649065,-1.327056716275575,0.04382371840204582,-0.11507991153164833,-0.4592948778174733,4,left
15.637,0.5234735255914404,1.0541922088185665,-0.2800193606351339,1.2380534570001451,3.2677252048991154,-1.3255369953907985,0.04426147866154475,-0.11567038338392704,-0.46160879247421643,4,left
15.638,0.5259104811883004,1.0509864064024692,-0.2799754888246592,1.242755519123236,3.270424060261731,-1.3237888651803849,0.04469114829004117,-0.11616341612395735,-0.4636851797618057,4,left
15.690999999999999,0.5283289967943671,1.0477988501686424,-0.2799217926748216,1.2473347398214014,3.2731847717469376,-1.3218177552008348,0.045109829945005175,-0.11655461991158418,-0.46551641382820336,4,left
15.692,0.5307237843138763,1.044633564761244,-0.27985891511810085,1.2517500902406746,3.2760241053001167,-1.3196298978716223,0.04551460132687104,-0.11684000212988992,-0.46709594074709815,4,left
15.693,0.5330896476431904,1.0414943980905573,-0.2797875212260756,1.2559597525863098,3.278958098696646,-1.3172322844875508,0.04590253811293999,-0.11701599486514844,-0.4684183844967149,4,left
15.693,0.5354215092113999,1.0383850137825288,-0.27970828970742934,1.25992149115387,3.282001851169063,-1.3146326138950921,0.04627073682050425,-0.11707948040448629,-0.46947964095155054,4,left
15.694,0.5377144365069864,1.0353088859460018,-0.27962190459405134,1.2635930282330625,3.285169321994331,-1.3118392345218872,0.046616336789878934,-0.11702781503538641,-0.47027695702161115,4,left
15.77,0.5399636688530749,1.0322692960206776,-0.279529047344875,1.2669324164771445,3.288473148054408,-1.308861080679801,0.04693654068702967,-0.11685885129456777,-0.470808992794863,4,left
15.772,0.5421646446876156,1.029269331316542,-0.2794303896447059,1.2698984014348147,3.2919244878824645,-1.3057076038295283,0.047228633322300095,-0.11657095835866736,-0.4710758658512673,4,left
15.773,0.5443130294615445,1.0263118847088588,-0.27932658711975206,1.2724507717292919,3.295532895205285,-1.3023886990769302,0.04748999884218578,-0.11616303960886828,-0.4710791776729706,4,left
15.774000000000001,0.5464047440069001,1.0233996548660842,-0.27921827398954363,1.2745506964731281,3.299306222491614,-1.2989146269389218,0.04771813642371332,-0.11563454605982683,-0.4708220222398863,4,left
15.774000000000001,0.548435992855628,1.0205351463518821,-0.2791060583856318,1.2761610499271876,3.303250554516378,-1.2952959303698786,0.04791067456874157,-0.1149854846702002,-0.47030897687722006,4,left
15.775,0.5504032914609215,1.0177206690308986,-0.27899051780905326,1.2772467234571965,3.3073701717733512,-1.291543347258978,0.04806538403752367,-0.1142164211408543,-0.46954607538126675,4,left
15.831,0.5523034909025588,1.0149583364743788,-0.278872194178506,1.2777749250707278,3.311667542680214,-1.287667719708098,0.04818018942861255,-0.11332847713377524,-0.4685407634271354,4,left
15.833,0.5541337989848527,1.0122500634195795,-0.2787515883041184,1.277715467231455,3.3161433419200703,-1.2836799033788568,0.04825317940565814,-0.11232332190982142,-0.467301836256942,4,left
15.834000000000001,0.5558917974805981,1.0095975626954192,-0.27862915427088714,1.27704104387677,3.320796491374915,-1.279590681296639,0.04828261557153625,-0.1112031583831091,-0.4658393586462938,4,left
15.835,0.5575754557266337,1.0070023423187486,-0.2785052946741732,1.2757274968971286,3.3256242206180686,-1.2754106852436127,0.04826693999013486,-0.10997070358948459,-0.46416456714619647,4,left
15.835,0.5591831404951375,1.004465703541682,-0.2783803575720599,1.2737540697415768,3.3306221436431316,-1.2711503251138663,0.048204781371381886,-0.10862916365000277,-0.4622897548320474,4,left
15.908,0.5607136217354408,1.0019887404354642,-0.2782546355899818,1.2711036416630457,3.335784345994026,-1.2668197241013202,0.04809496001186414,-0.10718220372901836,-0.4602281399667406,4,left
15.91,0.5621660741015629,0.9995723411640336,-0.27812836716018363,1.2677629338921619,3.3411034747486847,-1.2624286565916885,0.04793649172166108,-0.10563391424040153,-0.4579937221011081,4,left
15.911,0.5635400751536965,0.997217190105035,-0.27800173937901834,1.26372268120329,3.346570825699746,-1.2579864864087231,0.0477285910447743,-0.10398877497409244,-0.4556011303103506,4,left
15.912,0.5648356020086782,0.9949237686916111,-0.2778748916482619,1.2589777662529353,3.3521764254786874,-1.2535021044672991,0.04747067400350663,-0.10225161839589211,-0.4530654670885749,4,left
15.913,0.5660530277665908,0.9926923534552422,-0.2777479197129371,1.2535273162455167,3.357909108260583,-1.2489838656649102,0.04716236044381262,-0.10042759255163863,-0.45040214956944075,4,left
15.913,0.5671931170429589,0.9905230131942409,-0.27762088050502,1.2473747618407063,3.363756587428544,-1.2444395253631806,0.046803475907659244,-0.09852212325147046,-0.44762674988039985,4,left
15.965,0.5682570182473186,0.9884156099192704,-0.27749379827325915,1.2405278578435694,3.3697055243941034,-1.2398761776326157,0.046394052809803854,-0.09654087452073333,-0.4447548385710874,4,left
15.966,0.5692462505130845,0.9863698067873519,-0.27736667187917574,1.2329986645490345,3.3757416000404685,-1.235300200712847,0.04593433062230148,-0.09448970596768363,-0.4418018363719911,4,left
15.967,0.5701626848703517,0.9843850824487301,-0.2772394827370822,1.2248034882392624,3.3818495960726986,-1.2307172169622929,0.04542475484385928,-0.09237462605406216,-0.43878287822326995,4,left
15.968,0.5710085209560603,0.9824607490543038,-0.2771122029699465,1.2159627797014505,3.3880134917423494,-1.226132072749351,0.044865974641315115,-0.09020174097992242,-0.43571269111023664,4,left
15.969000000000001,0.5717862612063394,0.9805959716568131,-0.27698480354943655,1.2065009908585642,3.394216577671322,-1.2215488402291368,0.04425883901028955,-0.08797719983229255,-0.4326054857538876,4,left
16.042,0.5724986837960885,0.9787897881476859,-0.2768572621496354,1.1964463927706166,3.400441584319279,-1.2169708399832693,0.04360439111144662,-0.08570713779833307,-0.4294748616319602,4,left
16.044,0.5731488144663747,0.9770411296690993,-0.27672957034094636,1.1858308633694208,3.4066708180209933,-1.2124006810753212,0.042903860324623906,-0.08339761984572827,-0.42633372463388763,4,left
16.045,0.5737398968198947,0.9753488415364013,-0.2766017398130377,1.1746896560840572,3.4128862951563574,-1.20784031392982,0.04215865167698757,-0.08105458667065879,-0.42319421682487407,4,left
16.046,0.5742753608119442,0.9737117044757448,-0.27647380748254524,1.163061157716507,3.419069867379594,-1.2032910925874334,0.041370332506494356,-0.07868380362953728,-0.4200676581037729,4,left
16.047,0.5747587895598814,0.972128455688802,-0.27634583950622277,1.1509866388923418,3.4252033350890057,-1.1987538449495283,0.04054061638054655,-0.07629081276952301,-0.41696449960313436,4,left
16.048,0.5751938847526977,0.9705978091879026,-0.27621793431636654,1.138509997303367,3.4312685490123473,-1.194228950614368,0.0396713445359171,-0.07388088795823392,-0.4138942881729661,4,left
16.08,0.5755844308486515,0.9691184750368493,-0.27609022479320006,1.125677491846543,3.4372475019056563,-1.189716425357749,0.03876446550822043,-0.07145899312369966,-0.41086564031559153,4,left
16.101,0.5759342582034157,0.9676891772755898,-0.27596287963493715,1.1125374631705705,3.4431224151449102,-1.1852160098090436,0.037822013842597826,-0.06902974362148258,-0.4078862233978381,4,left
16.102,0.5762472053516562,0.9663086702392549,-0.2758361039344349,1.0991400355979382,3.44887582569729,-1.1807272585918445,0.036846088577836715,-0.06659737076615943,-0.40496274245962105,4,left
16.102999999999998,0.5765270807397287,0.9649757528865267,-0.2757101389477145,1.0855367987583147,3.4544906756120257,-1.17624962607085,0.0358388319145926,-0.06416568968493183,-0.40210093166991245,4,left
16.102999999999998,0.5767776242771774,0.9636892807675684,-0.2755852610548377,1.0717804710713508,3.4599504022578516,-1.1717825457444988,0.03480240847235095,-0.06173807088153142,-0.399305549586146,4,left
16.168,0.5770024692939419,0.9624481753360755,-0.27546177997058957,1.0579245477586814,3.4652390268261395,-1.1673255016047013,0.03373898561584704,-0.0593174160287018,-0.39658037723912437,4,left
16.171,0.5772051057958084,0.9612514304968278,-0.27534003635152793,1.0440229345575818,3.470341239984823,-1.162878090846771,0.03265071521069249,-0.056906138376224887,-0.3939282183080575,4,left
16.172,0.5773888459801629,0.9600981166495183,-0.2752203990388206,1.0301295672987816,3.4752424845102774,-1.1584400778160575,0.03153971695029099,-0.0545061479251025,-0.3913509010868452,4,left
16.182000000000002,0.5775567927098313,0.9589873828177242,-0.2751032622431136,1.016298017308747,3.479929034912302,-1.1540114391784693,0.03040806327516868,-0.05211884138720756,-0.3888492821853034,4,left
16.183,0.5777118112927259,0.9579184574993633,-0.27498904298152027,1.002581082596611,3.484388074066839,-1.1495924003021145,0.029257765876121278,-0.04974509694998292,-0.38642325197633454,4,left
16.184,0.5778565046918702,0.9568906487173907,-0.27487817898649863,0.9890303652669953,3.4886077665590256,-1.145183462860331,0.02809076374513397,-0.047385273998302266,-0.38407174189332616,4,left
16.238,0.5779931922012511,0.9559033435611243,-0.27477112717104485,0.9756958383604118,3.4925773271264724,-1.140785423921522,0.026908912688685182,-0.045039218184151214,-0.3817927338498067,4,left
16.241,0.5781238916280779,0.9549560073643597,-0.2746683626421188,0.9626254114279852,3.496287081014539,-1.136399387698471,0.02571397619061097,-0.04270627236732972,-0.37958327214667575,4,left
16.242,0.5782503051700476,0.9540481826078407,-0.2745703781953376,0.9498645097485751,3.499728513703489,-1.1320267725049966,0.024507617539039298,-0.04038529381791082,-0.3774394781394646,4,left
16.243,0.5783738094441667,0.9531794876476661,-0.27447768415327306,0.9374556814671724,3.5028943102494625,-1.1276693160527593,0.023291393181145932,-0.038074677832720484,-0.3753565677707618,4,left
16.244,0.5784954502040455,0.952349615357647,-0.2743908083891617,0.9254382408294685,3.5057783860579126,-1.123329081313835,0.022066747298509992,-0.03577238770563401,-0.3733288721043468,4,left
16.308,0.5786159419313,0.9515583316997731,-0.2743102964641712,0.9138479500875164,3.5083759102586005,-1.1190084637995523,0.020835007609706278,-0.03347599056501116,-0.37134986160058137,4,left
16.309,0.5787356719352977,0.9508054741827805,-0.27423671188324156,0.902716740395995,3.510683321936341,-1.1147102003830858,0.019597382421892327,-0.031182697871610685,-0.3694121759913535,4,left
16.31,0.5788547082176548,0.9500909500455017,-0.27417063638131445,0.8920724716646322,3.5126983392257753,-1.1104373796533427,0.018354958961539797,-0.02888940897034245,-0.367507662234458,4,left
16.317,0.578972810331884,0.9494147335465352,-0.2741126699254272,0.8819387313335564,3.514419961277618,-1.1061934537877365,0.017108703006022952,-0.026592756489236938,-0.365627422406004,4,left
16.317999999999998,0.5790894428354848,0.9487768612245434,-0.27406343002241773,0.872334672039662,3.5158484631030147,-1.1019822519315063,0.015859459807021605,-0.024289153094586978,-0.3637618722742367,4,left
16.319000000000003,0.579203791457942,0.9481774242015024,-0.2740235501451855,0.8632748883989548,3.5169853833550677,-1.097807995009529,0.014607956210320308,-0.02197483948900269,-0.36190081069309593,4,left
16.377,0.5793147823355671,0.9476165574943909,-0.2739936774203336,0.8547693344087689,3.517833505372196,-1.0936753115877218,0.013354803734589374,-0.019645933579117893,-0.36003349985890093,4,left
16.38,0.579421104391666,0.9470944269940723,-0.27397446981653484,0.8468232852747026,3.5183968322867014,-1.089589253845156,0.012100502309251587,-0.017298480640547644,-0.358148756371821,4,left
16.381,0.5795212344145025,0.9466112149655713,-0.27396659295124975,0.8394373487461436,3.518680557267507,-1.0855553124091732,0.010845444526838853,-0.014928503945386704,-0.35623505243729436,4,left
16.382,0.5796134639973151,0.946167104842915,-0.2739707164947509,0.8326075297683664,3.518691029698786,-1.081579429114854,0.009589920544790896,-0.012532054665395382,-0.3542806254508293,4,left
16.383,0.5796959273917036,0.9457622658260932,-0.2739875100483206,0.8263253496106828,3.5184357171996066,-1.0776680071872777,0.008334123926951816,-0.010105259501687027,-0.35227359360306276,4,left
16.442,0.5797666293786066,0.9453968375857643,-0.2740176383194836,0.8205780176009654,3.5179231610414483,-1.0738279180585557,0.0070781586532451275,-0.007644364880608076,-0.3502020757288529,4,left
16.444000000000003,0.579823472439636,0.9450709154681737,-0.27406175546719136,0.8153486501870444,3.517162918720496,-1.0700665030215624,0.005822047386755095,-0.005145777247521074,-0.34805431468648146,4,left
16.445999999999998,0.5798642828159999,0.9447845367988669,-0.27412049862590937,0.8106165302937527,3.5161654853597946,-1.0663915673269302,0.004565741010079394,-0.002606099374611556,-0.34581880414312927,4,left
16.452,0.5798868353585107,0.9445376689631867,-0.27419448074608826,0.8063574016992077,3.5149421876966676,-1.0628113649256348,0.0033091294121869322,-2.216270701720944e-05,-0.3434844185354397,4,left
16.453,0.5798888773009081,0.9443301998134113,-0.2742842829517848,0.8025437963113193,3.5135050481559853,-1.059334573131714,0.002052053431223317,0.0026089440716519246,-0.3410405448477219,4,left
16.454,0.5798681512206263,0.9441619306823751,-0.2743904466360529,0.7991453934871325,3.5118666191450854,-1.055970257120826,0.0007943177222823211,0.005289849791070288,-0.33847721282321513,4,left
16.506,0.5798224175105939,0.9440325720326518,-0.27451346553657663,0.7961294084241909,3.5100397908960153,-1.0527278245264973,-0.00046429575663005807,0.008022878243147163,-0.3357852190975091,4,left
16.507,0.5797494767040174,0.9439417416317097,-0.274653778059623,0.7934610022165974,3.508037581173893,-1.0496169708043952,-0.001724013871422989,0.010810027865100099,-0.3329562418689447,4,left
16.51,0.5796471919712881,0.9438889650510603,-0.27481176013133385,0.791103703704206,3.5058729179438872,-1.0466476162620424,-0.0029850581461021903,0.013652953476104132,-0.3299829447473592,4,left
16.511,0.5795135120066669,0.9438736781334599,-0.2749877188470317,0.7890198354637079,3.503558423737534,-1.0438298355358324,-0.0042476303230796104,0.016552950043996695,-0.32685906954821503,4,left
16.512,0.5793464943552634,0.9438952308993601,-0.27518188714462744,0.7871709394981897,3.501106207579972,-1.0411737804436587,-0.005511897688933406,0.019510938499972923,-0.3235795178902719,4,left
16.574,0.5791443291049831,0.9439528923359606,-0.2753944196378636,0.7855181984323253,3.498527671372197,-1.0386895979127793,-0.006777978383457434,0.02252745366898749,-0.32014042078605304,4,left
16.575,0.5789053628183051,0.9440458555973574,-0.27562538961861177,0.7840228472832651,3.4958333391822634,-1.0363873451918726,-0.008045927231168025,0.025602634473061797,-0.3165391942106392,4,left
16.576,0.5786281224042573,0.9441732430960006,-0.2758747870434811,0.7826465721089328,3.493032715783841,-1.034276904002453,-0.00931572281295405,0.02873621661448314,-0.3127745779653844,4,left
16.588,0.5783113381666984,0.9443341107962576,-0.27614251707682314,0.7813518940517336,3.4901341769729055,-1.0323678942876386,-0.01058725631704785,0.03192752789642774,-0.3088466558211857,4,left
16.59,0.5779539648671623,0.9445274510943402,-0.2764283986987997,0.7801025385271051,3.487144892077872,-1.030669587662532,-0.011860322362425258,0.03517548626721653,-0.3047568561650075,4,left
16.59,0.5775551998668333,0.9447521941017539,-0.27673216317739846,0.7788637895703718,3.4840707784416374,-1.0291908207531972,-0.01313461168548255,0.03847860071410197,-0.30050793322259484,4,left
16.64,0.5771144980836383,0.9450072075805986,-0.27705345260063197,0.7776028294430535,3.4809164865862154,-1.0279399095769186,-0.014409705322386727,0.04183497528318495,-0.2961039293897154,4,left
16.641,0.5766315838749148,0.9452912959830229,-0.2773918188602482,0.7762890637573518,3.4776854128488397,-1.0269245678542624,-0.015685069795747734,0.045242316591367134,-0.2915501193850128,4,left
16.646,0.5761064597874677,0.9456031992149487,-0.2777467235184074,0.7748944324650301,3.474379735210675,-1.0261518331092148,-0.016960052938016487,0.04869794510725706,-0.28685293675589496,4,left
16.648,0.5755394118294057,0.9459415919366476,-0.2781175389620229,0.7733937064867228,3.4710004686777762,-1.0256280032674137,-0.018233880206768163,0.052198810317640655,-0.28201988294226454,4,left
16.649,0.5749310109598581,0.946305084199439,-0.2785035511142706,0.7717647671868343,3.4675475363514225,-1.0253585838170096,-0.019505651473282943,0.05574150975906757,-0.2770594192018856,4,left
16.707,0.5742821108535275,0.9466922239501517,-0.2789039637933394,0.7699888614675663,3.464019849533351,-1.025348242996188,-0.02077433830308624,0.059322311636114414,-0.2719808430676373,4,left
16.708,0.573593842543315,0.9471015013646028,-0.27931790459284883,0.7680508228245201,3.4604153882809054,-1.025600771370148,-0.022038781769608516,0.06293718031547542,-0.2667941535321049,4,left
16.709,0.5728676074254807,0.9475313537241247,-0.27974443183618464,0.7659392511192611,3.4567312759707027,-1.026119043069989,-0.02329769085461941,0.06658180374485116,-0.2615099105577026,4,left
16.725,0.5721050707003761,0.9479801684540436,-0.2801825421387278,0.7636466481677523,3.452963845288099,-1.026904977602765,-0.024549641476580956,0.07025162208601433,-0.2561390931070782,4,left
16.727,0.5713081561843179,0.9484462832701815,-0.2806311787091812,0.761169508656406,3.449108695203322,-1.0279595020516599,-0.025793076176543264,0.07394185732251786,-0.2506929575726409,4,left
16.727,0.5704790410996112,0.948927985675429,-0.28108924084574743,0.7585083663849668,3.4451607394343773,-1.0292825139563626,-0.0270263045336524,0.07764754403514422,-0.24518289813063113,4,left
16.773,0.569620148387768,0.9494235155108278,-0.2815555944839776,0.7556677958614139,3.441114249450038,-1.0308728466074657,-0.028247504478754116,0.0813635619323742,-0.23962031215421387,4,left
16.774,0.5687341349473156,0.9499310725009129,-0.28202908307489716,0.752656369321216,3.4369628996622037,-1.0327282410868062,-0.029454724729515696,0.08508467091546042,-0.23401647486981902,4,left
16.783,0.5678238755945615,0.9504488281639706,-0.2825085382653576,0.7494865692692343,3.4326998250100993,-1.0348453308294128,-0.030645888515495188,0.088805549265486,-0.22838242639081174,4,left
16.784000000000002,0.566892443570437,0.9509749402824216,-0.28299279028503266,0.7461746566155834,3.428317698585042,-1.0372196430405138,-0.03181879868187891,0.09252083510048809,-0.22272887232974908,4,left
16.785,0.5659430887166585,0.951507568539062,-0.28348067799576765,0.7427404951941208,3.4238088317746,-1.0398456185676588,-0.03297114430190816,0.0962251705920754,-0.2170660979266954,4,left
16.831,0.5649792139384198,0.9520448908748196,-0.28397105831495423,0.7392073372528861,3.4191652939842716,-1.0427166497016254,-0.03410050909032404,0.09991324755297235,-0.21140389503632134,4,left
16.833,0.5640043498968857,0.9525851206048387,-0.284462814644985,0.7356015813897637,3.414379043323311,-1.0458251338604416,-0.035204382006410476,0.10357985254048963,-0.20575150110274973,4,left
16.862000000000002,0.5630221276663268,0.953126524241813,-0.2849548641415932,0.731952518233874,3.409442056774048,-1.0491625404274179,-0.03628017033885238,0.10721991008730627,-0.20011754946478777,4,left
16.864,0.5620362492903254,0.9536674396861552,-0.28544616384576194,0.7282920753453447,3.404346451230589,-1.0527194886989368,-0.03732521534773547,0.11082852351055164,-0.19451003060563335,4,left
16.864,0.5610504563734612,0.9542062942165546,-0.28593571574273235,0.7246545659162634,3.399084591952821,-1.0564858361299279,-0.038336810225252045,0.1144010132170458,-0.18893626360876492,4,left
16.865,0.560068496841392,0.954741621703843,-0.2864225707923158,0.7210764415465419,3.393649188228657,-1.0604507765318714,-0.03931221972604197,0.11793295251669361,-0.18340287610552372,4,left
16.907,0.5590940899820982,0.9552720786292581,-0.286905831977879,0.7175960461960209,3.388033378513029,-1.0646029469262348,-0.04024870060062459,0.12142020095645356,-0.17791579043386233,4,left
16.908,0.5581308900472559,0.955796458568062,-0.28738465642966515,0.7142533640818753,3.3822308107363654,-1.0689305397958815,-0.04114352218266639,0.12485893518668313,-0.17248021429393828,4,left
16.92,0.5571824490217944,0.956313704684261,-0.28785825666447906,0.7110897518836948,3.3762357253774193,-1.0734214163881552,-0.041993986872018475,0.12824567737061793,-0.16710063520533947,4,left
16.921,0.5562521795596291,0.9568229196891465,-0.28832590099582805,0.708147648025755,3.3700430469921816,-1.0780632178132885,-0.04279745045188582,0.13157732110612486,-0.16178081858647064,4,left
16.922,0.5553433193006332,0.9573233728885316,-0.2887869132354661,0.7054702562929647,3.3636484862261558,-1.0828434725548823,-0.04355134211762156,0.13485115462376626,-0.15652380913751276,4,left
16.973,0.5544588975993858,0.957814504268834,-0.2892406718545023,0.7031012042154716,3.35704865123814,-1.087749699657296,-0.04425318390690461,0.13806488065631226,-0.15133193475404932,4,left
16.974,0.5536017052670354,0.9582959258223459,-0.2896866087589316,0.7010841785269494,3.3502411649298507,-1.0927695062778693,-0.0449006091166978,0.14121663216981903,-0.14620681194613883,4,left
17.0,0.5527742676107047,0.9587674205008101,-0.29012420784130444,0.6994625407734747,3.343224783179191,-1.0978906778505002,-0.045491379396467836,0.14430498335108757,-0.14114935199027742,4,left
17.000999999999998,0.5519788209205732,0.9592289393432223,-0.29055300354052194,0.6982789259337858,3.3359995101576168,-1.103101259553413,-0.046023400394606576,0.1473289556148968,-0.13615976749635672,4,left
17.002,0.5512172924552153,0.9596805973237862,-0.2909725796858988,0.6975748282952832,3.3285667074005425,-1.1083896285902375,-0.04649473594709353,0.15028801858901286,-0.13123757935729988,4,left
17.002,0.550491283895256,0.9601226683025345,-0.2913825688425287,0.6973901830472166,3.3209291916805843,-1.1137445572729403,-0.04690362085827343,0.15318208602538225,-0.1263816242642584,4,left
17.04,0.5498020582924462,0.9605555793202033,-0.2917826522469851,0.697762954670125,3.3130913154084114,-1.1191552670045055,-0.04724847239572579,0.15601150649503973,-0.12159006326656188,4,left
17.041,0.5491505308011866,0.9609799044617929,-0.2921725602855458,0.6987287404313748,3.3050590248489917,-1.1246114732387382,-0.04752790066118048,0.1587770486736912,-0.11686039202031327,4,left
17.057000000000002,0.5485372637684319,0.9613963585074335,-0.29255207336914774,0.7003203923110622,3.2968398942549637,-1.130103421457443,-0.04774071795910338,0.16147988107513078,-0.11218945320520253,4,left
17.059,0.5479624666659314,0.9618057904881265,-0.29292102306653695,0.7025676582635383,3.2884431358573076,-1.1356219143457764,-0.04788594721212087,0.16412154618016017,-0.10757345129317904,4,left
17.06,0.5474260007951767,0.9622091771416991,-0.29327929346178144,0.7054968449173609,3.2798795873426965,-1.1411583311482265,-0.047962829430152024,0.16670392905917455,-0.10300796982364148,4,left
17.079,0.5469273882045067,0.9626076162186026,-0.2936268227763641,0.7091305069682087,3.271161680925004,-1.1467046416379807,-0.04797083022208854,0.16922922109794872,-0.09848799198382238,4,left
17.105999999999998,0.5464658241529902,0.9630023195742432,-0.29396360524047294,0.713487170271133,3.2623033994949933,-1.1522534179381816,-0.04790964532101481,0.17169988033863112,-0.0940079265113568,4,left
17.135,0.5460401924810085,0.9633946058933488,-0.29428969304073616,0.7185810938905102,3.253320223954683,-1.157797846627962,-0.04777920508149745,0.17411859041768188,-0.08956164158189177,4,left
17.137,0.5456490833087668,0.9637858926765692,-0.29460519803054785,0.7244220732181312,3.244229073363812,-1.163331742115976,-0.047579677904784734,0.17648821942299064,-0.08514250851281926,4,left
17.137999999999998,0.5452908127949315,0.9641776868411411,-0.2949102928832432,0.7310152845219676,3.2350482381483965,-1.168849561458485,-0.047311472543074176,0.17881177880544594,-0.08074345561690312,4,left
17.137999999999998,0.5449634451503834,0.964571573165217,-0.2952052115128854,0.7383611711171703,3.225797306364147,-1.1743464205678493,-0.04697523923131683,0.1810923818207429,-0.07635703170776319,4,left
17.166,0.5446648173011527,0.9649692001325767,-0.2954902487819381,0.7464553722375054,3.2164970830999704,-1.1798181114069313,-0.04657186960908928,0.18333320103464507,-0.0719754787790562,4,left
17.168,0.5443925662733001,0.9653722634421691,-0.29576575961924095,0.7552886972796975,3.2071695032734064,-1.1852611191343025,-0.04610249541700563,0.18553742470894377,-0.06759081365852006,4,left
17.204,0.5441441586723236,0.9657824880320148,-0.2960321576150963,0.7648471489798152,3.1978375381624278,-1.19067263781477,-0.04556848596424561,0.18770821204310006,-0.06319491859323363,4,left
17.205,0.5439169210351446,0.9662016096039515,-0.2962899130210679,0.7751119981984628,3.1885250959251357,-1.1960505836599837,-0.044971444350130334,0.18984864738219495,-0.05877964063320154,4,left
17.206,0.5437080697797572,0.9666313564621877,-0.29653954999657917,0.7860599114015347,3.179256916191882,-1.2013936053943768,-0.044313202342926725,0.19196169402261556,-0.05433689907892966,4,left
17.206,0.543514739915775,0.9670734322785798,-0.29678164296607024,0.7976631307241261,3.1700584583813964,-1.2067010916004475,-0.043595813675666215,0.1940501491844423,-0.04985879917604474,4,left
17.241,0.5433340122022963,0.9675295003015124,-0.29701681203975416,0.8098897047466711,3.160955781672921,-1.211973174510009,-0.042821545439021516,0.19611660224032176,-0.045337749638521774,4,left
17.262,0.5431629387781179,0.9680011694675584,-0.29724571754487544,0.8227037652637806,3.15197541150452,-1.2172107288847127,-0.04199286733067114,0.19816339776962374,-0.04076658218343862,4,left
17.264,0.5429985674541478,0.9684899827687107,-0.2974690537901045,0.8360658437444868,3.14314418576686,-1.222415364171696,-0.0411124386832196,0.2001926040264062,-0.03613867212492104,4,left
17.264,0.5428379649157453,0.9689974080963073,-0.29768754224038424,0.8499332221752973,3.134489076131595,-1.2275894085733978,-0.040183093370126766,0.20220598667588913,-0.03144805858757713,4,left
17.265,0.5426782390503365,0.9695248316751198,-0.2979019242873784,0.8642603128660665,3.126036985858142,-1.2327358844733656,-0.03920782288123284,0.2042049871667667,-0.026689561060246114,4,left
17.305999999999997,0.5425165605706008,0.9700735541116954,-0.29811295378563046,0.8789990580493596,3.1178145322404323,-1.2378584750805441,-0.038189757957304435,0.20619070489378435,-0.021858887922049257,4,left
17.307000000000002,0.5423501841593937,0.9706447889724626,-0.2983213895702476,0.8940993374585383,3.109847825038305,-1.2429614822255812,-0.03713214907489993,0.20816388251781343,-0.01695273366122781,4,left
17.329,0.5421764694603532,0.9712396636436965,-0.29852798825788335,0.9095093750347331,3.102162249396414,-1.2480497752629418,-0.03603834589634364,0.21012489419374591,-0.01196886346667761,4,left
17.34,0.5419929021792612,0.9718592220075648,-0.29873349761413376,0.9251761412485829,3.094782256637932,-1.2531287310691557,-0.03491177570148866,0.21207373666934537,-0.006906184960560678,4,left
17.340999999999998,0.5417971153228819,0.9725044282592022,-0.29893865058710695,0.9410457504872832,3.087731163478695,-1.2582041651478006,-0.033755920846526184,0.21401002327387472,-0.0017648069462533709,4,left
17.342,0.5415869103974698,0.973176171108846,-0.2991441598842497,0.9570638533981106,3.0810309599851085,-1.2632822539618502,-0.03257429553643959,0.2159329808810449,0.0034539155125382203,4,left
17.373,0.5413602783322211,0.9738752677354015,-0.2993507128623265,0.9731760233153952,3.0747021283268183,-1.2683694491439876,-0.03137042263220733,0.21784145004915825,0.008747351370663225,4,left
17.399,0.5411154198171519,0.9746024670616169,-0.29955896649524855,0.9893281345216178,3.0687634774842683,-1.2734723851894665,-0.030147811448054933,0.21973388855989712,0.014111581437690087,4,left
17.401,0.540850764497949,0.975358452016986,-0.2997695421685868,1.0054667293287947,3.063232000799079,-1.2785977827661084,-0.02890993721671877,0.22160837827569077,0.01954140517103861,4,left
17.402,0.540564988220028,0.9761438404924642,-0.29998302007024225,1.0215393717315262,3.05812276152945,-1.283752349246059,-0.027660222401545698,0.22346263469288583,0.025030366386323614,4,left
17.402,0.540257027582458,0.9769591848501484,-0.30019993317619004,1.0374949867574534,3.0534488082189357,-1.2889426772791446,-0.02640201975693505,0.22529401826641923,0.030570797045545144,4,left
17.44,0.5399260915181193,0.9778049701156263,-0.3004207612406675,1.0532841853926547,3.049221118727489,-1.2941751425435994,-0.025138597026116136,0.2270995468042104,0.036153878413905584,4,left
17.441,0.5395716700738438,0.978681611242744,-0.3006459255336937,1.068859575088729,3.0454485692085917,-1.299455803226578,-0.023873123229694995,0.2288759086537279,0.04176971931108386,4,left
17.476,0.5391935405147357,0.9795894500983843,-0.30087578514217606,1.0841760558448628,3.0421379230837324,-1.3047903046328244,-0.02260865651635682,0.2306194766731296,0.04740745114560124,4,left
17.477999999999998,0.538791770391302,0.9805287530062594,-0.3011106354664479,1.0991911018708194,3.0392938363005713,-1.3101837914741388,-0.021348133465047058,0.2323263231978891,0.053055338074641696,4,left
17.479,0.5383667170213507,0.9814997096504827,-0.3013507091765949,1.1138650288597702,3.0369188773833713,-1.31564082886985,-0.020094359567366948,0.23399223652233478,0.05870089812129962,4,left
17.48,0.5379190234410236,0.9825024338660377,-0.30159617943027406,1.1281612464845618,3.035013561675474,-1.3211653321219243,-0.018850000529709973,0.2356127395868772,0.06433102968657682,4,left
17.506,0.5374496119164762,0.9835369662257056,-0.3018471646736568,1.1420464935943186,3.0335763977019097,-1.3267605045549107,-0.01761757412388856,0.23718311139015105,0.06993213928819045,4,left
17.535999999999998,0.5369596768585508,0.9846032770430047,-0.3021037340419253,1.1554910497380813,3.032603940485986,-1.332428781623151,-0.016399442475600795,0.23869841133657987,0.07549026886872723,4,left
17.537,0.5364506786479423,0.9857012674966312,-0.30236591269128194,1.1684689145026432,3.03209084493526,-1.3381717788834586,-0.015197804769325496,0.2401535065582975,0.08099122241034615,4,left
17.537,0.5359243380539823,0.9868307681400641,-0.3026336872807394,1.1809579482890387,3.032029914133413,-1.3439902420360865,-0.014014690388445813,0.24154310223086534,0.08642069168343691,4,left
17.538,0.5353826289907857,0.9879915370203425,-0.30290701216462174,1.192939972069866,3.0324121409565197,-1.3498839987227331,-0.012851952621119727,0.24286177497675637,0.09176438001325074,4,left
17.573,0.5348277672808263,0.9891832603820143,-0.303185816185564,1.2044008261556192,3.0332267455784074,-1.3558519143637677,-0.011711263263482392,0.24410400958484835,0.09700812125047573,4,left
17.579,0.5342621946100115,0.9904055570876877,-0.3034700094460713,1.2153303890524436,3.0344612161403033,-1.3618918580178139,-0.010594108563495632,0.2452642393486704,0.10213799018825741,4,left
17.614,0.5336885583748763,0.991657985974136,-0.30375948978615674,1.2257225578411293,3.036101362286329,-1.368000686235842,-0.009501786845309805,0.24633689015663202,0.10714040167077199,4,left
17.615,0.5331096889095821,0.9929400547246453,-0.3040541491812369,1.235575191156823,3.0381313888425447,-1.3741742508933386,-0.008435407993893425,0.24731642785969618,0.11200219763398696,4,left
17.616,0.5325285753736431,0.9942512293168286,-0.3043538802158329,1.2448900156732656,3.040533991967994,-1.3804074330579805,-0.007395894941599556,0.24819740751544622,0.11671072279846506,4,left
17.616,0.5319483405382418,0.9955909439858549,-0.3046585823028974,1.2536724989139656,3.0432904747561484,-1.3866942012292465,-0.006383987316920172,0.24897452261920258,0.12125389022028939,4,left
17.639,0.5313722138555983,0.9969586120428179,-0.30496816701919394,1.2619316952255772,3.0463808735143068,-1.3930276887705093,-0.005400247374907075,0.24964265290568186,0.1256202376078508,4,left
17.672,0.5308035023096682,0.998353637563859,-0.30528256217536137,1.26968007384034,3.0497840833562404,-1.399400283501141,-0.004445068255290763,0.2501969101559936,0.12979897477551863,4,left
17.673,0.5302455592154607,0.9997754274666226,-0.30560171465718844,1.2769333348045744,3.0534779763342264,-1.4058037235447258,-0.0035186845735608336,0.25063268191757526,0.1337800223068081,4,left
17.674,0.5297017514937828,1.0012234033169654,-0.30592559221070537,1.2837102128817304,3.057439513599288,-1.4122291955607829,-0.0026211853421827676,0.2509456731389748,0.13755404143956437,4,left
17.675,0.5291754257872422,1.0026970122866596,-0.3062541842799112,1.2900322663886812,3.06164485766921,-1.4186674326159299,-0.0017525291726738343,0.25113194571689706,0.14111245529263594,4,left
17.706,0.528669873583575,1.0041957367738361,-0.3065875019655448,1.2959236483480985,3.066069489806166,-1.425108809900955,-0.0009125614766742823,0.25118795593176463,0.14444746209039105,4,left
17.75,0.5281882956198649,1.0057191022669483,-0.30692557717259467,1.3014108589212061,3.070688334511803,-1.4315434375874696,-0.00010103296542854106,0.25111058971020084,0.14755204200824487,4,left
17.750999999999998,0.5277337661281336,1.0072666830835502,-0.3072684610141744,1.3065224789632524,3.0754758914845697,-1.4379612507218233,0.0006823814983148051,0.2508971955829791,0.1504199598350996,4,left
17.752,0.5273091977233251,1.0088381056612798,-0.3076162215505544,1.3112888847186863,3.0804063750519415,-1.4443520961747673,0.001438064473322169,0.2505456149840615,0.15304576529003547,4,left
17.753,0.5269173078181276,1.0104330492304725,-0.30796894098190175,1.31574194367186,3.0854538610907474,-1.4507058166653237,0.002166438411641614,0.2500542091353819,0.15542479218566585,4,left
17.754,0.5265605873901155,1.0120512439920146,-0.308326712484317,1.3199146917145668,3.090592441191055,-1.4570123317854438,0.002867949334293634,0.24942188153909395,0.15755315727196634,4,left
17.773,0.5262412727970336,1.013692467205433,-0.30868963694910334,1.3238409925235284,3.0957963825281527,-1.463261715492765,0.0035430519053514385,0.24864809534614654,0.15942775930668135,4,left
17.809,0.5259613211326148,1.0153565377006954,-0.30905781991852016,1.327555181359077,3.101040289583209,-1.4694442687121276,0.004192195983421571,0.24773288530772378,0.1610462785745624,4,left
17.811,0.5257223893433419,1.0170433093016742,-0.30943136902628726,1.331091696228266,3.1062992625621226,-1.475550585227198,0.00481581466358763,0.2466768642767955,0.16240717685974568,4,left
17.812,0.5255258170925483,1.0187526636172828,-0.3098103922395812,1.334484698622147,3.111549048653588,-1.4815716095025617,0.0054143138011193736,0.24548122436399125,0.16350969765042103,4,left
17.812,0.5253726132876846,1.0204845026363458,-0.3101949970732346,1.3377676852505194,3.116766184399433,-1.4874986859475976,0.005988062992217702,0.2441477330112558,0.16435386601486973,4,left
17.84,0.5252634463134548,1.0222387415118837,-0.31058529071203694,1.3409730941302067,3.1219281277796127,-1.493323599815384,0.006537387978127595,0.24267872433503868,0.1649404873986858,4,left
17.887999999999998,0.5251986382211522,1.024015301803246,-0.31098138079844667,1.344131913034846,3.1270133771408735,-1.4990386104228384,0.0070625644477438805,0.2410770860016727,0.16527114478077928,4,left
17.889,0.5251781632070879,1.0258141052503151,-0.31138337663600885,1.3472733009798992,3.132001573136002,-1.5046364776009895,0.00756381322972067,0.23934624173755173,0.1653481939643599,4,left
17.89,0.5252016505134617,1.0276350679870647,-0.31179139067646094,1.3504242310724517,3.1368735810842256,-1.5101104822365194,0.008041296873890116,0.23749012948763149,0.16517475696688558,4,left
17.891,0.5252683914714652,1.0294780950803732,-0.312205540282724,1.3536091598669366,3.141611554303828,-1.515454442241528,0.008495117623499629,0.2355131752176612,0.16475471350993068,4,left
17.891,0.5253773500520069,1.0313430753562016,-0.31262594978338326,1.3568497286009278,3.1461989824660828,-1.520662726644635,0.008925316772831296,0.23342026244107156,0.16409269047566916,4,left
17.945999999999998,0.5255271761548377,1.033229876513808,-0.31305275273282207,1.3601645027625684,3.1506207306207696,-1.5257302713290801,0.009331875370315719,0.2312166979805379,0.1631940485282864,4,left
17.949,0.5257162209325992,1.0351383404464665,-0.31348609414612394,1.3635687548306796,3.1548630731340808,-1.5306525990656084,0.00971471615558158,0.2289081751971207,0.1620648639277814,4,left
17.95,0.5259425536621775,1.0370682785139143,-0.3139261323813937,1.367074292184336,3.1589137242378476,-1.5354258447947202,0.010073706535864025,0.22650073610008495,0.16071190305351093,4,left
17.951,0.5262039799455802,1.039019466352497,-0.31437304034020397,1.3706893308417794,3.162761865454022,-1.5400467856681632,0.010408662354089087,0.22400073287268107,0.1591425881066578,4,left
17.952,0.5264980613090463,1.0409916376222677,-0.31482700574006006,1.3744184158589539,3.1663981698301438,-1.5445128741633907,0.010719352214205436,0.22141478832693834,0.1573649538201867,4,left
17.973,0.5268221365965592,1.042984475895081,-0.3152882303438925,1.3782623894917245,3.169814822895522,-1.5488222720174714,0.011005502212216259,0.21874975461970536,0.15538759551362535,4,left
18.025,0.5271733456566469,1.044997604177286,-0.3157569282092245,1.3822184077174768,3.173005539862411,-1.552973883141707,0.011266801015592433,0.2160126699240682,0.15321960867807694,4,left
18.027,0.5275486553715237,1.0470305724884954,-0.31623332318554526,1.3862800040439314,3.1759655765900647,-1.556967383939998,0.01150290528224553,0.21321071299894878,0.15087052011802501,4,left
18.028,0.5279448873726943,1.049082844597293,-0.3167176458881399,1.3904371971432388,3.1786917281614397,-1.5608032486559067,0.011713445419881984,0.21035115564924303,0.14835021064427037,4,left
18.029,0.5283587464101326,1.0511537848649002,-0.3172101301954648,1.3946766376191444,3.181182306875102,-1.5644827667282697,0.011898031686488342,0.2074413130686507,0.14566882931179162,4,left
18.03,0.5287868483972342,1.053242645781424,-0.31771100914797995,1.3989817903911936,3.1834370935058938,-1.56800804989277,0.012056260653398529,0.20448849215665035,0.14283669931722998,4,left
18.08,0.5292257474503526,1.0553485567487573,-0.3182205101172764,1.4033331512968283,3.185457259380212,-1.5713820281308641,0.012187722156187826,0.20149993839833763,0.13986421627734041,4,left
18.083,0.5296719616268852,1.0574705147282168,-0.31873884921939927,1.4077084976883334,3.187245258862721,-1.5746084343250393,0.012292007045524809,0.19848278279107984,0.13676174070213196,4,left
18.084,0.5301219973748629,1.0596073772485461,-0.3192662250523336,1.412083173036964,3.1888046922609816,-1.577691777630532,0.012368716153904004,0.1954439907992458,0.13353948708312008,4,left
18.086,0.5305723728619506,1.0617578580352776,-0.3198028119172797,1.4164304050150491,3.1901401397260485,-1.5806373056360874,0.012417470790237863,0.19239031482073704,0.13020741140957776,4,left
18.087,0.5310196404009261,1.0639205253108133,-0.3203487527450032,1.4207216538186662,3.191256969587638,-1.5834509557002965,0.01243792486841313,0.18932825073785278,0.1267750980572017,4,left
18.105,0.5314604081817882,1.0660938026892055,-0.3209041519588398,1.424926982618587,3.192161129712028,-1.5861392964155359,0.012429778577798496,0.1862639985488639,0.12325164750986473,4,left
18.162,0.531891361522722,1.068275972546591,-0.3214690684782416,1.4290154393188421,3.192858933331407,-1.5887094604655256,0.012392793268539709,0.18320342683670082,0.11964556838487825,4,left
18.163,0.5323092839171023,1.0704651817252409,-0.32204350906878654,1.432955441284433,3.193356848287396,-1.591169069904472,0.012326806906286835,0.18015204075823868,0.11596467889952164,4,left
18.164,0.5327110781953075,1.0726594494050457,-0.3226274222606767,1.4367151584447222,3.193661295259772,-1.593526154703119,0.012231749141998675,0.1771149533267038,0.11221602277160057,4,left
18.165,0.5330937880262978,1.0748566769327497,-0.32322069304062406,1.440262890853615,3.193778460892099,-1.595789065782782,0.01210765498795732,0.17409685990709578,0.1084058030677279,4,left
18.166,0.5334546198028706,1.0770546592422496,-0.32382313849191124,1.4435674361992465,3.193714132932273,-1.5979663840788474,0.011954676409153143,0.17110201591744173,0.10453933584518227,4,left
18.219,0.5337909647885539,1.079251097240964,-0.3244345044823577,1.446598443884997,3.1934735627262842,-1.6000668267913245,0.011773091591774679,0.16813421774510437,0.10062102415014822,4,left
18.221,0.5341004212548435,1.0814436103848903,-0.3250544633156249,1.4493267543364026,3.1930613572005395,-1.6020991512892904,0.011563312028062126,0.16519678693672793,0.09665435199553384,4,left
18.221,0.5343808160916169,1.0836297487462485,-0.32568261204484306,1.4517247233174588,3.1924814006883815,-1.6040720567522184,0.011325887878091988,0.16229255781845303,0.09264189712064952,4,left
18.222,0.5346302249740906,1.0858070040946044,-0.32631847104167083,1.4537665313078152,3.191736806304104,-1.6059940837749276,0.011061512222647316,0.15942386875818543,0.08858536093934123,4,left
18.223,0.5348469899221486,1.0879728197576775,-0.32696148249957624,1.455428478205758,3.190829895087171,-1.6078735132660849,0.010771024667578542,0.15659255722671267,0.08448561447857007,4,left
18.239,0.5350297334005993,1.0901245993298323,-0.3276110088573214,1.4566892640066136,3.1897621984746327,-1.6097182679561428,0.010455414483376863,0.1537999587154218,0.08034275982126772,4,left
18.303,0.535177368744257,1.0922597147079443,-0.32826633154821694,1.4575302563194457,3.188534478179188,-1.6115358209338522,0.010115823309936307,0.15104690951339658,0.07615620696270835,4,left
18.304000000000002,0.5352891069337127,1.0943755143546177,-0.3289266507100962,1.4579357453695727,3.187146759029952,-1.6133331145269594,0.009753547425173856,0.1483337533374684,0.07192476580124921,4,left
18.305,0.5353644594584154,1.096469332839963,-0.32959108633785883,1.4578931862725601,3.1855983727154813,-1.615116490713668,0.009370039573613986,0.14566035181743492,0.06764675164731293,4,left
18.305999999999997,0.5354032367912739,1.0985385024777479,-0.3302586810375762,1.457393425774639,3.183888010441883,-1.61689163243389,0.00896691034649128,0.14302609885412368,0.06332010022802191,4,left
18.305999999999997,0.5354055423418512,1.100580367492105,-0.33092840437055193,1.4564309063349878,3.182013780283027,-1.6186635136632344,0.00854592910236871,0.14042993887661975,0.05894248682791121,4,left
18.33,0.5353717626946652,1.1025923005134564,-0.3315991587174837,1.4550038380487968,3.1799732635930407,-1.6204363553985612,0.008109024419699769,0.13787038901656148,0.05451144554286551,4,left
18.355999999999998,0.5353025563260693,1.1045717194062197,-0.3322697863777193,1.453114331283964,3.1777635662571644,-1.6222135854179875,0.007658284051969029,0.13534556521725072,0.050024486852332614,4,left
18.357,0.5351988439546562,1.1065161000857522,-0.3329390773407891,1.450768487178373,3.175381363087979,-1.6239978009635465,0.007195954232377436,0.13285321236231276,0.04547921216012768,4,left
18.358,0.5350618024827986,1.1084229817265618,-0.3336057773155567,1.4479764455186097,3.1728229350798576,-1.62579073420879,0.006724437948496216,0.13039073864277723,0.040873422616758213,4,left
18.358,0.5348928610141657,1.110289965727407,-0.3342685960538931,1.444752390048292,3.1700842000846885,-1.6275932207751593,0.006246291681165293,0.1279552544569583,0.036205218644594354,4,left
18.377,0.5346936948236343,1.1121147135748644,-0.33492621592907523,1.4411145115208404,3.167160740318379,-1.629405172854555,0.005764220227987678,0.12554361606219738,0.031473087478486955,4,left
18.435,0.5344662140909068,1.113894947287764,-0.33557730024262095,1.4370849292925412,3.164047835231683,-1.631225560824005,0.005281069455867872,0.1231524739390692,0.026675977717424283,4,left
18.437,0.5342125472433865,1.11562845265126,-0.3362205008508218,1.4326895725184832,3.1607405111253577,-1.6330524085319407,0.004799816938768408,0.12077832513927392,0.021813361166886352,4,left
18.438,0.5339350207951238,1.1173130839377938,-0.33685446532184765,1.4279580217448122,3.157233616042143,-1.6348828061420362,0.00432356043621477,0.11841756776813979,0.016885283136704822,4,left
18.438,0.5336361375158089,1.1189467692144501,-0.3374778439667771,1.4229233115849904,3.153521922695776,-1.636712941875114,0.003855504153712491,0.11606655513867234,0.011892402751852191,4,left
18.439,0.5333185534653845,1.12052751628051,-0.3380892966010784,1.4176216967870803,3.1496002561137546,-1.638538151610976,0.003398942740609562,0.11372164774818155,0.006836024440595744,4,left
18.493,0.5329850533210917,1.1220534197873968,-0.33868749849614943,1.4120923873435174,3.1454636362758275,-1.6403529831001538,0.002957243006806494,0.11137926233384159,0.0017181210572223514,4,left
18.495,0.5326385234333564,1.1235226696857252,-0.3392711450979211,1.4063772601823015,3.1411074227936298,-1.6421512704504817,0.0025338234037706694,0.1090359178787159,-0.003458651199365565,4,left
18.496,0.5322819227878584,1.1249335604226065,-0.3398389554445338,1.4005205531437581,3.136527452164067,-1.6439262155112637,0.002132131566551848,0.10668827856812912,-0.008690945503221591,4,left
18.497,0.5319182524879636,1.126284500143567,-0.3403896743959404,1.394568543818947,3.131720165212229,-1.6456704740948775,0.001755620660540376,0.10433319370621234,-0.013974723313584472,4,left
18.498,0.5315505241873874,1.127574019434605,-0.3409220737884606,1.3885692144257482,3.126682727841244,-1.6473762449158358,0.0014077255250965336,0.10196773460796672,-0.019305257555020293,4,left
18.572,0.5311817276030115,1.128800779271629,-0.3414349526298863,1.382571903792155,3.1214131501120823,-1.649035358708212,0.0010918393579075726,0.09958922847665803,-0.024677138624293375,4,left
18.573,0.5308147973114489,1.1299635776625163,-0.34192713649356316,1.3766269473136112,3.115910407198841,-1.650639365505187,0.0008112912369994263,0.0971952892663953,-0.030084282656651966,4,left
18.574,0.5304525794042941,1.1310613542590944,-0.3423974763021681,1.370785305607993,3.1101745624092385,-1.6521796186436064,0.000569324529077858,0.09478384552419657,-0.03551994196974978,4,left
18.575,0.5300977988493506,1.132093192311315,-0.3428448467163357,1.3650981829425828,3.104206889240348,-1.65364735367425,0.0003690761832987503,0.09235316520470405,-0.04097671770062231,4,left
18.576,0.5297530284522192,1.1330583177919362,-0.343268144395092,1.359616636798921,3.098009988098253,-1.6550337599199434,0.00021355690966857205,0.08990187745066706,-0.04644657465123672,4,left
18.577,0.5294206602490739,1.1339560960784532,-0.34366628645093605,1.3543911795960168,3.0915878943985073,-1.6563300429890757,0.00010563225135146024,0.08742899129394635,-0.05192085833172242,4,left
18.63,0.5291028799870845,1.134786026901126,-0.34403820942176766,1.3494713729705439,3.0849461767236175,-1.6575274775699822,4.800461010290026e-05,0.0849339110401637,-0.05739031405798918,4,left
18.631,0.5288016450676992,1.1355477382288937,-0.34438286902538984,1.3449054152387863,3.078092024582567,-1.658617450534349,4.3196373861323835e-05,0.08241644775522677,-0.06284510772204754,4,left
18.632,0.5285186660831429,1.1362409795359067,-0.3446992409008445,1.340739725452966,3.0710343244375213,-1.6595914951772477,9.353434695707913e-05,0.0798768261052428,-0.06827484775626859,4,left
18.632,0.5282553919567772,1.1368656146941052,-0.344986322486818,1.3370185326067725,3.0637837206875647,-1.6604413186569718,0.0002011356410572938,0.07731568611745303,-0.0736686081221175,4,left
18.633,0.5280129986810325,1.137421614660345,-0.34524313611029966,1.3337834814022067,3.0563526572017063,-1.6611588253841139,0.00036789510864340187,0.0747340799988799,-0.0790149527106147,4,left
18.707,0.5277923817486274,1.1379090501771623,-0.34546873323523886,1.331073263134717,3.0487553960898257,-1.6617361384224254,0.0005954743584910376,0.0721334644654973,-0.0843019618510181,4,left
18.709,0.5275941526041713,1.1383280848028874,-0.3456621996763498,1.328923275113566,3.0410080123743213,-1.662165619727772,0.000885292375482292,0.06951568894838278,-0.08951726147375422,4,left
18.71,0.527418639563616,1.1386789685625844,-0.34582266151372254,1.3273653091794722,3.0331283643217466,-1.6624398893645518,0.0012385177540396879,0.06688297981896461,-0.0946480551551548,4,left
18.711,0.5272658933114219,1.1389620323431129,-0.34594929149552267,1.3264272693118189,3.0251360394126388,-1.662551843701216,0.0016560625473064855,0.06423792065081765,-0.09968115909453079,4,left
18.712,0.5271356963815637,1.1391776829981815,-0.34604131575022373,1.3261329185885349,3.0170522762506202,-1.66249467270657,0.0021385777329084085,0.061583428510492665,-0.10460304003853822,4,left
18.714000000000002,0.5270275755205601,1.1393263990632805,-0.34609802053213284,1.3265016571094927,3.0088998643279794,-1.6622618770703674,0.0026864502844275344,0.0589227263654656,-0.10939985629956718,4,left
18.766,0.5269408159049481,1.139408726923662,-0.3461187586282881,1.3275483349189519,3.000703026474305,-1.6618472869553667,0.0032998017784736365,0.05625931217547909,-0.1140575026747038,4,left
18.768,0.5268744766580777,1.1394252770560458,-0.3461029550835872,1.3292831053104592,2.992487290430979,-1.6612450847898161,0.0039784883657789415,0.053596926027338884,-0.11856166120734266,4,left
18.769000000000002,0.5268274075447231,1.1393767195523534,-0.3460501119586768,1.3317113225767874,2.9842793543953854,-1.6604498337720037,0.004722101902139894,0.0509395168165333,-0.12289786013160156,4,left
18.769000000000002,0.5267982669441756,1.1392637778772976,-0.3459598118673778,1.3348334859631112,2.976106948557517,-1.6594565120011566,0.005529972142598926,0.04829120889799993,-0.1270515422081922,4,left
18.77,0.5267855413793713,1.139087219999907,-0.34583172014239355,1.3386452304474115,2.9679986931946836,-1.658260550335263,0.006401170036059892,0.045656267932672405,-0.1310081422101127,4,left
18.83,0.5267875670375946,1.1388478465981193,-0.34566558569646105,1.3431373648214484,2.9599839536554122,-1.6568578712826711,0.0073345121905063464,0.043039065013132795,-0.13475317291761038,4,left
18.832,0.5268025534694541,1.1385464768190596,-0.3454612408722243,1.3482959574310476,2.952092692475072,-1.655244926906456,0.008328566543109593,0.04044403865889314,-0.13827231932031744,4,left
18.833,0.5268286088688714,1.1381839327305805,-0.34521860059823933,1.3541024697265343,2.944355318706371,-1.6534187349308613,0.009381659243054695,0.0378756546067666,-0.14155154098556136,4,left
18.843,0.526863765679942,1.1377610236884252,-0.34493766095034023,1.360533937659513,2.9368025344595075,-1.6513769129112306,0.010491882767968584,0.0353383634897868,-0.14457718247168322,4,left
18.845,0.5269060053726073,1.137278531555826,-0.34461849701645536,1.3675632009407694,2.929465178629358,-1.6491177104627877,0.01165710538603797,0.032836557003035914,-0.14733609100507697,4,left
18.846,0.5269532818462849,1.1367371974900369,-0.34426125996286533,1.375159179923066,2.922374067351638,-1.646640039379046,0.012874982239927479,0.030374524063526687,-0.14981573945192536,4,left
18.904,0.5270035434523472,1.136137710865472,-0.3438661732909769,1.383287197996115,2.91555982917072,-1.6439435007027483,0.014142968419801777,0.027956408976211242,-0.15200435195540807,4,left
18.905,0.5270547538178919,1.1354807007183785,-0.3434335283181967,1.3919093420372222,2.909052732078111,-1.6410284065989744,0.015458334278591657,0.025586173093379627,-0.15389103005464083,4,left
18.906,0.5271049116156014,1.134766729914978,-0.34296367890919194,1.4009848466728545,2.9028825029797662,-1.637895794533176,0.016818182962483445,0.02326756044575062,-0.15546587722173275,4,left
18.906,0.5271520693402425,1.1339962921385163,-0.3424570354691391,1.4104704863024906,2.8970781454296386,-1.6345474323392724,0.018219469829100575,0.02100406713818592,-0.1567201184929684,4,left
18.907,0.5271943511116747,1.1331698117800963,-0.34191405823198323,1.4203209641830312,2.8916677622920615,-1.6309858139749571,0.019659023291318148,0.018798914101762133,-0.1576462109350306,4,left
18.974,0.5272299695423645,1.1322876468280048,-0.34133524996694287,1.4304892946631995,2.8866783865980596,-1.6272141461069978,0.021133566741236565,0.016655022894449017,-0.15823794175240619,4,left
18.975,0.5272572418128972,1.131350094755485,-0.3407211483809719,1.440927177981136,2.882135821198761,-1.6232363255695343,0.022639741418583485,0.014574994423459066,-0.15849051276021728,4,left
18.976,0.5272746052714055,1.1303574011460464,-0.3400723186555076,1.4515853676533816,2.8780644872004144,-1.6190569076851598,0.02417413020438089,0.012561090562866754,-0.15840061101190048,4,left
18.98,0.5272806329476686,1.1293097704449147,-0.33938934660612885,1.4624140304843591,2.8744872811667475,-1.6146810654379482,0.02573328228270132,0.010615218649360398,-0.15796646548891538,4,left
18.980999999999998,0.5272740492127345,1.128207377999573,-0.3386728327960421,1.4733630992262272,2.8714254410756537,-1.6101145394870204,0.027313738306404746,0.008738918784253891,-0.15718788928615007,4,left
18.982,0.5272537454860233,1.127050382615941,-0.33792338763133667,1.4843826177827848,2.8688984213618363,-1.6053635790897232,0.028912055150186227,0.006933353771221223,-0.15606630587513493,4,left
19.04,0.5272187955258559,1.125838939112598,-0.337141627199435,1.4954230781673745,2.8669237790947286,-1.6004348744083412,0.030524829027312447,0.005199301464492773,-0.15460475755364816,4,left
19.041,0.5271684694866816,1.1245732105880917,-0.3363281695013894,1.5064357471935232,2.8655170764318467,-1.595335481403406,0.03214871605350968,0.003537149357370036,-0.152807894661853,4,left
19.042,0.5271022456990014,1.123253380261671,-0.3354836307978283,1.5173729801930465,2.8646918062055566,-1.5900727409215423,0.033780449929336855,0.0019468913454563348,-0.15068194511254063,4,left
19.043,0.5270198192831651,1.1218796628738439,-0.33460862202118447,1.5281885197406189,2.864459345786518,-1.5846541931798799,0.035416856895330064,0.0004281266815499367,-0.14823466484382442,4,left
19.043,0.5269211072638921,1.1204523158105315,-0.3337037455380513,1.538837778642633,2.8648289409598364,-1.5790874883433674,0.0370548684922392,-0.0010199388002984763,-0.14547527095674329,4,left
19.08,0.5268062503570123,1.118971650342003,-0.33276959283060675,1.5492781073688204,2.8658077182376807,-1.573380294607932,0.03869153283458794,-0.0023984890864307243,-0.14241435988849238,4,left
19.081,0.5266756116348601,1.117438043548795,-0.33180674371135055,1.5594690466675996,2.8674007208148637,-1.5675402071413627,0.0403240249299142,-0.0037090919330162596,-0.13906381238187687,4,left
19.105999999999998,0.5265297719949117,1.1158519515859648,-0.33081576743674285,1.5693725663423108,2.869610961777975,-1.5615746623558462,0.04194965625945537,-0.004953690334529209,-0.13543668595012687,4,left
19.117,0.526369522413495,1.1142139247336345,-0.32979722570746445,1.5789532909282324,2.8724394897780203,-1.555490860863206,0.04356588366015158,-0.0061345915097457855,-0.13154709494614708,4,left
19.118,0.5261958538126258,1.1125246235081574,-0.3287516771372623,1.588178712583568,2.8758854652540133,-1.5492957004430477,0.04517031751633145,-0.007254453378261594,-0.12741007847212313,4,left
19.119,0.5260099464635004,1.1107848329123744,-0.3276796823631681,1.5970193907442567,2.8799462467376653,-1.5429957191687322,0.04676072928782912,-0.008316268346491172,-0.12304145759221534,4,left
19.167,0.5258131610553564,1.1089954706621934,-0.3265818088750613,1.605449135414906,2.8846174863073135,-1.5365970482989537,0.048335058434380664,-0.00932334394500285,-0.11845768551999826,4,left
19.169,0.5256070324460866,1.107157586936956,-0.3254586352051209,1.613445166234413,2.8898932318509507,-1.5301053739802448,0.04989141881451809,-0.010279279705019028,-0.11367569567919446,4,left
19.186,0.5253932653642752,1.1052723571315843,-0.3243107549697521,1.620988236824442,2.895766033016689,-1.5235259064931372,0.05142810458208139,-0.011187939842988468,-0.10871275147735812,4,left
19.187,0.5251737300262131,1.1033410723885075,-0.32313878153163317,1.6280627165570578,2.902227048514041,-1.5168633560867149,0.05294359538702548,-0.012053421735878615,-0.10358630026871704,4,left
19.188,0.5249504554152634,1.1013651327056826,-0.32194335348152314,1.6346566269049139,2.909266154091345,-1.510121915184035,0.054436560338855966,-0.012880020570085863,-0.09831383427854398,4,left
19.238,0.5247256186761172,1.0993460442897576,-0.3207251404129454,1.6407616336435369,2.916872052550624,-1.50330524793232,0.05590586000401916,-0.013672190714467056,-0.09291276186223972,4,left
19.239,0.524501530201272,1.0972854198512811,-0.3194848483445335,1.6463729993604028,2.925032389571165,-1.4964164897168928,0.05735054589178274,-0.014434504230900914,-0.08740029162498957,4,left
19.244,0.5242806151229366,1.0951849801226632,-0.31822322458018626,1.6514895023376277,2.9337338799325594,-1.4894582599313058,0.058769857212967944,-0.015171606689128758,-0.08179333040310492,4,left
19.244,0.5240653924120877,1.0930465559815727,-0.31694106206743533,1.656113327072354,2.9429624453129604,-1.482432689388125,0.06016321487909775,-0.015888170315554298,-0.07610839526094144,4,left
19.244,0.5238584522088716,1.0908720913331704,-0.3156392030857341,1.6602499302551093,2.9527033586900258,-1.4753414603206545,0.06153021275962941,-0.01658884457330781,-0.07036153938600696,4,left
19.307000000000002,0.5236624310560102,1.0886636469603304,-0.31431854180056934,1.6639078852236548,2.9629413869569725,-1.4681858550179057,0.06287060628246618,-0.017278204746334874,-0.06456829125666531,4,left
19.308,0.5234799844414926,1.086423405275739,-0.3129800252861892,1.66709870693602,2.9736609252831805,-1.4609668099874626,0.06418429858454733,-0.017960699956159683,-0.058743605542333655,4,left
19.308,0.5233137566139897,1.0841536755134626,-0.31162465297783054,1.66983665828677,2.9848461206484647,-1.4536849743917934,0.06547132448683864,-0.01864060251545434,-0.05290182368795676,4,left
19.322,0.5231663482406966,1.0818568985065673,-0.31025347482742505,1.6721385379124136,2.996480984147268,-1.4463407725317803,0.06673183255098962,-0.019321960054616345,-0.04705664253702069,4,left
19.324,0.5230402825604628,1.0795356500838797,-0.30886758849236146,1.674023449544307,3.008549492352834,-1.4389344701994553,0.06796606560626077,-0.020008551039740797,-0.04122108973495218,4,left
19.326,0.522937970464948,1.077192642383202,-0.30746813576573495,1.67551255321197,3.0210356793292483,-1.4314662439353867,0.06917434052321522,-0.020703843893515178,-0.03540750421474044,4,left
19.373,0.5228616749019375,1.074830722721222,-0.30605629834392006,1.6766287990409992,3.033923723214252,-1.4239362508105202,0.07035702825016583,-0.021410959873616135,-0.0296275196415858,4,left
19.375,0.5228134753140052,1.072452869841924,-0.30463329301647696,1.6773966446344073,3.04719803259346,-1.416344695565734,0.07151453487520085,-0.022132639825048598,-0.02389204922001388,4,left
19.381,0.5227952332443871,1.0700621875514709,-0.3032003664673746,1.6778417567792474,3.060843336591316,-1.4086918927285594,0.07264728402097066,-0.022871214854215473,-0.01821127121484991,4,left
19.382,0.5228085603139532,1.0676618961030186,-0.30175879002575573,1.677990697776794,3.074844780271586,-1.400978322741791,0.0737557006223971,-0.023628580998367135,-0.012594615048364158,4,left
19.383,0.5228547894044828,1.0652553219858742,-0.300309854762317,1.677870596653586,3.089188025232667,-1.3932046818841188,0.0748401960674965,-0.024406178276395782,-0.007050747862414542,4,left
19.441,0.522934949415334,1.0628458867233366,-0.2988548672405195,1.6775088064899237,3.1038593529641827,-1.3853719257160406,0.07590115464673565,-0.02520497508281796,-0.0015875612924887747,4,left
19.442,0.5230497436763939,1.0604370950297362,-0.2973951461052248,1.6769325509544517,3.1188457648233188,-1.3774813054169994,0.07693892123699055,-0.02602545920674734,0.0037878418782017844,4,left
19.442999999999998,0.5231995320271278,1.0580325225494887,-0.29593201960997945,1.6761685641620643,3.1341350704297524,-1.3695343961755664,0.07795379016538817,-0.02686763643781108,0.009069161437284173,4,left
19.46,0.5233843166907969,1.0556358034929565,-0.2944668240677896,1.675242726942297,3.1497159583395478,-1.361533116998276,0.07894599524399189,-0.027731037033582377,0.014250913859708489,4,left
19.461,0.5236037323136485,1.0532506186216886,-0.29300090301499826,1.6741797007518637,3.1655780465683536,-1.3534797416696935,0.07991570104073584,-0.028614729445206266,0.019328446342580286,4,left
19.461,0.5238570406536049,1.0508806840078058,-0.2915356067669519,1.6730025600735092,3.181711912706238,-1.3453769009800205,0.08086299555522286,-0.0295173396294842,0.024297949496525768,4,left
19.507,0.5241431302160039,1.048529740781757,-0.2900722921305831,1.6717324271291358,3.1981091043322656,-1.337227577276827,0.08178788452316761,-0.030437073717691936,0.02915646700583225,4,left
19.509,0.5244605207314785,1.0462015458691918,-0.2886123221920878,1.6703881184806475,3.2147621314327517,-1.329035094016688,0.08269028751796921,-0.031371742369513615,0.033901900994967135,4,left
19.518,0.5248073719007671,1.0438998636162338,-0.2871570661675099,1.6689858162837503,3.231664443080725,-1.320803103892002,0.08357003588896413,-0.03231878615804598,0.038533012487339084,4,left
19.519000000000002,0.5251814954879972,1.0416284581560538,-0.2857078992934758,1.6675387737675422,3.2488103900820917,-1.3125355782084989,0.08442687237336252,-0.03327530195505635,0.04304941617942649,4,left
19.52,0.5255803698794036,1.0393910863107931,-0.28426620270445035,1.6660570589959278,3.2661951745395603,-1.3042367985665835,0.08526045194271008,-0.03423807051456467,0.047451567779662876,4,left
19.573,0.5260011566042647,1.037191490729117,-0.28283336321823377,1.6645473389210177,3.2838147879327573,-1.295911350985461,0.08607034329740167,-0.035203585517985074,0.051740741573062556,4,left
19.575,0.5264407187728599,1.0350333927415556,-0.2814107729234399,1.663012707163717,3.3016659413620837,-1.2875641224029377,0.0868560305699577,-0.03616808427895847,0.05591899646032183,4,left
19.579,0.5268956418222862,1.0329204840531605,-0.2799998284235017,1.661452560103042,3.31974599280397,-1.2792002994692568,0.08761691506275664,-0.03712758018879091,0.05998912977834878,4,left
19.595,0.5273622572382369,1.030856416323494,-0.278601929604814,1.6598625247091647,3.338052875026449,-1.2708253695677016,0.08835231701659275,-0.038077896911654995,0.06395461888877838,4,left
19.597,0.5278366697045012,1.0288447883589535,-0.27721847791874954,1.6582344394915134,3.3565850256556407,-1.262445124020653,0.08906147755327648,-0.03901470429251128,0.06781955109756187,4,left
19.598,0.5283147874658707,1.0268891315191262,-0.2758508742626054,1.6565563884799406,3.375341319561765,-1.2540656633468492,0.08974356114686523,-0.039933555880983664,0.0715885432950308,4,left
19.64,0.5287923550884533,1.0249928941089326,-0.2745005164451761,1.6548127863936593,3.3943210028780775,-1.2456934039017298,0.09039765909550719,-0.04082992794122518,0.0752666531647694,4,left
19.642,0.5292649875476837,1.0231594251183773,-0.2731687960373073,1.6529845103914644,3.4135236268579603,-1.237335084266606,0.09102279434833714,-0.041699259850942604,0.07885928335010874,4,left
19.654,0.5297282045727898,1.0213919574217696,-0.2718570943677437,1.651049072262672,3.432948979160057,-1.2289977692156864,0.09161792783034313,-0.04253699585240421,0.08237207914016056,4,left
19.656,0.5301774643584977,1.0196935907118554,-0.27056677758062586,1.6489808264519479,3.4525970107679718,-1.2206888496267265,0.09218196627837899,-0.04333862808343083,0.08581081992541122,4,left
19.657,0.5306081960875103,1.0180672747359456,-0.2692991908864172,1.6467512121524053,3.4724677575303406,-1.2124160376201163,0.09271377151694245,-0.04409974048327047,0.08918130531878225,4,left
19.706,0.5310158310196419,1.016515793464397,-0.2680556522336724,1.644329029636987,3.492561254272966,-1.2041873565124204,0.09321217099249121,-0.044816052556785994,0.09248923816619654,4,left
19.708,0.5313958320691792,1.0150417506449216,-0.2668374455693621,1.6416807520281256,3.5128774365871487,-1.196011124853758,0.09367596932400203,-0.04548346164062572,0.09574010740845414,4,left
19.732,0.5317437219055063,1.013647557044092,-0.2656458137805082,1.6387708733217787,3.5334160242702914,-1.1878959335877568,0.09410396068836296,-0.04609808265458674,0.09893907301804762,4,left
19.733,0.5320551097866113,1.012335419623754,-0.26448195142125625,1.635562289152117,3.5541763846565053,-1.1798506156326793,0.09449494196885436,-0.04665628493263261,0.10209085390600561,4,left
19.734,0.5323257174952116,1.0111073328135092,-0.26334699738735756,1.63201669898983,3.575157381745446,-1.1718842076499962,0.09484772662559894,-0.04715472607471194,0.10519961913756277,4,left
19.734,0.5325514047672355,1.0099650719079905,-0.26224202773670174,1.6280950141370036,3.596357221299253,-1.1640059040265895,0.09516115910768759,-0.04759038286414561,0.10826888355697457,4,left
19.774,0.5327281945022024,1.008910188515457,-0.261168048843868,1.6237577597275232,3.6177732997980256,-1.1562250031199397,0.09543412935429861,-0.04796057935970465,0.11130141055833509,4,left
19.775,0.5328522979160549,1.0079440078897455,-0.2601259910245551,1.6189654660100212,3.6394020604464044,-1.1485508457724112,0.09566558678075247,-0.0482630123071715,0.11429912564839617,4,left
19.792,0.5329201396701163,1.0070676278374369,-0.25911670270179826,1.6136790481142602,3.661238857104346,-1.1409927462696907,0.09585455329659762,-0.04849577397915595,0.11726304353800636,4,left
19.793,0.5329283828912618,1.006281918778897,-0.2581409451340931,1.6078601742745058,3.6832778279443965,-1.1335599168780643,0.09600013516791456,-0.04865737245962486,0.12019320994325249,4,left
19.794,0.5328739539303128,1.0055875245687078,-0.25719938768686623,1.6014716224612984,3.705511783249578,-1.1262613888310598,0.09610153365180282,-0.04874674921552076,0.12308865877426435,4,left
19.83,0.5327540666754784,1.004984863781697,-0.25629260358411415,1.5944776253600306,3.7279321132172623,-1.1191059336004967,0.09615805429747994,-0.04876329354198974,0.1259473859389322,4,left
19.84,0.5325662460979468,1.004474131171896,-0.25542106600830916,1.5868442036447912,3.750528720184313,-1.1121019873231621,0.09616911477292704,-0.04870685332948749,0.1287663413949322,4,left
19.87,0.532308350403298,1.0040552989248797,-0.25458514437171514,1.578539487374048,3.7732899768037016,-1.1052575795374917,0.09613425111125933,-0.04857774173887386,0.13154144067710782,4,left
19.871,0.5319785909502253,1.0037281173239627,-0.2537851006346415,1.5695340246390554,3.796202708880413,-1.098580266512413,0.09605312235812982,-0.04837673967012312,0.13426759627328658,4,left
19.872,0.531575549240174,1.0034921145974314,-0.2530210856715311,1.5598010753264118,3.819252198814798,-1.092077069422883,0.09592551375467769,-0.04810509430430619,0.136938768202145,4,left
19.872,0.5310981906720326,1.0033465959487062,-0.2522931358435061,1.5493168871487486,3.842422204229741,-1.0857544177186607,0.09575133880980434,-0.04776451448704403,0.1395480319617706,4,left
19.906,0.5305458750589284,1.0032906420939567,-0.2516011701517125,1.5380609518010429,3.8656949877306963,-1.0796180979417829,0.09553064073339086,-0.04735716397761534,0.1420876614043224,4,left
19.93,0.5299183639116729,1.0033231080029474,-0.25094498852481406,1.5260162403679136,3.889051356218071,-1.0736732080839315,0.09526359359090955,-0.04688565325511819,0.14454922448099627,4,left
19.930999999999997,0.5292158243180877,1.0034426227477966,-0.2503242717435803,1.513169417810635,3.9124707095440363,-1.0679241174838507,0.09495050336209311,-0.046353029729785576,0.14692368978420486,4,left
19.932000000000002,0.5284388292394988,1.0036475912876737,-0.2497385832576588,1.4995110365014928,3.9359310985805767,-1.0623744322471964,0.0945918090306446,-0.045762765263643965,0.14920154040952155,4,left
19.933,0.5275883543920268,1.0039361988226405,-0.24918737292334756,1.4850357084072452,3.9594092927203985,-1.0570269662544711,0.0941880838429205,-0.04511873947132175,0.1513728906616288,4,left
19.973,0.5266657723686308,1.0043064180375303,-0.2486699824798443,1.4697422537030882,3.9828808566053264,-1.0518837182368637,0.09374003683871338,-0.04442521765360078,0.15342760224896354,4,left
19.974,0.5256728451375132,1.0047560185356519,-0.24818565211650703,1.453633820323702,4.006320235468014,-1.0469458561448752,0.09324851469471414,-0.04368682290366998,0.15535539862873923,4,left
20.007,0.5246117164686661,1.0052825761445228,-0.24773352704592355,1.4367179671375592,4.029700848245684,-1.0422137104488012,0.09271450388643078,-0.04290850230784794,0.15714597728441926,4,left
20.009,0.5234849050736823,1.0058834799158405,-0.24731266361459942,1.4190067052463875,4.052995187851768,-1.0376867775971128,0.0921391331203766,-0.042095487314336086,0.1587891197694145,4,left
20.01,0.5222952964904654,1.0065559379063809,-0.24692203599840104,1.4005164951818603,4.076174928400101,-1.033363734114885,0.0915236757537065,-0.0412532487211551,0.16027479848987192,4,left
20.01,0.521046129854837,1.0072969855504683,-0.2465605449242342,1.3812681998494638,4.0992110398066695,-1.0292424614856601,0.0908695514962422,-0.040387447414199,0.16159327765005327,4,left
20.041,0.5197409777285149,1.0081034989342348,-0.24622702839504373,1.361286994741495,4.122073912255587,-1.025320082249362,0.09017832645519853,-0.0395038823639611,0.16273520492284016,4,left
20.065,0.5183837205902987,1.0089722120709357,-0.24592027311528947,1.3406022395132073,4.144733495937456,-1.021593008198466,0.08945171081731797,-0.03860843701168344,0.16369169126798952,4,left
20.067,0.5169785185236196,1.0098997362848543,-0.24563902573736623,1.319247317400141,4.167159459944693,-1.0180570008295655,0.08869155389079583,-0.0377070245627159,0.16445437795649034,4,left
20.067,0.5155297815114299,1.0108825806555468,-0.24538200405314659,1.2972594495778618,4.189321365819888,-1.0147072418620844,0.087899836492127,-0.03680553266208846,0.16501549115556932,4,left
20.067999999999998,0.5140421386725822,1.011917173204829,-0.24514790834046762,1.2746794902796517,4.211188844083262,-1.0115384098710252,0.087078660760828,-0.03590976845470001,0.16536788538556016,4,left
20.105999999999998,0.5125204062040131,1.0129998827420112,-0.24493543243366345,1.251551706099588,4.232731763587776,-1.0085447598068449,0.08623023751323873,-0.035025405367497486,0.16550507759545796,4,left
20.108,0.5109695536168658,1.0141270412808505,-0.2447432737573703,1.2279235407085658,4.253920389517848,-1.0057202040764206,0.08535687121817088,-0.03415793261603115,0.1654212731672404,4,left
20.145,0.5093946681005901,1.015294966711118,-0.24457014189613557,1.2038453651335963,4.274725529386494,-1.0030583949565894,0.08446094268229318,-0.03331260783800142,0.16511138447260124,4,left
20.146,0.5078009172114484,1.0164999850770284,-0.2444147657568923,1.1793702135340445,4.295118667092721,-1.0005528083316504,0.08354488978586587,-0.032494412937414695,0.16457104266522765,4,left
20.147000000000002,0.5061935102051685,1.017738451722844,-0.24427589954833767,1.1545535044070345,4.315072085099969,-0.998196828746698,0.08261118710975986,-0.03170801318473892,0.16379660419716405,4,left
20.148,0.5045776583089938,1.0190067707560408,-0.24415232772341813,1.1294527470994913,4.33455897514817,-0.9959838356065066,0.0816623255757771,-0.03095771963446961,0.16278515404342167,4,left
20.166,0.5029585342943089,1.0203014124629437,-0.2440428689423042,1.1041272332357595,4.353553539675096,-0.9939072895370089,0.08070079294108541,-0.03024745490563747,0.1615345071220679,4,left
20.201,0.5013412318760335,1.0216189283601467,-0.24394637910226016,1.0786377124049693,4.372031088941205,-0.9919608164528587,0.07972905548146604,-0.02958072234215627,0.16004320850308193,4,left
20.202,0.4997307256139287,1.02295596357258,-0.243861753536393,1.053046052271622,4.389968138835684,-0.9901382860099949,0.07874954091624571,-0.028960578618014113,0.15831053252516225,4,left
20.203,0.4981318320064703,1.0243092662928033,-0.24378792853615386,1.0274148854971379,4.40734250937262,-0.9884338818422715,0.07776462256833168,-0.028389610169027652,0.1563364809539463,4,left
20.203,0.49654917235677093,1.0256756942670398,-0.24372388237107692,1.0018072474284427,4.424133418929562,-0.9868421623933467,0.07677660474700283,-0.027869914408631197,0.1541217805199973,4,left
20.241,0.4949871379220568,1.027052218595702,-0.24366863602660296,0.9762862076892614,4.440321569294341,-0.9853581120203534,0.07578770933790017,-0.027403087005099216,0.15166788028843542,4,left
20.28,0.49344985783814305,1.0284359254955608,-0.243621253970702,0.9509144969056318,4.455889219434699,-0.9839771823022107,0.07480006358783149,-0.02699021617794732,0.1489769491971846,4,left
20.281,0.4919411701629499,1.0298240168057309,-0.24358084529791704,0.9257541287097141,4.470820247682961,-0.9826953235376136,0.07381568907773232,-0.02663188439577452,0.14605187389453203,4,left
20.282,0.49046459619414756,1.0312138098716972,-0.24354656549747222,0.900866016948716,4.485100202382273,-0.9815090064284314,0.07283649188030956,-0.02632817753816667,0.14289625689179875,4,left
20.283,0.48902331828226514,1.0326027372371198,-0.24351761885542864,0.8763095880261786,4.49871634103905,-0.9804152339445384,0.07186425391152401,-0.026078701443024887,0.1395144149769617,4,left
20.284000000000002,0.4876201616633007,1.0339883464867359,-0.2434932612726224,0.8521423888710979,4.5116576580047685,-0.9794115435082056,0.0709006255450232,-0.02588260537358005,0.13591137760222216,4,left
20.305999999999997,0.4862575809703729,1.0353683005317686,-0.24347280323465245,0.8284196938692366,4.523914900609513,-0.9784960003455502,0.06994711966655297,-0.02573861124244622,0.13209288453993864,4,left
20.329,0.48493765179695025,1.0367403785142806,-0.24345561279780986,0.8051941192005154,4.535480573490018,-0.9776671841291792,0.0690051074053417,-0.025645047042962762,0.12806538186851935,4,left
20.338,0.48366206716884724,1.0381024773814649,-0.24344111860314468,0.7825152558655943,4.546348930754153,-0.9769241717455144,0.06807581569753568,-0.025599883254658774,0.12383601544085678,4,left
20.34,0.4824321384041744,1.039452614111061,-0.2434288130052271,0.7604293300729685,4.556515955941459,-0.9762665183877764,0.067160326618918,-0.02560077133275505,0.1194126207024215,4,left
20.340999999999998,0.4812487997838315,1.0407889285452492,-0.24341825540189185,0.7389788956760016,4.565979331019091,-0.9756942382811351,0.06625957816628145,-0.025645083141583574,0.11480370669273018,4,left
20.373,0.4801126165710722,1.0421096867576094,-0.243409075808719,0.71820256253824,4.574738397736363,-0.9752077863246479,0.06537436604490043,-0.025729949915262715,0.1100184314069956,4,left
20.399,0.4790237959132775,1.043413284736766,-0.24340097863910032,0.69813476526469,4.582794115782761,-0.9748080421746902,0.06450534612955894,-0.025852299683229933,0.10506656639697476,4,left
20.402,0.47798220008534753,1.044698251776273,-0.24339374648316695,0.6788055756132935,4.590149021088352,-0.9744962979131727,0.06365303746458188,-0.026008892735794903,0.09995844975447708,4,left
20.416,0.47698736182042467,1.045963252290656,-0.24338724346154533,0.6602405598007496,4.596807185586488,-0.9742742496843709,0.06281782577833439,-0.026196355059124037,0.09470492732325375,4,left
20.418,0.4760385021786938,1.047207084218601,-0.24338141763386292,0.6424606804108255,4.602774178502938,-0.9741439929390134,0.06199996751771024,-0.026411209811276006,0.08931728216589836,4,left
20.419,0.47513455186157844,1.0484286723659648,-0.24337630208279917,0.6254822417013756,4.608057028743092,-0.9741080201933883,0.06119959444826205,-0.02664990726738224,0.08380715251610694,4,left
20.44,0.47427417650266157,1.049627056218242,-0.2433720146012081,0.6093168767257058,4.612664187797045,-0.9741692198477055,0.06041671893782546,-0.02690885430363158,0.07818643881372832,4,left
20.476,0.4734558055060379,1.0508013733333643,-0.24336875619396653,0.5939715750689317,4.616605492730243,-0.9743308749719989,0.05965124008853937,-0.02718444475749986,0.07246720076891193,4,left
20.477999999999998,0.47267766317784404,1.051950840327147,-0.24336680866770324,0.5794487506912591,4.619892129095066,-0.9745966616229332,0.058902950876716036,-0.027473091201991203,0.06666154592262112,4,left
20.479,0.4719378006311669,1.0530747331579278,-0.24336653138953915,0.5657463497552092,4.622536593746652,-0.9749706466189414,0.05817154645016703,-0.027771257232180505,0.06078151210882226,4,left
20.48,0.4712341271163245,1.054172367610055,-0.243368357056456,0.5528579983058678,4.624552657036971,-0.9754572846293887,0.057456633727142575,-0.02807548856265211,0.05483894674468912,4,left
20.506999999999998,0.4705644397921286,1.0552430805032467,-0.24337278623503905,0.5407731892413848,4.625955321172599,-0.9760614137098741,0.05675774239848893,-0.02838244160655818,0.04884538510860256,4,left
20.553,0.4699264514642456,1.0562862122318013,-0.2433803805402472,0.5294775072317185,4.626760766683783,-0.9767882471131004,0.05607433737242384,-0.028688909005106608,0.042811928459652066,4,left
20.555,0.4693178163631654,1.0573010913200398,-0.24339175453016057,0.5189528898117398,4.626986276263904,-0.9776433584811887,0.055405832639514895,-0.028991842062475924,0.03674912236624278,4,left
20.555999999999997,0.46873615434776467,1.0582870216109743,-0.2434075665564276,0.5091779233113228,4.626650127923361,-0.9786326582495277,0.05475160639218684,-0.02928837034385428,0.030666836663941113,4,left
20.557,0.4681790739214494,1.0592432725206793,-0.2434285088501974,0.5001281730688817,4.625771454236223,-0.9797623603956009,0.05411101698763077,-0.029575819079532474,0.02457415061856759,4,left
20.558000000000003,0.4676441943419194,1.0601690725435153,-0.2434552971110333,0.49177654708513036,4.624370067884384,-0.9810389393536474,0.05348341920664348,-0.029851725231989628,0.018479248068232573,4,left
20.573,0.46712916708170416,1.0610636059687157,-0.24348865988547605,0.4840936887323234,4.622466257946741,-0.9824690768770109,0.05286818039735353,-0.030113852868873536,0.012389326120179902,4,left
20.612,0.4666316969401702,1.0619260126058252,-0.24352932806868605,0.4770483876014022,4.620080568051931,-0.9840595982989269,0.05226469633832744,-0.030360208099518598,0.006310518822280801,4,left
20.613000000000003,0.4661495631488926,1.0627553901632127,-0.24357802492061678,0.47060799394096464,4.617233571218736,-0.9858173974587539,0.05167240674323645,-0.030589053575160684,0.0002478361291633376,4,left
20.614,0.46568064081361793,1.0635507987545942,-0.2436354570095621,0.4647388257743976,4.613945652499769,-0.9877493497452652,0.051090810112888886,-0.030798922293004818,-0.005794881266958288,4,left
20.614,0.4652229229181857,1.0643112668725383,-0.24370230637483123,0.45940656427676846,4.61023680426939,-0.9898622132225814,0.05051947720182745,-0.030988630053367553,-0.011814989789342024,4,left
20.64,0.4647745428506951,1.0650357980974376,-0.24377922394169393,0.45457663641786783,4.606126437285274,-0.9921625188989819,0.049958062123034455,-0.031157285701905513,-0.017811051572585914,4,left
20.691,0.46433379710285766,1.0657233778242037,-0.24386682396708143,0.45021458425633554,4.601633213115928,-0.99465645307772,0.04940631035800741,-0.031304298506048274,-0.023782822349794567,4,left
20.691999999999997,0.46389916756556543,1.0663729794152954,-0.24396567914464803,0.44628642018486775,4.596774903578983,-0.9973497366572004,0.048864063435124616,-0.031429382415204994,-0.029731218177413324,4,left
20.693,0.46346934276962404,1.0669835693832583,-0.2440763159823024,0.442758967853136,4.591568277339698,-1.0002475071702894,0.0483312605678767,-0.031532557219510884,-0.035658261616774475,4,left
20.694000000000003,0.4630432374133837,1.0675541113761484,-0.2441992101667085,0.4396001889907586,4.586029008280742,-1.0033542087327836,0.04780793810619657,-0.03161414675182283,-0.04156700913887282,4,left
20.695,0.4626200094506013,1.0680835688848422,-0.24433478180597687,0.43677949644038583,4.580171600199549,-1.0066734931439214,0.04729422793908695,-0.03167477432570682,-0.04746146210194315,4,left
20.749000000000002,0.46219907405309707,1.0685709068607734,-0.24448339072964334,0.4342680535358615,4.574009325486681,-1.0102081333685229,0.04679035570183272,-0.031715355554001894,-0.05334646306823324,4,left
20.750999999999998,0.4617801140064145,1.0690150928951998,-0.2446453323792439,0.4320390598405129,4.567554177380704,-1.0139599496132305,0.046296639129241146,-0.03173708858544754,-0.05922757843655124,4,left
20.752,0.4613630861991231,1.0694150989838185,-0.24482083495288046,0.43006802323740473,4.560816835782763,-1.0179297480063947,0.04581348661653598,-0.03174144164638746,-0.06511096908326854,4,left
20.752,0.4609482238116817,1.0697699048682492,-0.24501005821716476,0.4283330183642847,4.553806646613204,-1.0221172718917626,0.04534139600174254,-0.03173013758071276,-0.07100325292647915,4,left
20.753,0.4605360341007647,1.070078503643053,-0.24521309400735386,0.4268149308548066,4.5465316144800285,-1.0265211656419109,0.044880953588524716,-0.031705134978835404,-0.07691136462726834,4,left
20.773000000000003,0.46012729237320926,1.07033990983353,-0.2454299681289749,0.42549768418856987,4.538998407369731,-1.0311389503738067,0.04443283342337099,-0.03166860558875203,-0.08284241634278916,4,left
20.829,0.45972303341989773,1.0705531689802856,-0.24566064314804525,0.4243684411655757,4.531212370165132,-1.03596701000597,0.04399779683188793,-0.0316229078863875,-0.08880356110720203,4,left
20.831,0.45932454212671225,1.0707173662141283,-0.24590502164053024,0.42341776936153297,4.523177542735643,-1.0410005855731481,0.043576692167306696,-0.03157055682218088,-0.09480185930626259,4,left
20.831999999999997,0.45893334493777865,1.070831631408484,-0.24616295015700343,0.4226397625808264,4.514896679403047,-1.046233776239207,0.043170454490364066,-0.031514189968775995,-0.10084414939628163,4,left
20.833000000000002,0.45855120264173715,1.070895141105025,-0.24643422470471307,0.42203211511213357,4.506371268490352,-1.0516595463930776,0.042780104480427725,-0.031456530632095595,-0.1069369257187735,4,left
20.834,0.4581801027948372,1.0709071199557765,-0.24671859790934791,0.4215961484110463,4.497601552062485,-1.0572697388577494,0.04240674564481522,-0.031400348675527635,-0.11308622720694018,4,left
20.888,0.45782224892157836,1.0708668441658724,-0.24701578687356557,0.4213367911618153,4.488586547896401,-1.0630550949496174,0.042051559126259505,-0.03134841961947254,-0.11929753983553941,4,left
20.89,0.4574800449100718,1.0707736471449611,-0.24732548063518356,0.4212625151023705,4.479324078809463,-1.0690052832094612,0.041715795847222285,-0.031303482313038096,-0.12557571385495614,4,left
20.89,0.4571560755010432,1.0706269260607166,-0.24764734701352356,0.421385229792568,4.469810816192013,-1.0751089392287807,0.04140076605963082,-0.03126819564712681,-0.13192489535389856,4,left
20.891,0.45685308489731313,1.0704261482873705,-0.24798103920095765,0.4217201387108321,4.460042342871596,-1.0813537183937942,0.0411078265896156,-0.031245095388538643,-0.13834847051306998,4,left
20.892,0.4565739544648294,1.0701708577807307,-0.24832620212645937,0.4222855578310209,4.450013236987622,-1.0877263621307969,0.04083836616374708,-0.031236552574654176,-0.14484902036052433,4,left
20.906,0.4563216788698234,1.069860681947949,-0.24868247809597055,0.423102698024904,4.439717175057168,-1.0942127768567933,0.04059378910646429,-0.03124473454836852,-0.15142828439144962,4,left
20.965999999999998,0.45609933964128985,1.06949533932079,-0.24904951122551724,0.4241954144410187,4.429147049007276,-1.100798123174406,0.04037549752409479,-0.0312715690651213,-0.15808713240863703,4,left
20.968000000000004,0.4559100760431704,1.069074647827902,-0.24942695055767147,0.42558992792413,4.41829509088029,-1.1074669113521778,0.04018487204064213,-0.03131871154853866,-0.1648255443886902,4,left
20.97,0.4557570539289283,1.0685985332436412,-0.24981445199472477,0.42731452421606797,4.407153001978271,-1.1142030986141431,0.04002325136408624,-0.031387515522023825,-0.17164259777333588,4,left
20.971,0.45564343313842304,1.068067037434643,-0.25021167916694687,0.42939923582509953,4.395712087126551,-1.120990184443845,0.03989191138118573,-0.031479006284649315,-0.17853646065611292,4,left
20.971999999999998,0.45557233346519604,1.0674803260098773,-0.25061830323761924,0.43187550953907056,4.383963395803805,-1.1278113016064586,0.039792044711721035,-0.03159385792251869,-0.1855043888186591,4,left
21.024,0.45554679913875207,1.0668386947568123,-0.2510340015874374,0.4347758606967428,4.371897870960406,-1.1346493020444144,0.03972474142032983,-0.031732373724070145,-0.19254272508732267,4,left
21.025,0.45556976235572455,1.0661425739722095,-0.251458455415349,0.4381335144082813,4.359506505634459,-1.1414868375219973,0.03969097116500514,-0.03189447002689509,-0.19964690041035624,4,left
21.026,0.45564400713022896,1.0653925298595872,-0.25189134654046325,0.44198203373207806,4.346780507331781,-1.1483064350384802,0.039691566828545785,-0.03207966350095372,-0.2068114365724456,4,left
21.026999999999997,0.4557721349845805,1.0645892627995428,-0.2523323539364856,0.44635493481631316,4.333711470135107,-1.1550905670293952,0.039727209631241725,-0.03228706192665956,-0.21402995054832524,4,left
21.028000000000002,0.45595653365211836,1.063733603104795,-0.25278115058238027,0.4512852890494003,4.320291554169734,-1.1618217162681523,0.03979841571554225,-0.03251535881674211,-0.2212951604051334,4,left
21.081,0.4561993493953118,1.062826505169686,-0.25323740105353004,0.45680531243701156,4.306513670365806,-1.1684824348431568,0.03990552417981808,-0.032762832753529286,-0.22859889249721474,4,left
21.083000000000002,0.4565024631238827,1.061869040650733,-0.2537007600674815,0.46294594273473333,4.2923716654216735,-1.175055395618878,0.04004868653079819,-0.0330273526037247,-0.23593208960494627,4,left
21.1,0.4568674702832617,1.060862390981639,-0.25417087206579686,0.46973640578895975,4.2778605000986,-1.1815234342957732,0.04022785753199433,-0.03330638948244361,-0.24328481976157948,4,left
21.101999999999997,0.4572956643752861,1.059807839412043,-0.25464737184978364,0.4772037761172552,4.2629764152262455,-1.1878695819387584,0.040442787452550984,-0.033597035708855555,-0.25064628575237546,4,left
21.103,0.4577880239704689,1.0587067627455462,-0.25512988623885324,0.48537254319967993,4.247717082047663,-1.1940770910026535,0.04069301579512415,-0.03389603017144513,-0.2580048357329695,4,left
21.104,0.4583452032588575,1.0575606229614745,-0.2556180366517517,0.49426419853137044,4.2320817347817234,-1.2001294596377265,0.04097786670259887,-0.034199788501643597,-0.2653479760989374,4,left
21.16,0.45896752648859945,1.056370958982646,-0.25611144241736244,0.5038968547051008,4.216071284052784,-1.2060104579475086,0.04129644630998991,-0.03450443592060221,-0.27266238810884896,4,left
21.163,0.45965498671220956,1.0551393789164836,-0.2566097245721178,0.5142849010462289,4.199688410620808,-1.2117041576782752,0.041647642214822485,-0.03480584112404908,-0.2799339495240864,4,left
21.164,0.46040724889123696,1.053867553001683,-0.25711250995738727,0.5254386965754232,4.1829376392798565,-1.2171949656011407,0.0420301249862291,-0.03509965036207551,-0.287147762518601,4,left
21.165,0.4612236568765259,1.0525572072715619,-0.2576194355136732,0.5373643003268732,4.165825392878968,-1.2224676606036293,0.04244235132621545,-0.035381321099912974,-0.29428818992304073,4,left
21.166,0.46210324345095916,1.0512101177301008,-0.2581301526734914,0.5500632392734988,4.148360026751023,-1.2275074345246242,0.04288256834977292,-0.03564615458322027,-0.30133890244996436,4,left
21.238000000000003,0.46304474259332973,1.049828104680011,-0.2586443317089608,0.5635323152211061,4.130551845497437,-1.2322999368539294,0.04334881858418688,-0.035889326800712794,-0.30828293889022584,4,left
21.241,0.464046603365744,1.0484130267515839,-0.2591616658665299,0.5777634540304959,4.112413107069424,-1.2368313235752915,0.04383894553845012,-0.036105917705380804,-0.3151027800250067,4,left
21.241999999999997,0.46510700520908066,1.0469667741044644,-0.2596818751084387,0.5927436016369824,4.093958020748822,-1.2410883105189658,0.04435059987749156,-0.03629093904307438,-0.32178043602246675,4,left
21.243000000000002,0.46622387476205146,1.0454912600828012,-0.2602047092316726,0.6084546702307414,4.075202743967234,-1.2450582315012977,0.04488124635296912,-0.03643936174387808,-0.3282975463825737,4,left
21.244,0.4673949045286007,1.0439884104398442,-0.26072995010413763,0.6248735359687351,4.0561653799073465,-1.248729101369798,0.04542817169258277,-0.03654614414986687,-0.3346354911745291,4,left
21.245,0.4686175736911586,1.042460149657278,-0.2612574128744115,0.6419720881664,4.036865976041739,-1.2520896838589215,0.0459884935997866,-0.03660626203449905,-0.3407755126295842,4,left
21.298000000000002,0.46988917098544547,1.0409083849017833,-0.26178694623990717,0.659717328102685,4.017326522430979,-1.255129563396632,0.04655917092558403,-0.03661474079595572,-0.3466988467253861,4,left
21.3,0.47120681913507845,1.0393349888363315,-0.2623184319786034,0.6780715126621785,3.9975709455922166,-1.2578392182606688,0.04713701502964138,-0.036566689807351706,-0.3523868645518283,4,left
21.3,0.4725675003113025,1.0377417822514845,-0.2628517838854226,0.6969923363429881,3.977625089724033,-1.2602100907452283,0.04771870236617605,-0.0364573384378596,-0.35782122248938136,4,left
21.301,0.47396808222175246,1.036130516898333,-0.26338694613082386,0.7164331466794361,3.957516675804083,-1.2622346500016284,0.04830078838088529,-0.03628207252945964,-0.36298401875032227,4,left
21.302,0.4754053443085228,1.0345028586981895,-0.2639238909597027,0.7363431910422367,3.9372752320852613,-1.2639064449558992,0.048879722833413,-0.036036469708766,-0.36785795301042484,4,left
21.33,0.47687600331792646,1.0328603717370581,-0.26446261560800494,0.756667894477466,3.916931993540244,-1.265220146442575,0.04945186663165161,-0.0357163323183044,-0.37242648668012535,4,left
21.373,0.4783767376550618,1.031204503814603,-0.2650031383879874,0.7773491686273154,3.8965197698186276,-1.266171578436661,0.050013510200801845,-0.03531771750292966,-0.3766740026185811,4,left
21.375,0.4799042104025832,1.0295365744476537,-0.26554549403229155,0.7983257517897078,3.8760727816585745,-1.2667577383885722,0.050560893318916895,-0.03483696450358082,-0.3805859627916176,4,left
21.375999999999998,0.4814550912120266,1.0278577660032149,-0.26608972845328566,0.8195335801750374,3.8556264656945993,-1.2669768066658045,0.05109022623163968,-0.03427071949227618,-0.3841490605153226,4,left
21.377,0.4830260773380325,1.026169118261712,-0.2666358930597489,0.8409061904193146,3.8352172476029276,-1.266828145104068,0.05159771179583566,-0.03361595839363619,-0.3873513628023475,4,left
21.378,0.48461391411064825,1.0244715264219082,-0.26718403879972635,0.8623751527778917,3.814882284315486,-1.2663122847098844,0.05207956846475845,-0.0328700080263762,-0.3901824394507931,4,left
21.432,0.4862154152108082,1.0227657424165035,-0.26773421018219457,0.8838705312448678,3.7946591799821454,-1.2654309027572384,0.05253205399249073,-0.03203056567151898,-0.39263347744362165,4,left
21.434,0.4878274831016216,1.02105237937915,-0.2682864395574161,0.9053213611202219,3.774585687468382,-1.264186789882741,0.05295148955732051,-0.031095716934466024,-0.39469737988059667,4,left
21.435,0.48944712984654903,1.0193319190843144,-0.26884074188678014,0.9266561313672583,3.7546994111243195,-1.2625838079843519,0.05333428358244274,-0.030063951515539075,-0.3963688480448196,4,left
21.436,0.4910714984214008,1.0176047220071014,-0.26939711019910473,0.9478032622827604,3.7350375226128434,-1.2606268395260187,0.05367695429129666,-0.028934176375588923,-0.3976444447361607,4,left
21.436999999999998,0.49269788453405683,1.0158710393028634,-0.26995551189667694,0.9686915747072876,3.7156364947920837,-1.2583217286350876,0.053976150275749576,-0.027705725910741913,-0.3985226374714562,4,left
21.509,0.49432375885504287,1.0141310257402452,-0.27051588594709614,0.9892507500907102,3.696531856272452,-1.2556752149189563,0.05422866878902508,-0.026378368980021622,-0.39900382099384746,4,left
21.511,0.49594678936193326,1.0123847526706968,-0.2710781407888487,1.0094117811983305,3.6777579713106254,-1.2526948622222243,0.05443147171615352,-0.02495231275704939,-0.3990903190011866,4,left
21.511999999999997,0.4975648630874658,1.0106322203748,-0.27164215256369856,1.0291074131504592,3.6593478512765603,-1.2493889852868847,0.05458169922279753,-0.023428203402294158,-0.39878636509603327,4,left
21.513,0.4991761060512445,1.0088733693770562,-0.2722077631789001,1.048272574579111,3.6413330023575226,-1.2457665765348305,0.054676681111876235,-0.021807123580103997,-0.398098063077295,4,left
21.514,0.5007789000900918,1.007108090584548,-0.2727747778724227,1.0668447988494985,3.6237433113328024,-1.2418372338548773,0.05471394606079412,-0.020090586984694413,-0.3970333272857673,4,left
21.515,0.5023718959547181,1.005336234451113,-0.2733429624247519,1.0847646353503648,3.60660696926094,-1.237611089680197,0.05469122917027361,-0.018280530291393284,-0.3956018047827086,4,left
21.57,0.5039540228933693,1.003557619676185,-0.2739120406537563,1.1019760501624665,3.589950430306816,-1.233098742084354,0.05460647839915681,-0.016379303089390063,-0.39381478173281653,4,left
21.570999999999998,0.5055244952948813,1.001772042036947,-0.2744816929916926,1.118426812399723,3.5737983981510197,-1.2283111892309777,0.05445786031585199,-0.014389656211738102,-0.39168507576856254,4,left
21.572,0.507082816622965,0.9999792838591591,-0.2750515567026176,1.134068857473437,3.558173828513428,-1.2232597679597135,0.05424376533858443,-0.012314728625685778,-0.389226915043795,4,left
21.573,0.5086287803256418,0.9981791245134227,-0.27562122793172866,1.148858615991515,3.543097937417197,-1.2179560958412,0.053962812492909254,-0.01015803290592565,-0.3864558040901707,4,left
21.574,0.5101624675269356,0.9963713519846037,-0.2761902655304728,1.1627573000155378,3.528590209607022,-1.2124120154253202,0.053613853687402194,-0.007923439238756795,-0.38338837676001153,4,left
21.641,0.5116842423939115,0.9945557745799936,-0.27675819642928207,1.175731143438464,3.5146684054487842,-1.2066395399577465,0.053195977514990084,-0.005615157673431781,-0.38004223798665976,4,left
21.643,0.5131947471164741,0.9927322306134047,-0.27732452217080916,1.1877515959840368,3.5013485660659946,-1.2006508004066714,0.05270851259931027,-0.0032377179200625186,-0.3764357986996644,4,left
21.644000000000002,0.5146948978401145,0.9909005942004989,-0.27788872620803895,1.1987954708677442,3.4886450166713727,-1.1944579937838196,0.0521510305120264,-0.0007959457617567377,-0.3725881096796993,4,left
21.647,0.5161858802792352,0.9890607779926175,-0.27845028162970725,1.2088450465713314,3.4765703678241207,-1.1880733329313569,0.05152334828009772,0.0017050646200747167,-0.3685186986888964,4,left
21.648000000000003,0.5176691413781572,0.9872127360164377,-0.27900865872057634,1.2178881252540337,3.465135513197685,-1.1815089988865284,0.050825530489679964,0.004259982691834515,-0.3642474126043777,4,left
21.649,0.5191463741312885,0.9853564689582349,-0.27956333157326685,1.2259180540539567,3.454349620379101,-1.1747770986287889,0.05005789094512517,0.0068632779945048865,-0.35979426500429396,4,left
21.708000000000002,0.5206194958790056,0.9834920319660718,-0.28011378363653405,1.232933717294807,3.4442201107174344,-1.1678896318562753,0.04922099363361169,0.009509260693792244,-0.3551792902185371,4,left
21.709,0.5220906226367009,0.981619544108901,-0.28065951302471626,1.238939503989959,3.4347526285985843,-1.160858469006073,0.04831565237423659,0.012192125599867827,-0.35042240639143907,4,left
21.71,0.5235620417629083,0.9797391988005745,-0.28120003843549113,1.2439452485163318,3.4259510083698204,-1.1536953401548706,0.04734292832381477,0.014905998782690352,-0.34554329095642355,4,left
21.711,0.5250361838006493,0.9778512747582724,-0.2817349057601338,1.2479661387073087,3.4178172514972074,-1.1464118330042685,0.046304124735813246,0.017644986061677925,-0.34056127092902394,4,left
21.712,0.5265155930022737,0.9759561474231792,-0.28226369477821833,1.2510225867426874,3.4103515235600517,-1.1390193984574606,0.0452007788301266,0.020403222706712243,-0.33549522818899324,4,left
21.776,0.5280028955143056,0.9740543010627238,-0.28278602512695944,1.2531400609943597,3.4035521749096054,-1.1315293631774943,0.04403465099954918,0.02317492329851619,-0.3303635178095001,4,left
21.778000000000002,0.5295007647100459,0.9721463414994992,-0.2833015609799988,1.2543488785300316,3.39741578561075,-1.1239529490080036,0.042807711709862625,0.025954430402036058,-0.3251838966209177,4,left
21.778000000000002,0.5310118840601108,0.9702330087992558,-0.28381001425058333,1.2546839582838167,3.391937234645214,-1.116301299235202,0.04152212636029782,0.02873626104507121,-0.31997345989602544,4,left
21.785999999999998,0.532538908369201,0.9683151889470478,-0.28431114636692634,1.2541845348998522,3.387109793356777,-1.1085855116696435,0.040180238208995384,0.031515150603833995,-0.31474858530245253,4,left
21.788,0.5340844242988171,0.966393923613824,-0.28480476872577326,1.2528938332524862,3.3829252431208268,-1.1008166785260112,0.0387845494237777,0.034286094005394334,-0.30952488387594207,4,left
21.789,0.5356509111975055,0.9644704173001667,-0.2852907419201084,1.2508587040312888,3.3793740168860515,-1.0930059328564805,0.03733770052957266,0.03704438407314505,-0.30431715744950066,4,left
21.83,0.5372407032004534,0.9625460413886929,-0.28576897383428,1.2481292227128002,3.376445362555554,-1.0851645001805608,0.03584244893621055,0.03978564656865021,-0.2991393611484505,4,left
21.833000000000002,0.5388559532764958,0.9606223349700971,-0.28623941674094633,1.244758257723533,3.3741275231483234,-1.0773037519517166,0.03430164745935141,0.042505871331679594,-0.294004569103066,4,left
21.842,0.5404985996980218,0.9587010026865176,-0.2867020636373683,1.2408010155326676,3.3724079270014635,-1.0694352563884972,0.032718223520997396,0.045201439038320225,-0.2889249419930955,4,left
21.843000000000004,0.5421703353605782,0.9567839101351003,-0.2871569441556059,1.2363145687357182,3.371273382593672,-1.0615708232261123,0.031095159318535282,0.04786914320270639,-0.28391169588474247,4,left
21.844,0.543872580279372,0.9548730774249341,-0.2876041203622648,1.2313573710081336,3.3707102737803276,-1.053722540525993,0.029435473049241948,0.050506206898665085,-0.2789750723172738,4,left
21.91,0.5456064574072629,0.9529706713109669,-0.2880436826725262,1.2259887632180058,3.3707047496383793,-1.0459028020359031,0.027742201246396963,0.0531102935407442,-0.2741243097094324,4,left
21.912,0.5473727717725884,0.9510789961934257,-0.2884757460756116,1.2202684759027178,3.3712429016372445,-1.038124323394881,0.02601838226786105,0.05567951123107867,-0.26936761613483345,4,left
21.913,0.5491719929032105,0.949200484294717,-0.2889004468733133,1.2142561320086256,3.3723109226737153,-1.0304001458981253,0.024267040950565078,0.05821241047918423,-0.2647121434776068,4,left
21.92,0.551004240671726,0.9473376853984261,-0.28931794003815237,1.2080107519782357,3.3738952459368257,-1.0227436274990147,0.02249117442908614,0.06070797526874225,-0.260163962958605,4,left
21.921999999999997,0.5528692750285732,0.9454932565379711,-0.28972839714042753,1.2015902646363474,3.3759826641411608,-1.0151684221691717,0.020693739112157654,0.06316560754612756,-0.2557280421000509,4,left
21.923000000000002,0.5547664902754124,0.9436699519227328,-0.29013200472008394,1.1950510318752243,3.378560431384092,-1.0076884506629007,0.01887763880484413,0.06558510554220105,-0.2514082236044002,4,left
21.973000000000003,0.5566949143563124,0.9418706132062469,-0.2905289629995081,1.1884473978106045,3.3816163506347134,-1.00031786675534,0.017045713953173766,0.0679666369451535,-0.24720720735720636,4,left
21.974,0.5586532132301145,0.9400981599800283,-0.2909194848648379,1.181831270407437,3.3851388491129195,-0.9930710220010834,0.015200731981922564,0.07031070827895176,-0.24312653717170865,4,left
21.979,0.5606396998850873,0.9383555801784081,-0.2913037950778061,1.1752517390076735,3.3891170426121704,-0.9859624302363701,0.013345378702227271,0.07261813150495722,-0.23916659348558095,4,left
21.98,0.5626523471178722,0.9366459199827413,-0.2916821297218848,1.1687547297403704,3.3935407897961465,-0.9790067321112537,0.011482250776525786,0.07488998825780618,-0.23532659248691332,4,left
21.980999999999998,0.5646888030888153,0.9349722728530534,-0.292054735875193,1.1623827024567923,3.3984007386575756,-0.9722186598884318,0.009613849223245237,0.07712759181803117,-0.23160459186020968,4,left
22.041,0.566746408927217,0.9333377673921212,-0.2924218714135245,1.1561743940538372,3.403688368054874,-0.9656130028316385,0.007742573889445516,0.07933244699826296,-0.22799750386691905,4,left
22.043000000000003,0.5688222180770416,0.9317455536423049,-0.2927838047377138,1.1501646118287963,3.409396026517475,-0.9592045734211178,0.005870718719901707,0.0815062083750666,-0.22450111756420216,4,left
22.044,0.5709130175182048,0.9301987870859271,-0.2931408141684313,1.144384078311868,3.415516969205063,-0.9530081744796989,0.004000467595703581,0.08365063744020754,-0.22111013257088347,4,left
22.057,0.5730153512588484,0.9287006095909798,-0.29349318683085956,1.1388593275208605,3.4220453929050163,-0.9470385671757676,0.0021338905708317307,0.08576755910320885,-0.21781820618495565,4,left
22.058000000000003,0.5751255462667654,0.9272541273121137,-0.29384121704425054,1.1336126509294298,3.428976467427936,-0.9413104396932184,0.0002729404549699962,0.08785881779326053,-0.21461801452495746,4,left
