time,gFx,gFy,gFz,ax,ay,az,wx,wy,wz,subject_number,foot
14.407,0.45751710113736943,1.0400700866518646,-0.25490382450367394,0.5007614702507701,4.287829168307537,-1.5135270814949302,0.005499321340056108,0.0011825432400827725,-0.08063110101564727,3,left
14.408,0.4578295125966457,1.0399944170995559,-0.25569562438879995,0.5110225390129951,4.290586181229024,-1.5083123039068198,0.005782589990757458,0.0013108134181676113,-0.07896949040990023,3,left
14.433,0.458195986706428,1.0399535808290536,-0.25647742174279753,0.5218914696564617,4.293775890023208,-1.5032135895902254,0.006131713304362357,0.001406727036227692,-0.07731293888016194,3,left
14.460999999999999,0.45861416794636967,1.0399504594665139,-0.2572494851050633,0.5333514375957317,4.297403800660182,-1.4982388134612916,0.006545674135005063,0.0014739774243101961,-0.07565345703736596,3,left
14.463,0.45908148903728113,1.0399878652972474,-0.25801214510757614,0.5453816066944475,4.301474841044918,-1.4933962918222006,0.007023194630232995,0.0015162972077131843,-0.0739827319716036,3,left
14.464,0.45959520086924804,1.040068520444457,-0.25876579251300297,0.5579572316804565,4.305993316057313,-1.48869477335331,0.007562746356163754,0.0015374035447983762,-0.0722922410826171,3,left
14.465,0.4601524031017922,1.0401950365142285,-0.2595108749657532,0.5710497995774383,4.310962857289596,-1.4841434225885228,0.008162562815241914,0.0015409425273184992,-0.07057337308398803,3,left
14.502,0.4607500746060876,1.0403698952902845,-0.2602478924077932,0.5846272099494356,4.316386365462603,-1.4797517959318736,0.008820654315321922,0.001530436381616073,-0.06881755306117211,3,left
14.504000000000001,0.4613851029031965,1.04059543106635,-0.2609773911568981,0.598653993399095,4.3222659404583865,-1.4755298103815495,0.009534825159641705,0.0015092361994325859,-0.06701636924223278,3,left
14.539000000000001,0.462054311946209,1.0408738152211978,-0.2616999566846374,0.6130915675634746,4.328602792216091,-1.4714877051878965,0.010302693146613182,0.001480481289813985,-0.06516170054180809,3,left
14.54,0.4627544880705757,1.0412070435630207,-0.26241620524133547,0.6278985300510862,4.335397127431173,-1.467635996612517,0.011121711349006195,0.0014470652532366562,-0.06324584446288768,3,left
14.540999999999999,0.4634824044641199,1.0415969267897234,-0.2631267746280732,0.6430309875736764,4.342648010690934,-1.463985425721862,0.011989191993509363,0.001411608293314461,-0.06126164382355134,3,left
14.540999999999999,0.46423484474470605,1.0420450841898687,-0.2638323144776948,0.6584429179828358,4.350353203604009,-1.4605468984574692,0.012902331990210713,0.0013764345545472733,-0.059202608484182344,3,left
14.567,0.4650086261455458,1.042552940526143,-0.26453347636279295,0.6740865570248425,4.358508991637782,-1.4573314160762005,0.013858239510801793,0.0013435528707364157,-0.05706302697744694,3,left
14.597999999999999,0.46580062266671285,1.0431217258746095,-0.26523090404268906,0.6899127986349126,4.367110011973937,-1.4543499936300206,0.01485396116533372,0.0013146397125069597,-0.054838064216183716,3,left
14.599,0.4666077884568283,1.043752478032114,-0.2659252242079366,0.7058715990850826,4.376149094279375,-1.451613565824648,0.015886509529455764,0.001291023912279975,-0.05252384365246585,3,left
14.6,0.46742718154946283,1.0444460470585786,-0.26661703803972825,0.7219123779866583,4.385617123745246,-1.4491328826016052,0.016952890576958663,0.0012736734639901511,-0.050117513068152646,3,left
14.600999999999999,0.46825598790694695,1.0452031015519145,-0.26730691374873133,0.7379844106409416,4.395502934333803,-1.4469183984580576,0.01805012997612582,0.0012631853428448124,-0.04761729259323708,3,left
14.635,0.46909154554314914,1.0460241361333749,-0.2679953800608792,0.7540372080316856,4.405793237710606,-1.444980158608582,0.01917529686038437,0.001259779605560204,-0.04502250308227784,3,left
14.675,0.4699313682231587,1.0469094793278961,-0.2686829203784206,0.7700208829426838,4.416472589618604,-1.4433276833982698,0.02032552403196221,0.0012632987164027131,-0.04233357344470593,3,left
14.677,0.47077316791081564,1.04785930084896,-0.26936996713121514,0.7858865016264622,4.427523391378416,-1.441969852198598,0.02149802421288133,0.0012732123916247087,-0.03955202649308896,3,left
14.677,0.4716148750046974,1.0488736174745652,-0.2700568958213576,0.8015864201452465,4.438925919775618,-1.4409147893562786,0.022690102450439124,0.001288627512123035,-0.03668044398985226,3,left
14.677999999999999,0.4724546555603611,1.0499522971619752,-0.27074401851081487,0.8170746041968916,4.4506583763407255,-1.44016975562472,0.02389916511434859,0.0013083018213618206,-0.033722412837498654,3,left
14.677999999999999,0.4732909250036749,1.0510950615555674,-0.2714315769673227,0.8323069315464098,4.462696949284831,-1.4397410476499737,0.025122726067396597,0.0013306596979630848,-0.030682455008025782,3,left
14.700999999999999,0.47412235823557797,1.052301487411507,-0.27211973629169206,0.8472414767381636,4.47501588541614,-1.4396339065384653,0.02635841044691169,0.0013538087200394484,-0.027565943156062603,3,left
14.716,0.47494789629518447,1.0535710076700964,-0.27280858021707943,0.8618387780714657,4.487587571619801,-1.4398524356760949,0.02760395623405844,0.0013755565081351544,-0.024379002688342328,3,left
14.732999999999999,0.4757667496191482,1.0549029130093799,-0.2734981089637582,0.8760620868832533,4.500382625935554,-1.4403995277974846,0.02885721368008771,0.001393427858142461,-0.02112840071486486,3,left
14.734000000000002,0.476578397747807,1.0562963546909458,-0.2741882397907085,0.8898775991806571,4.51336999826854,-1.4412768013050818,0.030116142813255836,0.0014046827452835146,-0.017821423696150925,3,left
14.734000000000002,0.47738258546878115,1.0577503492874651,-0.2748788098494777,0.903254669237757,4.526517080641046,-1.4424845459379465,0.03137880958040643,0.0014063366517856678,-0.014465748335802121,3,left
14.765999999999998,0.4781793156173658,1.0592637853992444,-0.2755695807662196,0.9161660026319416,4.53978982625234,-1.4440216783869904,0.032643381360704396,0.0013951851550567617,-0.011069311786850907,3,left
14.812000000000001,0.4789688389573371,1.0608354316142685,-0.2762602442840133,0.9285878223460736,4.553152875459944,-1.445885709347179,0.03390812240555474,0.0013678342289571025,-0.007640185720771875,3,left
14.814,0.4797516420701816,1.0624639441487935,-0.2769504283480296,0.9404999994236002,4.566569686154888,-1.4480727239941429,0.03517138939951905,0.0013207367406864864,-0.004186456190291841,3,left
14.815,0.4805284347840668,1.0641478728793907,-0.2776397034618808,0.9518861418002236,4.580002666645088,-1.4505773773775956,0.03643162700868095,0.0012502346490380143,-0.0007161102846603398,3,left
14.815,0.4813001384360386,1.0658856657722628,-0.27832758952783115,0.9627336389037252,4.593413310524608,-1.4533929053448122,0.03768736298541002,0.0011526054263150552,0.0027630686711756555,3,left
14.815999999999999,0.48206787490115344,1.0676756725311056,-0.27901356309246456,0.9730336623564813,4.606762334692801,-1.4565111511759068,0.038937202253575554,0.001024110733611592,0.00624359503502732,3,left
14.835,0.4828329549586775,1.0695161481712325,-0.2796970645452839,0.9827811246331389,4.62000982369638,-1.4599226081287702,0.040179819543147074,0.0008610458716279704,0.009718362132225088,3,left
14.870999999999999,0.4835968643918923,1.0714052572044432,-0.2803775051168913,0.9919745985247675,4.633115384270675,-1.4636164779886,0.041413950403913644,0.0006597894156865769,0.01318071021215297,3,left
14.873,0.4843612472035565,1.0733410795937754,-0.2810542739119121,1.0006162016215838,4.6460383112036,-1.467580744817406,0.04263838059217368,0.0004168528944034043,0.016624481085121018,3,left
14.873,0.48512788641391,1.075321619782939,-0.28172674505071815,1.0087114524769982,4.6587377606908245,-1.4718022614789468,0.04385193394941936,0.00012893026158453268,0.020044060145544194,3,left
14.874,0.48589868314031837,1.0773448191518313,-0.2823942846815402,1.0162691064764957,4.671172924597711,-1.4762668456149413,0.04505345906520051,-0.00020705346412500613,0.023434407531362115,3,left
14.901,0.4866756341582334,1.079408570818563,-0.28305625755287606,1.0233009773430206,4.683303200541779,-1.4809593825733307,0.04624181511253963,-0.0005938952257274828,0.02679108074958224,3,left
14.95,0.4874608076838287,1.0815107352626248,-0.2837120329124296,1.029821746664875,4.695088355782809,-1.485863934296445,0.04741585717175543,-0.0010340692582799366,0.030110250611645087,3,left
14.953,0.48825631707464,1.0836491559383794,-0.2843609896179501,1.0358487618616545,4.706488684614654,-1.490963854014499,0.048574421303990103,-0.001529685046541687,0.0333887117476491,3,left
14.953,0.489064292346157,1.0858216745976854,-0.285002520441116,1.0414018226084563,4.717465159293542,-1.4962419067578612,0.04971630975306642,-0.0020824481336198346,0.03662388923333759,3,left
14.954,0.4898868496248989,1.0880261458487368,-0.2856360355775816,1.0465029556701182,4.727979574819748,-1.5016803955123101,0.05084027675367445,-0.0026936240231914,0.03981384321706671,3,left
14.955,0.4907260588853327,1.090260450114176,-0.2862609654040146,1.0511761777608106,4.73799468930417,-1.507261291892832,0.051945015305185485,-0.0033640053577117437,0.0429572729644346,3,left
14.985999999999999,0.4915839105739985,1.0925225041242697,-0.28687676256724914,1.0554472454398802,4.747474364198325,-1.5129663685034416,0.053029145056759784,-0.004093882446592803,0.0460535208931687,3,left
15.007,0.49246228196819597,1.0948102684032688,-0.2874829035103876,1.0593433908609171,4.756383709611693,-1.5187773291659066,0.054091201330705614,-0.0048830171581740675,0.04910257670131681,3,left
15.009,0.49336290427252294,1.0971217516500287,-0.28807888954329347,1.0628930432367856,4.764689236178205,-1.5246759339706195,0.0551296252837007,-0.005730620258984896,0.0521050815973981,3,left
15.009,0.4942873313707829,1.0994550122274234,-0.2886642475714026,1.0661255377668097,4.772359008162927,-1.5306441174891479,0.05614275518763037,-0.006635332691827402,0.05506233263917343,3,left
15.011,0.4952369108201046,1.1018081571122595,-0.2892385306145239,1.0690708148182246,4.779362788737696,-1.5366640992582594,0.05712881877969763,-0.007595212018527692,0.05797628718420713,3,left
15.052,0.49621275738365,1.1041793387636125,-0.2898013183059155,1.0717591115080574,4.78567217041453,-1.5427184860145664,0.0580859266135947,-0.008607725661230818,0.060849567453397244,3,left
15.052,0.49721572934334624,1.1065667504840901,-0.2903522176424626,1.0742206465491433,4.791260687844815,-1.5487903654817867,0.05901206636125027,-0.009669752168416776,0.06368546521038558,3,left
15.084000000000001,0.4982464079438859,1.1089686209093115,-0.2908908642650875,1.0764852985112006,4.79610391253533,-1.5548633916920327,0.059905098074512005,-0.010777590900306742,0.06648794645728122,3,left
15.085,0.4993050804595042,1.111383208286776,-0.29141692443732314,1.0785822775047496,4.8001795294991805,-1.560921861858481,0.06076275057327785,-0.011926979633038645,0.06926165552034033,3,left
15.085,0.5003917274477943,1.113808795162516,-0.291930097722557,1.0805397902950118,4.803467395857633,-1.5669507848168311,0.06158261938105127,-0.013113118621917417,0.07201191694814363,3,left
15.085999999999999,0.5015060146919229,1.1162436838718124,-0.2924301202420066,1.082384699482834,4.805949581514297,-1.5729359411664152,0.06236216676824033,-0.014330699176596517,0.07474473311617968,3,left
15.118,0.5026472900760245,1.118686192902262,-0.2929167683743318,1.0841421805415723,4.807610392558662,-1.5788639358090395,0.06309872432397862,-0.01557393528874466,0.0774667759601994,3,left
15.142999999999999,0.5038145851472339,1.1211346539467066,-0.29338986276987844,1.0858353861727457,4.808436379021844,-1.5847222446045965,0.06378949822614544,-0.016836597730498816,0.08018537221200973,3,left
15.144,0.5050066204812722,1.1235874093287062,-0.2938492725032123,1.0874851305953184,4.808416329142842,-1.5904992574296282,0.06443157720866356,-0.01811205054387048,0.08290848192745026,3,left
15.145,0.5062218135473141,1.1260428094070987,-0.29429491910955474,1.0891096032308394,4.807541251763492,-1.596184319357599,0.06502194304192352,-0.019393290009848914,0.08564466963990629,3,left
15.145999999999999,0.5074582879922012,1.1284992095336857,-0.29472678025238674,1.0907241159476462,4.805804347727782,-1.6017677706694413,0.0655574830626604,-0.020672986313778105,0.08840306646098059,3,left
15.186,0.5087138840420923,1.1309549661304883,-0.29514489284176293,1.092340886752078,4.8032009717608775,-1.6072409858906946,0.06603500413425174,-0.021943528194608278,0.09119332088789171,3,left
15.187999999999999,0.5099861704355372,1.1334084314267467,-0.29554935547287503,1.0939688655631221,4.799728588244939,-1.612596412037326,0.06645124757347354,-0.02319707079465057,0.09402553663927411,3,left
15.208,0.5112724585799356,1.1358579464423997,-0.29594033007762766,1.0956136095841216,4.795386725446186,-1.6178276063072627,0.06680290485898507,-0.02442558679868031,0.09691019685284295,3,left
15.222000000000001,0.5125698195242581,1.1383018321450036,-0.29631804273753415,1.0972772134448983,4.7901769313023035,-1.6229292732008604,0.067086634091864,-0.02562092088021953,0.09985807454054751,3,left
15.224,0.5138751040033729,1.1407383792660173,-0.29668278367312073,1.098958293593427,4.784102730309734,-1.627897299962423,0.06729907722998299,-0.02677484744700185,0.10288012945005028,3,left
15.225,0.5151849654503955,1.1431658375574578,-0.29703490643236613,1.1006520203716443,4.7771695771806195,-1.6327287873949612,0.0674368782208485,-0.027879131619647075,0.105987392184914,3,left
15.253,0.5164958856663043,1.1455824051113936,-0.29737482625207773,1.1023501885193714,4.769384801193379,-1.637422072097652,0.06749670234275261,-0.028925593273251202,0.10919083770216866,3,left
15.28,0.5178042026402574,1.1479862181541016,-0.29770301752337397,1.1040413191655745,4.760757536673758,-1.6419767371663818,0.0674752571345762,-0.029906173766226004,0.11250125120120617,3,left
15.282,0.5191061397525945,1.150375341739725,-0.29802001029884306,1.1057107906611614,4.75129863786212,-1.646393610193232,0.06736931502973877,-0.030813004301739635,0.11592908967315121,3,left
15.283,0.520397835519324,1.152747761806705,-0.29832638582005144,1.1073409985606666,4.741020578405638,-1.650674748449342,0.06717573733323619,-0.031638473645031015,0.11948434283905081,3,left
15.283,0.5216753732038918,1.155101378983074,-0.2986227710565379,1.1089115466714978,4.729937336860695,-1.6548234114372757,0.0668914989158455,-0.03237529224084153,0.12317639746048765,3,left
15.32,0.5229348097622517,1.1574340044936364,-0.29890983222012935,1.1103994717273,4.71806427005848,-1.6588440210562974,0.0665137131403448,-0.03301655052332089,0.1270139079075311,3,left
15.322000000000001,0.5241722037175226,1.1597433585933208,-0.2991882672423397,1.1117795036039184,4.705417975714349,-1.662742109565903,0.06603965682524908,-0.03355577053667015,0.13100467414427708,3,left
15.359000000000002,0.5253836419085598,1.162027071922252,-0.2994587973385315,1.1130243618479658,4.692016144813201,-1.6665242554287496,0.06546679521291669,-0.03398695072127482,0.13515552733427202,3,left
15.36,0.5265652654708626,1.1642826899204302,-0.2997221579415037,1.114105088649802,4.677877403830779,-1.6701980070560778,0.06479280690027688,-0.03430460391340739,0.1394722232663,3,left
15.360999999999999,0.5277132955443921,1.1665076801184766,-0.29997908932998113,1.1149914175116573,4.663021147373759,-1.6737717944912829,0.06401560848686229,-0.03450378883754149,0.14395934474864533,3,left
15.360999999999999,0.528824059040967,1.1686994419682453,-0.3002303271909688,1.1156521730953846,4.647467364914949,-1.6772548291891571,0.06313337832862342,-0.03458013578626957,0.14862021582534984,3,left
15.387,0.5298940145449983,1.1708553188423938,-0.3004765932473534,1.1160556909552877,4.631236470870007,-1.6806569922679886,0.06214457858242125,-0.03452986741374634,0.15345683161565135,3,left
15.418,0.5309197781961106,1.1729726116638668,-0.30071858602569357,1.1161702420602027,4.614349150322208,-1.6839887119405983,0.0610479749290889,-0.03434981533698594,0.15846980663108373,3,left
15.419,0.5318981492758393,1.1750485933528532,-0.30095697180091296,1.115964450599922,4.596826229436633,-1.6872608317428672,0.05984265372857596,-0.03403743282272997,0.16365834272026494,3,left
15.42,0.5328261351687822,1.177080523218389,-0.30119237569034774,1.1154077000351352,4.578688573729594,-1.6904844728209618,0.05852803656367383,-0.03359080360598629,0.1690202168447075,3,left
15.422,0.5337009752216738,1.1790656606419159,-0.30142537279919457,1.1144705259408014,4.559957014094047,-1.6936708944509937,0.057103892146637,-0.03300864683248466,0.1745517887244149,3,left
15.456,0.534520162776115,1.181001277670075,-0.3016564793153805,1.1131249951194109,4.540652300028313,-1.6968313559053136,0.05557034545003842,-0.032290318080760314,0.18024802851435104,3,left
15.495999999999999,0.5352814646494047,1.1828846703646259,-0.3018861436121037,1.1113450704382757,4.520795079293629,-1.699976980931804,0.05392788372008692,-0.0314358063541117,0.18610256489264318,3,left
15.497,0.5359829377409947,1.1847131689888624,-0.3021147377138801,1.109106959342963,4.500405900784686,-1.703118625153362,0.0521773589634845,-0.030445726905151994,0.1921077538318252,3,left
15.498,0.5366229428777406,1.1864841472609784,-0.3023425496923249,1.1063894410172577,4.4795052327362415,-1.706266746624255,0.05031998684039898,-0.02932130983652885,0.19825476704377032,3,left
15.498,0.5372001561571798,1.188195030934588,-0.30256977761702386,1.1031741654835712,4.458113485780168,-1.7094312798558318,0.04835734251107304,-0.028064384567237036,0.20453369678338648,3,left
15.499,0.5377135779572275,1.1898433060339848,-0.30279652576944577,1.0994459196116297,4.4362510329729075,-1.7126215135482235,0.046291354325092515,-0.026677360334804903,0.21093367241545088,3,left
15.519,0.5381625395300992,1.191426527281073,-0.303022803787249,1.0951928580173205,4.413938223604746,-1.7158459721281176,0.044124296035417454,-0.025163202865393888,0.21744298528430517,3,left
15.554,0.538546706818028,1.1929423274664637,-0.3032485289107611,1.0904066985073815,4.391195390208066,-1.7191123011168947,0.04185877782258596,-0.02352540724791193,0.22404922024614954,3,left
15.556,0.5388660810795205,1.194388428457993,-0.30347353077868416,1.0850828820591971,4.368042848701811,-1.7224271563383082,0.03949773626540577,-0.02176796693078288,0.23073939204777338,3,left
15.556,0.5391209960952187,1.1957626538553825,-0.3036975577265193,1.0792206973234653,4.344500891608118,-1.7257960969749877,0.037044423492954184,-0.01989533862103599,0.23750008256373886,3,left
15.557,0.5393121120635547,1.1970629419633652,-0.3039202833561581,1.0728233696185336,4.320589774546564,-1.7292234829709967,0.03450239583277138,-0.017912402793027558,0.24431757356876102,3,left
15.588,0.5394404069494644,1.1982873567715595,-0.30414131236326575,1.0658981142964528,4.296329697564072,-1.7327123797169908,0.031875502189511906,-0.01582441958576203,0.2511779710578188,3,left
15.632,0.5395071666623541,1.1994340953559064,-0.3043601853956356,1.0584561542022695,4.271740785294157,-1.7362644773451914,0.029167872243430395,-0.013636979997045958,0.2580673195307274,3,left
15.633,0.539513975179618,1.2005014920348054,-0.3045763835426729,1.0505127008593396,4.246843071291852,-1.7398800344007244,0.02638390445066584,-0.01135595245708142,0.2649717059881536,3,left
15.634,0.5394627045786156,1.2014880205821685,-0.3047893331046753,1.0420868990991479,4.221656490535955,-1.7435578532168792,0.023528253676922826,-0.008987425391660116,0.2718773536259759,3,left
15.634,0.5393555038373996,1.2023922955795725,-0.3049984108499985,1.033201735265434,4.196200881294104,-1.7472952894015454,0.020605818054620705,-0.006537647309055648,0.27877070516581137,3,left
15.635,0.5391947849774161,1.2032130742536218,-0.3052029499363411,1.0238839104872244,4.170495994399585,-1.7510882927533076,0.017621724519309455,-0.004012966457899168,0.285638495732259,3,left
15.652999999999999,0.5389832057306511,1.2039492605840845,-0.30540224679796096,1.0141636828336682,4.144561504491717,-1.7549314716684095,0.014581312614998907,-0.0014197715896164546,0.29246781521472986,3,left
15.693,0.5387236489114964,1.20459991234321,-0.3055955688671142,1.0040746834329277,4.118417016523849,-1.7588181705583708,0.011490116399153002,0.0012355655654500254,0.29924616010086064,3,left
15.694,0.5384191991754701,1.2051642496039499,-0.30578216246595674,0.9936537103153822,4.092082065359088,-1.7627405529889073,0.008353844438693702,0.00394674600143901,0.30596147491811126,3,left
15.695,0.53807311756139,1.20564166237328,-0.3059612602802143,0.9829405013628785,4.065576114403472,-1.7666896889942203,0.0051783580485907765,0.006707597259267283,0.31260218403730056,3,left
15.695,0.5376888138475978,1.2060317161059488,-0.3061320882103981,0.971977486423952,4.038918563742439,-1.7706556482115539,0.001969648164915889,0.009512125205297881,0.3191572156929341,3,left
15.720999999999998,0.5372698167802703,1.206334155542707,-0.30629387157430327,0.9608095184399327,4.012128775879496,-1.774627600470052,-0.0012661886223076426,0.012354563547298693,0.3256160206868007,3,left
15.729000000000001,0.5368197423793707,1.206548907881017,-0.3064458406138804,0.9494835835011604,3.9852261222707677,-1.7785939244943472,-0.004522974484822494,0.015229420925467642,0.33196858762929804,3,left
15.769,0.5363422606171389,1.2066760855757521,-0.3065872352376738,0.9380484898186775,3.9582300507120545,-1.7825423246245766,-0.007794475069328497,0.01813152551851183,0.3382054554714586,3,left
15.772,0.535841060866198,1.206715988303434,-0.3067173089801987,0.9265545357301322,3.9311601710306188,-1.7864599542570476,-0.01107442447430731,0.021056067118231304,0.344317723527397,3,left
15.773,0.5353198165453269,1.2066691035435926,-0.30683533222221526,0.9150531570842352,3.904036352827281,-1.790333542749004,-0.01435655040138702,0.023998636420693064,0.3502970593583776,3,left
15.775,0.5347821493227355,1.2065361054896881,-0.3069405947006258,0.9035965544733978,3.876878826955115,-1.794149521441589,-0.017634599244541332,0.02695526089191712,0.3561357054188224,3,left
15.829,0.5342315933000958,1.2063178521462152,-0.30703240726315933,0.8922373010522611,3.849708284281443,-1.7978941454738784,-0.020902360798412217,0.029922436349260072,0.3618264856583641,3,left
15.831,0.5336715598573772,1.2060153804760987,-0.3071101028025789,0.8810279334229246,3.822545967993973,-1.801553609669271,-0.02415369234908119,0.0328971536165361,0.36736281297952833,3,left
15.832,0.5331053039867554,1.2056298995312575,-0.3071730363955249,0.8700205314867712,3.795413755985264,-1.8051141572307108,-0.027382542058588994,0.03587691994143753,0.3727386979043829,3,left
15.833,0.5325358927972074,1.205162781719564,-0.3072205848181952,0.8592662951071339,3.768334229269459,-1.8085621798466538,-0.030582971638164785,0.03885977478184128,0.37794875842698794,3,left
15.834000000000001,0.531966176596306,1.2046155525914513,-0.30725214573622806,0.8488151234582921,3.741330723377254,-1.811884308161665,-0.03374917832447444,0.0418442990731136,0.38298823082171807,3,left
15.854000000000001,0.5313987627542207,1.203989879633484,-0.30726713695826186,0.8387151993923126,3.714427361460802,-1.8150674921991932,-0.03687551617479399,0.04482961678973245,0.38785298109512795,3,left
15.907,0.5308359924852526,1.203287560578057,-0.30726499619563286,0.8290125796122954,3.68764906902052,-1.8180990718682113,-0.039956516695272115,0.04781538791336575,0.39253951685049554,3,left
15.91,0.5302799207071228,1.202510511725308,-0.3072451817180849,0.8197507931751362,3.661021571305069,-1.8209668387166662,-0.042986908789581786,0.05080179253575126,0.39704499938833293,3,left
15.911,0.529732299187124,1.201660756696277,-0.30720717412441706,0.8109704546774792,3.6345713761291725,-1.8236590918244575,-0.04596163789460439,0.0537895065152604,0.40136725548333063,3,left
15.913,0.5291945633023687,1.2007404159384336,-0.30715047923553146,0.8027089006071908,3.6083257457949873,-1.8261646916894199,-0.04887588395534056,0.056779669870896284,0.40550478745840973,3,left
15.914000000000001,0.5286678229722317,1.199751697243279,-0.3070746319218116,0.7949998552164248,3.5823126608624936,-1.8284731149981202,-0.051725077772215106,0.05977384948920316,0.40945677971177846,3,left
15.965,0.5281528583763856,1.1986968874021673,-0.3069792005443842,0.7878731288466997,3.5565607769640177,-1.830574511379347,-0.05450491537266598,0.062773997327845,0.4132231003166245,3,left
15.967,0.527650120695999,1.1975783448642203,-0.3068637916829008,0.7813543515230306,3.5310993756292257,-1.8324597619601084,-0.05721137028420291,0.0657824046506462,0.4168042970452671,3,left
15.968,0.527159737638777,1.1963984930841467,-0.30672805492139515,0.7754647478330262,3.505958311179801,-1.8341205387817296,-0.059840703762226985,0.06880165271782786,0.42020158711858707,3,left
15.969000000000001,0.526681523304493,1.1951598143010769,-0.30657168757307746,0.7702209611211905,3.4811679564650686,-1.8355493638167228,-0.062389473152817586,0.07183456078202091,0.4234168391473485,3,left
15.97,0.5262149918254738,1.1938648436057702,-0.30639443928806065,0.765634933017739,3.456759149499362,-1.8367396666428146,-0.06485453862789248,0.07488413252131486,0.4264525452167619,3,left
15.985999999999999,0.5257593739848284,1.192516163097231,-0.30619611647814315,0.7617138407002415,3.4327631417825297,-1.8376858403992802,-0.06723306847251666,0.07795350175997891,0.42931178157984373,3,left
16.044,0.5253136359516705,1.1911163955748114,-0.30597658635312563,0.7584600918048382,3.409211548068665,-1.8383832958551554,-0.06952254300056668,0.08104587782235814,0.431998157351134,3,left
16.046,0.5248764995829448,1.1896681967113316,-0.30573578014550573,0.7558713741493589,3.3861362956769105,-1.8388285129252284,-0.07172075710340202,0.08416449061929733,0.43451575120698416,3,left
16.047,0.5244464641771135,1.1881742445274603,-0.3054736950315321,0.7539407531958209,3.3635695686851936,-1.8390190879677548,-0.07382582135493611,0.087312535682646,0.43686903670323707,3,left
16.048,0.5240218298345978,1.1866372255983866,-0.3051903944450668,0.7526568078279248,3.341543740818947,-1.838953774640867,-0.0758361614710916,0.09049311967355761,0.4390627977245289,3,left
16.048,0.5236007225983732,1.1850598184577743,-0.304886006775852,0.7520037973748307,3.3200912923783243,-1.8386325166501862,-0.07775051585183461,0.09370920706264596,0.44110203608112275,3,left
16.102,0.5231811212754479,1.1834446754295094,-0.3045607226586247,0.7519618569558807,3.2992447093556403,-1.8380564716376537,-0.0795679310032441,0.09696356850787168,0.44299187276654617,3,left
16.102999999999998,0.5227608854506893,1.1817944041871624,-0.3042147911012957,0.7525072201002738,3.2790363646893366,-1.8372280256020104,-0.08128775476871837,0.10025873119999354,0.4447374437003843,3,left
16.104,0.5223377840753421,1.1801115498967387,-0.30384851459319145,0.7536124672109722,3.25949838238176,-1.836150796604675,-0.08290962740149672,0.10359693154305953,0.44634379135515306,3,left
16.105,0.5219095241331533,1.178398578407316,-0.3034622432132078,0.7552467979675934,3.240662485472708,-1.834829626098931,-0.08443347058518139,0.10698007098872947,0.44781575550424846,3,left
16.105999999999998,0.5214737789310468,1.1766578609648566,-0.30305636773166117,0.7573763262409952,3.222559828599603,-1.8332705566347165,-0.0858594745424875,0.11040967611315043,0.4491578674047391,3,left
16.182000000000002,0.5210282155467986,1.1748916611615317,-0.3026313117787237,0.7599643969511389,3.205220815403754,-1.8314807954378072,-0.0871880833383461,0.11388686375541601,0.4503742506511813,3,left
16.184,0.5205705211352898,1.1731021248944717,-0.3021875232867994,0.7629719247776025,3.1886749007812685,-1.8294686637765838,-0.08841997842232423,0.11741231155110707,0.45146852999731946,3,left
16.185,0.52009842813101,1.171291273835651,-0.3017254655316368,0.7663577547287788,3.1729503779266603,-1.8272435321119223,-0.08955606042122413,0.12098623392473055,0.4524437483649723,3,left
16.185,0.5196097387097863,1.169461002483449,-0.3012456081750227,0.7700790440325002,3.158074150826861,-1.8248157411369794,-0.09059742918567992,0.12460836355104762,0.4533022920436069,3,left
16.186,0.5191023490544895,1.1676130785211556,-0.30074841877323566,0.774091662088968,3.144071496402808,-1.822196509372499,-0.09154536209429226,0.12827793829541873,0.45404582408375016,3,left
16.187,0.5185742739128758,1.1657491460490208,-0.30023435523968683,0.7783506003264428,3.1309658268651326,-1.8193978289897315,-0.09240129068126912,0.13199369357747573,0.45467522606291083,3,left
16.207,0.5180236716902337,1.163870731218687,-0.2997038596997672,0.7828103810780529,3.1187784663900957,-1.816432352091964,-0.09316677596677825,0.13575385977278814,0.45519054928167224,3,left
16.237000000000002,0.5174488700765361,1.1619792497507124,-0.29915735402706506,0.7874254573219701,3.1075284526872413,-1.8133132691256268,-0.09384348343326632,0.13955616367371987,0.4555909780300702,3,left
16.239,0.5168483919747718,1.1600760156948926,-0.2985952370526595,0.7921506000294212,3.0972323676658133,-1.8100541800843453,-0.09443315890424459,0.1433978327010236,0.4558748084433692,3,left
16.24,0.5162209810431836,1.1581622506881513,-0.29801788301597226,0.796941272588635,3.0879041978724007,-1.8066689586093476,-0.09493760628357416,0.14727560099849699,0.45603944559982035,3,left
16.24,0.5155656255657541,1.1562390930311717,-0.2974256405021184,0.8017539923670107,3.0795552246356728,-1.8031716092818175,-0.09535866762522086,0.1511857176910979,0.45608141999551577,3,left
16.319000000000003,0.5148815791849276,1.1543076061450173,-0.2968188311306421,0.8065466797197264,3.0721939436974965,-1.7995761199249987,-0.09569820579459405,0.15512395879540342,0.455996423586987,3,left
16.320999999999998,0.5141683774939408,1.152368786225491,-0.2961977475674831,0.8112789951953142,3.065826013825751,-1.795896313474207,-0.09595808983208681,0.15908564429554364,0.45577936456680196,3,left
16.322,0.5134258501081328,1.150423569107666,-0.2955626507856172,0.8159126659344127,3.0604542337476697,-1.792145705495198,-0.09614018275737768,0.16306566027039934,0.45542443832471685,3,left
16.323,0.5126541282846945,1.148472836552667,-0.2949137668675103,0.8204118020122322,3.056078546904664,-1.7883373719084334,-0.09624633125104402,0.16705848436394555,0.45492521101358174,3,left
16.324,0.5118536485684434,1.1465174223952055,-0.2942512840789416,0.8247432026051225,3.052696073339771,-1.784483828631029,-0.09627835673735954,0.17105821293250198,0.45427471298799815,3,left
16.325,0.5110251531904246,1.1445581191247058,-0.29357535120363565,0.8288766494764002,3.0503011657939054,-1.7805969228012135,-0.09623804767193089,0.1750585891649206,0.45346554101689945,3,left
16.375,0.5101696877472712,1.142595685423004,-0.2928860779377718,0.8327851813762871,3.048885482807064,-1.7766877340020393,-0.09612715299318657,0.1790530321093079,0.45248996881472164,3,left
16.377,0.5092885962600523,1.140630855030556,-0.29218353768588895,0.836445340811006,3.048438069226375,-1.7727664833768304,-0.09594737668691307,0.18303466686598943,0.45134006426377876,3,left
16.377,0.5083835135016731,1.1386643471054585,-0.291467772723523,0.8398373867748441,3.04894543692282,-1.7688424490528771,-0.09570037333647272,0.18699635657877275,0.4500078092617522,3,left
16.378,0.5074563545036963,1.1366968777283293,-0.2907388013714025,0.8429454708891666,3.0503916428360127,-1.7649238872332258,-0.0953877444887177,0.1909307370634051,0.4484852167731383,3,left
16.379,0.5065093012663071,1.134729171357624,-0.28999662638320933,0.8457577765413282,3.0527583640750477,-1.7610179590966195,-0.09501103570783419,0.19483025470522755,0.44676444101758356,3,left
16.455,0.5055447870368722,1.1327619705761882,-0.28924124339513824,0.848266621095273,3.056024971329281,-1.7571306650310343,-0.09457173428060452,0.19868720782079588,0.44483787915235967,3,left
16.457,0.5045654790220486,1.130796043017681,-0.2884726484546586,0.850468521337921,3.06016860372426,-1.7532667900313366,-0.09407126765428121,0.2024937911471763,0.44269826409325125,3,left
16.457,0.5035742605911885,1.1288321855545578,-0.28769084437994064,0.8523642223763306,3.0651642493043556,-1.7494298653722091,-0.09351100283242311,0.2062421424977266,0.44033874826785097,3,left
16.458,0.50257421349859,1.126871226810426,-0.2868958464687024,0.8539586901480295,3.0709848342825308,-1.7456221503869502,-0.09289224702934172,0.2099243902989247,0.43775297802765023,3,left
16.459,0.5015685995329257,1.1249140293245272,-0.2860876882546681,0.8552610676129212,3.0776013223215353,-1.7418446358777644,-0.0922162498081522,0.2135327010467882,0.43493515851171693,3,left
16.46,0.5005608404850415,1.1229614924156606,-0.28526642757630993,0.8562845950168058,3.084982823737943,-1.738097069180514,-0.09148420679139453,0.21705932630468527,0.43188010887475026,3,left
16.514,0.49955449621250614,1.1210145563197573,-0.28443215268326766,0.8570464963318606,3.093096712992359,-1.7343779994806305,-0.09069726495754529,0.22049664918827364,0.4285833078586686,3,left
16.516,0.49855324163209197,1.1190742076351345,-0.2835849878516737,0.8575678366233537,3.1019087515286756,-1.730684839679746,-0.08985652949788821,0.22383723033484104,0.42504092980917013,3,left
16.517,0.49756084341859735,1.1171414857529463,-0.2827250980755634,0.8578733556601922,3.1113832143966667,-1.7270139394654977,-0.0889630720900892,0.22707385328870935,0.42124987178575224,3,left
16.518,0.4965811364680532,1.1152174899146892,-0.28185269268616475,0.8579912804916159,3.121483022434221,-1.7233606650495779,-0.08801794023233275,0.2301995691164292,0.4172077733988915,3,left
16.519000000000002,0.49561799958642827,1.1133033866033724,-0.2809680279615629,0.8579531170669005,3.132169883090233,-1.7197194833363856,-0.0870221671637601,0.23320773999983788,0.4129130315551111,3,left
16.588,0.494675329711068,1.1114004170335483,-0.2800714088044323,0.8577934204052047,3.143404441601869,-1.716084049931893,-0.08597678201476015,0.2360920816201324,0.40836481174221945,3,left
16.590999999999998,0.49375701430522706,1.109509904466609,-0.27916318950240115,0.8575495431712925,3.155146442891504,-1.7124473009225991,-0.08488282004284615,0.2388467042634695,0.4035630565003773,3,left
16.592,0.4928669020792043,1.1076332608276152,-0.27824377361766195,0.8572613626570978,3.1673549042139464,-1.7088015484140973,-0.08374133292766743,0.2414661526436459,0.3985084911762003,3,left
16.593,0.4920087725331317,1.1057719918757467,-0.27731361316442793,0.8569709861687519,3.1799882985861365,-1.7051385798188,-0.08255339910594237,0.24394544442781016,0.3932026269976726,3,left
16.593,0.4911863049324206,1.1039277002321646,-0.2763732072797744,0.8567224348184576,3.193004749032964,-1.7014497608823533,-0.0813201340458943,0.24628010733917485,0.387647761761138,3,left
16.594,0.4904030473306539,1.1021020858256876,-0.27542310055366526,0.8565613057758822,3.206362233452654,-1.6977261422702394,-0.08004270021471863,0.24846621450941328,0.38184697887849317,3,left
16.649,0.4896623862461808,1.1002969436433794,-0.2744638811447761,0.8565344133107775,3.220018798748723,-1.6939585686959346,-0.07872231641141109,0.2505004176414127,0.37580414578620486,3,left
16.65,0.4889675175773898,1.0985141589762846,-0.27349617880395516,0.856689409457326,3.233932780792804,-1.6901377880597952,-0.07736026622337054,0.25237997757410213,0.3695239124644579,3,left
16.651,0.48832141925048406,1.0967557005390625,-0.2725206629300629,0.8570743857723447,3.248063025311403,-1.6862545572663077,-0.07595790553672196,0.25410279164080063,0.3630117103645333,3,left
16.652,0.4877268259416612,1.0950236118755072,-0.27153804077074917,0.8577374592044955,3.2623691043753964,-1.6822997424205615,-0.07451666915758368,0.25566741660236175,0.3562737518021457,3,left
16.653,0.4871862060671401,1.0933200014019049,-0.27054905587134376,0.8587263478725139,3.2768115224246257,-1.678264412964628,-0.07303807664333828,0.2570730855575249,0.3493170298310322,3,left
16.708,0.4867017411386379,1.09164703142737,-0.2695544869086028,0.860087944095764,3.291351905345446,-1.6741399303477003,-0.07152373741710902,0.25831971763318007,0.3421493186023331,3,left
16.709,0.4862753075973305,1.0900069065697118,-0.26855514708188793,0.8618678901441397,3.305953167923918,-1.66991803179838,-0.06997535519219546,0.2594079199781437,0.33477917420012177,3,left
16.71,0.4859084614806599,1.0884018620605884,-0.2675518841503369,0.8641101588962655,3.320579657828713,-1.6655909094194212,-0.06839473170737281,0.26033898198433403,0.3272159359347297,3,left
16.726,0.48560242667377485,1.0868341523954816,-0.26654558100353454,0.8668566397743365,3.3351972758508692,-1.6611512846317054,-0.06678376976870826,0.2611148617389284,0.31946972807329505,3,left
16.727999999999998,0.4853580875618273,1.0853060405855888,-0.26553715651403664,0.8701467299608074,3.349773572442267,-1.656592477955312,-0.06514447557571985,0.26173816480848033,0.3115514618697714,3,left
16.729,0.4851759863560299,1.083819788014659,-0.26452756644546255,0.8740169312914221,3.36427782084586,-1.6519084742374757,-0.06347896022096068,0.26221211594476207,0.30347283717302875,3,left
16.785999999999998,0.485056324763116,1.0823776447823594,-0.26351780429262134,0.878500455587541,3.3786810684687993,-1.6470939839226375,-0.06178944009245216,0.26254052518228777,0.29524634184165827,3,left
16.789,0.4849989695762074,1.0809818404474885,-0.26250890200580906,0.8836268468201033,3.3929561709226492,-1.6421445014322056,-0.06007823583655872,0.26272775026100353,0.28688524653305303,3,left
16.79,0.48500346195147764,1.0796345751376688,-0.2615019305772221,0.8894216342841504,3.407077815334215,-1.637056361203095,-0.0583477697119702,0.26277865669160777,0.27840359262944564,3,left
16.791,0.485069030062822,1.0783380109765224,-0.26049800044325,0.895906031160993,3.4210225387881152,-1.6318267906950825,-0.05660056147705872,0.2626985756724761,0.26981617141518904,3,left
16.792,0.485194604451704,1.0770942636517549,-0.25949826159676387,0.9030966872191274,3.4347687449887006,-1.6264539592038747,-0.05483922312596449,0.2624932594511661,0.2611384928147516,3,left
16.854,0.48537883523422143,1.0759053936642933,-0.25850390325478073,0.9110054986219823,3.4482967200489587,-1.6209370218345796,-0.05306645272194094,0.26216883375159233,0.25238674250464527,3,left
16.855999999999998,0.48562011077940287,1.0747733964438277,-0.2575161529070348,0.9196394752883972,3.4615886475490956,-1.6152761584950637,-0.05128502742434413,0.26173174711502933,0.243577726909672,3,left
16.857,0.48591657814213646,1.0737001904828574,-0.2565362745824981,0.929000665826516,3.4746286229042433,-1.6094726078937542,-0.04949779572111216,0.26118871712909275,0.23472880598109855,3,left
16.863,0.48626616571664893,1.072687603278327,-0.2555655662427375,0.9390861395373602,3.487402666706909,-1.6035286964205808,-0.047707668861647796,0.2605466735437821,0.22585781373165387,3,left
16.864,0.4866666081555459,1.071737355764613,-0.2546053562921034,0.9498880223540783,3.4998987348430908,-1.597447861261998,-0.045917611484993,0.2598126982733436,0.21698296650208096,3,left
16.865,0.48711547306727593,1.070851046267284,-0.25365699918707735,0.9613935788467233,3.5121067198214355,-1.591234666151448,-0.04413063141886606,0.25899396237165456,0.20812275903833805,3,left
16.921,0.4876101887543577,1.0700301347456957,-0.25272187007049707,0.9735853297921384,3.524018435888025,-1.5848948076288902,-0.04234976852861822,0.25809766051478844,0.19929584898087147,3,left
16.923,0.4881480722164011,1.0692759278272674,-0.2518013583516278,0.9864411974429229,3.5356275823646115,-1.5784351102099572,-0.040578082321456155,0.25713094432738265,0.19052093130767023,3,left
16.924,0.4887263566346983,1.0685895651833046,-0.2508968602089085,0.9999346753696771,3.5469296830061223,-1.5718635098141165,-0.038818637914779734,0.25610085633542806,0.1818166047952445,3,left
16.925,0.48934221765381797,1.0679720079667152,-0.25000977007260383,1.0140350223850376,3.5579220010384405,-1.565189025328165,-0.03707449010090855,0.25501426593041926,0.17320123225987652,3,left
16.925,0.4899927980948226,1.0674240300284854,-0.24914147121332966,1.0287074806386138,3.5686034301065597,-1.5584217183067193,-0.03534866554870982,0.25387780817028616,0.16469279650384436,3,left
16.989,0.4906752311039814,1.0669462123896818,-0.24829332558539693,1.0439135182349548,3.578974362346102,-1.5515726409120025,-0.03364414352128559,0.25269782623514914,0.1563087553536342,3,left
16.992,0.4913866619735014,1.0665389411365338,-0.24746666308886847,1.0596110971985653,3.5890365365611117,-1.544653772376698,-0.031963835642724286,0.2514803185104429,0.14806590017543536,3,left
16.993,0.49212426906351375,1.0662024086433934,-0.24666277051573704,1.0757549678728113,3.5987928704739027,-1.5376779443743378,-0.030310565112472133,0.25023089102589663,0.13998022115101671,3,left
17.002,0.49288528444065705,1.065936617789185,-0.24588288061657,1.0922969905798934,3.6082472800281034,-1.5306587555804891,-0.02868704552383683,0.24895471553968967,0.1320667806129373,3,left
17.003,0.49366701480637537,1.065741388628438,-0.24512816181018646,1.1091864849003161,3.6174044869543307,-1.523610475526065,-0.027095859361435458,0.24765649328421768,0.12433959480570238,3,left
17.003,0.49446686297530773,1.0656163669093381,-0.2443997089735753,1.1263706060238432,3.6262698154894832,-1.5165479378075506,-0.025539436489238815,0.24634042419671903,0.11681152506820582,3,left
17.053,0.49528234986978026,1.0655610339388308,-0.2436985355677961,1.1437947443401852,3.634848982274002,-1.509486423021697,-0.024020033415542985,0.24501018119817555,0.1094941809610976,3,left
17.055,0.4961111369022141,1.0655747174279286,-0.24302556717658133,1.16140293861993,3.643147889446354,-1.5024415323736804,-0.022539714384954692,0.2436688889395273,0.10239783871202818,3,left
17.059,0.49695104853008754,1.0656566029171541,-0.24238163633976434,1.179138289904427,3.651172434284128,-1.4954290532307493,-0.021100335083913277,0.24231910657849876,0.09553137750350997,3,left
17.059,0.497800094390694,1.065805745246017,-0.24176747829519388,1.196943366456664,3.658928345409357,-1.4884648175703201,-0.019703529267614654,0.2409628144781829,0.08890223463576614,3,left
17.06,0.4986564898616624,1.0660210795336473,-0.2411837270082196,1.2147605960823042,3.66642104946542,-1.4815645540096722,-0.01835069833180163,0.239601405203472,0.08251637992294733,3,left
17.122,0.4995186736970924,1.066301431331862,-0.24063091088886912,1.2325326460523942,3.6736555682728556,-1.4747437353797797,-0.017043003762739806,0.23823567983346017,0.07637830982548496,3,left
17.125,0.5003853218197519,1.0666455258332044,-0.24010944792905908,1.250202792746802,3.680636444781514,-1.4680174266183952,-0.015781362377970384,0.23686585094858667,0.07049106199618863,3,left
17.127,0.5012553570262755,1.0670519961724216,-0.23961964051272094,1.267715283826821,3.6873676955674504,-1.461400139356045,-0.014566444291406789,0.2354915533106087,0.06485625074423026,3,left
17.137,0.5021279548032529,1.0675193910141714,-0.23916167066930494,1.2850156950559024,3.6938527881904935,-1.4549056979704553,-0.013398673546557115,0.23411186252239866,0.059474123403900216,3,left
17.137999999999998,0.503002545465842,1.0680461817980578,-0.23873559676434364,1.3020512821752335,3.700094642348865,-1.4485471188814214,-0.012278231245418051,0.23272532102447857,0.05434363639917601,3,left
17.139,0.5038788125704009,1.0686307700970352,-0.2383413523972927,1.3187713251953992,3.706095652326088,-1.4423365026263857,-0.01120506075789727,0.2313299696561287,0.04946254792071323,3,left
17.188,0.5047566873828687,1.0692714954878124,-0.2379787478367038,1.3351274580866523,3.711857724722671,-1.4362849367970445,-0.010178874459538382,0.22992338241948773,0.044827523110189095,3,left
17.19,0.5056363392507794,1.0699666441080935,-0.23764747386290547,1.35107397449388,3.7173823234556513,-1.4304024072840043,-0.009199161582675792,0.22850270267444417,0.04043424867005136,3,left
17.195999999999998,0.5065181620122369,1.070714457427777,-0.23734710734110015,1.3665681024571295,3.7226705160170996,-1.4246977159106136,-0.008265197013274458,0.22706468005302088,0.036277555657761584,3,left
17.195999999999998,0.5074027573261238,1.0715131399921247,-0.23707711754667987,1.381570245357763,3.7277230185976795,-1.4191784036781887,-0.007376050993873634,0.2256057080104254,0.03235154993425556,3,left
17.197,0.508290916988992,1.0723608651492231,-0.23683687281971297,1.39604418853047,3.732540239827838,-1.413850679783652,-0.006530599674689043,0.22412186224328134,0.02864974837915328,3,left
17.208,0.5091836068306796,1.0732557790132253,-0.23662564804333847,1.4099572707794659,3.7371223239824487,-1.4087193582210231,-0.005727536372364564,0.22260894055741104,0.025165216173675606,3,left
17.254,0.5100819535539997,1.0741960036217502,-0.23644263349817135,1.4232805188266482,3.741469195740008,-1.4037878065204479,-0.004965383350051555,0.22106250496298196,0.02189069889052286,3,left
17.256,0.5109872335073476,1.0751796400583098,-0.23628694494485317,1.4359887420462312,3.7455806092789983,-1.3990579127021874,-0.004242503978560372,0.21947792657925372,0.018818744692976987,3,left
17.265,0.5119008609606241,1.0762047723402448,-0.23615763446753119,1.4480605855105149,3.749456203801162,-1.3945300750003575,-0.0035571152382326402,0.21785043351887326,0.015941814781890794,3,left
17.265,0.5128243742985055,1.07726947338218,-0.23605370181340182,1.459478540578917,3.7530955663248124,-1.3902032161700737,-0.0029073006526826894,0.2161751614245637,0.013252381909818879,3,left
17.266,0.5137594202747979,1.0783718140477405,-0.23597410596939983,1.4702289134797388,3.756498301627488,-1.3860748223799335,-0.0022910239086518366,0.21444720574913712,0.010743017306324052,3,left
17.322,0.514707736930519,1.0795098746032323,-0.2359177764501149,1.4803017552035205,3.7596641077235167,-1.3821410049421459,-0.001706143501767961,0.21266167456813606,0.008406466476678282,3,left
17.324,0.5156711351431035,1.0806817566055105,-0.2358836237472658,1.4896907609512755,3.762592852822983,-1.3783965805311666,-0.0011504286626634024,0.21081374101577377,0.006235714219091164,3,left
17.342,0.516651478463786,1.0818855939879577,-0.2358705487125395,1.4983931501158243,3.765284648363269,-1.3748351640966956,-0.000621576636187706,0.20889869496527577,0.004224039109130288,3,left
17.344,0.5176506610933852,1.0831195635501787,-0.23587745090568588,1.506409535035667,3.7677399140583128,-1.3714492701230205,-0.00011723116100970297,0.2069119938154677,0.0023650581565637847,3,left
17.345,0.5186705839969271,1.0843818953787538,-0.23590323593249882,1.5137437818325734,3.7699594333484105,-1.3682304204892557,0.00036499827226438845,0.2048493121964995,0.0006527633494562262,3,left
17.345,0.5197131291935815,1.0856708831326822,-0.235946821733122,1.5204028635840594,3.7719443992535706,-1.3651692585170174,0.0008275169463437556,0.20270659034680819,-0.0009184476254993541,3,left
17.387,0.5207801323670992,1.0869848936480715,-0.23600714381132867,1.5263967039265938,3.7736964522346335,-1.3622556685112444,0.001272725647602616,0.20048008097381273,-0.0023537447706849807,3,left
17.387999999999998,0.521873354114948,1.0883223752323083,-0.23608315945835642,1.5317380062926427,3.7752177140614642,-1.3594788990735016,0.0017030017710259404,0.1981663945196901,-0.003657842589795167,3,left
17.4,0.5229944503225703,1.08968186403931,-0.23617385107982047,1.5364420623767334,3.776510823017811,-1.3568276878971113,0.0021206808454957964,0.1957625427870813,-0.0048349801661099106,3,left
17.401,0.5241449423233494,1.091061987902972,-0.23627822876742663,1.5405265352263817,3.7775789743387427,-1.3542903862323934,0.0025280385790576072,0.1932659807571092,-0.005888904221230434,3,left
17.402,0.5253261875762144,1.0924614671109143,-0.23639533223692882,1.544011216225554,3.778425966869945,-1.351855081777874,0.0029272736712954556,0.19067464619001995,-0.006822854433767583,3,left
17.454,0.5265393514788952,1.0938791119133235,-0.2365242322146062,1.5469177586117182,3.7790562546881157,-1.349509718496743,0.0033204917218719304,0.18798699646415576,-0.007639550055685223,3,left
17.456,0.5277853808259931,1.095313816982712,-0.2366640313710386,1.5492693914698674,3.7794750016446357,-1.3472422115126121,0.0037096904822955146,0.18520204224304765,-0.008341177105067713,3,left
17.477999999999998,0.5290649794186769,1.096764553432763,-0.23681386497538187,1.5510906171622734,3.779688137304287,-1.345040555698569,0.004096746540946625,0.18231937772183,-0.00892937586772547,3,left
17.479,0.5303785862811632,1.0982303592134854,-0.23697290150376768,1.5524068933818553,3.7797024136685744,-1.3428929274011727,0.004483403402035554,0.17933920693757077,-0.009405228778293173,3,left
17.48,0.5317263568096913,1.0997103286711363,-0.2371403434347537,1.5532443000325507,3.7795254625828143,-1.3407877792009195,0.0048712608174814286,0.1762623649334784,-0.009769248974310002,3,left
17.48,0.5331081471482099,1.1012036019640337,-0.2373154284175881,1.5536291913583302,3.7791658534285144,-1.3387139276945135,0.005261765183317207,0.17309033216598904,-0.010021369913600931,3,left
17.52,0.5345235022207475,1.1027093549710618,-0.23749743092180423,1.5535878358228452,3.7786331487064535,-1.3366606342428737,0.005656200859601926,0.16982524094413767,-0.01016093634779745,3,left
17.521,0.535971647990549,1.1042267901699976,-0.237685664371986,1.5531460499875356,3.777937951523348,-1.3346176785541082,0.006055682358104343,0.16646987341156258,-0.010186696769631359,3,left
17.537,0.5374514884027823,1.105755128609812,-0.23787948365629916,1.552328834716519,3.7770919369989406,-1.3325754249292159,0.006461147389406993,0.1630276509818991,-0.010096797354155904,3,left
17.538,0.5389616069291001,1.1072936027528464,-0.23807828779504003,1.5511600199535593,3.776107861605376,-1.3305248810399029,0.006873350783919922,0.15950261533973767,-0.0098887775420766,3,left
17.539,0.5405002718790626,1.1088414498462966,-0.23828152250595672,1.5496619210103801,3.7749995483695598,-1.3284577493111664,0.007292859368076026,0.1558994017268021,-0.00955956815196696,3,left
17.588,0.5420654442962655,1.1103979055847193,-0.23848868244594898,1.5478550094343255,3.773781849500862,-1.3263664716650005,0.00772004799718026,0.1522232063266897,-0.009105494237868354,3,left
17.59,0.5436547876063418,1.1119621979593963,-0.2386993130204948,1.5457576050869317,3.7724705913510514,-1.324244269545679,0.008155097013172557,0.14847975016901696,-0.008522285647353578,3,left
17.615,0.5452656788280752,1.1135335412198801,-0.23891301177909807,1.5433855984608968,3.7710825082941875,-1.322085181672948,0.008597991328816184,0.1446752413658522,-0.007805097495863344,3,left
17.617,0.5468952216486014,1.1151111298182579,-0.23912942952514385,1.540752210976701,3.7696351707005626,-1.3198841007462068,0.00904852122526336,0.14081633633535512,-0.0069485414273021354,3,left
17.618,0.5485402618545082,1.1166941321257973,-0.23934827130438505,1.5378677986856653,3.768146909634486,-1.3176368081209506,0.00950628491121253,0.13691009974051388,-0.005946727714561613,3,left
17.619,0.5501974055459731,1.11828168353734,-0.23956929733197366,1.5347397035200931,3.766636739492159,-1.315340004255466,0.009970692928956647,0.13296396217477036,-0.004793317966824183,3,left
17.653,0.5518630404141867,1.1198728783847163,-0.2397923237111468,1.5313721548617873,3.7651242792451827,-1.3129913331782794,0.01044097452065247,0.12898567430707228,-0.0034815881330727176,3,left
17.675,0.5535333601727224,1.1214667603209736,-0.24001722263009426,1.5277662223372588,3.763629672200133,-1.3105894002688063,0.010916186040152064,0.12498325651785275,-0.002004501567839361,3,left
17.677,0.5552043918945118,1.12306231157488,-0.24024392169769385,1.5239198188462564,3.762173502195359,-1.3081337832054403,0.011395221445339998,0.12096494363170035,-0.00035479206343533336,3,left
17.679000000000002,0.5568720256096092,1.1246584419471195,-0.24047240214699028,1.519827750889815,3.7607767009327318,-1.305625036016969,0.011876824877927,0.11693912467148887,0.0014749431705266694,3,left
17.68,0.5585320452063833,1.126253978221368,-0.2407026956999169,1.5154818122886249,3.7594604393761344,-1.3030646861539252,0.01235960532559472,0.11291427781549838,0.003492140682006919,3,left
17.714000000000002,0.5601801594614099,1.1278476543317084,-0.24093487994623494,1.5108709183565279,3.758245997914583,-1.30045522451546,0.012842053329056228,0.10889890170407283,0.00570415869514834,3,left
17.715999999999998,0.5618120320451623,1.1294381026160039,-0.24116907219772102,1.5059812793477183,3.7571546131668203,-1.2978000884015848,0.013322559638390661,0.10490144597944398,0.008118157239352067,3,left
17.750999999999998,0.5634233097557273,1.1310238466536588,-0.24140542193671102,1.5007966125681251,3.7562073014768127,-1.2951036372553897,0.01379943569067291,0.10093024490741356,0.010740972443240652,3,left
17.752,0.5650096488137547,1.1326032962611021,-0.24164410212056134,1.4952983907252446,3.755424661534875,-1.292371120442439,0.014270935775630406,0.09699345688291856,0.013578986690222184,3,left
17.752,0.5665667394526275,1.1341747450945059,-0.24188529964970992,1.489466120471223,3.754826662216763,-1.2896086351964409,0.014735280626125011,0.09309901047627445,0.01663799660049837,3,left
17.753,0.5680903291770754,1.135736371070397,-0.24212920528627624,1.4832776430827517,3.7544324237652797,-1.286823072239081,0.015190681863933225,0.08925455597719241,0.019923082377771198,3,left
17.787,0.5695762451550045,1.1372862395870496,-0.2423760033519429,1.4767094512308154,3.75425999840762,-1.2840220472029047,0.01563536654960896,0.0854674207925782,0.023438483106514484,3,left
17.811,0.5710204163511734,1.1388223093288705,-0.24262586163261948,1.469737018984721,3.7543261532542846,-1.2812138173200722,0.01606760127333415,0.08174456746241612,0.027187481441884553,3,left
17.812,0.5724188960331841,1.1403424402823343,-0.24287892192251007,1.4623351420726307,3.7546461583408197,-1.2784071845411842,0.016485715522962192,0.07809255385128805,0.031172299209946408,3,left
17.813,0.5737678850725191,1.1418444035768012,-0.24313529150991717,1.4544782819849669,3.7552335859519284,-1.2756113883171234,0.016888124056922527,0.074517495773358,0.035394004966724575,3,left
17.814,0.5750637561099123,1.143325892850796,-0.24339503573848528,1.4461409053743304,3.7561001294148344,-1.272835992357178,0.017273347693281718,0.07102503291596628,0.03985243555064916,3,left
17.854,0.5763030782450992,1.1447845368649991,-0.24365817162193912,1.4372978123359164,3.757255447502844,-1.2700907685963823,0.017640031729568337,0.06762029921912106,0.044546134338241304,3,left
17.855,0.5774826415545566,1.1462179130037453,-0.24392466231534163,1.4279244509879117,3.7587070369068147,-1.2673855796604616,0.017986961404571764,0.06430789857645434,0.049472308238961496,3,left
17.891,0.5785994805838923,1.147623561246427,-0.2441944120966326,1.4179972179015585,3.7604601331863834,-1.2647302600364891,0.01831307416724151,0.061091886197949884,0.05462680425154359,3,left
17.893,0.5796508960268566,1.1489989982032949,-0.24446726156219376,1.4074937443554298,3.7625176402042793,-1.2621344959413934,0.01861746873061679,0.057975755609873475,0.06000410572473606,3,left
17.894000000000002,0.580634474014178,1.1503417308718873,-0.24474298304929426,1.3963931683869342,3.7648800880479065,-1.259607703880565,0.01889941100903178,0.054962430843274034,0.06559734830373609,3,left
17.895,0.5815481027707504,1.1516492698752627,-0.24502127668200416,1.3846763926272687,3.7675456192145815,-1.2571589081066514,0.019158337182658906,0.05205426270401385,0.0713983554949701,3,left
17.92,0.5823899867787093,1.1529191420892568,-0.24530176768655715,1.3723263279782854,3.7705100016943986,-1.2547966182772694,0.019393854214433077,0.04925302765163484,0.07739769375513023,3,left
17.947,0.5831586587537358,1.1541489027434753,-0.24558400565508545,1.3593281233210603,3.7737666655276776,-1.2525287105698222,0.019605738092132705,0.04655992823510892,0.08358474676779044,3,left
17.948,0.5838529895744824,1.1553361472852486,-0.24586746627157308,1.3456693815180902,3.7773067582714956,-1.2503623166002984,0.019793930066648785,0.04397559496505827,0.0899478072678826,3,left
17.949,0.584472196018546,1.1564785235058135,-0.24615155574331368,1.3313403618953235,3.781119215953984,-1.2483037234047096,0.0199585313359199,0.041500090358865455,0.09647418236699887,3,left
17.949,0.5850158460229893,1.1575737446104328,-0.246435617896287,1.316334168856963,3.785190847924181,-1.2463582856968616,0.020099796751932773,0.03913291624114057,0.10315030698557826,3,left
17.988,0.5854838612645691,1.1586196039912244,-0.24671894366964722,1.30064692421828,3.789506434001343,-1.2445303500981206,0.020218127983922456,0.03687302510977314,0.10996186135146042,3,left
17.99,0.5858765170656257,1.1596139922187065,-0.24700078259727168,1.2842779172395484,3.7940488304906443,-1.2428231900437055,0.020314066311282918,0.034718835887517036,0.11689389096001866,3,left
18.025,0.5861944398140055,1.160554915905131,-0.2472803555876486,1.2672297244309298,3.7987990807536423,-1.2412389499488294,0.0203882850754342,0.0326682541068161,0.12393092874443566,3,left
18.027,0.5864386020838531,1.1614405167809114,-0.24755686782280498,1.249508293590937,3.8037365285138813,-1.2397785991898347,0.020441581797617014,0.03071869653427967,0.1310571192691573,3,left
18.028,0.5866103155619846,1.1622690886084224,-0.24782952039807268,1.2311229908496664,3.8088389365630717,-1.238441900004469,0.020474870002670207,0.028867120306044453,0.1382563437274041,3,left
18.028,0.5867112220876572,1.1630390902827608,-0.24809751991377,1.2120866118807943,3.814082616025206,-1.237227395387288,0.02048917084845197,0.027110056761699138,0.14551234266541943,3,left
18.054000000000002,0.5867432835646424,1.163749155156154,-0.24836008626118433,1.1924153584399486,3.8194425702227734,-1.236132421600861,0.02048560469365447,0.025443650229261917,0.15280883232388753,3,left
18.084,0.5867087713390139,1.1643980979045583,-0.24861645946267436,1.172128781095092,3.824892654360686,-1.2351531467460584,0.020465382703555704,0.02386370194945717,0.16012961151966607,3,left
18.086,0.5866102544342615,1.1649849200492766,-0.24886590621437157,1.1512496907849925,3.8304057488456693,-1.2342846332792476,0.020429798510862726,0.022365719114436088,0.16745865785594755,3,left
18.086,0.58645058501871,1.1655088141625145,-0.24910772622676455,1.129804045674701,3.835953940091613,-1.2335209184307385,0.020380219802262456,0.02094496844567852,0.17478021311311526,3,left
18.087,0.5862328799188568,1.165969166735299,-0.24934125831148754,1.107820821950332,3.841508700606682,-1.232855104464988,0.020318079490609722,0.019596532848099073,0.1820788579358877,3,left
18.12,0.5859604983421306,1.1663655607798147,-0.24956588636013677,1.0853318750186145,3.8470410622131466,-1.232279452737549,0.020244866019300027,0.01831536919147277,0.18933957596390316,3,left
18.163,0.585637016825399,1.166697779356829,-0.24978104529074596,1.0623717936598236,3.852521779949847,-1.2317854791295542,0.020162112480577327,0.017096365738202366,0.1965478076353359,3,left
18.165,0.5852662022516836,1.1669658098333855,-0.24998622670454707,1.0389777475060364,3.8579214862622155,-1.2313640504549737,0.020071384543023083,0.015934398519427594,0.20368949440628042,3,left
18.165,0.5848519831440127,1.1671698478279229,-0.2501809838919974,1.015189327780183,3.863210835495678,-1.2310054818389715,0.0199742674939208,0.014824386281696581,0.2107511151229411,3,left
18.166,0.5843984190706216,1.167310300453094,-0.25036493597042403,0.991048380986372,3.868360639109049,-1.2306996350849881,0.0198723528343536,0.013761343631540334,0.21771971684717834,3,left
18.166,0.5839096680043705,1.1673877892134843,-0.2505377710250239,0.9665988340225404,3.873341994028952,-1.2304360181436973,0.01976722475534644,0.012740432097741632,0.22458294186580255,3,left
18.187,0.5833899516782153,1.1674031526993813,-0.2506992481602344,0.941886506992586,3.8781264101743553,-1.2302038859687312,0.01966044662620503,0.011757008997354948,0.23132905158783673,3,left
18.208,0.5828435193027471,1.1673574485711764,-0.2508491984880546,0.9169589087759465,3.882685945184552,-1.229992343139543,0.01955354751666664,0.010806674083955895,0.23794694746373302,3,left
18.22,0.5822746103822188,1.1672519539972228,-0.2509875252422367,0.8918650116843698,3.886993352049905,-1.229790448363961,0.01944800875256418,0.009885313975177364,0.24442618894623472,3,left
18.222,0.5816874175607384,1.16708816380478,-0.2511142032793068,0.8666550039999965,3.8910222400912757,-1.2295873199384622,0.0193452505204462,0.008989144334321922,0.25075700855687894,3,left
18.222,0.58108605031166,1.1668677859057015,-0.25122927817323626,0.8413800208967248,3.894747244768713,-1.2293722395954285,0.019246618615326026,0.008114749669056119,0.25693032434496643,3,left
18.253,0.5804745000001369,1.166592733889009,-0.25133286502396013,0.8160918547623598,3.898144199753888,-1.2291347512845707,0.019153371567452376,0.007259120408893276,0.26293775042718437,3,left
18.298,0.5798566066690582,1.1662651170125724,-0.2514251470716962,0.7908426456663501,3.9011903063444024,-1.2288647522987448,0.019066668455721372,0.006419686733899839,0.2687716065065875,3,left
18.3,0.5792360278519983,1.165887228126365,-0.2515063742196563,0.7656845526991677,3.903864297948598,-1.228552575757552,0.018987557601574265,0.005594348351678074,0.2744249269847229,3,left
18.3,0.5786162096525876,1.165461530146311,-0.2515768615617071,0.7406694089955133,3.90614659746956,-1.2281890645735691,0.018916966132423475,0.004781498923930331,0.27989146976816726,3,left
18.301,0.5780003602369757,1.1649906415718212,-0.2516369880129724,0.7158483674445384,3.9080194629667813,-1.227765637645822,0.018855690289881096,0.003980043568511866,0.2851657245857811,3,left
18.301,0.5773914258494002,1.1644773214547457,-0.25168719519295746,0.6912715464490684,3.9094671154294094,-1.227274349273457,0.018804386377395503,0.0031894082726219184,0.2902429206490959,3,left
18.32,0.5767920695180808,1.163924454286724,-0.2517279867376946,0.6669876827376834,3.9104758440373675,-1.2267079425339613,0.01876356230502748,0.002409540750005271,0.2951190335980022,3,left
18.357,0.5762046528412105,1.1633350353094407,-0.251759928114132,0.6430437939887067,3.911034087063564,-1.2260598969228536,0.018733569724179912,0.001640902662395626,0.2997907917346266,3,left
18.359,0.5756312215728694,1.1627121566239171,-0.25178364684912685,0.6194848516673103,3.911132488112648,-1.2253244703031199,0.01871459676613488,0.0008844532956872657,0.30425568144515003,3,left
18.36,0.5750734957876348,1.1620589942196782,-0.2517998330270419,0.5963534640060767,3.910763927699181,-1.224496735162748,0.018706661468282145,0.00014162524514288325,0.3085119511346234,3,left
18.361,0.5745328649397299,1.1613787958210318,-0.2518092399333147,0.5736895693695561,3.9099235305053317,-1.2235726092819423,0.018709606097954596,-0.0005857065012003406,0.3125586119658352,3,left
18.387,0.5740103874387769,1.1606748693619107,-0.25181268469580914,0.5515301417905973,3.908608650349512,-1.2225488814286234,0.018723092653817903,-0.0012952602279389307,0.31639543311857293,3,left
18.435,0.5735067939010335,1.1599505718888774,-0.2518110487160875,0.5299089132504982,3.9068188379427533,-1.2214232336316375,0.01874659975479259,-0.00198438651728739,0.32002292985914205,3,left
18.436,0.5730224931813944,1.1592092986332476,-0.2518052776994297,0.5088561188224914,3.9045557982009003,-1.2201942620981014,0.018779421000085877,-0.0026501101178545063,0.3234423437017781,3,left
18.437,0.5725575805847675,1.158454471869451,-0.2517963812002655,0.48839826925339413,3.901823342186712,-1.2188614983237542,0.018820664811785494,-0.0032891747985584786,0.3266556143118868,3,left
18.437,0.5721118481216096,1.1576895290182827,-0.2517854317124586,0.4685579527767347,3.898627335707884,-1.2174254310138017,0.018869255753617867,-0.0038980917698341203,0.3296653425458723,3,left
18.438,0.5716847970896886,1.156917909260981,-0.2517735633602847,0.4493536667610367,3.894975644944224,-1.2158875287933264,0.018923937317344822,-0.004473192447610892,0.3324747438164983,3,left
18.495,0.5712756534679131,1.1561430378718363,-0.251761970176188,0.4307996812637721,3.890878079343384,-1.214250262978319,0.018983276170451327,-0.005010686142070106,0.33508759117735354,3,left
18.497,0.5708833865013664,1.1553683079177715,-0.25175190387878144,0.4129059397571124,3.886346332394067,-1.2125171285904286,0.019045667873228485,-0.005506722728379909,0.33750814798467205,3,left
18.499000000000002,0.5705067304815524,1.1545970598522755,-0.25174467105691983,0.39567800406778814,3.8813939210903556,-1.2106926611939686,0.019109344128291773,-0.005957459280042107,0.3397410906786972,3,left
18.5,0.5701442093085564,1.1538325601256076,-0.25174162965017954,0.3791170488008631,3.876036124693506,-1.2087824477377,0.01917238172099358,-0.006359128017165196,0.34179142312999905,3,left
18.5,0.5697941630927853,1.1530779798096857,-0.2517441845213634,0.363219906979858,3.870289922603727,-1.2067931306456197,0.019232713361961636,-0.006708102038785064,0.3436643844748997,3,left
18.519000000000002,0.5694547757983323,1.152336373823969,-0.25175378184075176,0.34797916513617455,3.8641739288386288,-1.2047324048765413,0.01928814059023425,-0.007000956191298675,0.3453653518843237,3,left
18.570999999999998,0.5691241028266015,1.1516106611810528,-0.2517719020643226,0.33338330261914917,3.8577083167771535,-1.2026090075616689,0.01933634880048582,-0.007234522014468264,0.34689973884713254,3,left
18.572,0.5688000975780012,1.1509036067918086,-0.2518000514612351,0.31941686817293696,3.8509147257180922,-1.200432699700692,0.019374924405064047,-0.007405936589376442,0.34827288906919507,3,left
18.573,0.5684806364411649,1.1502178055339878,-0.25183975236571843,0.30606068855533025,3.8438161429098296,-1.1982142395251765,0.019401374130993056,-0.007512685289166701,0.34948996599309146,3,left
18.573,0.5681635423087066,1.1495556692319755,-0.25189253255769584,0.2932921070841147,3.836436758502462,-1.1959653473690384,0.019413146430014065,-0.007552638493009436,0.3505558381672485,3,left
18.574,0.5678466072832788,1.148919416889364,-0.25195991430581105,0.2810852515740719,3.8288017933451104,-1.1936986619382142,0.01940765486939885,-0.007524082622432335,0.35147496181473337,3,left
18.631,0.5675276153376607,1.148311068201117,-0.2520434035394979,0.2694113307182845,3.820937301792156,-1.1914276875173573,0.01938230317268108,-0.007425746396946764,0.3522512639708879,3,left
18.633,0.5672043654360044,1.1477324401968534,-0.2521444794483113,0.2582389566071881,3.812869954957421,-1.1891667309675733,0.019334511420474355,-0.007256823473193675,0.35288803082878684,3,left
18.634,0.5668746953958019,1.14718514675224,-0.25226458470855145,0.24753449032381666,3.80462681167464,-1.1869308269893046,0.019261742788677105,-0.007016992175792264,0.35338780555088783,3,left
18.635,0.5665365066424625,1.1466706005895118,-0.25240511651589287,0.23726240831181966,3.7962350826018643,-1.1847356505043143,0.01916152996223325,-0.006706432207355094,0.3537522991204943,3,left
18.635,0.5661877897996421,1.146190017293921,-0.2525674185509993,0.22738568798265235,3.7877218901909036,-1.182597415792618,0.01903150022973408,-0.006325837769087189,0.3539823174260595,3,left
18.654,0.5658266507863193,1.1457444208270982,-0.2527527738972525,0.21786620881877863,3.7791140282231552,-1.1805327628907873,0.01886939852926438,-0.0058764266203766525,0.35407770680488293,3,left
18.691,0.5654513369786105,1.1453346500353219,-0.25296239880570753,0.20866516004076235,3.7704377292901894,-1.178558632717315,0.018673108153446916,-0.005359944888124595,0.35403731893729173,3,left
18.692999999999998,0.5650602630497424,1.144961365674688,-0.2531974370476085,0.19974344293974783,3.7617184513978974,-1.1766921328815505,0.01844066906468124,-0.004778667593330063,0.3538589952403102,3,left
18.708,0.5646520360121422,1.144625057443402,-0.2534589543969864,0.19106205894536427,3.7529806920719433,-1.1749503956422762,0.018170293821507182,-0.004135394854254834,0.35353957078924886,3,left
18.71,0.5642254786434087,1.1443260505058443,-0.2537479326663642,0.18258247997193308,3.7442478331181634,-1.173350428890696,0.01786038112392756,-0.003433443528362014,0.3530748979360638,3,left
18.71,0.5637796502849515,1.1440645111303755,-0.25406526282943537,0.17426700120621477,3.7355420154783734,-1.1719089620004102,0.017509526998025448,-0.0026766337005465725,0.3524598900463935,3,left
18.769000000000002,0.5633138642329373,1.143840451325049,-0.25441173708655346,0.16607907826780205,3.7268840414197926,-1.17064229091382,0.017116533660220822,-0.001869269335643453,0.351688585713403,3,left
18.772000000000002,0.5628277013319897,1.1436537326219125,-0.25478804010786227,0.15798365132589168,3.718293300384033,-1.1695661282929475,0.01668041615997506,-0.0010161131478901347,0.35075423264443767,3,left
18.773,0.5623210197209318,1.143504069316317,-0.25519474002204484,0.1499474581045979,3.7097877157339476,-1.1686954631049737,0.016200407005072925,-0.00012235706260966574,0.3496493883249856,3,left
18.774,0.5617939609718621,1.1433910315351574,-0.25563227998039467,0.14193933653566201,3.7013837112788033,-1.1680444313886562,0.01567595903206787,0.0008064096199053408,0.3483660334022894,3,left
18.775,0.561246952896189,1.1433140486202409,-0.2561009712028713,0.13393051671229084,3.693096197015343,-1.1676261982855547,0.015106746717373576,0.0017642327469893737,0.34689569472321297,3,left
18.846,0.5606807089794096,1.1432724134410328,-0.256600988175584,0.1258948994008781,3.684938571928242,-1.1674528501057722,0.014492666025729918,0.002744825942906821,0.345229576536417,3,left
18.848,0.5600962241485492,1.143265288201757,-0.2571323662775115,0.11780931419339004,3.67692273871476,-1.1675352937542443,0.013833832924132216,0.00374160361897156,0.3433586980808835,3,left
18.849,0.5594947666479443,1.1432917120838495,-0.25769500186409305,0.1096537476468531,3.66905912461757,-1.167883161808287,0.01313058085078936,0.004747715314819479,0.3412740336313605,3,left
18.85,0.558877866063834,1.143350610874719,-0.25828865472941087,0.10141153317777214,3.66135670629897,-1.1685047261379344,0.01238345752561478,0.0057560826371009025,0.33896664976233915,3,left
18.85,0.5582472978277413,1.1434408084497993,-0.2589129526358057,0.09306949808970655,3.6538230409838266,-1.1694068267902702,0.011593221391559307,0.006759439746039754,0.3364278358999828,3,left
18.851,0.5576050648243405,1.143561039163594,-0.25956739714396354,0.08461806584838458,3.646464306780167,-1.170594821895701,0.010760837801247208,0.007750377771773761,0.33364922658592566,3,left
18.906,0.5569533771984162,1.1437099594378024,-0.2602513698132146,0.07605131343019506,3.639285353068911,-1.1720725606627933,0.009887474966184112,0.008721393226530046,0.33062291518461473,3,left
18.908,0.5562946321106259,1.1438861575202162,-0.2609641385348209,0.06736698610455683,3.632289758753438,-1.1738423779428417,0.008974499642469972,0.009664940322699796,0.32734155899414813,3,left
18.908,0.5556313953568359,1.1440881620795278,-0.26170486468021464,0.05856647582188959,3.6254798923308766,-1.1759051055704197,0.008023472407835576,0.010573486642826004,0.3237984755561963,3,left
18.909000000000002,0.5549663857026387,1.1443144509285477,-0.2624726117180322,0.04965477144392464,3.618856965741858,-1.17826009408793,0.007036142170514546,0.011439570772236096,0.3199877296652613,3,left
18.91,0.5543024609282383,1.1445634605403072,-0.2632663551947073,0.040640386987425704,3.612421075961652,-1.1809052400620679,0.006014439431355401,0.01225586004095859,0.31590421041311906,3,left
18.984,0.5536426034934597,1.1448335966439744,-0.26408499359333465,0.03153527033445535,3.6061712319063264,-1.1838370170792545,0.004960467939463391,0.013015206985476363,0.3115436977672183,3,left
18.986,0.5529899043634575,1.1451232461662861,-0.26492735964486386,0.02235469282088337,3.600105366823782,-1.1870505102210416,0.0038764945957470774,0.013710703975972195,0.30690291847566353,3,left
18.987000000000002,0.5523475448095017,1.1454307901551573,-0.2657922315658921,0.013117119822537713,3.59422033969114,-1.1905394547114205,0.002764937577640317,0.014335735918593431,0.30197959125430707,3,left
18.988,0.5517187764340885,1.1457546166422707,-0.26667834361439685,0.0038440626760505065,3.5885119344504757,-1.1942962804552955,0.001628352681976759,0.014884031034902353,0.2967724612434157,3,left
18.988,0.5511068994511517,1.1460931328665371,-0.2675843956507098,-0.005440087607699377,3.5829748688654055,-1.1983121647584667,0.0004694178829080717,0.015349709720495977,0.291281323720576,3,left
18.989,0.5505152391762358,1.1464447771325785,-0.26850906171112443,-0.014708244500861578,3.5776028218315514,-1.2025770949499783,-0.0007090838761209537,0.015727331487216667,0.2855070371634727,3,left
19.041,0.549947120791375,1.1468080305176913,-0.26945099762867025,-0.023930827867923433,3.57238848266446,-1.207079941601945,-0.0019042835263947044,0.01601194000635198,0.2794515262942704,3,left
19.043,0.5494058425510826,1.1471814281013217,-0.2704088476923109,-0.0330759836294539,3.5673236229390515,-1.2118085424724274,-0.003113246024257115,0.016199106293739687,0.2731177767065459,3,left
19.044,0.5488946476572921,1.147563569212793,-0.27138125038772104,-0.04210982120684363,3.5623991908651447,-1.216749797183584,-0.0043329913466667825,0.01628497006299748,0.26650982328337947,3,left
19.045,0.5484166950546123,1.1479531262831912,-0.2723668433083515,-0.05099666877446663,3.5576054281840706,-1.22188977264801,-0.005560515879716641,0.016266279121428855,0.2596327344233267,3,left
19.045,0.5479750294606546,1.1483488519461391,-0.273364267296874,-0.059699346394159615,3.5529320091612218,-1.2272138189606132,-0.006792813763692993,0.0161404264103542,0.2524925937462489,3,left
19.12,0.5475725511236733,1.1487495840402673,-0.274372169819002,-0.06817945735007809,3.548368199196913,-1.2327066939929554,-0.008026897767054932,0.015905484139924462,0.24509648075911145,3,left
19.121,0.547211985992103,1.1491542482316082,-0.2753892075542996,-0.0763976984398385,3.543903026883113,-1.23835269226171,-0.00925981939676497,0.015560234505732212,0.23745245150349437,3,left
19.122,0.5468958570288694,1.1495618581563114,-0.27641404823112253,-0.08431418997422718,3.539525461055718,-1.2441357721441744,-0.010488688189415977,0.015104196232950444,0.22956951956977828,3,left
19.123,0.5466264572744354,1.1499715131783923,-0.2774453717840893,-0.09188882476070978,3.535224585318507,-1.2500396769042594,-0.011710690325212894,0.014537645449536552,0.22145763749651404,3,left
19.123,0.5464058250461176,1.1503823939965534,-0.27848187095721294,-0.09908163268769145,3.5309897641822383,-1.2560480474948221,-0.012923106780298768,0.013861628927316908,0.21312767849326678,3,left
19.124000000000002,0.5462357215015154,1.1507937565159707,-0.27952225158257626,-0.10585315604920546,3.526810795888757,-1.2621445264925892,-0.014123331179914624,0.013077968219498666,0.20459141843448286,3,left
19.178,0.546117610747079,1.1512049245852802,-0.28056523292804475,-0.11216483193294711,3.522678048527517,-1.2683128529095113,-0.015308887387834577,0.012189254178791152,0.19586151800594107,3,left
19.18,0.5460526426454622,1.1516152821737737,-0.2816095485795693,-0.11797937971103728,3.5185825781874414,-1.2745369478891313,-0.016477446656254523,0.011198832199380084,0.18695150447852388,3,left
19.18,0.5460416384280548,1.1520242653386443,-0.28265394820393924,-0.12326119039615266,3.514516229549963,-1.2808009918908096,-0.01762684386483535,0.010110779288486426,0.17787575183638665,3,left
19.180999999999997,0.5460850793061034,1.152431354174156,-0.2836972002856582,-0.12797671035570196,3.5104717205193885,-1.2870894948884166,-0.018755092219312562,0.008929874442267269,0.1686494575699058,3,left
19.182000000000002,0.5461830986201404,1.1528360649806813,-0.28473809566375213,-0.13209480936684478,3.50644271302285,-1.2933873616132414,-0.019860395938282944,0.007661563431199712,0.15928861485941329,3,left
19.208,0.5463354783686655,1.1532379429816753,-0.2857754515225176,-0.13558712550208218,3.5024238715761795,-1.2996799533680023,-0.020941160741569213,0.00631191843502334,0.14980997962430742,3,left
19.246,0.5465416506220041,1.1536365558387804,-0.28680811546970086,-0.13842838384874925,3.498410910247292,-1.305953147033564,-0.02199600211175056,0.00488759259772572,0.14023103232784095,3,left
19.247,0.5468007033522789,1.154031487955719,-0.287834969397977,-0.14059668857248753,3.4944006281126954,-1.312193391387014,-0.023023751332030835,0.003395769498940466,0.13056993451073176,3,left
19.248,0.5471113894309511,1.1544223352425662,-0.2888549328967206,-0.14207378833467552,3.490390933195564,-1.3183877607491505,-0.024023459320827462,0.0018441075828802167,0.12084547990665535,3,left
19.248,0.5474721376098756,1.1548086997738534,-0.28986696607457674,-0.14284531463507485,3.4863808550456006,-1.3245240059621477,-0.0249943983697966,0.00024067981063954783,0.11107703939365264,3,left
19.322,0.547881064928769,1.1551901837281016,-0.29087007175226987,-0.14290099046473698,3.482370546979643,-1.3305906026119922,-0.025936062047464233,-0.0014060907936231414,0.10128449795751764,3,left
19.324,0.5483359905831172,1.155566382046342,-0.29186329703170394,-0.1422348027205202,3.4783612805477495,-1.336576796255182,-0.02684816361695928,-0.0030874988073606655,0.09148818124430924,3,left
19.325,0.5488344516606005,1.155936873249174,-0.29284573426703847,-0.1408451296462619,3.474355435648206,-1.3424726443229174,-0.02773063322985624,-0.004794626614978934,0.08170876987774589,3,left
19.326,0.549373721261066,1.1563012080788897,-0.2938165214940074,-0.13873481674789037,3.470356488856184,-1.3482690544619176,-0.028583614002519568,-0.006518416888646415,0.07196720079490719,3,left
19.327,0.5499508291864771,1.156658896314987,-0.29477484232289164,-0.13591119855941386,3.4663690009850283,-1.353957819225724,-0.029407456960593863,-0.008249747240586445,0.062284555539489646,3,left
19.328,0.5505625848386396,1.1570093927053817,-0.2957199251115022,-0.1323860662720545,3.4623986037864714,-1.35953164698699,-0.03020271464863115,-0.009979506668873445,0.05268193600712724,3,left
19.382,0.5512056017371723,1.157352082882686,-0.2966510410891422,-0.12817558393914563,3.4584519842546064,-1.3649841883121818,-0.030970132921226388,-0.011698672786746628,0.043180329108919176,3,left
19.384,0.5518763232402967,1.1576862696929147,-0.29756750116890834,-0.12330016004536988,3.454536862712922,-1.3703100558770018,-0.03171064039956353,-0.013398388217623921,0.033800463193360934,3,left
19.385,0.5525710491429509,1.158011160165305,-0.2984686513571919,-0.11778428349246338,3.4506619595940187,-1.3755048353545067,-0.03242533549850156,-0.015070034337208466,0.024562660320792722,3,left
19.386,0.5532859625497376,1.1583258535422114,-0.29935386678068854,-0.11165633078599774,3.4468369470914415,-1.3805650853535563,-0.03311547137646755,-0.016705300829545765,0.015486688639348756,3,left
19.386,0.5540171560691549,1.1586293310999618,-0.3002225444019594,-0.10494834706447347,3.443072384062728,-1.3854883256858952,-0.033782439192732654,-0.01829625013168669,0.0065916177378549405,3,left
19.455,0.5547606564329681,1.1589204486060065,-0.3010740945583225,-0.09769580102718062,3.439379633402793,-1.390273014076908,-0.034427749840808076,-0.019835376425181284,-0.0021043219247177543,3,left
19.457,0.5555124471679842,1.1591979320855896,-0.3019079315718611,-0.08993731279111496,3.435770760587106,-1.3949185119078926,-0.03505301418772695,-0.021315659121324066,-0.01058387535159223,3,left
19.458,0.5562684896187017,1.1594603772543357,-0.3027234638469011,-0.08171435338818715,3.432258411654464,-1.3994250397684063,-0.03565992182113132,-0.022730610844705044,-0.0188308951278305,3,left
19.461,0.557024743164952,1.1597062526280424,-0.30352008405836595,-0.07307091492979643,3.428855669329205,-1.4037936234057409,-0.03625021835355173,-0.024074319987812547,-0.026830469146707597,3,left
19.462,0.5577771857018713,1.1599339059933524,-0.30429716012289404,-0.06405315103569974,3.425575886756696,-1.408026030314199,-0.03682568157086105,-0.025341488250964113,-0.03456904273400907,3,left
19.464000000000002,0.5585218352211926,1.1601415737157155,-0.30505402754559546,-0.05470898818577438,3.4224324995227966,-1.4121246969815258,-0.03738809713960376,-0.026527464196712158,-0.04203453211108679,3,left
19.52,0.5592547728303318,1.1603273923424857,-0.3057899835232098,-0.045087712443570474,3.4194388205479833,-1.4160926466021737,-0.037939234837530915,-0.02762827407177235,-0.04921642505094701,3,left
19.522000000000002,0.5599721671448407,1.1604894120656846,-0.306504282992097,-0.03523954270991848,3.4166078293477864,-1.4199333967623673,-0.038480826094102395,-0.02864065021963815,-0.0561058653172828,3,left
19.522000000000002,0.5606702998044563,1.1606256117099327,-0.3071961366500416,-0.02521520539194554,3.4139519709852886,-1.4236508564324903,-0.03901454330813386,-0.02956205573341457,-0.06269571880107472,3,left
19.523,0.561345591737813,1.160733914870627,-0.3078647107858101,-0.015065521644036987,3.411482976208167,-1.427249211771007,-0.0395419812322072,-0.030390703068494875,-0.06898062000495717,3,left
19.523,0.5619946296957373,1.160812206652377,-0.30850912851963874,-0.004841011420769927,3.409211707400256,-1.430732800957331,-0.040064640605780355,-0.031125564854079905,-0.07495699802145651,3,left
19.588,0.5626141925168138,1.1608583503618917,-0.3091284718937008,0.005408486173775007,3.4071480313327496,-1.434105980486002,-0.04058391411068349,-0.03176637620062167,-0.08062308167455223,3,left
19.59,0.5632012764412158,1.1608702036534866,-0.30972178425702007,0.01563417935064853,3.4053007192729408,-1.437372989071234,-0.04110107466254517,-0.03231362838797602,-0.08597888378436368,3,left
19.590999999999998,0.5637531185658853,1.1608456339166247,-0.31028807260877317,0.025788681052247447,3.40367737519728,-1.4405378173568115,-0.04161726603965293,-0.03276855393637485,-0.09102616457212712,3,left
19.597,0.5642672176550313,1.1607825329330743,-0.31082631000115524,0.03582636043072451,3.4022843926678004,-1.4436040895797435,-0.04213349582506302,-0.03313310319718592,-0.09576837435318573,3,left
19.598,0.5647413521184395,1.1606788309198333,-0.3113354385827934,0.04570368927786933,3.4011269401216304,-1.4465749595365738,-0.04265063050937049,-0.03340991327579238,-0.10021057632205507,3,left
19.599,0.5651735954519198,1.1605325100749257,-0.31181437403122025,0.05537958140590222,3.400208971780722,-1.4494530205747427,-0.04316939237043123,-0.03360227131479615,-0.10435935141575396,3,left
19.654,0.5655623292964858,1.1603416178276191,-0.3122620118962624,0.06481571942029904,3.3995332571131045,-1.452240227877951,-0.04369035761792997,-0.033714074841122064,-0.10822268789794483,3,left
19.656,0.5659062537884891,1.1601042802808437,-0.31267723605297715,0.07397686146276843,3.3991014194227476,-1.454937830734241,-0.04421395541908833,-0.0337497912047183,-0.11180985764834163,3,left
19.657,0.566204394643432,1.1598187165799323,-0.31305892917012196,0.08283112236447117,3.3989139765006913,-1.4575463130552055,-0.04474046765292701,-0.0337144169201712,-0.11513127995799409,3,left
19.658,0.566456106620669,1.1594832545401519,-0.3134059846276671,0.09135022700146402,3.3989703805096316,-1.4600653414583815,-0.045270029358288964,-0.03361343698070395,-0.11819837328567746,3,left
19.659000000000002,0.566661073298264,1.1590963467156306,-0.3137173186949975,0.09950973518941678,3.399269056665085,-1.4624937208992137,-0.04580262981346142,-0.03345278374874689,-0.12102339686170914,3,left
19.714000000000002,0.5668193032516756,1.1586565851788035,-0.313991881572733,0.10728923624282583,3.3998074409247208,-1.4648293584278012,-0.046338114089742165,-0.03323879443317578,-0.12361928683874238,3,left
19.715999999999998,0.5669311231844479,1.1581627134905488,-0.31422866652805725,0.11467250847276568,3.400582017216298,-1.4670692364969746,-0.046876184868248134,-0.032978165833189015,-0.12599949325168744,3,left
19.717,0.5669971693860765,1.1576136354847582,-0.3144267174097334,0.12164763731273597,3.4015883549121217,-1.4692093977210836,-0.0474164043623286,-0.032677905358561986,-0.12817782248488746,3,left
19.733,0.5670183789991776,1.157008421737064,-0.3145851353633754,0.12820708734453776,3.4028211470818284,-1.471244942511514,-0.04795819631278695,-0.03234527801391944,-0.13016828722652185,3,left
19.735,0.5669959812569799,1.1563463149024498,-0.31470308509716294,0.13434772649843246,3.4042742496244736,-1.4731700399631722,-0.04850084822284454,-0.03198774978530408,-0.13198496480872451,3,left
19.735,0.5669314874092675,1.1556267343967077,-0.31477980030021674,0.14007080305023226,3.405940720637868,-1.4749779508932603,-0.049043514274396856,-0.031612928690693674,-0.13364186538709133,3,left
19.787,0.5668266779626574,1.154849280624639,-0.31481458788047834,0.1453818777324578,3.407812858328013,-1.476661060039582,-0.04958521951378286,-0.031228505176859253,-0.13515281189517372,3,left
19.788,0.5666835867629143,1.1540137396688106,-0.3148068313929736,0.15029071404160563,3.4098822351952247,-1.4782109134257664,-0.05012486574862429,-0.03084219312405274,-0.13653133322659386,3,left
19.792,0.5665044822945322,1.1531200893597853,-0.3147559942631781,0.15481112953088322,3.41213972711476,-1.4796182580337318,-0.050661239333291315,-0.030461671962463455,-0.13779057122852542,3,left
19.793,0.566291846856939,1.152168506074647,-0.3146616229349686,0.15896081187065259,3.414575538519411,-1.4808730833912043,-0.051193020853714466,-0.030094529995619186,-0.13894320150131728,3,left
19.794,0.5660483540232999,1.1511593703023226,-0.3145233496779749,0.16276110696303847,3.4171792282825586,-1.4819646668849027,-0.051718796592085364,-0.02974820900222004,-0.14000136737174068,3,left
19.854,0.565776844439456,1.1500932697372863,-0.31434089488502076,0.16623678861586527,3.419939742582737,-1.4828816254782005,-0.05223707147047205,-0.029429950296781773,-0.14097662545223485,3,left
19.855999999999998,0.5654802998654849,1.1489710004326648,-0.31411406892465665,0.16941581690699495,3.422845459462619,-1.4836119758429294,-0.05274628307152377,-0.029146742489987866,-0.14187990066779446,3,left
19.857,0.5651618153035524,1.1477935672254143,-0.3138427736403228,0.1723290880976779,3.4258842469722692,-1.4841432037108753,-0.05324481643526007,-0.02890527112922467,-0.14272144916229418,3,left
19.873,0.5648245691166821,1.1465621838723687,-0.313527003459538,0.17501017657956927,3.429043535218282,-1.4844623425813102,-0.053731019488729256,-0.02871187029510225,-0.14351082835638665,3,left
19.875,0.5644717912774389,1.1452782724503963,-0.3131668460103457,0.17749506886460922,3.432310402327141,-1.4845560617866351,-0.05420321894765466,-0.028572476189982193,-0.1442568734884214,3,left
19.875,0.5641067300803828,1.1439434613807775,-0.3127624821975477,0.17982188949609612,3.4356716742031868,-1.4844107637364095,-0.054659736336063976,-0.028492582779640906,-0.14496767922811127,3,left
19.92,0.5637326176988036,1.1425595815513874,-0.31231418576544484,0.18203061810805765,3.4391140373204343,-1.4840126892533363,-0.055098903651383424,-0.028477199569937158,-0.1456505844816176,3,left
19.922,0.5633526350565304,1.141128660075236,-0.3118223223997945,0.18416279568845484,3.4426241626330265,-1.4833480282831402,-0.055519078320916196,-0.028530811579903875,-0.14631215897750288,3,left
19.929000000000002,0.5629698767411687,1.1396529113958926,-0.3112873484232263,0.18626121745074112,3.446188838047898,-1.4824030323534896,-0.055918657308839714,-0.028657341535768942,-0.1469581910705243,3,left
19.929000000000002,0.5625873169066479,1.1381347258748262,-0.3107098091622197,0.18836961036852493,3.4497951075449502,-1.4811641260624868,-0.05629609036118621,-0.028860114368685953,-0.14759367666533582,3,left
19.93,0.5622077770282571,1.1365766564576014,-0.3100903371065923,0.19053229461342697,3.4534304158429614,-1.4796180164334551,-0.056649892449421736,-0.029141824488507058,-0.14822280922764647,3,left
19.987000000000002,0.5618338960272455,1.134981404142352,-0.3094296499945236,0.19279382885942775,3.457082756441104,-1.4777517995079779,-0.05697865556229774,-0.029504507014392712,-0.148848970798789,3,left
19.989,0.5614681029601873,1.1333518027534804,-0.30872854894387114,0.19519863967807333,3.4607408179162733,-1.4755530630634022,-0.0572810600450952,-0.029949514536745537,-0.14947472390098324,3,left
20.008,0.561112592368725,1.1316908033173634,-0.3079879167704609,0.1977906353218017,3.464394121646488,-1.4730099839700732,-0.05755588563580398,-0.03047750059170616,-0.15010180424919597,3,left
20.01,0.5607693025866779,1.1300014583331799,-0.30720871665367167,0.20061280471674334,3.4680331457992932,-1.4701114190861286,-0.057802022258590754,-0.031088410321425466,-0.15073111423703683,3,left
20.01,0.5604398977118364,1.1282869062840948,-0.3063919912435601,0.2037068053385585,3.471649433295037,-1.4668469893199296,-0.05801848058532361,-0.031781478400088034,-0.15136271719276354,3,left
20.011,0.5601257542043159,1.1265503566684751,-0.30553886218944143,0.20711254894158096,3.475235682792121,-1.4632071569800351,-0.058204402350750716,-0.03255523422401645,-0.15199583247947668,3,left
20.053,0.5598279528591117,1.1247950756488903,-0.3046505300113738,0.21086779708037623,3.478785821876128,-1.4591832966727025,-0.058359070330900695,-0.033407514348488175,-0.15262883187496865,3,left
20.054000000000002,0.5595472761840082,1.1230243722241788,-0.3037282742186507,0.21500777538087254,3.4822950618418202,-1.4547677599387614,-0.05848191775748099,-0.03433548212544878,-0.15325923831718238,3,left
20.067,0.5592842101928307,1.1212415846626211,-0.3027734535197397,0.21956481058737842,3.485759934057499,-1.4499539337407399,-0.05857253686501512,-0.03533565448060079,-0.15388372846261872,3,left
20.067999999999998,0.5590389489426829,1.1194500667791294,-0.301787505900768,0.22456799361595373,3.489178309246973,-1.4447362930471899,-0.05863068634331828,-0.03640393578450654,-0.15449814014364818,3,left
20.069000000000003,0.5588114005122683,1.1176531735654611,-0.3007719484196218,0.23004287518373898,3.4925494031154583,-1.4391104481142794,-0.05865629760823798,-0.03753565877829556,-0.1550974853094091,3,left
20.12,0.5586011942666814,1.115854245727144,-0.2997283767917916,0.23601120277092083,3.495873772884349,-1.4330731872678335,-0.05864947989800268,-0.03872563241597835,-0.15567596941967574,3,left
20.121,0.5584076901647008,1.1140565927185955,-0.2986584650223328,0.24249070548740403,3.4991533081609116,-1.4266225157835979,-0.05861052425102679,-0.03996819628223597,-0.1562270195317599,3,left
20.145,0.5582299910263422,1.1122634738384387,-0.2975639652498141,0.24949492948302182,3.502391217519091,-1.4197576910946568,-0.05853990643948821,-0.04125728113000619,-0.156743324066566,3,left
20.148,0.5580669582637021,1.1104780771182503,-0.2964467076401061,0.2570331243556441,3.505592011028725,-1.4124792543495142,-0.05843828887589138,-0.042586475003555266,-0.15721688645897752,3,left
20.149,0.5579172308911732,1.108703496316842,-0.2953085998481178,0.2651101805758268,3.5087614787426036,-1.4047890583023037,-0.058306521284078996,-0.043949093651748004,-0.15763909338079785,3,left
20.15,0.5577792470462307,1.106942706886836,-0.29415162545749085,0.2737266175941593,3.5119066648349424,-1.3966902915035884,-0.05814563956145713,-0.045338252309340056,-0.1580007971652609,3,left
20.187,0.5576512670680424,1.1051985417857888,-0.2929778408753731,0.28287862052907536,3.515035835506068,-1.3881874986999319,-0.057956862063148595,-0.046746934979536685,-0.15829241173889314,3,left
20.188,0.5575313973004571,1.1034736676993304,-0.2917893703041238,0.2925581201485761,3.5181584359263867,-1.3792865972428838,-0.05774158273095221,-0.048168058318798,-0.15850402154024987,3,left
20.202,0.5574176139261531,1.1017705621664164,-0.29058839864451536,0.30275290909093744,3.521285029913987,-1.3699948892477432,-0.057501360864569556,-0.04959452901636523,-0.15862550301827028,3,left
20.204,0.557307786198551,1.1000914922721399,-0.2893771624533892,0.313446789040923,3.5244272176188374,-1.3603210693004122,-0.05723790766782779,-0.05101929477701272,-0.15864665747865608,3,left
20.204,0.5571996985016381,1.0984384956920288,-0.2881579392287795,0.3246197468444425,3.527597529297725,-1.3502752274834737,-0.056953069998577494,-0.05243538965609617,-0.1585573522847756,3,left
20.253,0.5570910708169712,1.0968133648152913,-0.2869330352903998,0.3362481597113033,3.5308092946906147,-1.339868846888586,-0.05664881189397143,-0.05383597474431696,-0.1583476664213086,3,left
20.255,0.5569795774454789,1.0952176345469578,-0.28570477248836557,0.34830503072267693,3.5340764875509794,-1.329114793601405,-0.056327194299665435,-0.05521437495128379,-0.15800803742658626,3,left
20.281,0.5568628642558546,1.0936525742490886,-0.28447547404022844,0.36076025625658864,3.5374135447305797,-1.3180272964821687,-0.055990353173844994,-0.056564112189926206,-0.15752940849571517,3,left
20.282,0.5567385652071043,1.0921191840679163,-0.28324744996780477,0.37358092655072067,3.540835159371458,-1.3066219147260487,-0.055640476032712716,-0.0578789351038757,-0.1569033752876758,3,left
20.283,0.5566043191277468,1.0906181956003462,-0.28202298272181603,0.3867316592397455,3.54435604883622,-1.2949154923174773,-0.05527977716982814,-0.05915284587239917,-0.15612233083591648,3,left
20.284000000000002,0.5564577875807047,1.089150076627436,-0.28080431350497137,0.40017496195155144,3.5479907021813677,-1.2829260988510773,-0.05491047213161414,-0.060380125423345456,-0.15517960456233915,3,left
20.32,0.556296674314356,1.0877150395418202,-0.27959362963316675,0.4138716139230925,3.551753119247477,-1.2706729557785925,-0.054534752225732334,-0.06155535882666539,-0.15406959006124826,3,left
20.339000000000002,0.5561187465436335,1.086313052949659,-0.2783930531869023,0.42778105323886234,3.555656557461605,-1.2581763468377316,-0.05415475964457331,-0.06267346219874936,-0.15278785765229427,3,left
20.340999999999998,0.5559218580376291,1.0849438556942554,-0.27720463114801774,0.4418617596545031,3.559713298426336,-1.245457511720651,-0.05377256347339893,-0.06372971149227163,-0.15133125003017092,3,left
20.342,0.555703973590711,1.0836069724533692,-0.27603032704649805,0.4560716290144009,3.5639344391318732,-1.2325385225837697,-0.053390136844643284,-0.06471977230656453,-0.1496979603210692,3,left
20.342,0.5554631941247877,1.0823017302117601,-0.2748720139015226,0.4703683388457924,3.568329708835448,-1.2194421437220244,-0.05300933579652562,-0.0656397283297697,-0.14788759149165412,3,left
20.387,0.5551977816127135,1.0810272751504932,-0.27373146805643206,0.4847097064560883,3.5729073129923687,-1.2061916768879937,-0.05263188058053542,-0.06648610522651835,-0.145901195705649,3,left
20.389,0.5549061831064221,1.0797825896741118,-0.27261036342160105,0.49905404279001414,3.5776738076824444,-1.1928107985111227,-0.05225933997593538,-0.0672558875820217,-0.14374129257278886,3,left
20.419,0.5545870531548833,1.078566509369504,-0.2715102656761077,0.5133605063753708,3.5826340091198836,-1.179323397169206,-0.05189311883388842,-0.06794652794842501,-0.14141186586472715,3,left
20.421,0.5542392737740768,1.0773777396328745,-0.2704326261908447,0.5275894606143932,3.5877909416914258,-1.1657534175664106,-0.0515344488631894,-0.06855594796406606,-0.13891833869130077,3,left
20.422,0.5538619711504832,1.0762148715858462,-0.26937877576062785,0.5417028354107664,3.5931458254211566,-1.1521247135040718,-0.051184382511210304,-0.06908253231392109,-0.13626752754581656,3,left
20.422,0.5534545285978308,1.0750763969116202,-0.26834991846341116,0.5556644913632625,3.5986981001777014,-1.1384609102712693,-0.05084378957569816,-0.06952511744841108,-0.13346757624982494,3,left
20.453,0.5530165957457982,1.07396072147092,-0.2673471260673606,0.569440581505685,3.6044454793202836,-1.1247852765317894,-0.050513356061983164,-0.06988297761590628,-0.13052787117309503,3,left
20.476,0.5525480942247144,1.072866177939614,-0.2663713335580039,0.5829999034039958,3.610384022842354,-1.111120605778093,-0.05019358492128191,-0.07015581012563235,-0.1274589387583393,3,left
20.477999999999998,0.5520492200844118,1.071791038065341,-0.26542333649474786,0.5963142337008388,3.6165082215170195,-1.0974891071626458,-0.04988479849943924,-0.07034372053101277,-0.12427232607346199,3,left
20.479,0.5515204429602103,1.0707335252445032,-0.2645037907824453,0.6093586359007467,3.6228110861499987,-1.0839123050486417,-0.0495871425248073,-0.07044720739827996,-0.12098046634767827,3,left
20.48,0.5509625018694425,1.0696918279641887,-0.2636132150975783,0.622111731468467,3.6292842374913374,-1.0704109463620133,-0.04930059126901299,-0.07046714550145225,-0.11759653422178103,3,left
20.52,0.5503763975963158,1.068664114290263,-0.2627519958121022,0.6345559270568231,3.635917993840008,-1.057004915040674,-0.04902495339261922,-0.07040476589796878,-0.11413429702218471,3,left
20.521,0.5497633818644228,1.0676485467726338,-0.26192039382799953,0.6466775950128225,3.6427014551661134,-1.0437131532760475,-0.04875987810949385,-0.07026163172559494,-0.11060796678838548,3,left
20.555,0.5491249441732401,1.0666432962710288,-0.261118552489184,0.6584672068406104,3.649622583676852,-1.0305535896704228,-0.0485048615229304,-0.07003960925678347,-0.10703205493977345,3,left
20.555999999999997,0.5484627982366375,1.0656465535611626,-0.260346506036146,0.6699194203976944,3.6566682814842224,-1.0175430755112773,-0.048259253108372493,-0.06974083413300312,-0.10342122988781938,3,left
20.555999999999997,0.547778870098266,1.0646565390390763,-0.25960418855183764,0.6810331227110124,3.6638244669912416,-1.0046973322234791,-0.04802226236502435,-0.06936767285226815,-0.0997901777700443,3,left
20.557,0.5470752882883363,1.0636715116380115,-0.2588914433184307,0.691811430915725,3.6710761521463153,-0.9920309140936648,-0.04779296577388127,-0.06892267995108002,-0.09615346741457755,3,left
20.587,0.5463543742933117,1.062689777785088,-0.2582080322734314,0.7022616532013969,3.6784075221832997,-0.9795571893285058,-0.04757031440714373,-0.06840855198453907,-0.09252542232257797,3,left
20.613000000000003,0.5456186311758093,1.0617097010334637,-0.25755364545416853,0.7123952105382083,3.6858020185067097,-0.967288340649611,-0.047353142649226486,-0.06782807977637406,-0.08892000338827333,3,left
20.614,0.544870729397997,1.0607297131157267,-0.25692791054178876,0.7222275193376273,3.6932424248493585,-0.9552353855953104,-0.04714017837437229,-0.06718410004222797,-0.08535070514381748,3,left
20.616,0.5441134901623274,1.0597483266191858,-0.25633040235737653,0.7317778350775873,3.70071095672346,-0.9434082164935109,-0.04693005470582939,-0.06647944687111006,-0.0818304665186389,3,left
20.616,0.543349866815921,1.0587641483912835,-0.25576065190499886,0.7410690573220922,3.7081893539836783,-0.9318156598077627,-0.04672132330300923,-0.06571690340421132,-0.07837159557557635,3,left
20.653000000000002,0.5425829244966732,1.0577758924441374,-0.25521815472238313,0.750127498568203,3.715658975307202,-0.9204655532460639,-0.046512468986005195,-0.06489915437728479,-0.07498570642886827,3,left
20.655,0.5418158179845284,1.056782391835501,-0.25470237852236527,0.7589826229595575,3.7231008915715695,-0.9093648366587862,-0.046301925443526334,-0.06402874041529916,-0.07168366595429816,3,left
20.691,0.5410517676890307,1.0557826097328338,-0.2542127700834093,0.7676667629087228,3.7304959740974675,-0.8985196514395515,-0.04608809183363899,-0.06310801474522644,-0.06847554849687672,3,left
20.693,0.540294033719271,1.0547756498770404,-0.25374876127417506,0.77621481968323,3.7378249751402164,-0.8879354443462838,-0.045869350200711125,-0.06213910259183764,-0.065370597852474,3,left
20.693,0.5395458881182169,1.053760766204903,-0.2533097741586269,0.7846639504880182,3.7450686018529367,-0.8776170734715496,-0.04564408366977067,-0.06112386330744863,-0.06237719630658878,3,left
20.694000000000003,0.5388105855282813,1.052737371118139,-0.25289522523520885,0.7930532427264819,3.752207589584674,-0.8675689144105424,-0.045410695264579304,-0.06006385528638153,-0.05950284019085116,3,left
20.72,0.5380913326679808,1.0517050419296032,-0.2525045288958669,0.8014233758066123,3.7592227825942257,-0.8577949643858364,-0.04516762696608781,-0.05896030379487713,-0.05675412062283711,3,left
20.73,0.537391257150221,1.050663525035314,-0.2521371001703484,0.8098162707729798,3.7660952282452174,-0.848298942641417,-0.04491337850035328,-0.05781407189156468,-0.05413670765325224,3,left
20.749000000000002,0.5367133764112098,1.0496127373669124,-0.2517923568173069,0.8182747278913038,3.772806287120827,-0.8390843864139899,-0.04464652547320652,-0.056625634625083035,-0.05165533648216164,3,left
20.75,0.5360605676182092,1.0485527649319388,-0.2514697208465425,0.8268420522268348,3.7793377594812467,-0.8301547423429725,-0.044365736701873354,-0.055395056895819875,-0.04931379517881085,3,left
20.750999999999998,0.5354355392498511,1.0474838586531563,-0.25116861958765024,0.835561667247037,3.785672027610376,-0.8215134531858621,-0.044069790727267806,-0.05412197582920137,-0.047114913740754306,3,left
20.788,0.5348408047591106,1.0464064279966132,-0.25088848645844325,0.8444767165106684,3.791792211231756,-0.813164039176304,-0.043757591519473976,-0.052805588779549224,-0.04506055439396164,3,left
20.828000000000003,0.5342786585186081,1.0453210329744278,-0.2506287616520691,0.8536296540963837,3.7976823288321153,-0.8051101724679732,-0.04342818338557215,-0.0514446478027924,-0.04315160305877434,3,left
20.83,0.5337511541284186,1.044228375096514,-0.2503888930459771,0.8630618271266287,3.803327454953059,-0.7973557428744623,-0.04308076506717402,-0.050037460931081315,-0.04138796197368101,3,left
20.83,0.5332600850974736,1.0431292877508007,-0.25016833766279345,0.8728130585191598,3.8087138651366015,-0.7899049141799596,-0.04271470293282061,-0.04858190030150709,-0.039768543620312534,3,left
20.831,0.5328069678855979,1.0420247263576403,-0.2499665639418098,0.8829212407134327,3.8138291640571897,-0.7827621715470968,-0.042329543027765794,-0.047075417134675966,-0.038291266328827886,3,left
20.831999999999997,0.5323930273908124,1.0409157585748368,-0.24978305494616238,0.893421948417694,3.818662395149451,-0.7759323607829577,-0.0419250216647736,-0.045515063558643036,-0.03695305207149431,3,left
20.851999999999997,0.5320191852988974,1.0398035548172462,-0.24961731242555915,0.9043480736098183,3.8232041312536147,-0.7694207197975654,-0.04150107431834762,-0.04389752127368151,-0.03574982682445975,3,left
20.886999999999997,0.531686052112295,1.0386893792740117,-0.24946886140338173,0.9157294833551631,3.827446546211023,-0.7632329022936288,-0.041057842735853056,-0.042219136951472926,-0.034676523805850006,3,left
20.889,0.5313939236544745,1.0375745814607213,-0.24933725483550515,0.9275927004716767,3.8313834674236076,-0.7573749936679365,-0.04059568030367625,-0.04047596375252931,-0.03372709056310735,3,left
20.889,0.5311427821844854,1.036460588236626,-0.24922207796979387,0.9399606070737117,3.835010409390344,-0.7518535191057072,-0.04011515580489337,-0.03866380742800069,-0.03289450228391845,3,left
20.89,0.5309323013449446,1.035348896134443,-0.2491229521721096,0.9528521713441725,3.8383245885617514,-0.7466754439790219,-0.03961705575076126,-0.0367782749621152,-0.032170784498056076,3,left
20.92,0.5307618536705514,1.034241063742152,-0.2490395380839812,0.9662821994703843,3.841324921497006,-0.7418481673058753,-0.039102385422393436,-0.034814824221043233,-0.03154704754520719,3,left
20.965,0.5306305196950587,1.0331387037960578,-0.24897153809051198,0.9802611175323881,3.844012011267256,-0.7373795101873709,-0.038572368657546485,-0.032768814000342615,-0.03101353371861974,3,left
20.968000000000004,0.530537098514249,1.0320434746170477,-0.24891869821162782,0.9947947897182549,3.8463881286922326,-0.7332777017860288,-0.03802844627763834,-0.030635554417906826,-0.030559677007680055,3,left
20.969,0.5304801202820042,1.0309570704326874,-0.24888080960175643,1.0098843776581543,3.8484571933519622,-0.7295513647647293,-0.03747227287194984,-0.02841035778250269,-0.030174174854330833,3,left
20.97,0.5304578612200396,1.0298812099576407,-0.24885770979269373,1.025526242818609,3.8502247563545624,-0.726209500946822,-0.03690571156205966,-0.02608859011299186,-0.029845071144071623,3,left
20.971,0.5304683614872197,1.0288176226906303,-0.24884928367566267,1.0417118921905402,3.851697985024752,-0.7232614771016478,-0.03633082646338087,-0.023665723437834494,-0.029559849846936454,3,left
20.987,0.5305094458673136,1.0277680329738024,-0.24885546408651638,1.0584279665643122,3.8528856484924656,-0.7207170095675149,-0.03574987272957626,-0.0211373889227674,-0.029305539074004627,3,left
21.024,0.5305787468359332,1.0267341425010572,-0.24887623177593396,1.0756562696295262,3.853798101271102,-0.7185861446163981,-0.035165284159457806,-0.018499430829026237,-0.02906882550958722,3,left
21.026,0.5306737293510811,1.0257176120828793,-0.24891161448478036,1.0933738358546028,3.8544472593128685,-0.7168792309364753,-0.03457965837658709,-0.015747961169648526,-0.02883617908844383,3,left
21.026999999999997,0.53079171673448,1.0247200431968124,-0.24896168482770573,1.1115530363413362,3.8548465607409352,-0.7156068826373804,-0.03399573965109397,-0.01287941430362393,-0.028593987138481304,3,left
21.026999999999997,0.5309299170681682,1.0237429596375087,-0.24902655676574273,1.1301617233171084,3.8550109032514075,-0.714779933635255,-0.03341639953999212,-0.00989059957790171,-0.02832869604125263,3,left
21.053,0.531085449368784,1.0227877896559323,-0.2491063805759499,1.1491634142131206,3.8549565527786123,-0.7144093848051839,-0.032844615581584774,-0.006778749499472021,-0.02802695781359462,3,left
21.101999999999997,0.5312553685864545,1.0218558492727565,-0.24920133636387273,1.1685175157898067,3.8547010213299497,-0.7145063445395173,-0.03228344822024179,-0.0035415615468700756,-0.02767577966270694,3,left
21.105,0.531436688704486,1.020948327664528,-0.24931162633616055,1.1881795884309778,3.854262913641668,-0.715081962816754,-0.031736016059210496,-0.00017723298490418134,-0.027262675486677306,3,left
21.105999999999998,0.5316264038953122,1.0200662753992014,-0.24943746620174578,1.2081016506612017,3.853661742655441,-0.7161473587799396,-0.031205469620523694,0.0033155106997038897,-0.026775817699269122,3,left
21.107,0.5318215082544696,1.0192105959219382,-0.24957907611773186,1.2282325239419132,3.852917713815057,-0.7177135418248883,-0.030694964032489273,0.00693739187075325,-0.026204185651708633,3,left
21.107,0.5320190148121685,1.0183820403084007,-0.24973667158913287,1.2485182170623759,3.8520514788604796,-0.7197913260269042,-0.0302076312059821,0.01068855882565207,-0.025537705681956503,3,left
21.16,0.5322159744796731,1.0175812050544102,-0.24991045473004594,1.26890234576015,3.8510838635531,-0.722391237185618,-0.029746551920110657,0.014568564018878488,-0.02476737906381431,3,left
21.162,0.5324094954336203,1.0168085326077625,-0.2501006062337616,1.2893265766396347,3.8500355816948275,-0.7255234117845699,-0.029314728031841635,0.018576341798943696,-0.023885396266038295,3,left
21.163,0.532596763217314,1.016064314425917,-0.25030727825672344,1.309731080928649,3.8489269544769478,-0.7291974891292481,-0.028915055119571063,0.022710186233383882,-0.022885236685073668,3,left
21.163,0.5327750616771528,1.0153486963808347,-0.25053058830100255,1.3300549874103516,3.847777652624833,-0.7334225003663299,-0.0285502962674302,0.026967730755689798,-0.02176175238408557,3,left
21.164,0.53294179476569,1.0146616861980289,-0.25077061413153706,1.3502368304346,3.846606470875107,-0.7382067580728199,-0.02822305793323377,0.03134593194270337,-0.020511233882280218,3,left
21.186999999999998,0.5330945090848559,1.014003162407788,-0.251027389703782,1.370214992441835,3.845431137648069,-0.7435577481397234,-0.02793576860703472,0.03584105915711651,-0.019131456526537798,3,left
21.206999999999997,0.5332309168151077,1.0133728841605958,-0.25130090192818905,1.3899281410768825,3.844268160276689,-0.7494820242769241,-0.027690660542485812,0.040448690756402415,-0.017621706856084038,3,left
21.239,0.5333489185055391,1.0127705012386035,-0.2515910878924846,1.409315660883559,3.8431327054393356,-0.755985105264601,-0.027489754607280238,0.04516371699559954,-0.0159827888589303,3,left
21.241,0.5334466250972828,1.012195563664988,-0.2518978320254002,1.4283180792355719,3.8420385126957886,-0.7630713756360458,-0.02733484822859964,0.049980349581754055,-0.014217010129380932,3,left
21.241999999999997,0.5335223785047958,1.0116475304901587,-0.2522209627353238,1.4468774855557855,3.840997835880459,-0.7707439914825901,-0.027227506293362597,0.05489213756265743,-0.012328148001856144,3,left
21.243000000000002,0.5335747700782109,1.0111257775627405,-0.2525602482929381,1.464937942540193,3.8400214053592534,-0.7790047936309139,-0.027169054653932486,0.05989198873693961,-0.01032139585528645,3,left
21.299,0.5336026562935502,1.0106296042728913,-0.2529153920650368,1.4824458879270124,3.839118405659819,-0.7878542297217371,-0.027160575773819307,0.0649721954973783,-0.008203289848293155,3,left
21.3,0.5336051712212277,1.0101582393503068,-0.2532860275374242,1.4993505234046265,3.8382964649088778,-0.7972912848911822,-0.027202906147011922,0.07012446429525827,-0.00598161654177418,3,left
21.301,0.5335817357379897,1.009710845831873,-0.25367171372090763,1.5156041829988882,3.83756165205878,-0.8073134187145414,-0.0272966352475264,0.07533994841080427,-0.0036653030611784668,3,left
21.302,0.5335320637242963,1.0092865253629928,-0.25407193149072854,1.5311626707976167,3.8369184770132905,-0.8179165051370973,-0.027442105726542706,0.08060928399233022,-0.0012642937517908961,3,left
21.302,0.5334561654129473,1.0088843221726396,-0.2544860813558027,1.5459855604164618,3.836369889984691,-0.8290947729435223,-0.027639414511447344,0.08592262938310603,0.0012105814178340495,3,left
21.32,0.5333543478184983,1.0085032273435188,-0.25491348310340195,1.5600364531950288,3.8359172786138727,-0.840840745804409,-0.027888414547697974,0.09126970775406915,0.0037477427647966627,3,left
21.377,0.5332272121120631,1.0081421842017004,-0.2553533775582248,1.573283194741808,3.8355604629539846,-0.8531451821475429,-0.028188717080186478,0.09663985305876271,0.00633499954155822,3,left
21.378,0.5330756480101534,1.0078000956365236,-0.2558049304228814,1.5856980503717826,3.835297690396784,-0.865997017179236,-0.028539694463009985,0.1020220593001255,0.008959690859580096,3,left
21.379,0.5329008254142401,1.0074758338528709,-0.2562672379856625,1.5972578407304159,3.835125635742125,-0.8793833128225029,-0.02894048353216389,0.10740503296950521,0.01160882762900631,3,left
21.38,0.5327041834607638,1.0071682522147194,-0.2567393341769613,1.6079440393132274,3.835039413345248,-0.8932892232514726,-0.029389989626516833,0.11277724828588347,0.014269232358915113,3,left
21.381,0.5324874172134846,1.0068761975498635,-0.25722019795027545,1.617742833169979,3.835032606542865,-0.9076979817919897,-0.029886891370739216,0.11812700473419666,0.01692767260847884,3,left
21.435,0.5322524628659259,1.0065985208608386,-0.25770876002643933,1.6266451473280081,3.8350973164382283,-0.922590911520046,-0.030429646323266828,0.12344248648148178,0.01957098493499558,3,left
21.436,0.5320014829121277,1.006334085848227,-0.258203909143106,1.6346466330489322,3.835224230391715,-0.937947459980163,-0.03101649762899103,0.12871182323552363,0.02218618808882286,3,left
21.436999999999998,0.5317368521309104,1.0060817763749745,-0.2587044989025324,1.64174761994686,3.8354027102168837,-0.9537452580650712,-0.03164548194524138,0.13392315179610392,0.024760585270883026,3,left
21.436999999999998,0.5314611437046889,1.0058405041385556,-0.2592093559874448,1.647953031993669,3.835620900082181,-0.9699602030994312,-0.03231443899129416,0.1390646773282101,0.027281855485532094,3,left
21.438000000000002,0.5311771141698459,1.0056092174496414,-0.2597172896545663,1.6532722679364928,3.8358658535709895,-0.9865665657412912,-0.033021022984596964,0.14412473363290165,0.029738134015197266,3,left
21.454,0.5308876866995057,1.0053869121998837,-0.26022710195938487,1.657719049160748,3.83612367661472,-1.0035371181643797,-0.03376271607011508,0.14909184213501267,0.03211808203171997,3,left
21.514,0.5305959328827478,1.005172645477062,-0.2607375979843437,1.661311242548861,3.836379678085054,-1.020843277112193,-0.0345368437362417,0.15395476953904344,0.03441094547230806,3,left
21.517,0.530305052822911,1.0049655504655441,-0.26124759528964747,1.6640706683930733,3.8366185170933496,-1.0384552532640925,-0.035340592063845634,0.158702584083159,0.03660660390367856,3,left
21.518,0.5300183530415246,1.0047648504826818,-0.26175593207310555,1.6660229009074532,3.8368243387834347,-1.0563422005065355,-0.03617102642195447,0.16332471019405703,0.03869561117257862,3,left
21.518,0.5297392220308788,1.0045698713346343,-0.262261474016363,1.667197064362397,3.8369808953326845,-1.0744723625768586,-0.03702511109412162,0.16781098127467522,0.04066923023774808,3,left
21.519000000000002,0.5294711036821965,1.0043800525978746,-0.26276312010679426,1.6676256250565196,3.837071652069075,-1.0928132168001081,-0.03789972944915293,0.17215169042687148,0.04251946398098463,3,left
21.572,0.5292174687713542,1.004194958296395,-0.26325980768034907,1.6673441773601572,3.8370798814327833,-1.111331615572241,-0.03879170450312116,0.17633763903774047,0.044239082719843635,3,left
21.573,0.5289817845966336,1.0040142867107427,-0.2637505167681898,1.6663912194053185,3.836988751602772,-1.1299939271467299,-0.03969781982971253,0.18036018320443697,0.04582164860967539,3,left
21.574,0.5287674829331603,1.0038378788478246,-0.2642342737703407,1.6648079125185753,3.8367814188819502,-1.1487661777838822,-0.040614840704445876,0.1842112778665708,0.04726153731605313,3,left
21.575,0.5285779265468601,1.0036657251910797,-0.2647101544790202,1.662637819967556,3.836441130660926,-1.1676141968210234,-0.04153953519290705,0.18788351829971625,0.048553957901901784,3,left
21.575,0.5284163746509811,1.00349797032952,-0.26517728643678223,1.6599266233475867,3.8359513414426982,-1.1865037651583634,-0.04246869479571084,0.1913701785036237,0.04969497218637362,3,left
21.65,0.5282859479604574,1.003334914980159,-0.26563485054224506,1.6567218169125928,3.8352958409101183,-1.205400766350385,-0.04339915436040495,0.19466524613771685,0.05068151451898056,3,left
21.651999999999997,0.5281895942236848,1.003177014973341,-0.2660820817924162,1.6530723813536619,3.8344588903545946,-1.2242713379459547,-0.044327811150735925,0.19776345376740553,0.051511412339643486,3,left
21.653000000000002,0.5281300551327685,1.0030248770227146,-0.2665182691360322,1.649028439030287,3.8334253625572594,-1.2430820199168453,-0.045251643084858316,0.2006603057855969,0.052183407537768796,3,left
21.654,0.5281098353651981,1.002879251433983,-0.2669427545716488,1.6446408921547229,3.8321808814401614,-1.2617998978180107,-0.04616772621618627,0.20335209946455343,0.05269717848121533,3,left
21.655,0.5281311742906598,1.0027410222504425,-0.26735493181274395,1.6399610445228912,3.830711960012852,-1.2803927397694,-0.04707325155425932,0.20583593807458084,0.053053362541578296,3,left
21.655,0.5281960206891759,1.002611195662755,-0.2677542450276246,1.6350402071906633,3.8290061360628287,-1.2988291270982009,-0.04796554129930267,0.20810973452355364,0.05325357898575363,3,left
21.708000000000002,0.5283060107145598,1.002490887658038,-0.26814018824152774,1.6299292899412516,3.827052103767295,-1.317078578369098,-0.04884206449453955,0.2101722050502677,0.053300452037966156,3,left
21.71,0.5284624492780168,1.0023813117141043,-0.26851230585548713,1.6246783831759133,3.82483983667459,-1.3351116660405897,-0.04970045194169929,0.2120228537570418,0.053197633237445786,3,left
21.711,0.5286662950875721,1.0022837670080025,-0.26887019439895565,1.6193363364080111,3.822360695987204,-1.3529001247132084,-0.050538509977560084,0.21366195019287518,0.0529498209247203,3,left
21.711,0.5289181498052625,1.0021996273353995,-0.26921350522732385,1.6139503379913993,3.8196075195933625,-1.3704169502067054,-0.05135423257441442,0.2150905029327893,0.05256277396651779,3,left
21.712,0.529218251884687,1.0021303307706007,-0.2695419476302888,1.6085654984881015,3.8165746902453512,-1.3876364893654316,-0.05214581136219939,0.21631023136344948,0.05204331755138128,3,left
21.787,0.5295664753192555,1.002077370015156,-0.2698552918710306,1.6032244416422228,3.81325818407022,-1.4045345214579912,-0.05291164341280787,0.21732353656168732,0.05139934018825129,3,left
21.789,0.5299623330584711,1.0020422834002463,-0.2701533719012206,1.5979669131833605,3.8096556036871214,-1.4210883327921005,-0.05365033678394185,0.21813347136415934,0.05063978169920243,3,left
21.79,0.5304049847018637,1.0020266465535341,-0.27043608766647986,1.5928294232105038,3.805766202716751,-1.4372767854826864,-0.05436071395679861,0.2187437093145009,0.049774611825604206,3,left
21.791,0.5308932480815035,1.002032064715688,-0.27070340695432343,1.5878449366095087,3.8015909081248043,-1.4530803795811733,-0.05504181349983709,0.21915851169801842,0.04881479849773851,3,left
21.791999999999998,0.5314256140928267,1.002060165566329,-0.2709553667111907,1.5830426193913127,3.7971323440543063,-1.4684813070716467,-0.055692890400810525,0.21938269160908863,0.04777226450153081,3,left
21.793000000000003,0.5320002638760539,1.002112592153286,-0.2711920737673555,1.5784476433106622,3.792394858288834,-1.483463496920581,-0.05631341539915451,0.21942157426015235,0.04665983159179671,3,left
21.844,0.5326150877242234,1.0021909950912065,-0.27141370497274026,1.57408104857503,3.7873845510702377,-1.4980126510429232,-0.056903073452705344,0.2192809532163553,0.04549115167001732,3,left
21.846,0.533267705759907,1.0022970228372645,-0.27162050678911115,1.5699596617609106,3.782109303741954,-1.5121162711666865,-0.057461761362621364,0.21896704250363277,0.04428062496046728,3,left
21.846,0.5339554908384669,1.0024323090232499,-0.2718127943992441,1.566096061751635,3.7765788009140273,-1.5257636764839406,-0.05798958455828902,0.2184864245903628,0.04304330518152878,3,left
21.846999999999998,0.5346755940301596,1.0025984566717192,-0.27199095041202137,1.562498584120598,3.7708045377484436,-1.5389460119231275,-0.058486853043907584,0.21784599424219658,0.0417947917088654,3,left
21.85,0.5354249726062323,1.0027970201065568,-0.2721554231671054,1.5591713567753838,3.7647998060593535,-1.5516562469280666,-0.05895407647556352,0.2170528983903021,0.040551108820105125,3,left
21.921999999999997,0.5362004200378808,1.003029485762875,-0.2723067244331046,1.556114363982633,3.758579656696219,-1.5638891647207882,-0.059391958173547206,0.216114472858393,0.03932857257607877,3,left
21.924,0.5369985973138653,1.0032972528448696,-0.2724454261512447,1.553323538285143,3.7521608377739715,-1.5756413420757047,-0.059801387579430904,0.2150381780635642,0.03814364673147934,3,left
21.925,0.5378160647388047,1.003601614458284,-0.272572155950049,1.5507908803016426,3.7455617087329607,-1.5869111196416223,-0.060183430503370675,0.21383153651113185,0.03701278953329529,3,left
21.926,0.5386493131335344,1.0039437398577176,-0.2726875913351117,1.548504606400454,3.7388021302108583,-1.5976985628467288,-0.060539316687041725,0.2125020742121871,0.035952293002598605,3,left
21.926,0.539494793308028,1.0043246586088563,-0.27279245261453683,1.5464493242390016,3.7319033297081288,-1.6080054134203126,-0.0608704245829836,0.21105726695478527,0.034978116470726024,3,left
21.927,0.540348943116455,1.0047452474404186,-0.2728874947514463,1.5446062361822017,3.7248877432284164,-1.6178350315921797,-0.06117826355956699,0.20950449178459157,0.034105717499333166,3,left
21.982,0.5412082120938798,1.0052062203309438,-0.27297349843870894,1.542953370715104,3.717778834076161,-1.627192329172286,-0.06146445389996718,0.20785098392135343,0.03334988443416262,3,left
21.985,0.542069084115585,1.0057081221214623,-0.27305126071617936,1.5414658421487761,3.71060089179585,-1.636083693969028,-0.06173070511391796,0.20610379896106698,0.03272457482968645,3,left
21.986,0.542928098620686,1.0062513257303147,-0.27312158541193576,1.540116139020672,3.7033788152383815,-1.6445169061462017,-0.061978793351779776,0.2042697795362876,0.03224276395880544,3,left
21.986,0.5437818710264896,1.0068360327965624,-0.2731852737003712,1.5388744414896176,3.696137882738354,-1.6525010469743504,-0.06221053886085363,0.20235552523057254,0.03191630760919315,3,left
21.987,0.5446271131006363,1.0074622772792619,-0.2732431151493639,1.5377089671209776,3.6889035112199267,-1.6600464001428838,-0.06242778417699333,0.2003673648316861,0.03175582216533356,3,left
22.055,0.5454606539539371,1.008129931327449,-0.27329587964043406,1.5365863407459126,3.681701008230076,-1.6671643455015885,-0.06263237332914624,0.1983113305541679,0.03177058317522033,3,left
22.057,0.5462794618808363,1.0088387127308462,-0.2733443104189252,1.535471977559897,3.674555326426595,-1.6738672447939564,-0.0628261321036445,0.19619313416508727,0.031968442600857294,3,left
22.058000000000003,0.5470806667896692,1.0095881933719497,-0.2733891183305128,1.5343304650154905,3.6674908332308824,-1.6801683187899827,-0.06301084936887466,0.1940181450072851,0.032355764752119015,3,left
22.059,0.547861582736561,1.0103778081692527,-0.27343097710034625,1.5331259326748687,3.660531105172992,-1.6860815153783721,-0.06318825947657847,0.19179137000628924,0.032937380937668626,3,left
22.059,0.5486197301732675,1.0112068640540022,-0.2734705193747468,1.5318224059241554,3.6536987506814738,-1.6916213687865,-0.06336002583431041,0.18951743620731076,0.033716563035342526,3,left
22.06,0.5493528577054634,1.0120745486442702,-0.2735083332294317,1.5303841442509225,3.6470152616569935,-1.696802851915226,-0.06352772588449981,0.18720057721728475,0.034695016487693776,3,left
22.118000000000002,0.5500589630946171,1.0129799384105416,-0.2735449589040093,1.5287759676483097,3.6405008931164797,-1.7016412268047398,-0.06369283778811122,0.18484462528192064,0.035872893246877306,3,left
