time,gFx,gFy,gFz,ax,ay,az,wx,wy,wz,subject_number,foot
26.831999999999997,0.5344897243089051,0.9733974647619069,-0.28667647053632106,-0.3034341153071587,4.322065859650572,-1.22807493296195,0.11403642585317009,0.056616304623110354,-0.006073058809299967,4,left
26.834,0.5359023301676125,0.9743953293071884,-0.28685749400442806,-0.2951091581095825,4.334867492954009,-1.2127781363563215,0.11487507974656129,0.058436229286844825,-0.003351629576291524,4,left
26.835,0.5373622762799717,0.975393244782542,-0.28701569556190015,-0.285004752920545,4.34702973376944,-1.1972704775725616,0.11566666586598232,0.06018648366844061,-0.0007497874262415685,4,left
26.844,0.5388667811067961,0.9763908802526486,-0.28715118055449523,-0.2731173668052911,4.358538113515973,-1.1815640693132161,0.11640996734227133,0.06187001807989066,0.0017402748230755632,4,left
26.845,0.540412746793099,0.9773879371237879,-0.2872641166009026,-0.2594501768498062,4.369380059023687,-1.165671740285847,0.11710364268713858,0.06348996743864142,0.00412724302881802,4,left
26.846,0.541996783781906,0.9783841388995187,-0.2873547333126803,-0.24401306831003042,4.379544926418864,-1.149607041463633,0.11774622767107451,0.06504961103186939,0.006420597027151293,4,left
26.901999999999997,0.5436152386261622,0.9793792191730858,-0.2874233216407277,-0.22682258725649063,4.389024036565165,-1.1333842533458527,0.11833613843795421,0.06655233123551503,0.008630514492039967,4,left
26.905,0.5452642245069956,0.9803729085581085,-0.2874702329000678,-0.20790185063828936,4.397810708304462,-1.1170183922451078,0.11887167647497805,0.06800157094810338,0.010767764148059486,4,left
26.906,0.5469396539685378,0.9813649208877915,-0.2874958773984586,-0.1872804165492906,4.405900281859811,-1.1005252130828687,0.11935103590227857,0.06940078956036576,0.012843588938157173,4,left
26.908,0.5486372730243878,0.982354938822917,-0.28750072241315705,-0.16499411536283848,4.413290123406733,-1.0839212069146889,0.11977231326887965,0.07075341739159749,0.01486957939046187,4,left
26.909000000000002,0.5503526953532365,0.9833425991431828,-0.28748528915090876,-0.14108484084323145,4.419979604612779,-1.0672235925429983,0.12013351987751386,0.07206280872691355,0.016857537357907616,4,left
26.976,0.5520814354009315,0.9843274782584441,-0.28745014841538036,-0.1156003004733295,4.425970054822658,-1.0504503021198015,0.12043259658050125,0.07333219431276555,0.018819330904541298,4,left
26.979,0.5538189398103838,0.98530907863569,-0.2873959149226058,-0.08859372477382657,4.4312646855363225,-1.0336199607055767,0.12066743089997226,0.07456463544795439,0.020766742264063928,4,left
26.98,0.555560617147271,0.9862868168329945,-0.28732324039312446,-0.06012353554560512,4.435868487199237,-1.0167518597364489,0.12083587627623711,0.07576298251836225,0.02271131143594756,4,left
26.980999999999998,0.5573018661224983,0.9872600137427886,-0.287232805675725,-0.030252972962077355,4.439788098322039,-0.9998659243514927,0.12093577329723255,0.07692984011239831,0.024664177344493086,4,left
26.982,0.5590381026077217,0.9882278874611473,-0.2871253122531365,0.0009503185659440425,4.4430316469448154,-0.9829826745318546,0.12096497282599412,0.07806753950379855,0.026635917574813484,4,left
26.983,0.5607647858266596,0.9891895489123117,-0.28700147351958116,0.033414744979872055,4.445608565007546,-0.9661231798963806,0.12092136086945406,0.07917811822599362,0.028636388262235194,4,left
27.035999999999998,0.5624774440984236,0.9901440001417793,-0.28686200615424895,0.06706525257538443,4.44752937892785,-0.9493090074638738,0.12080288476830148,0.0802633056839396,0.030674567855015357,4,left
27.037,0.5641717003843257,0.9910901351573913,-0.28670762177845527,0.10182384068698871,4.448805484620045,-0.9325621607300031,0.12060757990341235,0.08132451337890878,0.032758410207790585,4,left
27.038,0.565843297812771,0.9920267432138665,-0.28653901899812484,0.13761008005571806,4.449448917929134,-0.9159050078724444,0.1203335957666411,0.08236282863849462,0.03489471222391884,4,left
27.039,0.567488125419075,0.9929525143274314,-0.28635687595133114,0.1743416241570871,4.449472128709947,-0.8993601974324753,0.11997922020326521,0.08337901135709792,0.037088999635675496,4,left
27.04,0.5691022443733585,0.9938660465714503,-0.2861618435108595,0.21193470837344058,4.448887762269187,-0.8829505609838701,0.11954290101718028,0.08437349362240443,0.039345432773928005,4,left
27.081,0.5706819148223312,0.9947658545062419,-0.2859545392309592,0.25030463573190975,4.44770845126589,-0.8666990038363094,0.11902326462454045,0.08534638220791925,0.04166673297549408,4,left
27.081999999999997,0.5722236232069914,0.9956503780608302,-0.285735541987744,0.289366247996347,4.445946624433638,-0.8506283867306117,0.11841913170257053,0.08629746393065867,0.0440541297415052,4,left
27.105999999999998,0.5737241096009738,0.9965179912420379,-0.2855053871206683,0.3290343804650937,4.443614340607233,-0.8347614024850845,0.11772952983229365,0.0872262138768563,0.046507328653263465,4,left
27.114,0.5751803941899419,0.997367010119285,-0.2852645618205661,0.3692242992676548,4.44072315441373,-0.8191204505511437,0.1169537031578235,0.08813180645229439,0.049024500008040685,4,left
27.115,0.5765898016371438,0.9981956996827307,-0.28501350058023617,0.40985212082822337,4.437284015866901,-0.8037275108069318,0.11609111920534977,0.08901312898288909,0.051602287916344636,4,left
27.116,0.5779499821470578,0.9990022793999201,-0.28475258068828574,0.4508352140182217,4.433307202475491,-0.7886040177812976,0.11514147322200118,0.08986879717544095,0.05423583920436377,4,left
27.168000000000003,0.5792589286626716,0.9997849275169005,-0.2844821179964783,0.49209258635361736,4.428802279339029,-0.7737707378571956,0.11410469051524416,0.09069717151747607,0.05691885124437139,4,left
27.17,0.5805149903812478,1.000541784408221,-0.2842023635985949,0.5335452560075253,4.423778081197387,-0.7592476528689235,0.11298092715250548,0.0914963739259514,0.059643638057152205,4,left
27.17,0.5817168830325138,1.001270955653436,-0.2839135024442569,0.5751166109961365,4.418242711904725,-0.7450538526437399,0.11177056916315664,0.0922643043701771,0.062401214428670096,4,left
27.183000000000003,0.5828636960128696,1.001970515858041,-0.28361565484442874,0.616732755665213,4.412203559198945,-0.7312074374384032,0.11047423026402689,0.0929986574251473,0.0651813980044463,4,left
27.184,0.5839548960919967,1.0026385142801473,-0.28330888128790466,0.6583228417549335,4.405667322598296,-0.7177254301350657,0.10909274813764312,0.09369693880488154,0.06797292909248413,4,left
27.185,0.5849903275199472,1.0032729829225837,-0.2829931903436644,0.6998193768527731,4.398640049777447,-0.7046236974887522,0.10762717945427679,0.09435648216183964,0.07076360652080878,4,left
27.241,0.585970208978971,1.0038719466817128,-0.2826685486860115,0.7411585006077079,4.391127175229941,-0.691916879497302,0.1060787941204655,0.09497446686416952,0.073540435403006,4,left
27.243000000000002,0.5868951286924009,1.0044334335932856,-0.2823348917466207,0.7822802215154969,4.383133556566444,-0.6796183261880434,0.10444906939856241,0.09554793769899447,0.07628978128031452,4,left
27.244,0.5877660391391923,1.0049554830473848,-0.28199213414439855,0.8231286114702792,4.374663506575916,-0.6677400415167802,0.10273968437949568,0.09607382721328364,0.07899752649368211,4,left
27.245,0.5885842512264634,1.0054361522679032,-0.28164018029718185,0.8636519577138091,4.365720820719308,-0.6562926342981464,0.10095251496328109,0.09654898095126074,0.08164922690346578,4,left
27.246,0.5893514256810249,1.0058735234383245,-0.281278935532658,0.9038028723603563,4.356308800516817,-0.6452852764944109,0.09908962916162703,0.09697018547724587,0.0842302673170548,4,left
27.308000000000003,0.5900695591653204,1.006265712878085,-0.2809083169374792,0.943538359974614,4.346430275708103,-0.6347256710029496,0.09715328218420528,0.09733419878529401,0.08672601220562115,4,left
27.31,0.5907409643546219,1.0066108817980737,-0.28052826311863066,0.9828198442191916,4.336087632419141,-0.6246200343453168,0.095145910592097,0.09763778256346799,0.08912194714886025,4,left
27.311,0.5913682452012401,1.0069072478482743,-0.28013874294685404,1.0216131548872938,4.325282856987807,-0.6149731014740353,0.09307012497954684,0.09787773591380834,0.09140380758856216,4,left
27.32,0.59195426933546,1.0071530972190736,-0.27973976371589604,1.0598884763349194,4.3140176026791925,-0.6057881581025826,0.09092870096505973,0.09805093036898284,0.09355769352753468,4,left
27.320999999999998,0.5925021388008289,1.0073467973790626,-0.2793313787499473,1.0976202580710206,4.302293281589992,-0.5970671022076703,0.08872456845051105,0.09815434617980477,0.0955701699522943,4,left
27.322,0.593015159352288,1.0074868104820516,-0.2789136941538181,1.1347870893903973,4.290111178746819,-0.588810532061315,0.08646079914557195,0.09818510981679873,0.09742835307111467,4,left
27.374000000000002,0.5934968083590095,1.0075717072542092,-0.2784868744504599,1.1713715424426758,4.277472579745958,-0.5810178533233562,0.08414059237085661,0.09814053234128042,0.09911998288397719,4,left
27.375,0.5939507014771738,1.007600181061982,-0.27805114701480443,1.2073599895569804,4.264378900407321,-0.5736873952454238,0.08176725918234794,0.09801814778368087,0.1006334833661425,4,left
27.378,0.5943805581500349,1.0075710618657507,-0.27760680531964027,1.2427423992124786,4.250831809787457,-0.5668165285196709,0.07934420487578028,0.09781575037911669,0.10195801197194097,4,left
27.379,0.5947901658973581,1.007483329701759,-0.2771542110542026,1.277512112473249,4.23683334306727,-0.5604017817727002,0.07687490995392332,0.09753142979336037,0.10308349983576023,4,left
27.38,0.5951833434667737,1.007336127230146,-0.27669379515334486,1.3116656003907137,4.222386004012971,-0.5544389562032397,0.07436290981383503,0.09716360396891788,0.10400068376200974,4,left
27.398000000000003,0.5955639030561507,1.0071287708765837,-0.2762260577229537,1.345202203161167,4.207492858836365,-0.5489232384387299,0.07181177376120429,0.09671104947084408,0.10470113153558332,4,left
27.44,0.59593561191216,1.0068607601404378,-0.2757515668386422,1.3781238528530273,4.192157626076784,-0.543849311829655,0.06922508415911689,0.09617292924843597,0.10517726247959741,4,left
27.441,0.5963021538429039,1.006531784614269,-0.2752709562566124,1.4104347820882646,4.176384768679848,-0.5392114664808387,0.06660641631485147,0.09554881774946435,0.10542236470569516,4,left
27.456999999999997,0.5966670915502064,1.0061417282757694,-0.2747849221775055,1.4421412204891009,4.16017959289279,-0.5350037082411188,0.06395931935501455,0.09483872331877921,0.1054306096731248,4,left
27.459,0.5970338308585921,1.0056906708657358,-0.2742942192755824,1.473251079692663,4.14354835559015,-0.5312198665650001,0.06128729820213875,0.09404310762388472,0.10519706437698556,4,left
27.46,0.5974055876960538,1.0051788864874625,-0.2737996561913754,1.5037736272739173,4.126498379052417,-0.5278537002484672,0.058593796844794016,0.09316290147642772,0.1047177017234857,4,left
27.509,0.5977853583061467,1.0046068397216044,-0.27330209063729327,1.5337191500009355,4.109038170043669,-0.5248989985260938,0.055882183159702274,0.09219951620854304,0.10398940983509658,4,left
27.511,0.598175892962627,1.0039751796457341,-0.27280242428945656,1.5630986069558042,4.091177538997263,-0.5223496741842201,0.053155735477751896,0.09115484997250856,0.10301000084207655,4,left
27.516,0.5985796734123037,1.0032847322758331,-0.2723015977266791,1.591923272941835,4.072927716153192,-0.5201998461797566,0.050417630960554,0.0900312887185284,0.10177821934315003,4,left
27.517,0.5989988942070406,1.0025364919659268,-0.27180058570551563,1.6202043729446647,4.054301463029693,-0.5184439107947423,0.047670935760339976,0.08883170186022471,0.10029375033823548,4,left
27.518,0.5994354479910318,1.0017316121510305,-0.2713003929619219,1.6479527110440815,4.035313177024571,-0.5170766013862109,0.044918596873569167,0.08755943276057843,0.09855722605002432,4,left
27.576,0.5998909148390202,1.0008713956527868,-0.2708020505469018,1.6751783020849418,4.015978984228672,-0.5160930373091965,0.042163435571313274,0.08621828421608009,0.09657023085702854,4,left
27.579,0.6003665559347285,0.999957284698422,-0.2703066125323639,1.7018900171558224,3.996316813911126,-0.515488762786512,0.03940814231672789,0.08481249907138812,0.09433530375345228,4,left
27.58,0.6008633119601099,0.9989908507613053,-0.2698151528819175,1.7280952511806782,3.9763464497566634,-0.5152597763053799,0.03665527312898813,0.08334673601514284,0.09185593809874935,4,left
27.592,0.6013818062033869,0.9979737842441175,-0.2693287623784588,1.7537996159919464,3.9560895558534432,-0.5154025507716878,0.03390724737342216,0.08182604064089039,0.08913657847109734,4,left
27.594,0.6019223517878313,0.9969078839433969,-0.26884854559099686,1.7790066595102234,3.935569677050593,-0.5159140444590586,0.03116634692851159,0.08025581224158086,0.08618261377012923,4,left
27.595,0.6024849621673273,0.9957950461902713,-0.26837561786316944,1.8037176114704978,3.9148122139171138,-0.5167917028916926,0.028434716618302665,0.07864176751467311,0.08300036444119363,4,left
27.64,0.60306936426883,0.9946372534889478,-0.2679111022644286,1.8279311579569841,3.8938443739777933,-0.5180334524991304,0.025714365764268065,0.07698990274846532,0.07959706098585478,4,left
27.641,0.6036750140067989,0.993436562264902,-0.2674561263759069,1.851643250289436,3.8726951035017274,-0.5196376881387554,0.023007170745197036,0.07530645566638502,0.07598081162954438,4,left
27.654,0.6043011141059448,0.9921950890192147,-0.26701181868208,1.8748469556258913,3.85139500556318,-0.5216032572810319,0.020314878515849587,0.0735978673971076,0.0721605582889925,4,left
27.655,0.604946634213551,0.9909149941729878,-0.2665793043245953,1.8975323548218657,3.8299762486490945,-0.5239294429553966,0.01763911106295,0.07187074463603646,0.06814602074196553,4,left
27.656,0.6056103331347491,0.9895984635041691,-0.2661597001357537,1.9196864897894799,3.8084724674636634,-0.5266159462571699,0.014981370750483166,0.07013182194242162,0.06394762931091255,4,left
27.708000000000002,0.6062907828133443,0.9882476878093669,-0.26575410905557606,1.9412933607110208,3.7869186560216073,-0.5296628683088314,0.012343046445905151,0.06838792403996923,0.05957644685449281,4,left
27.711,0.6069863935539234,0.986864841588499,-0.26536361406439135,1.962333972979985,3.765351052628215,-0.5330706910525412,0.009725420285373874,0.06664592794632439,0.055044081128709635,4,left
27.73,0.6076954398130905,0.9854520613708518,-0.2649892716763093,1.9827864333800564,3.7438070159208867,-0.5368402559499762,0.007129674969710088,0.06491272479919317,0.0503625883105399,4,left
27.732,0.6084160856659602,0.9840114242563264,-0.26463210497113865,2.0026260935897726,3.722324889712359,-0.5409727394169451,0.004556901543249038,0.06319518132320762,0.04554436799349751,4,left
27.733,0.6091464090906404,0.9825449273047315,-0.26429309613305446,2.021825736540959,3.7009438517938094,-0.5454696233719484,0.002008107648442671,0.06150010097728726,0.040602049855217065,4,left
27.733,0.6098844245879516,0.9810544684251487,-0.2639731784953277,2.040355799736199,3.679703740421701,-0.5503326590292426,-0.0005157737087167272,0.059834185096891,0.03554837294014818,4,left
27.773000000000003,0.6106281040912218,0.9795418293910112,-0.2636732281530326,2.0581846311267924,3.658644853783002,-0.5555638225695775,-0.003013874783526565,0.05820399482463538,0.030396059934827576,4,left
27.774,0.6113753964725077,0.9780086615013651,-0.2633940553050292,2.0752787758241102,3.637807720519961,-0.5611652621500416,-0.005485382973226213,0.056615914888951645,0.02515768960993354,4,left
27.788,0.612124246211267,0.9764564741991822,-0.26313639559657576,2.091603292772942,3.6172328416662864,-0.5671392362332501,-0.007929529854406472,0.0550761200244053,0.019845569805913676,4,left
27.789,0.6128726118596374,0.9748866267050883,-0.2629009017837592,2.1071220976727663,3.596960408268558,-0.5734880435999459,-0.01034557934182544,0.053590544348367214,0.014471611903924224,4,left
27.79,0.6136184847852515,0.973300322535365,-0.26268813600142105,2.1217983227829538,3.577030005468663,-0.5802139459337,-0.01273281499454998,0.05216485371304361,0.009047207149334567,4,left
27.829,0.6143599084652608,0.9716986066927581,-0.2624985628447674,2.135594681108013,3.557480317435667,-0.5873190841583381,-0.015090526631893399,0.050804420850434795,0.0035831061497029926,4,left
27.83,0.6150949984700083,0.9700823652812026,-0.2623325434285944,2.148473825594357,3.5383488439245294,-0.5948053894189269,-0.0174179966547154,0.04951430286091782,-0.0019106951253378042,4,left
27.866999999999997,0.6158219631758222,0.9684523272103347,-0.2621903305591169,2.1603986996953295,3.519671633004625,-0.6026744892670555,-0.01971448659711005,0.04829922044796982,-0.0074250584007093026,4,left
27.869,0.6165391251492863,0.9668090675460217,-0.2620720651103404,2.1713328791957327,3.501483032219749,-0.6109276102832177,-0.021979224327993218,0.04716353849116133,-0.012951791799423804,4,left
27.869,0.6172449430796269,0.9651530120466992,-0.2619777736312528,2.1812409065308422,3.483815462113209,-0.6195654800433551,-0.024211392209402983,0.04611124802215728,-0.018483722377073963,4,left
27.87,0.6179380340528624,0.9634844424710999,-0.2619073671079676,2.190088619231507,3.4666992173823754,-0.6285882322995666,-0.026410116605712075,0.04514595018670863,-0.024014751043799555,4,left
27.906,0.6186171957003647,0.9618035021611403,-0.26186064063815656,2.1978434737247325,3.450162299599002,-0.6379953182842442,-0.028574459232516794,0.04427084301089276,-0.029539888241002933,4,left
27.908,0.619281427284658,0.9601102012299316,-0.26183727362052417,2.2044748649973647,3.4342302830400033,-0.6477854253166674,-0.030703410713307955,0.043488711584721396,-0.03505526915224934,4,left
27.925,0.6199299484350974,0.9584044207136575,-0.26183683012691134,2.209954442072182,3.418926213479427,-0.6579564029647623,-0.032795886494916326,0.04280192190680348,-0.040558147969653464,4,left
27.927,0.6205622144322487,0.9566859153887238,-0.26185875947205717,2.214256418383157,3.404270537697747,-0.6685051969955308,-0.03485072515206093,0.04221241842863076,-0.0460468711491867,4,left
27.928,0.6211779275718958,0.9549543154352796,-0.26190239739741106,2.2173578747302423,3.390281058171775,-0.6794277916584867,-0.036866689044871115,0.04172172525125007,-0.051520829816965534,4,left
27.973000000000003,0.6217770446489662,0.9532091275533546,-0.26196696848760054,2.219239051711207,3.3769729055799074,-0.6907191610196007,-0.03884246708193514,0.04133095070238843,-0.05698039221965851,4,left
27.975,0.6223597806332657,0.9514497364290834,-0.26205159036047077,2.2198836293041864,3.364358523589658,-0.7023732298922666,-0.04077667896113589,0.04104079461742783,-0.06242681842811035,4,left
28.004,0.6229266083816349,0.9496754076198132,-0.26215527987617354,2.219278992133282,3.352447663500496,-0.714382844573756,-0.042667880049209156,0.04085155742293875,-0.06786216023435182,4,left
28.005,0.6234782541918805,0.9478852929610464,-0.2622769613033531,2.2174164770201044,3.341247387195272,-0.7267397532777093,-0.04451456627628607,0.04076315039351916,-0.07328914871584871,4,left
28.006,0.6240156892596961,0.94607843939276,-0.2624154762580204,2.214291594706698,3.3307620755078924,-0.739434595855382,-0.046315178822886834,0.04077510709182493,-0.07871107194898089,4,left
28.006,0.6245401175646497,0.9442538014639175,-0.26256959508768596,2.2099042149262336,3.320993438164874,-0.7524569022524767,-0.04806810862597748,0.04088659664796378,-0.08413164700611303,4,left
28.041,0.6250529615444863,0.9424102564676311,-0.26273802885149217,2.2042587066997146,3.3119405224124785,-0.7657950992963012,-0.04977170079395744,0.041096439813611156,-0.08955489154854647,4,left
28.063000000000002,0.6255558475821186,0.9405466201589937,-0.26291944085861535,2.1973640306031648,3.303599719156871,-0.779436525673397,-0.05142425899917155,0.04140312849259076,-0.09498499900345529,4,left
28.064,0.6260505923454152,0.938661662169955,-0.2631124577991676,2.1892337824516073,3.295964766398819,-0.7933674551056483,-0.05302404987834872,0.04180484902892142,-0.10042621892939464,4,left
28.065,0.6265391887706052,0.9367541224193396,-0.26331568143399625,2.179886188769576,3.2890267504163333,-0.8075731276867063,-0.05456930745008551,0.04229950929971065,-0.10588274285080458,4,left
28.066,0.6270237896603171,0.9348227298542033,-0.26352770101663087,2.1693440563439763,3.2827741075477372,-0.8220377889592176,-0.05605823760177466,0.04288476956063983,-0.11135859571422338,4,left
28.107,0.6275066881671132,0.9328662232115628,-0.26374710554990843,2.157634681624993,3.2771926337443538,-0.83674473562615,-0.05748902293650592,0.04355807672639795,-0.11685753380448473,4,left
28.108,0.6279902957245567,0.9308833727586296,-0.26397249515508175,2.1447897276669154,3.2722655114610526,-0.8516763664080684,-0.05885982869921388,0.0443167012904984,-0.12238295119316786,4,left
28.141,0.6284771181094465,0.9288730023577046,-0.2642024914227607,2.1308450743676577,3.267973361057815,-0.8668142369411859,-0.06016881073946545,0.04515777582351249,-0.1279377974771537,4,left
28.142,0.6289697298478072,0.9268340116792828,-0.26443574673372294,2.1158406442890083,3.2642943195727105,-0.8821391182997238,-0.061414126197563715,0.0460783342048963,-0.13352450876140937,4,left
28.143,0.6294707467711306,0.9247653985419038,-0.2646709523847689,2.0998202044067256,3.2612041473314846,-0.8976310591089907,-0.06259394701022448,0.047075350973170865,-0.13914495201491411,4,left
28.144000000000002,0.629982796539645,0.9226662811547789,-0.2649068453049941,2.0828311439194795,3.258676362104894,-0.9132694513869282,-0.06370647580320496,0.048145779997181636,-0.1448003811787918,4,left
28.166,0.6305084872888467,0.9205359197740423,-0.26514221327893095,2.064924229087545,3.25668239914416,-0.9290331007239148,-0.06474996352908036,0.04928659147567314,-0.15049140267736666,4,left
28.199,0.6310503747568661,0.9183737372089298,-0.2653758987655954,2.0461533375900802,3.2551917929380902,-0.9449003022598197,-0.06572272832131724,0.0504948065265076,-0.15621794848480672,4,left
28.2,0.6316109281496554,0.9161793376188911,-0.265606801501785,2.02657517573198,3.254172375154543,-0.9608489243892232,-0.06662317508500108,0.051767529100112154,-0.16197925551711467,4,left
28.201,0.6321924949362903,0.9139525230190985,-0.26583388010132986,2.006248980983732,3.2535904846129284,-0.9768565016545725,-0.06744981507188964,0.05310197524599734,-0.16777384990533073,4,left
28.201,0.632797265051287,0.9116933068808482,-0.2660561528482159,1.985236210826641,3.253411187484872,-0.9929003371186409,-0.06820128447851184,0.054495499836267364,-0.1735995343767732,4,left
28.24,0.6334272354423425,0.9094019242345662,-0.2662726978699539,1.9636002180898124,3.253598506606447,-1.008957612436494,-0.06887636134684193,0.05594562082511437,-0.17945337741864684,4,left
28.241,0.6340841761337266,0.9070788379168682,-0.26648265287697,1.9414059129044396,3.254115657807478,-1.0250055008732368,-0.06947398048069958,0.057450041078261266,-0.18533170370377391,4,left
28.278000000000002,0.634769598892098,0.9047247411346376,-0.2666852146716442,1.9187194114602553,3.2549252904670194,-1.0410212769140281,-0.06999324633182832,0.05900666778137379,-0.19123008570569586,4,left
28.279,0.635484729313259,0.9023405570955482,-0.2668796386783258,1.895607671685934,3.2559897302027103,-1.0569824177127776,-0.07043344385758922,0.06061362943160268,-0.19714333651995392,4,left
28.28,0.6362304827172307,0.8999274366904204,-0.2670652387508929,1.87213811586336,3.257271222858316,-1.0728666945057106,-0.07079404737137596,0.06226929035269982,-0.20306550391157774,4,left
28.281,0.6370074437800876,0.8974867550262137,-0.26724138740040215,1.8483782403754214,3.2587321791846815,-1.0886522537478172,-0.07107472750358684,0.06397226235493551,-0.20898986562462074,4,left
28.307,0.6378158496495754,0.8950201072595795,-0.26740751643335026,1.8243952140357043,3.260335417412008,-1.104317688210173,-0.07127535656528171,0.06572141258632816,-0.21490892601798256,4,left
28.329,0.638655576474043,0.8925293039384743,-0.26756311791893556,1.8002554687193624,3.2620443967043906,-1.1198420985641824,-0.07139601270337789,0.06751586630247093,-0.22081441410753733,4,left
28.334,0.6395261295855746,0.8900163659607652,-0.26770774539325204,1.7760242872757928,3.263823432150534,-1.135205146138664,-0.07143698314827526,0.06935500368096381,-0.22669728321740498,4,left
28.335,0.6404266376889934,0.8874835191740338,-0.2678410151961575,1.7517653924409178,3.2656378842825085,-1.1503870973752033,-0.07139876672615064,0.07123845077755393,-0.23254771310767217,4,left
28.335,0.6413558511545304,0.8849331884954792,-0.2679626078045153,1.727540538846258,3.2674543205201236,-1.1653688603718897,-0.07128207579395494,0.0731660657535662,-0.23835511667719408,4,left
28.373,0.6423121440883263,0.882367991294608,-0.2680722689861623,1.7034091122183765,3.2692406492652064,-1.1801320145118528,-0.0710878377816254,0.0751379219643093,-0.24410815402973549,4,left
28.377,0.6432935196831949,0.8797907297518835,-0.2681698106280979,1.6794277454756799,3.270966229617893,-1.194658835520892,-0.07081719647969986,0.07715428910216889,-0.2497947559987705,4,left
28.413,0.6442976186182988,0.8772043820011235,-0.26825511124193674,1.6556499646884952,3.2726019606760097,-1.2089323190648296,-0.07047151312138847,0.07921561280573079,-0.2554021579903429,4,left
28.415,0.6453217306928254,0.8746120919706915,-0.2683281162923981,1.6321258746097715,3.2741203533895584,-1.2229362052296815,-0.07005236723219001,0.08132249240272564,-0.2609169443670328,4,left
28.416,0.6463628100526301,0.8720171577138228,-0.26838883845732986,1.6089018876182348,3.275495586161983,-1.2366550048466332,-0.0695615571573355,0.08347565574985323,-0.2663251035592786,4,left
28.416,0.647417494274611,0.8694230175571411,-0.268437357731093,1.5860204966762577,3.2767035445035004,-1.250074027731403,-0.06900110014747977,0.08567592978509639,-0.2716120941467208,4,left
28.441,0.6484821274131626,0.8668332330436802,-0.26847382112182355,1.5635200923470478,3.277721845357892,-1.2631794121296258,-0.06837323191249796,0.08792420575584334,-0.2767629220953201,4,left
28.471999999999998,0.6495527868497005,0.8642514680992526,-0.2684984417297727,1.5414348240847613,3.2785298476493834,-1.2759581535361986,-0.06768040560640448,0.09022139871191186,-0.28176222923373095,4,left
28.474,0.6506253132883817,0.8616814650064905,-0.2685114971739009,1.5197945061055258,3.2791086511099947,-1.2883981304318761,-0.06692529020984789,0.09256840138401136,-0.28659439291346167,4,left
28.475,0.6516953427887151,0.8591270185686753,-0.2685133274400267,1.498624568055032,3.279441084932974,-1.3004881251033025,-0.06611076815231312,0.09496603355647952,-0.29124363637586337,4,left
28.476,0.6527583396962238,0.8565919496725949,-0.26850433216674363,1.4779460505214137,3.279511686516685,-1.3122178388550436,-0.06523993178187103,0.09741498969683332,-0.29569414861096954,4,left
28.506999999999998,0.6538096295871474,0.8540800789086409,-0.26848496728700955,1.4577756453500057,3.2793066682734686,-1.323577901647276,-0.06431607816007784,0.09991578852346385,-0.2999302120829607,4,left
28.55,0.6548444315563561,0.8515952007062744,-0.2684557409148686,1.4381257806992847,3.278813867179491,-1.334559876500587,-0.06334270178951588,0.10246872727430331,-0.3039363371062695,4,left
28.552,0.6558578893374776,0.8491410586002605,-0.2684172083990885,1.4190047507787067,3.278022669965883,-1.3451562591105781,-0.06232348511494849,0.1050738417547203,-0.30769740215942154,4,left
28.553,0.6568451009659395,0.8467213223811048,-0.2683699665165335,1.4004168902105985,3.2769239086256485,-1.355360473011632,-0.06126228676665676,0.10773087216862327,-0.3111987986631854,4,left
28.554000000000002,0.6578011469723715,0.844339567756615,-0.26831464683017925,1.3823627924601145,3.2755097245354063,-1.3651668604159355,-0.060163127536235046,0.11043923427277079,-0.31442657672548524,4,left
28.555,0.6587211173313027,0.8419992588471135,-0.268251908288433,1.3648395692808881,3.2737734034174477,-1.3745706686097439,-0.059030174072678895,0.11319799523865781,-0.31736758718515445,4,left
28.572,0.6596001375123008,0.8397037335843811,-0.26818242920672164,1.3478411436293112,3.2717091875958504,-1.3835680315139622,-0.05786772028879056,0.11600585376227428,-0.3200096164555375,4,left
28.609,0.6604333940295745,0.837456191934167,-0.2681068988783032,1.3313585660040315,3.2693120741517934,-1.392155945874239,-0.05668016647197946,0.11886112424258047,-0.32234151277357476,4,left
28.61,0.6612161599655172,0.8352596867316872,-0.2680260092070683,1.315380346666652,3.2665776054299944,-1.400332241685354,-0.05547199614656581,0.12176172496778773,-0.3243533034633221,4,left
28.61,0.6619438210236801,0.8331171168153254,-0.2679404468523563,1.299892800246868,3.263501655068287,-1.4080955467041565,-0.05424775098915327,0.12470517009144125,-0.32603630222824964,4,left
28.611,0.6626119026027721,0.8310312221319427,-0.26785088632070864,1.2848803994823943,3.2600802135450344,-1.41544524503138,-0.053012004555908245,0.12768856484133742,-0.32738320399594606,4,left
28.64,0.6632160981506249,0.8290045804917241,-0.26775798424780267,1.2703261312910206,3.2563091821643795,-1.4223814297453585,-0.05176933583460398,0.13070860321604877,-0.3283881640102529,4,left
28.686999999999998,0.6637522987604462,0.8270396054831483,-0.2676623748695798,1.2562118461212803,3.252184187374272,-1.4289048495559873,-0.05052430338016196,0.13376156761234104,-0.32904685869259687,4,left
28.689,0.6642166236777204,0.8251385447534646,-0.2675646664021538,1.242518593781838,3.247700424335291,-1.4350168494595796,-0.04928142035290655,0.1368433302353916,-0.3293565272843943,4,left
28.689,0.6646054511062812,0.8233034777264221,-0.2674654377807745,1.2292269430050495,3.2428525333005633,-1.440719305398362,-0.04804513061395082,0.13994935667927422,-0.32931599411530205,4,left
28.69,0.6649154483812065,0.8215363120193192,-0.2673652350849305,1.2163172843942853,3.2376345092669303,-1.4460145532075896,-0.04681978614205124,0.14307471272765737,-0.32892567151778485,4,left
28.706999999999997,0.6651436002139585,0.819838778143304,-0.26726456705226087,1.203770117559383,3.232039644145468,-1.4509053134694838,-0.04560962612557711,0.1462140757718087,-0.3281875434136626,4,left
28.708000000000002,0.665287233689672,0.8182124223506319,-0.267163899362489,1.1915663245113792,3.226060499589892,-1.4553946162944782,-0.04441875799395715,0.14936175189600362,-0.32710512959110505,4,left
28.746,0.665344039347304,0.8166585978037358,-0.2670636479124326,1.1796874320918884,3.219688908004474,-1.4594857313837812,-0.0432511404922544,0.15251169905577977,-0.3256834306783914,4,left
28.747,0.6653120884725111,0.8151784546378608,-0.2669641719267484,1.1681158655104118,3.212915999867849,-1.4631821073914124,-0.042110568793283024,0.15565755632245298,-0.32392885406828487,4,left
28.748,0.6651898468565137,0.8137729297818826,-0.26686576799388606,1.156835193798233,3.2057322566165176,-1.4664873222002561,-0.04100066152398083,0.15879267857290683,-0.32184912231828233,4,left
28.748,0.6649761848615526,0.8124427373982831,-0.26676866581973563,1.1458303667952228,3.198127588446614,-1.4694050441512991,-0.039924849403006876,0.16191017505864747,-0.3194531678435605,4,left
28.773000000000003,0.6646703834801583,0.8111883606070779,-0.2666730260207921,1.1350879406954797,3.1900914340148714,-1.4719390027995196,-0.038886365086716106,0.16500294976308885,-0.3167510189921186,4,left
28.823,0.6642721365766776,0.8100100448336116,-0.2665789398927409,1.1245962847673712,3.1816128745191476,-1.4740929656130102,-0.03788823392064554,0.168063741981016,-0.3137536813170555,4,left
28.825,0.6637815505338721,0.8089077922073626,-0.266486430618519,1.1143457594136639,3.1726807521380027,-1.475870715833175,-0.03693326547355459,0.1710851664991496,-0.3104730155674763,4,left
28.825,0.6631991433115415,0.8078813551333428,-0.26639545509064516,1.104328858188861,3.1632837853072413,-1.4772760279103747,-0.03602404583106384,0.1740597532816781,-0.3069216126450161,4,left
28.826,0.6625258441544084,0.8069302275887278,-0.26630590610339744,1.0945403107119014,3.1534106781444176,-1.4783126394625794,-0.03516293064603089,0.1769799866695345,-0.3031126655173959,4,left
28.826999999999998,0.6617629929822652,0.8060536358447531,-0.26621761557682794,1.0849771454093053,3.1430502255054993,-1.478984221793811,-0.03435203895616699,0.17983834417856745,-0.2990598383201327,4,left
28.884,0.6609123370074659,0.8052505330111283,-0.26613035949762953,1.0756387114491863,3.132191418310449,-1.479294354581171,-0.03359324784573666,0.1826273353640557,-0.29477713407934736,4,left
28.886999999999997,0.659976022581757,0.8045196011965134,-0.26604386468831953,1.0665266625352443,3.120823553644042,-1.4792465118647156,-0.03288818817571834,0.18533954180260076,-0.2902787646390821,4,left
28.888,0.6589565814805638,0.8038592626962758,-0.2659578172341022,1.0576449124573966,3.1089363492149955,-1.478844063921676,-0.0322382418142783,0.18796765910151567,-0.28557902751108416,4,left
28.89,0.6578569115658249,0.8032676995668152,-0.2658718722713204,1.048999576876797,3.096520056936418,-1.4780902958325626,-0.03164454098737332,0.1905045405214811,-0.28069219304052145,4,left
28.891,0.6566802523199565,0.8027428792948837,-0.2657856646004191,1.0405989125156099,3.0835655705181795,-1.4769884420191344,-0.031107970391400844,0.19294324058646695,-0.2756324030484472,4,left
28.908,0.6554301564223494,0.8022825834902839,-0.2656988194633462,1.0324532582410024,3.070064524872355,-1.47554173631372,-0.030629172502642483,0.19527705719541785,-0.2704135809760066,4,left
28.962,0.6541104586272994,0.8018844373983776,-0.2656109628478676,1.024574978213694,3.056009387261538,-1.4737534771776157,-0.03020855625114495,0.19749957161516682,-0.26504935343555447,4,left
28.965,0.6527252423985677,0.801545939518471,-0.2655217306957971,1.0169784037328964,3.0413935421103226,-1.4716271062240696,-0.029846309031589916,0.1996046862554925,-0.2595529830195645,4,left
28.965999999999998,0.6512788040536381,0.801264491278388,-0.2654307765227835,1.0096797653941512,3.0262113743350207,-1.4691662954383695,-0.029542411724979734,0.20158666022436522,-0.2539373116255019,4,left
28.965999999999998,0.6497756143078394,0.8010374266002126,-0.2653377772606493,1.0026971043906223,3.0104583576763666,-1.466375036952134,-0.029296655917935014,0.20344014264814117,-0.24821471246411797,4,left
28.967,0.6482202776347158,0.8008620408832312,-0.2652424374148846,0.9960501545759337,2.9941311528870664,-1.4632577307623724,-0.029108662235901986,0.20516020373392194,-0.24239704831252157,4,left
29.021,0.6466174900951481,0.8007356186368836,-0.26514449179382615,0.9897601921761388,2.977227717369309,-1.4598192684332698,-0.028977898977400014,0.2067423635581497,-0.2364956341787626,4,left
29.023000000000003,0.6449719961429561,0.8006554588936149,-0.2650437071227393,0.9838498540888654,2.9597474246304305,-1.456065111783879,-0.02890370070305304,0.20818261853844877,-0.23052120358745865,4,left
29.023000000000003,0.6432885447219787,0.8006188977183963,-0.2649398828021179,0.9783429285390974,2.941691188727798,-1.4520013648479952,-0.028885286600224616,0.20947746535426168,-0.22448387806549788,4,left
29.024,0.6415718450129532,0.8006233274012574,-0.2648328509652791,0.9732641231249114,2.9230615872783123,-1.447634836823293,-0.028921778311614264,0.21062392172595842,-0.21839313910305136,4,left
29.025,0.6398265225160759,0.8006662120928596,-0.26472247593696485,0.9686388140247506,2.9038629782003036,-1.4429730942941612,-0.029012216812580177,0.21161954326340476,-0.21225780162897045,4,left
29.04,0.6380570765452741,0.8007450998811562,-0.2646086532260662,0.9644927778658706,2.8841016082231383,-1.4380245020346714,-0.029155578025868184,0.21246243579284518,-0.20608598827540958,4,left
29.08,0.6362678402996252,0.8008576317304494,-0.2644913082583806,0.9608519064919883,2.863785712792227,-1.43279825226549,-0.029350787049343782,0.2131512629274459,-0.19988510413106086,4,left
29.081999999999997,0.6344629443792924,0.8010015480250989,-0.26437039509526067,0.9577419046169039,2.842925607314294,-1.4273043823513691,-0.029596730976233828,0.21368524884469636,-0.1936618119182041,4,left
29.098000000000003,0.632646284207831,0.8011746934390948,-0.26424589532104414,0.9551879703522403,2.821533769686164,-1.4215537809250114,-0.02989227031640284,0.21406417627030916,-0.18742200762019243,4,left
29.1,0.6308214916048764,0.8013750206796529,-0.2641178171267305,0.9532144585988938,2.7996249140487133,-1.4155581824223236,-0.030236249067915152,0.21428837965392547,-0.18117079680758028,4,left
29.101,0.6289919108233317,0.8016005935293663,-0.26398619450658917,0.9518445279108134,2.777216055418663,-1.4093301501407502,-0.030627503561319123,0.21435873349648168,-0.17491247231004467,4,left
29.156999999999996,0.6271605795971756,0.8018495894953698,-0.26385108652053374,0.9510997745287879,2.754326563412182,-1.402883048568929,-0.03106487025315855,0.214276635854579,-0.1686504942496999,4,left
29.159000000000002,0.6253302158221243,0.8021203022316582,-0.263712576665928,0.9509998628410294,2.7309782006858705,-1.39623100688229,-0.03154719267152448,0.2140439874597544,-0.1623874739638415,4,left
29.159000000000002,0.6235032101611709,0.8024111437625069,-0.26357077241012383,0.9515621646165504,2.707195140282088,-1.389388876135846,-0.03207332776370017,0.21366316763351104,-0.15612516426757556,4,left
29.16,0.621681624229545,0.8027206464041122,-0.2634258048606658,0.9528014166671167,2.6830039578056497,-1.3823721821263655,-0.03264215192225342,0.21313700859153023,-0.14986445901924728,4,left
29.160999999999998,0.6198671934596774,0.8030474641933902,-0.2632778284777455,0.9547294030153263,2.658433598465719,-1.3751970751427516,-0.03325256689119772,0.212468769333725,-0.14360540417310155,4,left
29.225,0.6180613336017967,0.8033903736422988,-0.2631270207284636,0.9573546681200378,2.633515323190874,-1.367880277895371,-0.03390350561554004,0.21166210954502496,-0.13734722112467018,4,left
29.228,0.616265150042137,0.8037482737072327,-0.2629735816441379,0.9606822690721755,2.6082826398328174,-1.3604390331814358,-0.03459393793947579,0.21072106326749374,-0.1310883421328124,4,left
29.23,0.6144794494775906,0.8041201848514288,-0.26281773328626923,0.9647135726985526,2.582771223951879,-1.3528910524487758,-0.0353228758806808,0.20965001154757934,-0.12482645693813468,4,left
29.230999999999998,0.6127047538682,0.8045052468151865,-0.26265971907513697,0.9694460999540968,2.557018830938276,-1.345254465710182,-0.0360893781168335,0.20845365299713714,-0.11855856941008693,4,left
29.232,0.6109413169744451,0.8049027142440001,-0.26249980283350466,0.9748734179246885,2.5310651996788587,-1.3375477728013148,-0.03689255341204716,0.20713697147124324,-0.1122810633424581,4,left
29.301,0.6091891440113426,0.8053119491315166,-0.2623382673777227,0.9809850789552405,2.5049519475634896,-1.329789795573332,-0.03773156287558394,0.2057052005420162,-0.10598977703436006,4,left
29.303,0.6074480147331042,0.805732409601871,-0.26217541258846444,0.9877666056742321,2.478722456425573,-1.3219996300303383,-0.038605621036763856,0.20416378471206842,-0.09968008658119962,4,left
29.305,0.6057175095340771,0.806163635627224,-0.26201155299215506,0.9951995202737778,2.452421748900125,-1.3141965970988925,-0.039513995738374365,0.20251833736381622,-0.09334699785759623,4,left
29.305,0.6039970373386288,0.8066052329750686,-0.26184701485400796,1.0032614168203864,2.4260963547928696,-1.306400191039329,-0.040456006850988976,0.2007745954405465,-0.0869852471741622,4,left
29.305999999999997,0.6022858637102602,0.8070568566405075,-0.2616821326674813,1.0119260761189095,2.399794167252466,-1.2986300250893552,-0.041431023804532396,0.19893837100159928,-0.08058941047406265,4,left
29.307,0.6005831378679487,0.8075181947065054,-0.26151724488066025,1.0211636229680539,2.3735642883010315,-1.2909057742261492,-0.04243846190266895,0.1970155005275959,-0.07415402035547312,4,left
29.333000000000002,0.5988879178645413,0.8079889533427529,-0.261352688774267,1.0309407252299556,2.347456861563795,-1.2832471148633897,-0.043477777330140736,0.1950117941723303,-0.06767368916245424,4,left
29.36,0.5971991937243403,0.8084688434437497,-0.26118879451257715,1.0412208332371233,2.321522886913344,-1.275673661057901,-0.04454846073241744,0.192932987891546,-0.061143235806934024,4,left
29.361,0.5955159087294171,0.8089575692402584,-0.26102587848427816,1.051964457561189,2.2958140100077413,-1.2682048966663857,-0.04565002930753906,0.19078470057052566,-0.05455781433136036,4,left
29.362,0.5938369792842345,0.8094548191294972,-0.26086423614056825,1.063129483669956,2.2703822814385406,-1.2608601030272537,-0.04678201755350521,0.18857239658034594,-0.0479130421012472,4,left
29.362,0.5921613138504741,0.8099602588455439,-0.26070413459878283,1.0746715222142311,2.245279883935711,-1.2536582819473712,-0.04794396711161434,0.1863013527909887,-0.04120512400171856,4,left
29.381,0.5904878313754451,0.8104735269150933,-0.2605458053070363,1.0865442907510112,2.2205588308387023,-1.2466180737219974,-0.04913541630025084,0.1839766285516516,-0.03443096796421691,4,left
29.439,0.588815479582008,0.8109942322109573,-0.2603894370859407,1.0987000165332825,2.1962706451839566,-1.2397576697720738,-0.05035588978587146,0.18160303751929052,-0.027588288313099965,4,left
29.44,0.5871432535002561,0.8115219533526393,-0.26023516988410644,1.1110898461037673,2.1724660335233095,-1.2330947201165492,-0.05160488857192843,0.17918512088383184,-0.02067569551637757,4,left
29.441,0.5854702146180427,0.8120562396697898,-0.26008308959794774,1.1236642500445808,2.1491945686920335,-1.2266462375588587,-0.05288188037405666,0.1767271219687214,-0.013692771983895822,4,left
29.441999999999997,0.5837955109329133,0.8125966134122214,-0.2599332242990871,1.1363734169644768,2.126504392039127,-1.2204285016216818,-0.054186290597064805,0.17423296255706486,-0.006640133266415108,4,left
29.441999999999997,0.5821183979833308,0.8131425728324825,-0.259785542121862,1.1491676347000401,2.1044419408706254,-1.2144569646315706,-0.05551749444740376,0.17170622182907927,0.0004805269315102068,4,left
29.499000000000002,0.5804382606046612,0.8136935956455196,-0.25963995081752517,1.1619976582181328,2.0830517031247893,-1.2087461609181338,-0.056874810833474385,0.16915011906236296,0.00766640993886008,4,left
29.5,0.5787546347769345,0.8142491422282222,-0.25949629865262036,1.1748150641645452,2.0623759995616893,-1.2033096192738126,-0.05825749823908166,0.1665675007905872,0.014913604519014327,4,left
29.500999999999998,0.5770672286813476,0.8148086578849494,-0.2593543761161217,1.1875725920955023,2.0424547934039006,-1.198159778657121,-0.05966475191457909,0.16396083229567862,0.02221709769609671,4,left
29.502,0.5753759419664217,0.8153715736131764,-0.259213917913054,1.2002244724287747,2.0233255273669526,-1.1933079071229764,-0.061095701263188563,0.16133219285267764,0.029570802218045502,4,left
29.503,0.5736808822264541,0.8159373050295251,-0.25907460495354073,1.2127267411519504,2.005022987683337,-1.1887640241520525,-0.06254940655515266,0.15868327424511663,0.03696759924181733,4,left
29.575,0.5719823779929621,0.8165052494679114,-0.2589360664223815,1.2250375413294299,1.9875791930416107,-1.184536827489516,-0.06402485462523458,0.15601538235353818,0.044399395687531346,4,left
29.576999999999998,0.570280988006368,0.8170747817058709,-0.25879788231368106,1.2371174114569117,1.9710233033324103,-1.1806336272920632,-0.06552095349958688,0.15332944177795557,0.051857196186970426,4,left
29.578000000000003,0.5685775066757486,0.8176452492331031,-0.25865958681201173,1.2489295607159001,1.9553815414111562,-1.1770602913206671,-0.06703652595616306,0.15062600348664928,0.05933118964767079,4,left
29.579,0.5668729654630295,0.8182159683015336,-0.2585206726426342,1.2604401311760338,1.9406771227740878,-1.1738212039797373,-0.06857030204336732,0.14790525548640182,0.06681085018563515,4,left
29.579,0.5651686300051962,0.818786221978162,-0.25838059626630083,1.27161844698487,1.9269301910788177,-1.1709192403166273,-0.07012091068399329,0.1451670365230464,0.07428505083830023,4,left
29.58,0.563465993279574,0.8193552610810476,-0.2582387837736092,1.2824372500234815,1.914157758886727,-1.1683557549724566,-0.07168687067569177,0.14241085284603877,0.08174218605477636,4,left
29.635,0.5617667655999193,0.8199223085104916,-0.25809463749764483,1.2928729188130161,1.9023736528241935,-1.1661305850767631,-0.07326658150155556,0.13963589808453564,0.08917029761891522,4,left
29.636,0.5600728623145215,0.8204865672637913,-0.2579475434915856,1.3029056629002036,1.8915884636172502,-1.1642420650007426,-0.07485831429832634,0.13684107626255548,0.09655719985735961,4,left
29.636999999999997,0.558386389876137,0.821047232112211,-0.25779687992772443,1.3125196829785706,1.88180950641391,-1.1626870510296412,-0.07646020332646442,0.13402502792569504,0.1038906016750271,4,left
29.638,0.5567096311158821,0.8216035039252991,-0.25764202612384407,1.3217032902335202,1.8730408014387099,-1.161460955545277,-0.07807023850955035,0.13118615928370186,0.11115822299811408,4,left
29.639,0.5550450312141136,0.8221546041975233,-0.2574823716766092,1.3304489829544996,1.8652830837720185,-1.1605577913893361,-0.07968625977088752,0.12832267424021626,0.11834790274857242,4,left
29.709,0.5533951855340756,0.8226997876043388,-0.2573173256053449,1.3387534804264931,1.8585338460926946,-1.1599702269342231,-0.08130595371437832,0.12543260921109828,0.12544769619816845,4,left
29.71,0.5517628283332703,0.8232383530550823,-0.2571463259349108,1.3466177142173696,1.8527874150435037,-1.1596896519775157,-0.0829268528712848,0.12251387068698433,0.13244596085380328,4,left
29.712,0.5501508198653383,0.8237696553083625,-0.25696884982932344,1.3540467768862006,1.8480350611969996,-1.1597062544574168,-0.08454633755367601,0.11956427552581025,0.13933143074986074,4,left
29.712,0.5485621306066484,0.8242931179053105,-0.2567844237615449,1.361049828136409,1.8442651426024705,-1.160009107987497,-0.08616164031724387,0.11658159388203305,0.14609327923395052,4,left
29.713,0.546999823151224,0.8248082468119649,-0.25659263314673275,1.3676399584363508,1.8414632818974235,-1.160586270209899,-0.08776985302634206,0.11356359425439501,0.15272117066210555,4,left
29.714000000000002,0.5454670323404237,0.825314644419698,-0.2563931310396101,1.3738340107646254,1.8396125762639306,-1.1614248918423487,-0.08936793649640387,0.11050808936933589,0.15920530201313907,4,left
29.772,0.5439669432891309,0.8258120239259353,-0.25618564551447015,1.3796523640997562,1.8386938361657694,-1.162511335508508,-0.09095273267905267,0.1074129811922577,0.16553643576149546,4,left
29.775,0.5425027666065542,0.8263002239451573,-0.2559699854050811,1.385118686915608,1.8386858433649296,-1.1638313015037622,-0.09252097931277113,0.10427630378657232,0.17170592512049132,4,left
29.776,0.5410777103697951,0.8267792231031409,-0.25574604424345787,1.390259670177522,1.839565616833726,-1.1653699555568857,-0.09406932671837615,0.10109626352010796,0.17770573268810866,4,left
29.776999999999997,0.5396949489114152,0.827249154396154,-0.2555138024075247,1.3951047450729133,1.841308679625254,-1.1671120534560486,-0.09559435595802686,0.09787127657033086,0.18352844412344269,4,left
29.778000000000002,0.5383575889572779,0.8277103189422159,-0.2552733276578195,1.3996857860661651,1.8438893252076685,-1.1690420593465278,-0.0970925973171273,0.09460000377978464,0.18916727893009355,4,left
29.831999999999997,0.5370686338446808,0.8281631984566586,-0.2550247743691447,1.4040367986319817,1.8472808836553736,-1.1711442566005061,-0.09856054832971216,0.09128138289792143,0.19461609990765855,4,left
29.834,0.5358309465273269,0.8286084656060332,-0.2547683817673402,1.4081935914650834,1.851455987884846,-1.1734028511007066,-0.09999469103814804,0.08791465821818248,0.199869421905613,4,left
29.840999999999998,0.5346472122315766,0.829046991486339,-0.2545044714175572,1.412193433179477,1.8563868399424461,-1.1758020669433766,-0.10139150843919012,0.08449940760394939,0.20492241999869343,4,left
29.848000000000003,0.5335199020021472,0.8294798498463115,-0.25423344421659133,1.4160746936343283,1.862045477038716,-1.1783262345397896,-0.10274750012060355,0.08103556689383078,0.20977093709942532,4,left
29.849,0.5324512385174517,0.8299083181777532,-0.2539557772096512,1.419876470645138,1.8684040354499654,-1.1809598709617244,-0.10405919709246196,0.07752345167661184,0.21441149102287593,4,left
29.85,0.5314431652501636,0.8303338761227586,-0.2536720205484592,1.4236382039585183,1.8754350075734276,-1.1836877521352804,-0.10532317581884737,0.07396377636174681,0.21884128104006195,4,left
29.909000000000002,0.5304973195642448,0.8307582016843534,-0.2533827948082564,1.4273992789907524,1.8831114858484197,-1.1864949763535848,-0.10653607146415432,0.07035767014959105,0.22305819406546795,4,left
29.910999999999998,0.5296150099870541,0.8311831656473098,-0.25308878877561997,1.4311986222078594,1.8914073888338852,-1.1893670187134298,-0.10769459038354641,0.06670668892665275,0.2270608108208389,4,left
29.912,0.5287971977520968,0.8316108246014774,-0.25279075774785026,1.435074288904744,1.9002976675713354,-1.192289776322643,-0.10879552189557196,0.06301282178946375,0.2308484124264191,4,left
29.913,0.5280444827507698,0.8320434130365718,-0.2524895223228078,1.4390630442014143,1.9097584918651362,-1.1952496043939391,-0.10983574936620336,0.059278491222081,0.23442098776058673,4,left
29.914,0.5273570941859966,0.8324833350392475,-0.2521859675981638,1.4431999413631396,1.9197674160547769,-1.198233344040758,-0.11081226061516236,0.055506546587209736,0.2377792416499406,4,left
29.975,0.5267348862897178,0.8329331560355698,-0.2518810426715542,1.4475179076954696,1.9303035231817511,-1.2012283438016582,-0.11172215763276226,0.051700251194001276,0.24092460343679192,4,left
29.978,0.526177339292697,0.8333955947776897,-0.2515757603449905,1.4520473516785806,1.9413475460810408,-1.2042224775926915,-0.11256266556863925,0.04786326377672429,0.24385923471969767,4,left
29.979,0.5256835654454416,0.8338735155038067,-0.2512711969397601,1.4568158015926063,1.9528819643030486,-1.2072041611145046,-0.11333114093969218,0.04399961550004104,0.24658603465718246,4,left
29.986,0.5252523194150366,0.8343699200434,-0.2509684920911262,1.4618475797423025,1.9648910764470644,-1.2101623675300288,-0.11402507903670872,0.04011368336520398,0.24910864151251386,4,left
29.988000000000003,0.524882012059368,0.8348879396342853,-0.250668848353737,1.4671635129767642,1.9773610478630972,-1.2130866425558857,-0.1146421206263215,0.03621016058605579,0.25143142926283096,4,left
29.989,0.5245707266402406,0.8354308262780556,-0.2503735304575275,1.472780679811776,1.9902799340499828,-1.2159671190108865,-0.11518005822491857,0.03229402458489382,0.25355949745127615,4,left
30.04,0.5243162369151985,0.8360019434711737,-0.2500838641029495,1.4787121959322493,2.0036376815530983,-1.218794531039149,-0.11563684231609202,0.028370503403475838,0.25549865195843313,4,left
30.043000000000003,0.5241160269853256,0.8366047560230843,-0.2498012342213523,1.4849670424974628,2.017426110819624,-1.2215602285388243,-0.1160105877905887,0.024445041122786778,0.2572553749515385,4,left
30.044,0.5239673131423546,0.8372428183285947,-0.2495270826198798,1.4915499431418016,2.031638886944642,-1.2242561925015023,-0.11629958072118285,0.020523262522256645,0.2588367833183072,4,left
30.045,0.523867068159307,0.8379197601199914,-0.2492629049244869,1.4984612940954583,2.0462714827685686,-1.2268750517930198,-0.11650228546042911,0.01661093698324399,0.2602505755428333,4,left
30.045,0.5238120483915953,0.8386392689118887,-0.24901024679438535,1.505697148895629,2.0613211360379675,-1.229410101457236,-0.11661735187139231,0.012713941480034234,0.26150496743917795,4,left
30.081,0.523798823771244,0.8394050690523659,-0.24877069946716104,1.5132492561384912,2.076786800386836,-1.2318553217729518,-0.11664362221474596,0.008838222283383967,0.262608617773577,4,left
30.107,0.523823810373308,0.8402208979167273,-0.24854589470419391,1.5211051456356945,2.092669088734093,-1.2342053960404777,-0.11658013705623903,0.004989754880431494,0.26357054514784756,4,left
30.109,0.5238833046770472,0.8410904801172188,-0.24833749912935132,1.5292482567879793,2.108970207212083,-1.2364557243971215,-0.11642613971742428,0.001174501736076403,0.2644000371739873,4,left
30.122,0.5239735181664712,0.8420175007705119,-0.2481472078488711,1.537658104523086,2.1256938778755763,-1.238602431632121,-0.11618107907874757,-0.002601632260778939,0.26510655235370806,4,left
30.124000000000002,0.5240906109318948,0.8430055788273284,-0.2479767371552341,1.5463104808477592,2.1428452475664894,-1.240642368162456,-0.1158446106930742,-0.006332846545857885,0.26569961488337107,4,left
30.125,0.5242307234144068,0.8440582412467506,-0.247827816108955,1.5551776914510764,2.1604307776550375,-1.2425731039583159,-0.11541659614974316,-0.010013492900604385,0.2661887032822941,4,left
30.166,0.5243900059667638,0.8451788985813367,-0.24770217689102975,1.5642288270155769,2.178458107732448,-1.2443929153146804,-0.11489710053978043,-0.013638122423201714,0.26658313508539416,4,left
30.168000000000003,0.5245646462697485,0.8463708224654706,-0.24760154397842687,1.5734300689852825,2.196935888074817,-1.2461007643925945,-0.11428638782308613,-0.01720152834905123,0.2668919505871093,4,left
30.184,0.5247508948848821,0.8476371254692096,-0.24752762235688922,1.5827450297057282,2.2158735788367667,-1.247696271502766,-0.11358491394770182,-0.020698782397895077,0.2671237978769387,4,left
30.186,0.5249450893777264,0.8489807436035599,-0.24748208513291434,1.5921351261974208,2.2352812163999665,-1.2491796800961523,-0.11279331766020084,-0.024125263724633132,0.2672868200633192,4,left
30.186999999999998,0.5251436774797507,0.8504044215090979,-0.24746656099707479,1.601559983112337,2.255169151261082,-1.2505518142560015,-0.11191240902570528,-0.027476680432189465,0.2673885450592977,4,left
30.24,0.5253432396789602,0.8519107002299093,-0.24748262196368284,1.610977853708251,2.275547768342202,-1.251814028169808,-0.11094315583652502,-0.030749084278591417,0.26743577927043466,4,left
30.241,0.5255405115493403,0.8535019074466221,-0.24753177174494326,1.6203460439452804,2.2964272042177063,-1.2529681468839693,-0.1098866683596694,-0.03393888014341141,0.26743450853480766,4,left
30.241999999999997,0.525732406117634,0.8551801499283498,-0.24761543512781006,1.629621328539756,2.3178170721433573,-1.2540163978189691,-0.10874418302406685,-0.03704283233694521,0.26738981078126545,4,left
30.259,0.5259160364787355,0.8569473076799926,-0.24773494866963355,1.6387603545225944,2.3397261995643204,-1.2549613330460558,-0.1075170454972334,-0.040058069316835566,0.26730578375546327,4,left
30.261,0.5260887386005815,0.8588050289704784,-0.24789155274936878,1.6477200315646572,2.362162380604102,-1.2558057435403667,-0.10620669337498478,-0.04298208738231116,0.2671854892179469,4,left
30.261,0.5262480939955414,0.8607547254021257,-0.2480863847057192,1.6564579090501415,2.3851321478960883,-1.2565525685302745,-0.10481463878478986,-0.045812753091961735,0.2670309142244959,4,left
30.308000000000003,0.5263919517394184,0.8627975664273752,-0.24832047267232288,1.6649325398634711,2.4086405695542594,-1.2572048041013522,-0.1033424515835151,-0.04854830349701225,0.2668429504560858,4,left
30.309,0.5265184489537331,0.864934472965004,-0.24859472967718493,1.6731038308698216,2.4326910756477553,-1.2577654141741483,-0.10179174405816106,-0.051187342976232904,0.26662139288825537,4,left
30.32,0.5266260285067086,0.8671661099144038,-0.24890994760364918,1.6809333800960882,2.4572853159653754,-1.2582372451046304,-0.10016415776618365,-0.05372883583704824,0.26636495861515774,4,left
30.320999999999998,0.5267134529185961,0.8694928775407187,-0.2492667908842747,1.688384800633519,2.482423049424237,-1.2586229441169574,-0.09846135252278172,-0.0561720947627976,0.2660713253035537,4,left
30.322,0.5267798142378207,0.8719149019467674,-0.24966579022389865,1.6954240312170081,2.508102064786831,-1.258924881680656,-0.09668499692106568,-0.058516766149548295,0.2657371870625135,4,left
30.375,0.5268245402633779,0.8744320250896445,-0.2501073369318009,1.7020196330930737,2.534318130328006,-1.2591450784963012,-0.09483675950676465,-0.06076281380234146,0.26535832469061876,4,left
30.377,0.5268473974847742,0.8770437949744908,-0.25059167842822433,1.7081430721718855,2.5610649664512892,-1.2592851387476618,-0.09291829994733183,-0.06291050209482421,0.2649296880217143,4,left
30.396,0.5268484907079961,0.8797494567411848,-0.2511189152226521,1.7137689846254895,2.5883342331892893,-1.259346191773109,-0.09093125992824717,-0.06496037903777752,0.2644454894569994,4,left
30.398000000000003,0.5268282590488943,0.8825479453423803,-0.25168899936058764,1.7188754219848907,2.616115526338995,-1.259328843470528,-0.08887725374321173,-0.0669132593007604,0.2638993083109345,4,left
30.398000000000003,0.526787468079407,0.8854378803697309,-0.25230173421439295,1.7234440679924852,2.644396379250478,-1.2592331372407544,-0.08675785866682564,-0.06877020698087184,0.26328420465239927,4,left
30.399,0.5267271983232664,0.8884175633589951,-0.25295677551990453,1.727460417356691,2.6731622691035315,-1.259058523436016,-0.08457460533929505,-0.07053251759409764,0.2625928393464013,4,left
30.441,0.5266488310319982,0.8914849773294676,-0.2536536334908963,1.7309139090727574,2.7023966271228224,-1.2588038364552172,-0.08232896847093736,-0.07220169858762346,0.2618175959036872,4,left
30.443,0.5265540331402747,0.8946377870242324,-0.25439167560328607,1.7337980113825815,2.7320808525611047,-1.2584672791425353,-0.08002235809564967,-0.07377944784802815,0.2609507008431766,4,left
30.455,0.5264447433848362,0.8978733380653499,-0.2551701297571803,1.7361102578950067,2.762194330491135,-1.2580464144316232,-0.07765611150330634,-0.07526763001389217,0.2599843411078701,4,left
30.456,0.5263231597433049,0.9011886565235191,-0.2559880884501256,1.7378522353110326,2.792714453814184,-1.257538164313899,-0.07523148611313073,-0.07666825065608916,0.2589107774722667,4,left
30.456999999999997,0.5261917260456234,0.9045804544181102,-0.2568445154128097,1.7390295253693562,2.823616651514015,-1.256938816605273,-0.07274965391344124,-0.07798342856487363,0.25772245183836745,4,left
30.506999999999998,0.52605311512514,0.9080451456504602,-0.2577382554912602,1.7396516075367405,2.854874428101908,-1.2562440406983997,-0.07021169830367562,-0.0792153664608131,0.25641208561691553,4,left
30.509,0.5259102071682129,0.911578871540495,-0.25866804685478506,1.7397317311387,2.886459420819172,-1.2554489138833833,-0.06761861396375422,-0.08036632036816968,0.25497276709035593,4,left
30.533,0.5257660636110288,0.9151775315532591,-0.25963253370405787,1.7392867634517477,2.9183414795449854,-1.2545479594235167,-0.06497130999646462,-0.08143856774834432,0.25339802691391794,4,left
30.535,0.5256238978994505,0.9188368155271057,-0.2606302781035571,1.738337016366167,2.9504887714429375,-1.2535351968593587,-0.062270616341328695,-0.08243437448807887,0.251681901715115,4,left
30.535999999999998,0.5254870440133924,0.9225522361099823,-0.26165977024896336,1.7369060520540949,2.982867910760886,-1.2524042046180797,-0.059517293234195336,-0.083355961198802,0.24981898641211644,4,left
30.535999999999998,0.5253589227121994,0.9263191613366301,-0.2627194367953257,1.7350204677800778,3.0154441134424053,-1.2511481947419332,-0.05671204315918079,-0.0842054699628916,0.24780447680796544,4,left
30.574,0.5252430053739715,0.9301328471870759,-0.26380764721651506,1.732709660681821,3.0481813740426054,-1.2497600986316808,-0.05385552455750078,-0.08498493303996911,0.2456342045377146,4,left
30.576,0.5251427757986319,0.9339884695921931,-0.26492271854914057,1.7300055745930463,3.0810426585425374,-1.2482326610486028,-0.05094836673951177,-0.08569624466856503,0.2433046659246279,4,left
30.59,0.5250616905124896,0.9378811551139745,-0.2660629189466214,1.7269424316710773,3.113990104490726,-1.2465585387006515,-0.04799118577359433,-0.08634113641867577,0.24081304536425685,4,left
30.592,0.5250031381213396,0.9418060093950715,-0.2672264703571625,1.7235564509300754,3.146985222124469,-1.24473040046322,-0.044984601307288874,-0.08692115617296722,0.2381572333342495,4,left
30.593000000000004,0.5249703984888894,0.9457581425004178,-0.26841155060187594,1.7198855546917404,3.179989094310255,-1.2427410269743888,-0.041929254270180905,-0.0874376507363607,0.23533583911033204,4,left
30.64,0.5249666026675841,0.9497326905188829,-0.26961629512351754,1.7159690635559455,3.2129625758259026,-1.240583406530062,-0.0388258251971245,-0.08789175206198724,0.2323481987041294,4,left
30.642,0.5249946943770945,0.9537248331803201,-0.2708387986488998,1.7118473805120344,3.2458664932274814,-1.2382508234254315,-0.03567505253087522,-0.08828436706050466,0.22919437932226336,4,left
30.668000000000003,0.5250573937326852,0.9577298076970497,-0.2720771170342251,1.7075616646531222,3.2786618462570427,-1.235736935850815,-0.032477750052299255,-0.08861617094803025,0.22587518208138374,4,left
30.67,0.5251571639685115,0.9617429195045581,-0.2733292696116073,1.7031534946713438,3.3113100112303027,-1.2330358421811682,-0.02923482279695182,-0.08888760409932116,0.22239214427762163,4,left
30.671,0.5252961817514868,0.965759550870488,-0.27459324229994464,1.69866452215382,3.3437729465561383,-1.2301421354601412,-0.025947281209115467,-0.08909887245867279,0.21874754171932384,4,left
30.671999999999997,0.5254763112808275,0.9697751682677621,-0.2758669915948355,1.6941361149226346,3.376013399982379,-1.2270509461682102,-0.022616253560307303,-0.08924995189844372,0.21494439117121178,4,left
30.708000000000002,0.5256990820622304,0.9737853290707549,-0.2771484494252267,1.6896089919393433,3.407995114663738,-1.223757973847713,-0.019242996818803197,-0.0893405975041535,0.21098645282630468,4,left
30.728,0.5259656702391913,0.9777856878601674,-0.27843552877550287,1.6851228535939546,3.439683026650383,-1.2202595090279549,-0.015828906219916183,-0.08937035896753892,0.2068782325712638,4,left
30.729,0.526276883543798,0.9817720025733763,-0.2797261298768605,1.6807160124757823,3.4710434438968023,-1.2165524473768252,-0.012375523711501604,-0.0893386023255143,0.2026249832065696,4,left
30.73,0.5266331501484195,0.985740140793873,-0.28101814672346537,1.6764250284459936,3.502044199388092,-1.212634297520944,-0.008884545313788572,-0.0892445365849278,0.19823270269567894,4,left
30.730999999999998,0.5270345118544383,0.9896860864594361,-0.28230947372860343,1.672284350135792,3.5326547757377034,-1.2085031833008781,-0.005357827357380534,-0.08908724282956368,0.19370812691308817,4,left
30.773000000000003,0.5274806219663978,0.9936059471335129,-0.2835980124319781,1.6683259667350454,3.56284640241278,-1.204157841723486,-0.0017973915599501433,-0.08886570395766376,0.18905871499406762,4,left
30.775,0.5279707477830443,0.9974959618077339,-0.2848816782069673,1.6645790791138142,3.592592129590406,-1.1995976195400186,0.0017945710802192416,-0.08857883430904226,0.18429262651945205,4,left
30.805999999999997,0.5285037770884551,1.0013525090738598,-0.28615840689537075,1.661069802337876,3.6218668839517836,-1.1948224723579524,0.00541569758594296,-0.08822550905789775,0.17941869039683656,4,left
30.808000000000003,0.5290782277115681,1.0051721153708608,-0.2874261612563552,1.6578209086216444,3.6506475104153457,-1.1898329692139469,0.00906345150831878,-0.0878045933706835,0.1744463654248393,4,left
30.809,0.5296922594016142,1.0089514627338037,-0.28868293707744946,1.65485161432965,3.6789128014599517,-1.1846303037707886,0.012735122631182975,-0.08731497138218558,0.16938569248697072,4,left
30.81,0.5303436877868574,1.0126873951077524,-0.2899267687624601,1.6521774117785628,3.7066435145823027,-1.1792163121628823,0.0164278277721418,-0.08675557531264723,0.16424723812240402,4,left
30.83,0.5310300006013394,1.01637692217439,-0.2911557342134684,1.6498099467806504,3.7338223791660092,-1.1735934965297101,0.020138512412916577,-0.0861254155343674,0.15904202886257396,4,left
30.865,0.5317483765552808,1.020017219865645,-0.29236795890734896,1.6477569442956292,3.7604340958304947,-1.1677650518566862,0.02386395282776044,-0.08542361255772576,0.15378147560748545,4,left
30.866999999999997,0.5324957073865341,1.0236056269827234,-0.2935616191961375,1.6460221849698244,3.7864653320052257,-1.1617348928966251,0.027600758613992343,-0.08464943109571392,0.14847728793504927,4,left
30.866999999999997,0.5332686236689106,1.0271396375275315,-0.2947349449414399,1.6446055326470586,3.8119047148934815,-1.1555076784476632,0.0313453759521547,-0.08380231490664031,0.14314137935195412,4,left
30.868000000000002,0.5340635245220384,1.030616888879343,-0.29588622160864847,1.6435030080849273,3.8367428183447627,-1.149088831168683,0.03509409215857063,-0.08288192030379879,0.137785765114084,4,left
30.906999999999996,0.5348766104900714,1.0340351468435818,-0.29701379192349986,1.6427069014156617,3.86097213757355,-1.1424845516159394,0.03884304196897554,-0.08188814670749923,0.13242245386343188,4,left
30.908,0.5357039180677022,1.0373922891842542,-0.29811605710121974,1.6422059176368622,3.884587047045347,-1.1357018256270424,0.042588215735151355,-0.08082116358807549,0.12706333357107105,4,left
30.941999999999997,0.5365413541823235,1.0406862891111355,-0.29919147752121444,1.6419853526881167,3.9075837397513076,-1.1287484247230466,0.04632546957385389,-0.07968143368906809,0.12172005185496954,4,left
30.943,0.5373847293993874,1.0439151997478502,-0.30023857267054804,1.642027298791147,3.929960147929169,-1.1216328996419513,0.050050537472699,-0.07846973252620977,0.11640389088391508,4,left
30.944000000000003,0.5382297892642212,1.0470771402835943,-0.30125592025413933,1.6423108767036878,3.9517158460606066,-1.1143645674574745,0.053759045327183855,-0.07718716415004712,0.11112563821207884,4,left
30.944000000000003,0.5390722436595111,1.0501702842890266,-0.3022421544707847,1.64281249175533,3.9728519372274973,-1.106953492894246,0.05744652682813675,-0.07583517314616797,0.1058954569286377,4,left
30.974,0.5399077943201717,1.053192850537837,-0.3031959635381466,1.6435061113170764,3.9933709236536648,-1.0994104642923275,0.061108441088375334,-0.07441555283921329,0.10072275964020032,4,left
31.000999999999998,0.5407321608329041,1.056143096615707,-0.3041160866563962,1.644363562766043,4.013276561799541,-1.0917469643895303,0.06474019192778357,-0.07293044967423438,0.09561608967064159,4,left
31.003,0.541541105596041,1.059019315481831,-0.30500131073722253,1.6453548517901384,4.032573702121283,-1.0839751359318217,0.06833714874543267,-0.0713823638322289,0.0905830110006525,4,left
31.004,0.5423304582803773,1.061819834955844,-0.30585046732747506,1.6464485010346528,4.051268113553295,-1.0761077420901735,0.07189466871085187,-0.06977414649316344,0.08563000822329642,4,left
31.004,0.5430961402976648,1.064543019953543,-0.3066624301676787,1.647611908508729,4.069366293451713,-1.0681581216323224,0.07540811960410174,-0.06810899478946776,0.08076239916212373,4,left
31.041999999999998,0.5438341897057029,1.0671872772159157,-0.3074361137712148,1.6488117222479743,4.086875267136406,-1.0601401386498726,0.07887290240727897,-0.06639044584188769,0.07598426368567512,4,left
31.043000000000003,0.5445407868808356,1.0697510621721558,-0.30817047330783387,1.6500142224699488,4.10380238729052,-1.0520681263750098,0.08228447297689215,-0.06462237092032956,0.07129839136536247,4,left
31.081,0.5452122810649156,1.0722328873411382,-0.30886450584804653,1.6511856995373737,4.120155146876618,-1.0439568244731303,0.08563836253488336,-0.06280897014381873,0.06670624902723497,4,left
31.083000000000002,0.545845217433321,1.0746313313657403,-0.30951725264188484,1.6522928189661037,4.135941015825048,-1.0358213093452193,0.0889301969324052,-0.060954767706366576,0.062207968365444774,4,left
31.084,0.5464363637667047,1.0769450476717428,-0.3101278017510932,1.6533029699747164,4.151167305625279,-1.027676917239557,0.09215571463344652,-0.05906460715511495,0.057802353628677194,4,left
31.085,0.5469827354545289,1.0791727720074331,-0.3106952902860967,1.6541845971457934,4.165841062540951,-1.019539160397745,0.09531078327118891,-0.05714364554415637,0.05348690942816278,4,left
31.107,0.5474816175689776,1.0813133285489762,-0.31121890574855593,1.6549075161092344,4.179968989454331,-1.0114236378785548,0.0983914145775499,-0.05519734489684453,0.04925788873675758,4,left
31.138,0.5479305831414553,1.0833656346130378,-0.31169788640036644,1.6554432151364793,4.1935573957462005,-1.0033459450053084,0.10139377753842638,-0.05323145979977415,0.0451103611282388,4,left
31.139,0.5483275074593315,1.085328704262429,-0.3121315210216994,1.6557651433800502,4.2066121718898,-0.9953215857814018,0.10431420974952169,-0.051252020712688307,0.04103830101551693,4,left
31.14,0.5486705787613787,1.0872016512171196,-0.3125191486830635,1.6558489822981386,4.2191387806219565,-0.9873658894473428,0.10714922714229982,-0.04926531326059374,0.037034694358020114,4,left
31.141,0.5489583057709486,1.0889836915614162,-0.31286015917937865,1.6556728935324587,4.231142253919739,-0.9794939288623677,0.10989553251656468,-0.047277854377331605,0.0330916600220612,4,left
31.166,0.549189522145981,1.0906741469446204,-0.313153994741281,1.6552177376610857,4.242627187735253,-0.9717204379949768,0.11255002345855308,-0.04529636646144036,0.029200580710124328,4,left
31.168000000000003,0.5493633875658305,1.0922724491377556,-0.31340015351033973,1.6544672615343226,4.253597731293264,-0.9640597273113846,0.11510980008055892,-0.04332775041349942,0.025352239643290704,4,left
31.206,0.5494793854933131,1.09377814634295,-0.313598194781893,1.6534082536177424,4.264057570848902,-0.9565255971799439,0.11757217276112336,-0.04137905789921141,0.021536961463752818,4,left
31.206999999999997,0.5495373187581658,1.095190910504727,-0.3137477453440775,1.6520306661813469,4.274009910346344,-0.9491312513012825,0.11993466990323605,-0.03945746282026483,0.017744756835972354,4,left
31.208000000000002,0.5495373049277156,1.0965105438677787,-0.31384850593886804,1.650327701433377,4.283457455029753,-0.9418892152222667,0.1221950456056969,-0.03757023156369836,0.013965469195629611,4,left
31.208000000000002,0.5494797731234548,1.0977369827840509,-0.3139002572319948,1.6482958577299958,4.292402406062849,-0.9348112666856324,0.12435128697421144,-0.03572469096508826,0.010188919785942132,4,left
31.241,0.5493654626040736,1.0988702977649059,-0.3139028654324101,1.6459349329575914,4.300846472205458,-0.9279083828741641,0.12640162070500768,-0.03392819256792602,0.006405045837849279,4,left
31.284000000000002,0.5491954214064018,1.099910691125987,-0.3138562881464779,1.6432479845791703,4.308790900552447,-0.9211907064478271,0.12834451866696814,-0.0321880721146845,0.0026040280337434793,4,left
31.285999999999998,0.5489710018466765,1.1008584951309395,-0.3137605806037361,1.6402412500822454,4.316236524184288,-0.9146675300151264,0.13017870234485313,-0.030511603967003666,-0.0012235942759197692,4,left
31.285999999999998,0.5486938502281311,1.1017141723692507,-0.3136159015803762,1.6369240376627558,4.323183820309032,-0.9083472973261443,0.13190314594230632,-0.02890595113737662,-0.005086820250779863,4,left
31.287,0.5483658902417489,1.1024783181522033,-0.3134225183552249,1.6333086002590573,4.32963297032592,-0.9022376189110005,0.13351707767898077,-0.027378112822683695,-0.008994096844752214,4,left
31.31,0.5479893014767091,1.1031516642382924,-0.3131808107922802,1.629410002768685,4.3355839153875495,-0.8963453004522745,0.13501997865873155,-0.025934871961881725,-0.01295323980766832,4,left
31.311999999999998,0.547566494869252,1.1037350836182227,-0.3128912749637361,1.6252459863749056,4.341036404902767,-0.8906763831961584,0.1364115788425866,-0.024582744708581815,-0.016971366115806474,4,left
31.33,0.5471000859566221,1.1042295963521753,-0.3125545262941451,1.62083683062879,4.345990037569193,-0.8852361962719547,0.1376918499426349,-0.023327932572273488,-0.021054837722680728,4,left
31.342,0.5465928658797619,1.104636376358613,-0.3121713018163135,1.6162052128981441,4.350444295257684,-0.8800294206631339,0.138860995209733,-0.022176277350418553,-0.02520921662149796,4,left
31.345,0.5460477699698607,1.1049567587645381,-0.31174246119699145,1.6113760629063218,4.354398571595755,-0.8750601633744677,0.13991943616086125,-0.02113321885522829,-0.029439231111042328,4,left
31.346,0.5454678439128002,1.1051922472891917,-0.3112689863904771,1.6063764066856727,4.357852199842522,-0.8703320381815867,0.14086779650081355,-0.0202037554776392,-0.033748752557944836,4,left
31.374000000000002,0.5448562075824275,1.1053445211624122,-0.3107519798932875,1.601235192382205,4.360804486172439,-0.8658482481506413,0.14170688386909272,-0.019392407700458972,-0.03814078087032052,4,left
31.383000000000003,0.5442160168996171,1.1054154409508237,-0.3101926616705891,1.5959830922350158,4.363254752957542,-0.8616116663157629,0.14243767025173723,-0.01870318471138829,-0.04261743629898365,4,left
31.421999999999997,0.5435504244902767,1.1054070524340198,-0.30959236490497477,1.5906522784511397,4.365202393889459,-0.8576249130615384,0.14306127171550126,-0.018139554269970187,-0.04717995572315126,4,left
31.423000000000002,0.5428625401956538,1.1053215877469014,-0.30895253074096407,1.5852761725836002,4.366646941254878,-0.8538904299577564,0.14357892788090523,-0.0177044161209142,-0.051828692363388,4,left
31.424,0.5421553924928871,1.1051614634662152,-0.30827470219643205,1.5798891685420717,4.367588145132864,-0.850410549892966,0.14399198158584142,-0.01740007958116242,-0.056563117937147814,4,left
31.425,0.5414318917269304,1.1049292758373224,-0.30756051741695456,1.5745263300874381,4.368026063087649,-0.8471875626476371,0.14430185928519354,-0.01722824612795796,-0.06138182609974018,4,left
31.441,0.5406947958862728,1.1046277936400712,-0.3068117024698669,1.5692230649612133,4.367961156781114,-0.8442237737767961,0.14451005259570887,-0.017189997608325822,-0.06628253630636462,4,left
31.48,0.5399466794801852,1.104259949307254,-0.3060300639447832,1.5640147785228706,4.36739439073445,-0.841521553966276,0.14461810115041202,-0.017285790317757545,-0.071262097757727,4,left
31.480999999999998,0.5391899058306323,1.103828828958706,-0.30521748174399915,1.5589365090460787,4.366327329660344,-0.8390833767339166,0.1446275767926345,-0.017515454995295734,-0.07631649340811833,4,left
31.482,0.5384266028033653,1.1033376619842923,-0.30437590247923796,1.5540225455252206,4.364762232933515,-0.8369118436194511,0.14454006912224615,-0.017878202772371836,-0.08144084419136587,4,left
31.483,0.5376586418583746,1.102789810665175,-0.3035073337118102,1.5493060287278908,4.362702145606769,-0.8350096967607811,0.1443571724243639,-0.0183726371693275,-0.0866294138322993,4,left
31.506999999999998,0.5368876204382959,1.102188760159495,-0.3026138389735884,1.5448185391158191,4.3601509838541155,-0.8333798191301929,0.14408047402051744,-0.018996772265151868,-0.09187561472936963,4,left
31.558000000000003,0.5361148479988741,1.1015381090591418,-0.3016975333283366,1.540589681053266,4.357113609914189,-0.8320252233419336,0.1437115440719854,-0.01974805713512937,-0.09717201527647552,4,left
31.56,0.5353413361903951,1.1008415606121082,-0.3007605792714109,1.536646677456744,4.35359589167402,-0.83094903125851,0.14325192684002322,-0.020623406466218856,-0.1025103489315527,4,left
31.561,0.5345677936935153,1.1001029146108843,-0.29980518288701846,1.5330139890759633,4.349604747090526,-0.8301544483365546,0.14270313336373663,-0.02161923658384996,-0.10788152597849178,4,left
31.561999999999998,0.5337946259332622,1.0993260599107266,-0.29883359024632977,1.529712968844641,4.345148178649831,-0.8296447373144542,0.14206663545341486,-0.022731504956424897,-0.11327565026746822,4,left
31.563000000000002,0.5330219393790032,1.0985149675199217,-0.29784808402765384,1.5267615570063775,4.340235302994923,-0.8294231945295608,0.14134386086316816,-0.023955750598881553,-0.1186820439755147,4,left
31.585,0.5322495496302517,1.097673684125225,-0.29685098031650664,1.5241740190493462,4.334876377907449,-0.8294931301603661,0.14053618954016645,-0.025287133442306577,-0.12408928267263078,4,left
31.616999999999997,0.5314769923714849,1.0968063257372174,-0.2958446255196546,1.5219607267810367,4.329082826997094,-0.8298578526084599,0.13964495090820214,-0.02672047189843879,-0.12948524161685704,4,left
31.62,0.5307035366777249,1.0959170708022608,-0.29483139327832447,1.5201279825346043,4.322867262084446,-0.8305206570196445,0.13867142217676226,-0.02825027849351187,-0.1348571534451459,4,left
31.621,0.5299282007288737,1.095010151684263,-0.29381368117552825,1.5186778864994162,4.31624350326197,-0.8314848179444094,0.13761682766997466,-0.029870793647903102,-0.14019167725892875,4,left
31.623,0.5291497703673763,1.0940898432226467,-0.29279390697802976,1.5176082471989305,4.309226596593598,-0.8327535860412834,0.13648233915296876,-0.0315760180416134,-0.14547497902020493,4,left
31.64,0.5283668209594604,1.093160447452808,-0.2917745042176665,1.5169125352875705,4.301832829297821,-0.8343301882397138,0.13526907710309977,-0.03335974465975928,-0.15069282302443626,4,left
31.695999999999998,0.5275777426052507,1.0922262744652211,-0.2907579170546762,1.516579881104708,4.29407974205201,-0.8362178299021114,0.13397811285666728,-0.035215591975783854,-0.1558306741333821,4,left
31.699,0.5267807679998306,1.0912916203715837,-0.28974659446786244,1.5165951165723857,4.285986137940222,-0.8384196970378548,0.13261047158654016,-0.03713703926494476,-0.16087381041472845,4,left
31.7,0.5259740017023473,1.090360743830576,-0.2887429838261932,1.5169388617638278,4.277572087208139,-0.8409389570589929,0.13116713613785294,-0.0391174638763548,-0.16580744538877978,4,left
31.701,0.5251554496474623,1.0894378422694815,-0.28774952383839236,1.517587655639335,4.2688589248344035,-0.8437787571878537,0.12964905184112835,-0.04115017900966077,-0.17061685809273092,4,left
31.701,0.5243230481471932,1.0885270283391586,-0.2867686368121759,1.5185141292807256,4.25986923379424,-0.8469422196504565,0.1280571324674028,-0.04322846995935224,-0.17528752859350272,4,left
31.753,0.5234746918705317,1.08763230692898,-0.28580272013294944,1.51968721936083,4.2506268045538445,-0.8504324326297721,0.12639226744758833,-0.04534562730049015,-0.17980527717568034,4,left
31.756,0.5226082603908909,1.0867575532661133,-0.28485413693734474,1.5210724201515198,4.241156563692532,-0.8542524362120993,0.1246553303858349,-0.047494976468705805,-0.1841564062623019,4,left
31.756999999999998,0.5217216431219855,1.0859064928232176,-0.2839252060917802,1.5226320733935341,4.231484468795647,-0.8584052030256928,0.122847188772176,-0.0496699039969793,-0.18832784351673865,4,left
31.759,0.5208127627518436,1.08508268368503,-0.2830181916917859,1.5243256959181766,4.221637369119884,-0.8628936135300157,0.1209687146432503,-0.05186388131196194,-0.19230728252368434,4,left
31.76,0.5198795974756312,1.084289501735072,-0.28213529234250817,1.526110344420205,4.211642832584392,-0.8677204259169035,0.1190207958575424,-0.05407048729159868,-0.19608331624181694,4,left
31.773000000000003,0.5189202024313804,1.0835301287274424,-0.28127863050928925,1.5279410137588247,4.201528942543142,-0.8728882403374113,0.11700434773352372,-0.05628343048698142,-0.19964555962515818,4,left
31.831999999999997,0.5179327307950985,1.0828075431057276,-0.28045024225182474,1.5297710597228504,4.191324073018357,-0.8783994567218392,0.11492032494672831,-0.05849657137340072,-0.20298475997856644,4,left
31.835,0.5169154550194343,1.0821245132970214,-0.27965206769445106,1.5315526341734689,4.1810566539770395,-0.8842562252129297,0.11276973362692079,-0.06070394467020931,-0.2060928947057525,4,left
31.836,0.5158667886885708,1.081483593123614,-0.27888594263380595,1.5332371235010507,4.170754935329614,-0.890460388481683,0.11055364342864393,-0.06289978157688932,-0.20896325579139444,4,left
31.836,0.5147853093131469,1.0808871189481624,-0.278153591638195,1.5347755866030386,4.16044675354473,-0.8970134157847064,0.10827319901685536,-0.06507853153428833,-0.21159051935533227,4,left
31.838,0.5136697821005379,1.0803372081703213,-0.27745662280393535,1.5361191907594465,4.15015930407176,-0.903916329577699,0.10592963022507058,-0.0672348829875133,-0.2139707980589648,4,left
31.89,0.5125191844207466,1.079835758661264,-0.27679652409950145,1.5372196428509681,4.139918926142618,-0.9111696268215613,0.10352426032734287,-0.06936378275939842,-0.21610167470048844,4,left
31.892,0.511332730376491,1.0793844486482025,-0.27617466102846694,1.5380296126257786,4.129750908507681,-0.9187731980423348,0.1010585121966096,-0.07146045388184272,-0.21798221633787956,4,left
31.893,0.5101098945987248,1.078984736527015,-0.2755922752208287,1.538503146147615,4.119679321374502,-0.926726247588423,0.09853391230585487,-0.0735204118647091,-0.21961296883501316,4,left
31.894000000000002,0.5088504342296759,1.078637860179972,-0.2750504835922304,1.538596070125714,4.109726873902993,-0.9350272192157888,0.09595209256518152,-0.07553947940839023,-0.22099593183703747,4,left
31.895,0.5075544080815805,1.0783448355895005,-0.27455027790446535,1.5382663892534143,4.099914793324781,-0.9436737315140712,0.09331479004471387,-0.07751379953248423,-0.22213451424021502,4,left
31.969,0.5062221921978612,1.078106454760592,-0.27409252481052193,1.5374746776852053,4.09026272211145,-0.9526625263053736,0.09062384491809002,-0.07943984692506546,-0.22303347051975872,4,left
31.971999999999998,0.5048544914352945,1.077923283117097,-0.27367796662279187,1.5361844617835578,4.080788630126202,-0.9619894304236121,0.08788119747415017,-0.08131443701478348,-0.2236988188167446,4,left
31.971999999999998,0.5034523469434307,1.0777956566866125,-0.2733072230488307,1.5343625853557608,4.071508737178749,-0.9716493288144784,0.08508888532927535,-0.08313473210004253,-0.22413774198351655,4,left
31.973000000000003,0.5020171393494638,1.0777236796935048,-0.2729807940530724,1.5319795455203886,4.062437440175894,-0.9816361459121362,0.08224904168766989,-0.08489824403722912,-0.22435847248727916,4,left
31.974,0.5005505873068735,1.0777072235885432,-0.2726990638644861,1.529009790306115,4.053587240505728,-0.9919428330171596,0.07936389497713188,-0.0866028332935725,-0.22437016181049316,4,left
31.974,0.4990547412196964,1.0777459287388944,-0.2724623060096772,1.5254319744201652,4.044968669894863,-1.0025613607825448,0.07643576986975986,-0.0882467043460676,-0.22418273607624176,4,left
32.025999999999996,0.4975319724473853,1.0778392098143286,-0.27227068921855013,1.5212291725047038,4.036590214989438,-1.0134827167956155,0.07346708958060244,-0.08982839745596258,-0.22380674206693,4,left
32.028,0.49598495878074056,1.0779862655247412,-0.27212428412615414,1.516389049381124,4.028458244029,-1.0246969089612183,0.07046037924895712,-0.09134677686741455,-0.22325318937192323,4,left
32.029,0.4944166671348638,1.078186092796537,-0.27202307065084885,1.51090398604329,4.0205769440748345,-1.0361929764061928,0.0674182699637291,-0.09280101552621027,-0.22253339390296378,4,left
32.03,0.4928303343634548,1.0784375042682843,-0.2719669455681026,1.5047711597494589,4.012948280083754,-1.0479590101891438,0.06434350255643385,-0.09419057649971273,-0.22165882712250812,4,left
32.03,0.49122944708449484,1.0787391468584504,-0.27195572963728126,1.4979925769703275,4.0055719842903015,-1.0599821855372114,0.061238930042146145,-0.09551519132648036,-0.22064097483342027,4,left
32.08,0.4896177208422475,1.0790895201543258,-0.27198917431037095,1.4905750586859903,3.998445579269235,-1.0722488063186375,0.058107517871305,-0.0967748354665779,-0.21949120820709447,4,left
32.082,0.4879990775865709,1.0794869957302127,-0.27206696864672175,1.4825301779322824,3.991564435222157,-1.084744361897539,0.05495234165220494,-0.09796970092330813,-0.2182206681191651,4,left
32.105,0.4863776200725018,1.0799298386953207,-0.2721887465558005,1.4738741500809707,3.9849218610553723,-1.097453596236765,0.05177658228003733,-0.09910016605129186,-0.21684016296851266,4,left
32.106,0.48475760338819146,1.0804162307003427,-0.2723540939267005,1.4646276788560149,3.9785092267583515,-1.110360588272271,0.04858351846939089,-0.10016676265516875,-0.2153600799036735,4,left
32.106,0.4831434052785166,1.080944292578308,-0.2725625554730489,1.4548157656215892,3.9723161108875873,-1.1234488410654295,0.04537651671654282,-0.10117014098627297,-0.2137903090173498,4,left
32.107,0.4815394963569065,1.0815121057641912,-0.2728136413550689,1.4444674919954024,3.9663304649028723,-1.136701376397167,0.04215901877089549,-0.10211103415033324,-0.2121401794158837,4,left
32.163000000000004,0.4799504097485017,1.0821177329200413,-0.2731068333150116,1.4336157833195757,3.9605387881621335,-1.150100832311524,0.03893452672435509,-0.10299022394233044,-0.21041840570720885,4,left
32.165,0.4783807090213917,1.0827592384055544,-0.2734415897865394,1.4222971559844586,3.9549263110868442,-1.1636295626344277,0.03570658585958255,-0.1038085096131369,-0.2086330436985754,4,left
32.165,0.47683495375417767,1.083434708515672,-0.27381734959673,1.4105514490796465,3.949477186069101,-1.1772697383370798,0.0324787656532603,-0.10456668012619212,-0.20679145417352066,4,left
32.166,0.4753176628330198,1.084142270742458,-0.27423353419476443,1.3984215403411013,3.9441746861036853,-1.1910034507824148,0.029254639855992567,-0.10526548988647191,-0.20490027294522012,4,left
32.167,0.47383327594243446,1.084880111129344,-0.2746895485084687,1.385953046269537,3.939001411067158,-1.2048128166803724,0.026037766872874395,-0.10590563778287108,-0.20296538488067511,4,left
32.242,0.4723861139255288,1.085646488775775,-0.27518478057258927,1.3731940058319414,3.9339395012574663,-1.2186800835126526,0.022831671360439693,-0.10648774942525518,-0.200991900165137,4,left
32.244,0.4709803389890533,1.0864397466843772,-0.2757186001401857,1.3601945463253078,3.9289708572517315,-1.2325877322701524,0.01963982740072413,-0.1070123625298206,-0.1989841321112187,4,left
32.245,0.4696199160341583,1.0872583186429472,-0.2762903566379325,1.3470065295186149,3.9240773648312386,-1.2465185732811142,0.016465643304874173,-0.10747991544654183,-0.19694557639212487,4,left
32.246,0.46830857650160496,1.08810073259357,-0.27689937697766204,1.3336831766503228,3.919241124031976,-1.2604558319735704,0.013312448037099531,-0.10789073883037917,-0.19487889169333975,4,left
32.247,0.4670497858240256,1.088965611509174,-0.2775449637405326,1.3202786719122739,3.9144446815186287,-1.2743832232984502,0.010183479249807016,-0.10824505045775512,-0.19278588177701342,4,left
32.248000000000005,0.4658467149796236,1.0898516728052792,-0.2782263940782163,1.3068477456253658,3.9096712637043085,-1.2882850144298352,0.007081872908245179,-0.10854295328226173,-0.1906674789274845,4,left
32.301,0.464702216168037,1.0907577268941095,-0.27894291946973576,1.293445240407718,3.9049050043475724,-1.3021460752563152,0.004010654424759593,-0.10878443713963708,-0.18852372875848653,4,left
32.302,0.46361880250621496,1.091682675090528,-0.2796937663452108,1.280125664748783,3.9001311582735374,-1.3159519160020268,0.0009727311323279714,-0.10896938461117965,-0.18635377683483845,4,left
32.303000000000004,0.46259863174571203,1.0926255069401631,-0.2804781374964684,1.2669427372898154,3.8953362949508303,-1.3296887114912317,-0.0020291140951140827,-0.10909758069600516,-0.1841558586995048,4,left
32.304,0.4616434941439541,1.0935852971199098,-0.28129521408699837,1.2539489231078635,3.8905084694088403,-1.343343311885804,-0.0049922281826296966,-0.10916872474501957,-0.18192729572912023,4,left
32.305,0.460754804576262,1.094561202233728,-0.28214415801914344,1.2411949630381587,3.885637370064686,-1.3569032401743073,-0.007914092170997249,-0.10918244301002576,-0.17966449876866522,4,left
32.33,0.4599335986659463,1.0955524578954978,-0.2830241144718696,1.2287294010997096,3.8807144434469185,-1.3703566780968257,-0.010792324504324203,-0.10913830101982021,-0.17736298035773793,4,left
32.374,0.4591805324373643,1.0965583763017115,-0.2839342145277585,1.2165981227433027,3.875732995804075,-1.3836924446565737,-0.013624683292558474,-0.10903581563662805,-0.17501737568275852,4,left
32.376999999999995,0.4584958851652092,1.0975783441380988,-0.284873577894397,1.2048439208939299,3.8706882715867796,-1.3968999727396436,-0.016409067557285918,-0.10887446679291497,-0.17262147224859606,4,left
32.378,0.4578795656471694,1.0986118203996804,-0.2858413157798024,1.1935061025083527,3.865577508791242,-1.4099692879933414,-0.019143517481143027,-0.1086537089671194,-0.1701682483280349,4,left
32.379,0.45733112260380027,1.0996583336967116,-0.28683653401205295,1.1826201407891752,3.8603999714352613,-1.4228909915630574,-0.02182621374136974,-0.10837298275003564,-0.16764992057257197,4,left
32.38,0.4568497599369885,1.1007174787926484,-0.28785833649171394,1.1722173743135589,3.855156960860035,-1.4356562465012803,-0.024455476116479222,-0.10803172738145024,-0.1650580017532544,4,left
32.398,0.45643435716500824,1.1017889122682936,-0.2889058289748106,1.1623247541475508,3.8498518101122703,-1.4482567666402135,-0.027029761615205605,-0.1076293954298176,-0.1623833699253031,4,left
32.435,0.4560834947513865,1.1028723471155288,-0.28997812296230807,1.1529646403861091,3.844489867083948,-1.460684806303666,-0.02954766231641501,-0.10716547049423393,-0.15961634998487617,4,left
32.437,0.4557954835540116,1.1039675456614912,-0.2910743392207536,1.1441546491924646,3.8390784706638743,-1.4729331496488003,-0.032007902995855826,-0.10663948820143655,-0.15674680791688447,4,left
32.438,0.45556839751335626,1.1050743098189055,-0.2921936103806303,1.1359075507890752,3.833626921417436,-1.4849950991959562,-0.03440933853480565,-0.10605106008543533,-0.15376425728800014,4,left
32.439,0.4554001089546927,1.1061924677500197,-0.29333508222349886,1.128231218682325,3.828146446007741,-1.4968644636219421,-0.03675095105684473,-0.1053998991736742,-0.15065797671889886,4,left
32.509,0.455288326028912,1.1073218567545513,-0.29449791353605187,1.1211286306842807,3.822650152702481,-1.5085355451589293,-0.03903184671848677,-0.10468584571185294,-0.14741713665015327,4,left
32.512,0.45523063145804904,1.108462303174799,-0.29568127461093385,1.1145979224926303,3.8171529744307113,-1.520003127042857,-0.041251252099562846,-0.10390889185094936,-0.144030934135198,4,left
32.513000000000005,0.45522452115885564,1.1096136008002462,-0.2968843445366172,1.108632494395348,3.8116715967336847,-1.5312624613523917,-0.04340851017568312,-0.10306920482466404,-0.14048873514822435,4,left
32.515,0.4552674411975248,1.110775489393763,-0.29810630738573995,1.1032211713151219,3.8062243695379507,-1.5423092573947386,-0.0455030758509139,-0.10216714850926364,-0.1367802241068929,4,left
32.516,0.4553568221250221,1.111947634731709,-0.2993463474099151,1.0983484162140058,3.800831202558937,-1.5531396706917002,-0.04753451091096593,-0.10120330319766378,-0.13289555935863379,4,left
32.516999999999996,0.4554901105549032,1.1131296111627529,-0.3006036434176114,1.0939945964683722,3.7955134441093823,-1.5637502924103608,-0.04950247803789369,-0.10017848317052194,-0.12882553151664095,4,left
32.574,0.45566479833218915,1.1143208872482697,-0.3018773625592305,1.090136300961999,3.790293742037405,-1.574138138142346,-0.051406733439857306,-0.09909375152993563,-0.12456172029494754,4,left
32.575,0.4558784497293093,1.1155208147025508,-0.30316665371888857,1.0867467022917938,3.785195883629756,-1.584300633243334,-0.05324711794336895,-0.09795043200581746,-0.12009664551765721,4,left
32.576,0.45612872700746954,1.1167286206646212,-0.3044706406748725,1.0837959566183104,3.780244610266344,-1.5942355910040504,-0.05502354692455538,-0.09675011788522059,-0.11542390802401922,4,left
32.577,0.45641341462265705,1.1179434032089917,-0.3057884152286431,1.0812516355584594,3.7754654036620847,-1.603941180863156,-0.05673599974983694,-0.09549467845937074,-0.11053831621667203,4,left
32.577,0.4567304423968317,1.1191641298856756,-0.30711903062265544,1.079079187012072,3.7708842431832115,-1.613415885614877,-0.0583845092482669,-0.09418626330426641,-0.10543599521509121,4,left
32.641,0.45707790800184683,1.1203896390093948,-0.30846149566018,1.0772424193693069,3.7665273385819655,-1.6226584477605621,-0.05996915142741761,-0.09282730451906003,-0.10011447739075817,4,left
32.643,0.4574540990058261,1.1216186433829927,-0.3098147698855155,1.075703996162264,3.7624208495560594,-1.6316678058035812,-0.06149003547219643,-0.09142051693989453,-0.09457277406833126,4,left
32.644,0.4578575144826526,1.1228497360123724,-0.3111777599635992,1.0744259239154814,3.7585906073465476,-1.640443021543484,-0.06294729403132762,-0.08996889632544179,-0.08881142837815643,4,left
32.650999999999996,0.4582868857949165,1.1240813971136305,-0.31254931710731476,1.0733700204136973,3.7550618499554176,-1.6489831994186115,-0.06434107379605236,-0.088475715510245,-0.08283254924482811,4,left
32.652,0.4587411957722923,1.125312001566828,-0.31392823519943164,1.072498359128652,3.75185897658148,-1.6572873997382997,-0.0656715263937527,-0.0869445184819257,-0.07663982648522544,4,left
32.708,0.4592196953706954,1.1265398261557857,-0.3153132492622704,1.071773691234157,3.7490053246306667,-1.6653545496479414,-0.06693879971070262,-0.08537911213866835,-0.07023852693554157,4,left
32.709,0.4597219169792762,1.1277630563242544,-0.31670303410067063,1.0711598482662255,3.7465229727649563,-1.6731833568736059,-0.06814302992299227,-0.08378355512413929,-0.0636354714302973,4,left
32.71,0.4602476836197772,1.1289797925222274,-0.31809620318428455,1.0706221277206132,3.744432572586503,-1.680772230036698,-0.06928433460617033,-0.08216214293736859,-0.05683899240243955,4,left
32.711,0.4607971134556278,1.1301880564712343,-0.31949130811885157,1.070127662503584,3.742753209991106,-1.6881192070684732,-0.0703628072022867,-0.08051938871454528,-0.04985887192630952,4,left
32.711999999999996,0.4613706193367417,1.1313857979511357,-0.3208868392785763,1.0696457743870575,3.7415022963576576,-1.695221891998006,-0.07137851292549874,-0.07885999952042969,-0.04270626031900925,4,left
32.713,0.4619689031980763,1.1325709029451414,-0.3222812281308266,1.0691483111807798,3.740695489177751,-1.7020774001251464,-0.07233148593397282,-0.07718884859504463,-0.035393576460504006,4,left
32.774,0.4625929450104912,1.1337412039626182,-0.3236728515099308,1.0686099659055759,3.7403466397816425,-1.7086823115379637,-0.07322172728647355,-0.07551094477647148,-0.027934392788673996,4,left
32.775999999999996,0.4632439861160963,1.1348944931626759,-0.32506003785066845,1.0680085736800953,3.7404677623094154,-1.7150326328410996,-0.07404920304028313,-0.07383140072904136,-0.020343308917117237,4,left
32.777,0.4639235073414161,1.1360285387415687,-0.32644107523936033,1.067325380604717,3.7410690161282827,-1.7211237669094046,-0.07481384200848189,-0.07215540119766654,-0.012635816830966812,4,left
32.789,0.4646332030595439,1.1371411045307207,-0.3278142208376294,1.0665452803548747,3.7421586958474697,-1.7269504905318374,-0.0755155330037985,-0.07048817174314037,-0.004828159027421722,4,left
32.791,0.4653749530942442,1.1382299714390005,-0.32917771074948476,1.065657016767581,3.7437432265920076,-1.7325069399022708,-0.07615412165029488,-0.06883494785183424,0.0030628190367713204,4,left
32.791,0.46615079494944867,1.1392929580246849,-0.33052976930715516,1.064653351741605,3.745827164285024,-1.7377866041092782,-0.07672940704308624,-0.06720094395633831,0.011019819249004092,4,left
32.83,0.46696289901893767,1.1403279375941522,-0.331868617452292,1.063531196098212,3.748413201767728,-1.7427823275107421,-0.07724113862878429,-0.06559132175073458,0.019025239966070417,4,left
32.830999999999996,0.4678135478628536,1.1413328516790613,-0.33319248075571595,1.0622916975228192,3.7515021828267883,-1.7474863231820328,-0.07768901358650195,-0.06401115733711443,0.027061321019650846,4,left
32.846,0.46870511720269226,1.1423057229550246,-0.33449959770222115,1.0609402777485826,3.7550931268886134,-1.7518902003499697,-0.07807267482227326,-0.06246540701519777,0.03511028343924378,4,left
32.848,0.4696400545464758,1.143244670769052,-0.33578822821778365,1.0594866131016178,3.759183266453097,-1.7559850079996957,-0.07839170963624369,-0.0609588717264065,0.04315446357989528,4,left
32.849000000000004,0.47062085375157303,1.1441479290676455,-0.33705666201773565,1.0579445568665935,3.7637680977400962,-1.7597612952192074,-0.07864564930002825,-0.05949616042712068,0.05117644084972727,4,left
32.908,0.4716500270524401,1.1450138642593273,-0.3383032266448686,1.0563320079557423,3.768841442526641,-1.7632091865317905,-0.07883397013561827,-0.058081653084828384,0.05915915699022996,4,left
32.911,0.4727300763742069,1.1458409915544365,-0.3395262953324284,1.0546707380739164,3.7743955157616624,-1.7663184674600168,-0.07895609688379149,-0.05671946422370703,0.06708602417223139,4,left
32.912,0.4738634640368293,1.1466279901005036,-0.34072429452733266,1.052986193637661,3.780420991738125,-1.7690786739746793,-0.07901140895303323,-0.055413407713584856,0.07494101986043375,4,left
32.924,0.4750525818362382,1.147373717631328,-0.34189571047299305,1.0513072841849953,3.7869070642769644,-1.7714791813022523,-0.07899924978562033,-0.054166963077484934,0.08270876764136541,4,left
32.926,0.4762997177777155,1.1480772245981496,-0.34303909422325174,1.049666159416902,3.793841503957587,-1.773509291583288,-0.07891893932616222,-0.05298324339123967,0.09037460405934121,4,left
32.974000000000004,0.477607020568588,1.148737767046537,-0.3441530647855212,1.0480979688463787,3.8012107250225577,-1.7751583235486164,-0.07876978926631546,-0.051864964956534206,0.09792463244214214,4,left
32.977,0.4789764623930162,1.1493548173894361,-0.3452363104143401,1.0466405949403275,3.808999879271102,-1.776415708856012,-0.07855112024953215,-0.050814419206561705,0.10534576613664433,4,left
32.978,0.4804098006362585,1.1499280722819143,-0.34628758830062417,1.0453343529171553,3.817192989933313,-1.7772710985699698,-0.07826227994747233,-0.049833447457905175,0.11262576437365224,4,left
32.984,0.48190853968260877,1.1504574568538506,-0.34730572315804414,1.044221654693231,3.8257731299049356,-1.7777144807120786,-0.07790266119154728,-0.04892341896819509,0.1197532631815441,4,left
32.985,0.483473894420863,1.1509431248986102,-0.3482896054285415,1.0433466379019547,3.834722640249408,-1.7777363063095872,-0.07747171981213997,-0.04808521255681664,0.1267178024034521,4,left
32.986999999999995,0.4851067570115571,1.1513854551096088,-0.34923818979888116,1.0427547634401673,3.8440233765395146,-1.7773276169251406,-0.07696899200796706,-0.0473192022678107,0.13350984944423663,4,left
33.042,0.4868076679426503,1.1517850437737742,-0.35015049446631547,1.0424923861499882,3.853656966461735,-1.7764801643096675,-0.07639411093880373,-0.046625248200128734,0.14012082088147546,4,left
33.044000000000004,0.4885767920257526,1.1521426945803197,-0.35102560133666766,1.0426063020920502,3.8636050662578163,-1.775186515159,-0.0757468221326741,-0.04600269400653067,0.1465431034454779,4,left
33.063,0.49041389975932703,1.152459406487971,-0.35186265713652326,1.0431432737918902,3.8738496110497884,-1.773440138165256,-0.07502699740031768,-0.045450372186697584,0.1527700755015855,4,left
33.064,0.49231835403009333,1.1527363606849872,-0.35266087520231215,1.0441495336894002,3.8843730582459717,-1.7712354728925641,-0.07423464713411791,-0.04496661749186387,0.15879612938235643,4,left
33.065,0.4942891015912757,1.1529749074682125,-0.35341953756034516,1.045670266751068,3.895158623563221,-1.7685679807624433,-0.07336993097606395,-0.044549287723508246,0.16461669396101503,4,left
33.066,0.49632466858871155,1.1531765535289176,-0.35413799695839726,1.0477490780024483,3.906190506734925,-1.7654341798780309,-0.07243316686971216,-0.044195789947377,0.17022825573077663,4,left
33.107,0.498423159549235,1.153342949808126,-0.3548156786796007,1.050427459373352,3.9174540995352825,-1.7618316680163766,-0.07142483851658409,-0.04390310948526308,0.17562837606966267,4,left
33.108000000000004,0.5005822594085928,1.153475879789772,-0.35545208212673607,1.053744275046216,3.928936166284583,-1.757759139561882,-0.07034560125155183,-0.043667839706200265,0.18081570295425417,4,left
33.119,0.5027992384683676,1.1535772478445048,-0.3560467822760505,1.0577352797032158,3.9406249894674965,-1.7532164007074325,-0.06919628636326168,-0.04348621189487304,0.1857899763222878,4,left
33.12,0.5050709607468288,1.1536490671020816,-0.35659943115561127,1.0624326756537381,3.952510478024674,-1.7482043845959518,-0.06797790398939858,-0.04335412548264848,0.19055202629329115,4,left
33.121,0.5073938965699223,1.153693446392588,-0.3571097594804415,1.0678647111193622,3.9645842407845033,-1.7427251663727896,-0.06669164491259832,-0.04326717968570502,0.19510376253858594,4,left
33.168,0.5097641400980144,1.153712575987145,-0.35757757850461297,1.07405532295849,3.976839632386488,-1.736781977368614,-0.06533888169224887,-0.04322070794327274,0.1994481525168534,4,left
33.171,0.5121774320407432,1.1537087120211786,-0.35800278205243274,1.0810238282049918,3.989271781487625,-1.7303792173753592,-0.06392116945758873,-0.04320981620075489,0.20358918686537303,4,left
33.196999999999996,0.5146291872898945,1.1536841594850689,-0.358385348529547,1.0887846677071307,4.001877608604376,-1.7235224642322062,-0.062440246482997105,-0.043229425376633115,0.20753183132726194,4,left
33.199,0.517114526714086,1.1536412535171354,-0.35872534252819593,1.0973472031928306,4.014655836552608,-1.716218480397617,-0.06089803452166806,-0.04327431760928101,0.21128196545234063,4,left
33.2,0.5196283122098706,1.153582338604264,-0.3590229155783748,1.106715567999383,4.0276069940090595,-1.7084752164378882,-0.059296638788969284,-0.04333918510012244,0.21484630893363624,4,left
33.201,0.5221651842933225,1.1535097454860823,-0.35927830572139086,1.1168885714519374,4.040733411983952,-1.7003018114171589,-0.05763834745172817,-0.04341867997515132,0.21823233672433553,4,left
33.24,0.5247196016191903,1.153425766120062,-0.35949183579209903,1.1278596566875982,4.0540392117618085,-1.691708590195624,-0.05592563051438909,-0.043507463981408985,0.2214481837960795,4,left
33.242,0.5272858816366943,1.153332627604142,-0.35966391044478957,1.1396169113825572,4.067530280648594,-1.6827070576830072,-0.05416113805559439,-0.04360025754518549,0.22450253988889707,4,left
33.258,0.529858241314691,1.153232466177144,-0.3597950119776404,1.1521431306521779,4.081214230630783,-1.6733098901162138,-0.05234769780345486,-0.043691888113260344,0.22740453431919605,4,left
33.26,0.5324308367897073,1.153127302485615,-0.35988569498037615,1.1654159315860466,4.095100336285489,-1.6635309234057805,-0.05048831201072436,-0.043777337735915335,0.23016361105550498,4,left
33.260999999999996,0.5349978011209103,1.1530190193015122,-0.35993657986802147,1.179407919015727,4.1091994503581795,-1.6533851383906428,-0.04858615342158745,-0.043851789642908895,0.23278939527337464,4,left
33.306999999999995,0.5375532798977687,1.1529093426168429,-0.35994834544432275,1.1940869012639292,4.123523895945059,-1.6428886420046611,-0.04664455981678734,-0.043910673189999506,0.23529155440433724,4,left
33.309,0.5400914648737104,1.1527998265805266,-0.3599217206875695,1.2094161527900082,4.1380873331808905,-1.6320586418913274,-0.04466702645433284,-0.04394970634603313,0.23767965769559013,4,left
33.329,0.542606626053609,1.152691842347317,-0.35985747601562756,1.2253547196077104,4.152904597620615,-1.620913411190191,-0.04265719589225731,-0.043964935098133893,0.23996303729450771,4,left
33.334,0.5450931428150201,1.152586570671062,-0.3597564143902815,1.2418577643941038,4.167991508216816,-1.6094722410293645,-0.04061884498463141,-0.04395276952609184,0.24215065206780667,4,left
33.335,0.5475455345998479,1.1524849979581842,-0.35961936265768335,1.2588769500843786,4.1833646440792505,-1.5977553797188302,-0.03855586905229366,-0.043910016482833276,0.24425095460824955,4,left
33.336,0.5499584915039284,1.152387915505154,-0.3594471634328974,1.2763608609721286,4.199041090700428,-1.5857839584761388,-0.03647226346858274,-0.04383390875076729,0.2462717629088824,4,left
33.374,0.5523269048979229,1.1522959217434894,-0.3592406676953924,1.2942554564552196,4.215038160394628,-1.5735799038072595,-0.0343721032693484,-0.04372213034836019,0.24822014039464846,4,left
33.375,0.5546458980810326,1.1522094273848293,-0.3590007281475474,1.3125045452080124,4.231373098754549,-1.5611658368979304,-0.03225952160148864,-0.043572837552667186,0.2501022892288162,4,left
33.393,0.5569108568430285,1.1521286632842733,-0.35872819330907857,1.3310502635282975,4.248062793095836,-1.5485649607608445,-0.030138687619160394,-0.04338467531199136,0.2519234605835815,4,left
33.394,0.5591174597024917,1.1520536906382735,-0.3584239022634919,1.349833545975739,4.265123496166454,-1.535800937058983,-0.028013784067688927,-0.04315678891810223,0.25368788335387055,4,left
33.395,0.5612617075165135,1.1519844129297283,-0.3580886799423955,1.3687945842807374,4.2825705735492825,-1.5228977566409643,-0.025888984626163805,-0.04288883090766086,0.25539871163996886,4,left
33.442,0.5633399520341964,1.151920588922795,-0.3577233328326054,1.3878732748707419,4.300418280493126,-1.509879608999382,-0.023768431218873752,-0.042580963143023766,0.25705799145203967,4,left
33.444,0.5653489226835363,1.1518618460138763,-0.3573286450187037,1.4070096559016516,4.318679571898604,-1.496770754531416,-0.021656211830075312,-0.042233853948556895,0.25866664776116605,4,left
33.471,0.5672857505208064,1.1518076933358385,-0.3569053745453967,1.4261443339816045,4.337365946697088,-1.4835954011596992,-0.019556339536786968,-0.04184867013740581,0.26022449339457965,4,left
33.473,0.5691479882110868,1.1517575341543358,-0.35645425021380656,1.4452188994939907,4.3564873252215355,-1.4703775857090418,-0.01747273329411588,-0.04142706380462571,0.26173026089940304,4,left
33.474000000000004,0.5709336254047159,1.1517106773406856,-0.3559759691177061,1.4641763275659831,4.376051955377642,-1.4571410604310946,-0.015409200659737683,-0.040971153919606346,0.2631816576949035,4,left
33.475,0.5726410995709948,1.1516663480922116,-0.35547119544251815,1.4829613607260073,4.396066342010255,-1.4439091852120935,-0.013369422346206207,-0.04048350320776472,0.26457544379768816,4,left
33.507,0.5742693026327543,1.1516236984881651,-0.35494056115654643,1.501520870296271,4.416535195275959,-1.430704825855459,-0.011356938241769482,-0.03996709156852413,0.26590753013746576,4,left
33.531,0.5758175835001618,1.1515818188195794,-0.35438466910915806,1.5198041953712658,4.437461396380404,-1.417550258573156,-0.009375134428680843,-0.039425287624545655,0.26717309450825216,4,left
33.532,0.577285746314978,1.1515397508052634,-0.3538040987549094,1.5377634592355223,4.458845980454969,-1.4044670806764976,-0.0074272308760302075,-0.038861819240863314,0.2683667113101947,4,left
33.533,0.5786740444379429,1.151496503264711,-0.3531994142598949,1.555353863273825,4.480688136631543,-1.3914761274285101,-0.005516269750541392,-0.03828074249128785,0.2694824896358428,4,left
33.533,0.5799831710622565,1.1514510686639563,-0.35257117407940775,1.572533957887081,4.502985225090787,-1.3785973951536825,-0.003645104436837394,-0.037686407793147206,0.2705142133649631,4,left
33.573,0.5812142482149923,1.1514024361177346,-0.35191994066484333,1.5892658872299505,4.525732809436622,-1.3658499713689742,-0.0018163893521428137,-0.03708342218830495,0.2714554786160053,4,left
33.575,0.5823688156519836,1.1513495970518544,-0.3512462895601566,1.6055155997322386,4.54892470018804,-1.3532519739023317,-3.2570586163242e-05,-0.03647660736061718,0.27229982669528746,4,left
33.608000000000004,0.5834488192144837,1.1512915451840693,-0.3505508182923779,1.6212530136687153,4.572553003756704,-1.3408205016331345,0.001704122592546098,-0.03587095342048906,0.27304087208759026,4,left
33.609,0.584456595847807,1.1512272767973382,-0.3498341553864562,1.6364521302582404,4.596608172289991,-1.3285715986951494,0.003391685125102461,-0.03527156905714058,0.2736724245974122,4,left
33.61,0.5853948518162424,1.1511557958175003,-0.34909696862338796,1.6510910942313997,4.621079050253176,-1.3165202321490348,0.005028341841157698,-0.0346836295626777,0.2741886034097025,4,left
33.611999999999995,0.5862666324226095,1.1510761242713552,-0.34833997140145584,1.6651522091925186,4.645952911323302,-1.3046802813267564,0.006612550620191288,-0.034112324734011344,0.27458394009406006,4,left
33.641,0.5870752843420836,1.1509873164473357,-0.34756392709037753,1.678621918246256,4.671215477383049,-1.2930645362853803,0.008143002430408015,-0.03356280815674221,0.27485346832060537,4,left
33.667,0.5878244132491989,1.1508884748121613,-0.3467696519190882,1.6914907577507332,4.696850913474332,-1.281684703440122,0.009618618006070475,-0.03304014847166485,0.2749927993955578,4,left
33.668,0.5885178387858646,1.150778766542483,-0.3459580166316747,1.7037532871250187,4.722841797451565,-1.2705514176563122,0.011038541127169925,-0.03254928272264961,0.2749981834687374,4,left
33.669000000000004,0.5891595474829602,1.1506574403124383,-0.345129946744482,1.715407993827856,4.749169070909661,-1.2596742610717506,0.012402128505829725,-0.03209497178433459,0.27486655641375557,4,left
33.67,0.5897536437274525,1.150523842943417,-0.3442864212539465,1.7264571699367965,4.77581198875168,-1.2490617896947225,0.01370893633881261,-0.031681757880287605,0.2745955725298617,4,left
33.707,0.5903042990885662,1.1503774351021778,-0.3434284698492312,1.7369067555525672,4.802748090525907,-1.2387215691829865,0.014958703861013693,-0.03131392426314287,0.2741836239568994,4,left
33.708,0.5908157004714569,1.1502178050750578,-0.34255716882456605,1.7467661454543673,4.829953210899262,-1.2286602208504478,0.016151334730866128,-0.030995457237678457,0.27362984903160154,4,left
33.745,0.5912919977237263,1.1500446797436956,-0.341673635960077,1.7560479575947279,4.857401536260082,-1.2188834783022295,0.017286877380873023,-0.03073001082176376,0.2729341326325215,4,left
33.748000000000005,0.5917372516616374,1.149857932067124,-0.3407790246880667,1.7647677632234562,4.885065708680355,-1.2093962547403132,0.01836550532454188,-0.030520874544940554,0.2720971012005922,4,left
33.748000000000005,0.5921553837427673,1.149657584696125,-0.33987451787319806,1.7729437786690116,4.912916977315512,-1.2002027209108568,0.01938749815564093,-0.03037094525301086,0.27112011447408213,4,left
33.749,0.5925501286439618,1.1494438098812787,-0.33896132153979197,1.7805965191348387,4.940925396564917,-1.1913063932535253,0.020353223833759183,-0.030282703991861015,0.27000525561640987,4,left
33.774,0.5929249909048232,1.1492169263638359,-0.33804065892353674,1.787748416520671,4.969060066538662,-1.1827102297560428,0.021263122660958304,-0.03025819876630301,0.2687553208833296,4,left
33.804,0.5932832065122412,1.148977394146072,-0.3371137652332858,1.7944234062546793,4.997289404576054,-1.1744167273136994,0.022117693113128674,-0.030299033492058,0.26737380928625065,4,left
33.805,0.5936277098048981,1.1487258079512233,-0.33618188336578,1.800646489774933,5.025581432783446,-1.166428012336443,0.022917479551402633,-0.03040636312799282,0.2658649122746457,4,left
33.806,0.5939611056521514,1.1484628900328133,-0.3352462605599378,1.8064432783720805,5.053904069817028,-1.1587459185981175,0.02366306179103173,-0.030580894594152218,0.26423350313130384,4,left
33.806,0.594285646722673,1.1481894828375738,-0.33430814578865886,1.8118395247712231,5.08222541933406,-1.1513720509931415,0.024355046467163428,-0.030822892489730507,0.2624851253198176,4,left
33.830999999999996,0.5946032156440885,1.147906541866432,-0.333368787673136,1.8168606537362861,5.110514046628903,-1.1443078376627502,0.024994060115788693,-0.031132188296657808,0.26062597877111177,4,left
33.882,0.5949153117098388,1.147615128972097,-0.3324294327755125,1.8215313062929834,5.138739233122817,-1.1375545743309465,0.02558074390898298,-0.0315081920833268,0.2586629033476881,4,left
33.884,0.595223041566962,1.1473164061793937,-0.3314913241607663,1.8258749085204773,5.166871200979603,-1.1311134637256393,0.026115750021221656,-0.031949906314764416,0.2566033591779163,4,left
33.885,0.5955271133787928,1.1470116298149573,-0.33055570013899765,1.8299132693000282,5.194881304804572,-1.1249856512233407,0.02659973962440557,-0.03245594170440402,0.2544554038046021,4,left
33.885999999999996,0.5958278344453282,1.1467021445025676,-0.32962379316698487,1.8336662077630743,5.222742189987261,-1.119172256891137,0.02703338248974506,-0.03302453509241284,0.25222766599300106,4,left
33.887,0.596125112787408,1.1463893766451665,-0.3286968289784846,1.8371512108749695,5.250427918229851,-1.113674404041743,0.027417358056810035,-0.03365356925510129,0.24992931529713777,4,left
33.907,0.5964184633041972,1.1460748272381414,-0.3277760260439735,1.840383123708256,5.277914063109023,-1.1084932450899225,0.027752357618061056,-0.03434059440501585,0.24757002514017085,4,left
33.941,0.5967070188287948,1.1457600639990455,-0.32686259539218643,1.8433738785658753,5.305177782557419,-1.1036299865911854,0.028039087149339302,-0.03508285106088007,0.2451599264182827,4,left
33.943000000000005,0.5969895460800063,1.145446712825346,-0.3259577407119794,1.8461322702024319,5.332197876896293,-1.0990859154306443,0.02827827041746139,-0.03587729409005111,0.24270954945069964,4,left
33.944,0.5972644663514566,1.1451364485371975,-0.32506265857364075,1.8486637804183128,5.358954837735808,-1.0948624264053584,0.028470652123361275,-0.03672061808500398,0.24022975377760653,4,left
33.945,0.5975298807507257,1.1448309846058415,-0.3241785385421971,1.8509704504573818,5.385430888347674,-1.0909610496500843,0.028617000804839126,-0.03760928470055542,0.23773164665925517,4,left
33.974000000000004,0.5977835997417433,1.1445320611340735,-0.3233065628471365,1.8530507985497895,5.411610014368231,-1.0873834762711998,0.02871811116196987,-0.038539552808381665,0.23522649161512552,4,left
34.018,0.5980231765086177,1.144241430315822,-0.32244790523049077,1.8548997814877939,5.437477983894529,-1.0841315813691834,0.028774805552498735,-0.03950751211195454,0.23272560800544703,4,left
34.02,0.5982459432852901,1.1439608393472358,-0.32160372873587156,1.8565088007351433,5.463022354885428,-1.0812074436920334,0.028787934591793102,-0.04050912037908345,0.2302402622161862,4,left
34.022,0.5984490495888997,1.1436920115792615,-0.32077518239877395,1.8578657548258164,5.48823246481297,-1.0786133603360548,0.028758377053388132,-0.04154024372759596,0.2277815514945938,4,left
34.023,0.5986295013767435,1.143436626797598,-0.319963396883016,1.8589551403905202,5.513099395798421,-1.0763518543869564,0.02868703960185892,-0.04259669844231532,0.22536028289558327,4,left
34.024,0.5987842001881825,1.1431963012791628,-0.31916947910481275,1.859758203565377,5.537615910176425,-1.0744256739195686,0.02857485706681592,-0.04367429229338524,0.22298685062173276,4,left
34.041,0.5989099812908094,1.1429725683820022,-0.31839450590149654,1.8602531424865927,5.561776354507707,-1.0728377817194183,0.028422793789508686,-0.04476886383428164,0.22067111421730198,4,left
34.077,0.599003650180177,1.1427668606942705,-0.3176395168860202,1.860415360990856,5.585576531769749,-1.0715913356147835,0.02823184625446222,-0.04587631907269161,0.218422278596303,4,left
34.079,0.5990620174856411,1.1425804946659457,-0.31690550674201556,1.8602177735237257,5.609013541795857,-1.0706896594137003,0.028003047006889402,-0.04699266540957858,0.21624877631599942,4,left
34.08,0.5990819328059687,1.142414658166685,-0.3161934172607147,1.8596311612573782,5.632085590032018,-1.0701362044413694,0.02773746964920063,-0.04811404281280729,0.214158153611256,4,left
34.08,0.5990603179621854,1.1422704009684912,-0.31550412937117145,1.8586245784642381,5.6547917653142346,-1.0699345016642816,0.02743623440045352,-0.049236752136596104,0.21215696398843426,4,left
34.106,0.5989941999254254,1.1421486279758415,-0.31483845535071114,1.8571658034226057,5.677131790539628,-1.0700881043378598,0.027100513530606607,-0.05035728046745563,0.21025067444612305,4,left
34.155,0.5988807435539554,1.1420500950084933,-0.3141971314089423,1.8552218195443566,5.699105755812476,-1.0706005210244725,0.02673153615320582,-0.051472323407921884,0.20844358812185054,4,left
34.156,0.5987172842508743,1.1419754069163626,-0.31358081091049306,1.8527593075791533,5.72071384721883,-1.0714751389668695,0.026330592169396483,-0.05257880426453972,0.20673878488109482,4,left
34.157,0.5985013606279235,1.1419250177229696,-0.3129900585312535,1.8497451341924758,5.741956083219998,-1.0727151387921434,0.02589903532792507,-0.05367389013718142,0.20513808009680243,4,left
34.158,0.5982307471925961,1.1418992323497532,-0.31242534552633444,1.8461468302128698,5.762832068562105,-1.0743234033025943,0.025438285376885153,-0.05475500488291727,0.20364200168631297,4,left
34.159,0.5979034869433321,1.1418982092896632,-0.31188704607076345,1.8419330562864928,5.783340774435572,-1.0763024240999512,0.02494982916692856,-0.05581983877773282,0.2022497858332957,4,left
34.224000000000004,0.5975179234551836,1.141921963514739,-0.3113754344589224,1.837074054954554,5.803480350973631,-1.078654208862041,0.02443522040611585,-0.0568663544830067,0.20095939233338928,4,left
34.226,0.5970727315494266,1.1419703690422702,-0.31089068289168276,1.8315420887529754,5.823247974561097,-1.0813801904027431,0.02389607789673447,-0.05789278904106908,0.19976754017315812,4,left
34.227,0.5965669452854352,1.1420431608518051,-0.31043285966793427,1.8253118642570567,5.842639730414156,-1.0844811377086192,0.023334082643399028,-0.05889765225523165,0.19866976235022998,4,left
34.228,0.5959999821435363,1.142139936052186,-0.31000192785616654,1.8183609419780784,5.861650530156477,-1.0879570690926328,0.022750974676547915,-0.05987972234678865,0.19766047760422972,4,left
34.228,0.5953716628009227,1.1422601542973196,-0.3095977448490473,1.8106701316216005,5.880274062452997,-1.0918071682747132,0.022148550305142185,-0.06083803966398614,0.1967330770577806,4,left
34.281,0.5946822264162769,1.1424031376057457,-0.30922006338587776,1.8022238708764915,5.898502771635655,-1.096029705481654,0.021528660092371678,-0.061771898766656064,0.19588002493665588,4,left
34.283,0.5939323415223939,1.1425680700612004,-0.30886853459416697,1.7930105823700402,5.916327856926777,-1.1006219667220336,0.02089320758764581,-0.06268083889806024,0.19509297295022762,4,left
34.284,0.5931231125260908,1.142753998117722,-0.30854271344151146,1.7830229981721535,5.933739285331326,-1.1055801944335957,0.02024414872741819,-0.06356463257823868,0.19436288666164006,4,left
34.285,0.59225608160253,1.1429598322381698,-0.308242066755849,1.7722584388045621,5.950725813596579,-1.110899541892557,0.019583491688758004,-0.06442327165040172,0.1936801796755119,4,left
34.285,0.5913332256451432,1.143184350593923,-0.3079659836293456,1.760719037240376,5.967275016964105,-1.1165740427132558,0.01891329690809969,-0.06525694988812002,0.19303485008124988,4,left
34.31,0.5903569484734317,1.1434262052109319,-0.30771378749535516,1.748411904101644,5.9833733239665055,-1.122596595924997,0.018235677049000185,-0.06606604149470886,0.1924166149801271,4,left
34.329,0.5893300699106673,1.1436839295760677,-0.30748474873436527,1.7353492333967222,5.999006057184785,-1.1289589667201343,0.017552796831286164,-0.06685107522881702,0.19181504142625305,4,left
34.359,0.5882558138049652,1.143955945978656,-0.30727809703186754,1.7215483487643224,6.014157480013871,-1.1356518028896778,0.016866872705383205,-0.06761270411387285,0.1912196735015772,4,left
34.361,0.5871377947892988,1.1442405729367928,-0.30709303363339696,1.7070316901889049,6.028810849482478,-1.1426646669637082,0.01618017231774922,-0.06835167082873349,0.19062015535617688,4,left
34.363,0.5859800007938134,1.1445360352293008,-0.3069287436834642,1.6918267415184571,6.042948475176789,-1.1499860836312106,0.01549501345264148,-0.0690687693519143,0.19000634921037465,4,left
34.364000000000004,0.5847867684734868,1.1448404777996446,-0.3067844079585803,1.6759659009562222,6.056551784338933,-1.1576035997966674,0.014813761666217288,-0.06976480428689079,0.1893684458126921,4,left
34.381,0.583562751165051,1.145151982370877,-0.30665921313941386,1.6594863000126359,6.069601393251071,-1.1655038506388664,0.014138825568287963,-0.07044054977100014,0.18869706401288158,4,left
34.418,0.5823128810681893,1.1454685851631594,-0.3065523605978879,1.6424295782941696,6.082077185452813,-1.1736726233845258,0.013472648967728658,-0.07109670939530682,0.1879833369439911,4,left
34.421,0.5810423279195959,1.145788295038645,-0.3064630742283534,1.624841619910153,6.093958399392828,-1.1820949155508245,0.01281769961503579,-0.0717338777522474,0.1872189839622054,4,left
34.422,0.579756455683784,1.1461091122575138,-0.30639060763000864,1.6067722544080971,6.105223731812212,-1.1907549934848847,0.012176454777507398,-0.07235250397617851,0.18639636908936286,4,left
34.424,0.5784607776459699,1.1464290482057222,-0.3063342504570645,1.5882749235526403,6.115851465210182,-1.19963646206966,0.011551384368999542,-0.07295285794911573,0.18550854824057716,4,left
34.439,0.577160909741065,1.146746145940783,-0.30629333340553105,1.569406314644316,6.12581962565883,-1.2087223540876382,0.010944932597531282,-0.07353500006736378,0.18454930828074595,4,left
34.498000000000005,0.5758625221610504,1.1470585007311662,-0.3062672312920578,1.550225960928598,6.135106173019225,-1.2179952419755777,0.010359498852762983,-0.07409875524121766,0.18351320019206607,4,left
34.501,0.5745712897049415,1.1473642794235048,-0.3062553640080671,1.5307958109136024,6.143689221166191,-1.2274373684891111,0.009797418162339323,-0.07464369142919311,0.18239556733087622,4,left
