time,gFx,gFy,gFz,ax,ay,az,wx,wy,wz,subject_number,foot
26.85,0.5120489591005548,1.1196053495542428,-0.29963676042087134,1.3357462131366746,4.217138710616588,-1.664900142555895,-0.16057553225310095,0.17077405153429484,-0.295226176684827,3,left
26.851999999999997,0.5123906993902063,1.119379894868953,-0.3007126312477483,1.3709064727323126,4.202171759598487,-1.6607267372002474,-0.16198130815918285,0.17066837830729442,-0.3013233634560677,3,left
26.853,0.5127729422549341,1.1191397977235145,-0.30177968774621355,1.4066151060599044,4.187040537097591,-1.6563482740169528,-0.16333002946561545,0.17053901653545647,-0.30730860627571194,3,left
26.904,0.5131945552655459,1.1188862128448605,-0.3028364407174061,1.442832983016063,4.171775437183678,-1.6517689922912095,-0.16462064785437644,0.1703913220334269,-0.3131633166221358,3,left
26.905,0.5136541426194818,1.1186203488509925,-0.3038814758865571,1.4795162981393548,4.1564079192322705,-1.646994299663167,-0.16585237669298034,0.17023083681920056,-0.31886835445294587,3,left
26.906,0.5141500581246807,1.118343457580703,-0.3049134601414279,1.5166166219565393,4.140970468219458,-1.642030787876812,-0.167024692665175,0.17006321600746957,-0.32440413578350297,3,left
26.906999999999996,0.5146804223008904,1.118056820219754,-0.30593114725768056,1.5540810006070807,4.125496533438936,-1.6368862444262964,-0.16813733482702709,0.16989414960737248,-0.3297507536528414,3,left
26.908,0.5152431430705348,1.1177617306384264,-0.3069333826350407,1.5918521053738672,4.11002043804987,-1.6315696610571706,-0.16919030100144225,0.1697292831567876,-0.3348881118827164,3,left
26.983,0.5158359391731098,1.1174594768004609,-0.30791910664308725,1.6298684324362143,4.094577256663767,-1.6260912392286382,-0.1701838413938326,0.16957414243615812,-0.3397960708314894,3,left
26.985,0.5164563652562506,1.117151321176444,-0.3088873562743985,1.6680645506574139,4.079202662051146,-1.6204623909782097,-0.17111844935099133,0.16943406608253359,-0.34445460430383,3,left
26.986,0.5171018377493086,1.116838480842141,-0.30983726489364344,1.7063713915233298,4.063932744994445,-1.6146957311519627,-0.17199484928612888,0.16931414700779185,-0.3488439659243579,3,left
26.986,0.51776966090204,1.1165221076966385,-0.3107680600153848,1.74471657335195,4.048803812670644,-1.608805055622651,-0.17281398190720873,0.16921918121125318,-0.35294486129270425,3,left
26.987,0.5184570523963754,1.116203269340694,-0.3116790592384313,1.7830247538916038,4.033852169590327,-1.6028053014579846,-0.17357698693835574,0.16915362175759274,-0.3567386210588439,3,left
26.988000000000003,0.5191611678444794,1.1158829314886882,-0.31256966461428387,1.821218009020979,4.01911388267773,-1.5967124874139293,-0.174285183477172,0.16912153624818996,-0.3602073712753982,3,left
27.04,0.5198791237117844,1.1155619429359163,-0.31343935577621806,1.859216236698206,4.004624531467403,-1.5905436346072166,-0.1749400480464416,0.16912656711704077,-0.36333419957630214,3,left
27.041,0.5206080187124281,1.1152410239076995,-0.3142876821345873,1.896937582889192,3.990418947860391,-1.5843166681849654,-0.1755431904008389,0.16917189464669252,-0.36610331673377144,3,left
27.041999999999998,0.5213449540605847,1.1149207582563894,-0.3151142543939036,1.9342988811355666,3.9765309566120943,-1.5780503020617143,-0.17609632738507036,0.1692602027465612,-0.368500212312304,3,left
27.041999999999998,0.5220870530038025,1.1146015896384718,-0.3159187356309241,1.9712160946056048,3.962993131462853,-1.5717639094898523,-0.1766012555813155,0.16939364759976447,-0.37051180120067645,3,left
27.043000000000003,0.5228314800935523,1.1142838215076276,-0.3167008322807631,2.007604752287113,3.9498365780849385,-1.5654773815333647,-0.1770598237290108,0.16957382932008835,-0.3721265567258763,3,left
27.118000000000002,0.5235754607433131,1.113967620465648,-0.3174602855529884,2.0433803762536336,3.937090748231562,-1.5592109746231213,-0.177473905654551,0.16980176672545733,-0.3733346271278395,3,left
27.12,0.5243163015963331,1.1136530223286392,-0.31819686383426815,2.078458900769881,3.924783285434633,-1.5529851494814195,-0.17784537403614584,0.17007787534965438,-0.374127934049526,3,left
27.12,0.5250514120296337,1.1133399403212731,-0.3189103564601978,2.1127570863990894,3.91293990130835,-1.5468204068140903,-0.17817607523056897,0.17040194917337426,-0.3745002524715914,3,left
27.121,0.5257783268706502,1.1130281749849242,-0.31960056899754097,2.14619293329261,3.901584281215169,-1.5407371269740033,-0.1784678056038673,0.1707731472589888,-0.37444727119470816,3,left
27.122,0.5264947301253442,1.1127174254108005,-0.3202673199833501,2.178686096820669,3.890738018353662,-1.5347554189944645,-0.1787222899549354,0.17118998686811493,-0.37396663267126823,3,left
27.123,0.527198479186829,1.1124073012680082,-0.32091043889190873,2.210158306865973,3.8804205758722197,-1.5288949811413688,-0.17894116247378328,0.17165034424663778,-0.3730579512871278,3,left
27.178,0.5278876286482007,1.1120973350114942,-0.3215297648961553,2.2405337906227176,3.870649276496109,-1.5231749732078486,-0.17912595041168952,0.17215146355174143,-0.3717228097330771,3,left
27.18,0.5285604525995377,1.1117869937404938,-0.32212514583686336,2.2697396962509866,3.8614393171193044,-1.5176138998147362,-0.1792780604653207,0.17268997389315313,-0.3699647335830046,3,left
27.180999999999997,0.5292154643156463,1.1114756903554035,-0.3226964368692147,2.2977065106187804,3.852803802037856,-1.5122295029011967,-0.17939876770717889,0.17326191384250092,-0.36778914514642314,3,left
27.180999999999997,0.5298514325329431,1.1111627938194368,-0.3232434985669041,2.3243684620747804,3.844753786405222,-1.5070386609906783,-0.17948920664223533,0.17386276179367927,-0.36520329926721085,3,left
27.182,0.5304673938565961,1.1108476384513732,-0.32376619473834495,2.349663901477602,3.8372983235895073,-1.5020572934173926,-0.17955036383028827,0.17448747001770992,-0.3622162046311047,3,left
27.208000000000002,0.5310626610925343,1.1105295323939193,-0.3242643906693369,2.3735356588185286,3.83044451389035,-1.4973002687783563,-0.17958307165371895,0.17513050079519246,-0.3588385332513934,3,left
27.21,0.531636827376619,1.1102077658552632,-0.32473795264560823,2.395931375056997,3.824197554172786,-1.4927813174761932,-0.1795880030626368,0.1757858639806445,-0.35508251919567485,3,left
27.245,0.5321897659181032,1.1098816202245063,-0.32518674927693425,2.4168038088351396,3.818560788432776,-1.4885129485227753,-0.17956566726954634,0.17644715589261162,-0.35096184672349756,3,left
27.247,0.5327216252939175,1.1095503792374837,-0.3256106546341711,2.436111115702457,3.813535759491205,-1.4845063716962121,-0.1795164063936311,0.1771075995313816,-0.3464915278252101,3,left
27.247,0.5332328206150831,1.1092133425625041,-0.32600955279915617,2.453817093821393,3.8091222623397005,-1.480771427803601,-0.1794403930546702,0.1777600861261719,-0.34168776915125654,3,left
27.248,0.5337240214110812,1.1088698404206632,-0.3263833430296451,2.4698913880890454,3.805318399843751,-1.4773165307244518,-0.1793376289173004,0.17839721804028777,-0.3365678286256836,3,left
27.322,0.534196137744385,1.108519246238522,-0.32673194450008025,2.4843096466369343,3.8021206413299558,-1.4741486239886663,-0.17920794419014174,0.17901135319581396,-0.3311498635644652,3,left
27.324,0.5346503064012832,1.1081609848044804,-0.3270553000061013,2.497053627322232,3.7995238842612276,-1.4712731529845018,-0.17905099809121655,0.17959465141889433,-0.32545277486841884,3,left
27.325,0.5350878780913706,1.107794536016129,-0.32735337894245276,2.508111253850353,3.7975215190250995,-1.4686940529709682,-0.17886628029489662,0.18013912323967785,-0.3194960533874255,3,left
27.326,0.5355104047583793,1.107419436458134,-0.3276261803140645,2.51747662157028,3.7961054968259362,-1.466413752885574,-0.17865311337165388,0.18063668154787618,-0.3132996330239658,3,left
27.326,0.5359196253243024,1.1070352812669237,-0.32787373619323285,2.5251499529792136,3.7952664006735795,-1.464433194939163,-0.17841065624903743,0.18107919620467353,-0.3068837524590281,3,left
27.326999999999998,0.5363174493335997,1.1066417280796454,-0.3280961154754899,2.531137503423489,3.7949935192449233,-1.4627518697313648,-0.1781379088394193,0.18145855127556826,-0.30026882618467854,3,left
27.381999999999998,0.5367059392927211,1.1062385040659357,-0.32829342747122686,2.5354514197537914,3.795274922307946,-1.4613678653256605,-0.17783371819713828,0.18176670397660746,-0.2934753258150143,3,left
27.384,0.5370872923952699,1.10582541576319,-0.3284658248719555,2.538109558784575,3.796097534439809,-1.460277926392228,-0.17749678665980614,0.18199574411164485,-0.28652367284642294,3,left
27.384,0.5374638213938268,1.1054023599988378,-0.3286135058305491,2.539135274678687,3.797447202683592,-1.4594775182322297,-0.17712568216306177,0.18213795302261362,-0.27943414305772063,3,left
27.385,0.5378379338985381,1.104969333934562,-0.32873671509554026,2.5385571820974615,3.799308754878489,-1.458960891793416,-0.17671885044026447,0.18218586151477553,-0.27222678097661873,3,left
27.386,0.5382121096096895,1.1045264436070485,-0.32883574424349443,2.5364088980222195,3.8016660478850426,-1.4587211483032523,-0.17627462855313153,0.18213230646322184,-0.26492132185873435,3,left
27.455,0.5385888753900232,1.1040739115311107,-0.3289109310399345,2.5327287637079805,3.8045020086453736,-1.4587503043609586,-0.17579125931932063,0.18197048592569204,-0.2575371192089539,3,left
27.456999999999997,0.5389707782987002,1.1036120836664238,-0.32896265791264395,2.5275595492743563,3.807798675968285,-1.4590393602439133,-0.17526690646261336,0.18169401269170243,-0.25009307704453915,3,left
27.458000000000002,0.5393603568846679,1.1031414352664062,-0.3289913495988009,2.5209481442695973,3.8115372535587486,-1.459578375103644,-0.17469967045555715,0.18129696625612715,-0.24260758674904045,3,left
27.461,0.5397601112551811,1.1026625749338432,-0.3289974701607876,2.5129452367038616,3.8156981821844558,-1.4603565518084236,-0.1740876050321081,0.1807739431995977,-0.2350984684264414,3,left
27.462,0.540172472536462,1.1021762465118206,-0.32898151956299254,2.503604981539586,3.8202612341426976,-1.4613623325360565,-0.17342873424237346,0.18012010587198057,-0.2275829163177685,3,left
27.463,0.5405997723331177,1.1016833287853989,-0.328944029905359,2.492984658723763,3.825205630146146,-1.4625835049808222,-0.17272106973184148,0.1793312291204463,-0.22007744721764977,3,left
27.52,0.5410442128166145,1.1011848331207212,-0.3288855613715183,2.4811443203588097,3.830510176132867,-1.4640073172486536,-0.1719626278377464,0.17840374461018557,-0.212597850485383,3,left
27.522,0.5415078380692091,1.1006818991581842,-0.32880669797255413,2.468146426034232,3.836153413747188,-1.465620596623078,-0.17115144627898193,0.17733478183463774,-0.20515913861290044,3,left
27.523000000000003,0.5419925071775736,1.1001757887066457,-0.32870804320897057,2.4540554650205557,3.842113776150327,-1.4674098657782877,-0.17028560054685585,0.17612220410023766,-0.19777549797416458,3,left
27.524,0.5424998694640366,1.0996678781627705,-0.3285902158658609,2.43893756434056,3.848369742909525,-1.4693614516230693,-0.16936322028773265,0.1747646373194739,-0.19046023974844523,3,left
27.525,0.5430313422815055,1.0991596499746643,-0.3284538462753073,2.422860082573575,3.8548999912350497,-1.471461584893902,-0.16838250591095114,0.1732614899993977,-0.18322575105862196,3,left
27.589000000000002,0.5435880918333382,1.0986526836840362,-0.32829957339398586,2.405891190929579,3.861683541723014,-1.4736964904320475,-0.1673417455138138,0.17161296377818147,-0.1760834463283214,3,left
27.592,0.5441710174148175,1.0981486469506052,-0.32812804287747915,2.3880994456509956,3.868699895018514,-1.4760524687778476,-0.16623933213670936,0.16982005439850714,-0.16904371884106725,3,left
27.592,0.5447807393552002,1.0976492868680487,-0.3279399060768976,2.3695533571644014,3.875929154613253,-1.478515969925098,-0.16507378134554707,0.16788454311346632,-0.16211589248068412,3,left
27.596,0.5454175906423954,1.0971564218107015,-0.3277358197337116,2.350320960034724,3.8833521321936733,-1.4810736598695373,-0.16384374911580668,0.16580897864736144,-0.15530817380278666,3,left
27.596999999999998,0.5460816116412499,1.0966719338920419,-0.3275164462051189,2.3304693853114515,3.890950434118328,-1.4837124802092512,-0.1625480498788118,0.16359665046899952,-0.1486276054391071,3,left
27.596999999999998,0.5467725468857266,1.0961977619262544,-0.3272824541783782,2.310064436043261,3.8987065290141274,-1.4864197010005367,-0.161185674386322,0.1612515552787674,-0.14208002336966988,3,left
27.653000000000002,0.5474898430877576,1.0957358946619495,-0.3270345198582706,2.2891701692427713,3.9066037977674024,-1.4891829678044848,-0.1597558069358365,0.15877835924599207,-0.13567002144979518,3,left
27.654,0.548232648128995,1.0952883639716606,-0.3267733285821337,2.2678484925865434,3.9146265690682718,-1.4919903452516794,-0.15825784161233095,0.15618235789708387,-0.12940092572764514,3,left
27.655,0.5489998115088948,1.0948572375995205,-0.32649957684005093,2.2461587869145356,3.9227601447128078,-1.4948303602258872,-0.1566913973960656,0.15346943432879326,-0.12327477960671218,3,left
27.655,0.5497898871935961,1.0944446110552914,-0.32621397471641533,2.2241575628111403,3.930990817822342,-1.4976920469945003,-0.15505633204830144,0.15064601537653127,-0.11729234031262306,3,left
27.656,0.5506011397946247,1.0940525982965577,-0.325917248753632,2.2018981545844962,3.939305885333257,-1.5005649951047397,-0.153352754617243,0.14771902450511049,-0.11145308741488953,3,left
27.717,0.5514315546189357,1.0936833208179126,-0.32561014517399717,2.17943045238413,3.94769365544365,-1.5034393995066226,-0.15158103635520526,0.1446958297805286,-0.10575524441085592,3,left
27.72,0.552278851728601,1.0933388946235718,-0.32529343326623233,2.156800673009099,3.9561434511753295,-1.506306111156412,-0.14974181988893048,0.14158418568950057,-0.10019581412329245,3,left
27.721,0.5531405038065308,1.0930214146044956,-0.3249679085441659,2.1340511701631413,3.964645611588123,-1.5091566857694838,-0.14783602657681086,0.13839216830826687,-0.09477062820231041,3,left
27.730999999999998,0.5540137572422918,1.0927329363795004,-0.32463439514890713,2.11122028470764,3.9731914918054234,-1.5119834289763654,-0.14586486201226687,0.1351281039408251,-0.08947441071705518,3,left
27.732,0.5548956555766902,1.0924754563326196,-0.32429374701890235,2.0883422350936005,3.9817734623291505,-1.5147794371883752,-0.14382981951537618,0.13180049248063377,-0.08430085552473193,3,left
27.733,0.5557830645096199,1.09225089074272,-0.32394684754324027,2.0654470480504146,3.9903849073458306,-1.5175386340974866,-0.14173268122572413,0.1284179286440622,-0.07924271666020177,3,left
27.789,0.5566726979541342,1.0920610546432825,-0.3235946076213875,2.04256053007815,3.9990202196581586,-1.5202558030190336,-0.13957551628207276,0.12498902527612964,-0.07429191074270021,3,left
27.791999999999998,0.5575611447094385,1.0919076409338302,-0.32323796220012757,2.0197042812083086,4.007674786291228,-1.522926615586543,-0.13736067570144891,0.12152234187641817,-0.06943963064363451,3,left
27.793000000000003,0.5584448951037467,1.0917922004569864,-0.32287786542532015,1.9968957530081437,4.016344956830906,-1.5255476574749682,-0.13509078379900819,0.11802631959843171,-0.0646764701044462,3,left
27.794,0.5593203668105039,1.0917161240018918,-0.32251528457311324,1.9741483522934502,4.025027988543696,-1.5281164516613928,-0.1327687261337888,0.11450922288954261,-0.059992559019510575,3,left
27.795,0.5601839293175476,1.0916806272064878,-0.32215119294550687,1.9514715909163343,4.033721965892933,-1.530631479192394,-0.1303976340744538,0.11097908756045816,-0.05537770804186053,3,left
27.855999999999998,0.5610319269982793,1.0916867390525227,-0.32178656190823773,1.9288712805839017,4.042425693958702,-1.5330921960651327,-0.12798086622964705,0.10744367477136318,-0.05082155917739719,3,left
27.858,0.5618607010359884,1.091735294272329,-0.321422352228081,1.9063497699409975,4.05113856548865,-1.535499042644838,-0.12552198707115192,0.1039104302542285,-0.04631373792659888,3,left
27.859,0.5626666106504301,1.0918269296799912,-0.32105950491729635,1.8839062202498231,4.0598604012075725,-1.5378534408463211,-0.12302474299418818,0.1003864482583424,-0.04184400363981573,3,left
27.87,0.5634460542860226,1.0919620841919568,-0.3206989319425689,1.8615369162589124,4.068591263953383,-1.540157775570059,-0.120493035908368,0.09687844000779776,-0.037402396744785925,3,left
27.871,0.5641954914803557,1.0921410021029394,-0.32034150728531247,1.8392356072698233,4.077331251587685,-1.5424153593749885,-0.11793089436899809,0.09339270662727855,-0.03297938261202626,3,left
27.872,0.5649114659471164,1.0923637390918348,-0.31998805882038367,1.8169938685411406,4.086080281291952,-1.5446303811785347,-0.11534244229667401,0.08993511645865801,-0.02856599180050969,3,left
27.92,0.5655906301293776,1.0926301704313384,-0.31963936133198917,1.7948014701444124,4.094837882082142,-1.5468078403541499,-0.11273186560857187,0.0865110863540695,-0.024153955202497072,3,left
27.921,0.5662297712132253,1.0929400008529553,-0.3192961308000484,1.7726467435921103,4.103603008172639,-1.5489534672555985,-0.11010337758076012,0.08312556592476376,-0.01973583040391544,3,left
27.929000000000002,0.5668258383097992,1.093292775412401,-0.3189590198762792,1.7505169423273699,4.112373878256995,-1.5510736305834556,-0.10746118403633631,0.07978302338824972,-0.015305114353076929,3,left
27.93,0.5673759702656368,1.0936878905922807,-0.3186286142182734,1.7283985953706744,4.121147841570994,-1.5531752316682685,-0.10480944922939292,0.07648743209838048,-0.01085633858066403,3,left
27.93,0.5678775234834004,1.0941246049425823,-0.318305429170058,1.7062778542027253,4.1299212708889295,-1.555265585977972,-0.10215226305286261,0.07324225797543521,-0.006385145048912623,3,left
27.99,0.568328099186401,1.0946020488088966,-0.31798990629795154,1.6841408336773511,4.138689483232445,-1.5573522936641386,-0.09949361038007982,0.07005044933682604,-0.001888341270003669,3,left
27.991999999999997,0.5687255694303385,1.0951192329349544,-0.31768240949094795,1.6619739490445269,4.147446690202571,-1.5594431036743062,-0.09683734354885905,0.0669144312224393,0.002636066789157627,3,left
28.008000000000003,0.569068100786807,1.0956750558521628,-0.3173832206482049,1.639764251630734,4.156185979948986,-1.5615457774685377,-0.09418715874277166,0.06383610578289735,0.007188865131150331,3,left
28.01,0.5693541745410389,1.0962683100812183,-0.3170925353586558,1.6174997637723532,4.164899329536541,-1.5636679568907095,-0.09154657653189874,0.06081685926116586,0.011769645778709613,3,left
28.01,0.5695826027806685,1.0968976872907121,-0.3168104592418341,1.595169810085034,4.1735776406120255,-1.5658170380672665,-0.08891892640616199,0.05785757511496519,0.016376843599625077,3,left
28.011,0.5697525403646762,1.0975617826366044,-0.31653700563981774,1.5727653402003778,4.182210788020123,-1.5680000517185697,-0.08630733476838809,0.054958651899370506,0.0210077935720999,3,left
28.054000000000002,0.5698634928719367,1.0982590986717513,-0.31627209528057054,1.5502792391951394,4.190787673517226,-1.5702235499471868,-0.08371471567920942,0.05212002407189547,0.02565880537460177,3,left
28.055,0.5699153203740164,1.0989880495364126,-0.3160155583674409,1.5277066241644612,4.199296281457457,-1.5724934995326092,-0.08114376382102047,0.049341184339783885,0.030325252966591353,3,left
28.066999999999997,0.5699082368650383,1.0997469662903834,-0.3157671391067258,1.5050451259996067,4.207723735922225,-1.5748151819001979,-0.07859694946339808,0.04662120699247141,0.03500167823468632,3,left
28.068,0.5698428056192852,1.1005341039429275,-0.31552650218055694,1.4822951525390036,4.216056359147785,-1.5771931007165518,-0.0760765153649497,0.043958772194372726,0.03968190821704736,3,left
28.068,0.5697199311451305,1.1013476500871415,-0.31529324047236007,1.4594601236112863,4.224279730849814,-1.5796308994823147,-0.07358447546874193,0.04135219167858673,0.04435918385472833,3,left
28.122,0.5695408486218638,1.102185734098239,-0.3150668833753217,1.4365466653499566,4.232378747902007,-1.5821312922817445,-0.07112261504532952,0.038799436955146496,0.04902629512178238,3,left
28.124000000000002,0.5693071120853378,1.1030464351004028,-0.3148469051163523,1.4135647542978484,4.240337683967211,-1.5846960100603718,-0.06869249182459075,0.036298171521419745,0.053675715665382796,3,left
28.143,0.5690205826378608,1.1039277875544549,-0.3146327327621951,1.3905278078942667,4.248140248780571,-1.5873257632208724,-0.06629543777054589,0.03384578818861088,0.05829973180775065,3,left
28.145,0.5686834168374921,1.1048277850199533,-0.31442375364859454,1.367452723201439,4.255769646155824,-1.5900202197259377,-0.06393256138407939,0.031439451868294103,0.06289056377244684,3,left
28.145,0.5682980540448413,1.1057443834036842,-0.31421932176212436,1.3443598701798054,4.263208628428241,-1.5927779962754156,-0.06160475066875193,0.029076147302693388,0.0674404782871679,3,left
28.146,0.5678672012135468,1.106675504611411,-0.31401876280124214,1.3212730479466874,4.270439544277452,-1.5955966593118163,-0.05931267716467448,0.02675273027201758,0.07194189128358239,3,left
28.186999999999998,0.5673938142973085,1.107619041338252,-0.31382137840160873,1.2982194103276117,4.277444377642715,-1.5984727334218214,-0.057056801592799376,0.024465980325744353,0.0763874589837392,3,left
28.188000000000002,0.5668810763441826,1.1085728636167067,-0.3136264503003501,1.2752293631842044,4.284204776828211,-1.6014017161656822,-0.05483738151479829,0.022212653571416562,0.0807701560933722,3,left
28.201,0.5663323729444413,1.109534826907199,-0.31343324465080297,1.2523364340819167,4.290702074157937,-1.6043780992808812,-0.052654481166685904,0.01998953493041343,0.0850833405979246,3,left
28.201999999999998,0.5657512657425332,1.1105027809185728,-0.3132410162225212,1.229577115458356,4.296917299156991,-1.607395396874089,-0.05050798346967415,0.01779348973748734,0.08932080522225276,3,left
28.203000000000003,0.5651414644456829,1.1114745788945506,-0.3130490123497106,1.2069906842935878,4.302831192670419,-1.6104461821242677,-0.04839760410692785,0.015621514561644456,0.09347681637289847,3,left
28.256,0.5645067974671929,1.1124480876866296,-0.312856476666335,1.1846190023065097,4.308424231793975,-1.613522134524718,-0.04632290739756677,0.013470786952121654,0.09754614259109112,3,left
28.258000000000003,0.563851181078348,1.1134211985901237,-0.3126626525356369,1.1625062996793345,4.313676673026396,-1.61661409918717,-0.04428332361190202,0.011338713716672222,0.1015240752163518,3,left
28.28,0.56317858685949,1.1143918382798415,-0.31246678596178135,1.1406989434723285,4.318568616616844,-1.61971215882244,-0.04227816743178721,0.009222977415022158,0.10540644337070146,3,left
28.281,0.5624930074547884,1.1153579789397154,-0.3122681278790877,1.1192451908691197,4.323080092616347,-1.6228057185074352,-0.04030665727913419,0.007121580819141603,0.10918962457520856,3,left
28.281999999999996,0.5617984209208293,1.1163176468191018,-0.3120659358802315,1.0981949271691342,4.327191168329056,-1.6258836029448753,-0.03836793507415326,0.005032888999303671,0.11287055237903569,3,left
28.283,0.5610987540939822,1.1172689287157063,-0.3118594754900443,1.0775993883445325,4.330882075262117,-1.6289341644096376,-0.03646108586410558,0.0029556686090827164,0.11644672265793722,3,left
28.32,0.5603978454805474,1.1182099760979851,-0.31164802103646105,1.0575108677998968,4.334133350798978,-1.6319453968531734,-0.03458515690181493,0.0008891240476775476,0.1199161998274249,3,left
28.320999999999998,0.5596994083558121,1.119139006765767,-0.3114308561233574,1.0379824068740116,4.336925988223779,-1.6349050501249294,-0.03273917600233219,-0.0011670696326730326,0.12327762347491247,3,left
28.339000000000002,0.5590069949456465,1.1200543042488549,-0.3112072737619156,1.0190674688628902,4.339241590044292,-1.6378007397818555,-0.030922169144600425,-0.0032127371011896394,0.12653021550339869,3,left
28.34,0.558323962528403,1.120954215480903,-0.3109765763519351,1.0008195972169422,4.341062521057223,-1.6406200506782298,-0.029133177323156213,-0.005247176501457934,0.12967378779810723,3,left
28.340999999999998,0.5576534420167227,1.121837147379637,-0.3107380757832266,0.9832920599127304,4.342372056719116,-1.643350634038214,-0.027371272707125176,-0.007269137131970674,0.13270875043446403,3,left
28.386999999999997,0.5569983092646154,1.1227015627889492,-0.31049109389753077,0.966537482713691,4.343154521328709,-1.6459802980146745,-0.0256355742576966,-0.009276802418490538,0.1356361204585704,3,left
28.389,0.5563611591984327,1.1235459760853463,-0.3102349635084934,0.9506074733439593,4.343395411900402,-1.6484970917387693,-0.0239252630074784,-0.011267779995154442,0.13845753127828994,3,left
28.416999999999998,0.5557442830047651,1.1243689487614341,-0.30996903011960397,0.9355522373556402,4.3430815060823065,-1.6508893828666948,-0.022239597126606343,-0.013239100198859868,0.1411752425980767,3,left
28.421,0.5551496489603159,1.125169085328843,-0.30969265433060705,0.9214201857799333,4.34220095384609,-1.6531459286308838,-0.020577926674365147,-0.015187223168579376,0.14379215033023487,3,left
28.421999999999997,0.554578887765777,1.1259450298171427,-0.30940521478279187,0.9082575350851296,4.340743353055062,-1.655255940464055,-0.018939707644790367,-0.01710805375227072,0.14631179503105282,3,left
28.421999999999997,0.5540332831884258,1.1266954630302397,-0.30910611150164047,0.8961079028103578,4.338699809544429,-1.6572091425701543,-0.017324514772016436,-0.018996963035571742,0.14873836692146264,3,left
28.454,0.5535137683227896,1.1274191006165504,-0.30879476955544016,0.8850119073646517,4.336062983298246,-1.658995825366617,-0.015732052693552833,-0.020848815604267993,0.151076706038629,3,left
28.475,0.5530209268661802,1.1281146918761542,-0.30847064289880466,0.8750067833270408,4.332827122834998,-1.660606895027958,-0.014162165307964082,-0.022658002188601273,0.1533322969412656,3,left
28.476,0.552554997966943,1.1287810190154588,-0.30813321816401074,0.8661260207429131,4.328988089383018,-1.6620339200542498,-0.012614843311454873,-0.02441847762336171,0.15551125775670027,3,left
28.476999999999997,0.5521158831993572,1.129416896343563,-0.30778201817328693,0.858399031796881,4.324543371472983,-1.6632691752367925,-0.011090230002454331,-0.026123804057674692,0.15762032284710248,3,left
28.478,0.5517031550571191,1.130021168822404,-0.30741660509660584,0.8518508458326636,4.319492090221652,-1.6643056831052119,-0.009588625583862224,-0.02776719924117602,0.15966681727807813,3,left
28.519000000000002,0.5513160672446343,1.1305927094147157,-0.30703658333100425,0.8465018352775979,4.313834996361643,-1.665137252970617,-0.008110490270742583,-0.02934158965363075,0.16165862066485476,3,left
28.521,0.5509535674257418,1.1311304146962442,-0.3066416022097187,0.8423674789072964,4.307574461669145,-1.6657585178447474,-0.006656446433258297,-0.03083966830438911,0.16360411857884374,3,left
28.554000000000002,0.5506143130113444,1.1316331983365167,-0.3062313585590514,0.8394581710418891,4.3007144683278895,-1.6661649696065874,-0.005227279864202993,-0.03225395713498887,0.1655121407911604,3,left
28.555999999999997,0.5502966902488368,1.1320999825777702,-0.3058055989813849,0.8377790831161817,4.293260598877775,-1.666352992695214,-0.00382394015137251,-0.03357687393580956,0.16739188632902335,3,left
28.557,0.5499988364763243,1.1325296885116296,-0.3053641216414394,0.8373300801949327,4.285220027796041,-1.6663198964412087,-0.0024475399638549554,-0.03480080329085197,0.16925283590104845,3,left
28.558000000000003,0.5497186651037215,1.132921226134845,-0.304906777312939,0.8381056924120086,4.276601514583948,-1.6660639459288902,-0.001099352781271647,-0.03591817032915446,0.17110465307295464,3,left
28.587,0.5494538927711448,1.133273484817388,-0.3044334694828014,0.8400951386681214,4.26741539662772,-1.665584390625925,0.00021919156054552068,-0.03692151565258328,0.17295707603379187,3,left
28.612,0.5492020680678943,1.1335853244979301,-0.3039441533683362,0.843282395934687,4.257673577536045,-1.6648814888702765,0.001506513954744149,-0.0378035701110645,0.17481980151448206,3,left
28.614,0.5489606010623159,1.1338555678919195,-0.30343883376093517,0.847646305485762,4.247389505203398,-1.6639565256857325,0.0027608957890552137,-0.03855732829685471,0.17670236249686694,3,left
28.615,0.548726792848652,1.1340829940473651,-0.3029175616546485,0.8531607105404007,4.236578135139208,-1.6628118221260793,0.003980491074046521,-0.039176119075558194,0.17861400251645437,3,left
28.616,0.5484978644490347,1.1342663335783882,-0.3023804296365124,0.8597946254836429,4.225255876927621,-1.6614507356604111,0.005163340467489595,-0.039653671018467236,0.18056355017238834,3,left
28.651999999999997,0.5482709845664615,1.1344042659560079,-0.3018275660328807,0.8675124399946241,4.213440522973444,-1.6598776518408898,0.006307386845766604,-0.03998417113491997,0.18255929655618536,3,left
28.654,0.5480432958856004,1.1344954193331909,-0.3012591278937115,0.876274160917147,4.2011511591058,-1.6580979675281495,0.007410492284747497,-0.04016231626505715,0.18460887668719397,3,left
28.691999999999997,0.5478119400257525,1.13453837328948,-0.30067529309637886,0.8860356930195217,4.188408056848014,-1.6561180657818368,0.008470456430019428,-0.04018335702744024,0.18671915514080373,3,left
28.693,0.547574081697497,1.1345316645048844,-0.30007625209475636,0.89674915885373,4.175232547293357,-1.653945282430345,0.009485036259750402,-0.040043134322468706,0.18889611587515262,3,left
28.694000000000003,0.5473269327428645,1.1344737949397825,-0.29946219998665985,0.9083632577389916,4.161646876551363,-1.6515878643146402,0.010451967204461713,-0.03973810849037712,0.19114475648626,3,left
28.695,0.5470677764908319,1.1343632418920468,-0.29883332952783775,0.920823663130672,4.147674043376276,-1.6490549191273955,0.01136898539341154,-0.03926538171353695,0.19346898824180278,3,left
28.719,0.5467939925191325,1.1341984693870437,-0.29818982551159834,0.9340734538032133,4.133337622828392,-1.6463563564025134,0.012233850447155024,-0.03862271513683624,0.19587154526015743,3,left
28.748,0.5465030817266213,1.1339779405182349,-0.29753186065947135,0.9480535673753773,4.118661585650794,-1.643502818551553,0.013044368041261061,-0.037808542670832945,0.1983539073216525,3,left
28.75,0.5461926915325749,1.1337001303424372,-0.2968595928872952,0.9627032608735222,4.103670126283348,-1.6405056004774918,0.013798411634652171,-0.036821982858216,0.20091623972265238,3,left
28.750999999999998,0.5458606408642629,1.1333635387875272,-0.2961731635554112,0.9779605668658891,4.088387509194277,-1.6373765566613645,0.01449394297679732,-0.03566284883767881,0.2035573517850025,3,left
28.752,0.5455049443350122,1.1329667030183128,-0.29547269615482863,0.9937627406246977,4.072837937450536,-1.6341279955882932,0.015129030969911509,-0.03433165511684465,0.20627467490569484,3,left
28.787,0.5451238347490928,1.132508208910764,-0.29475829487334726,1.0100466977035258,4.057045444580456,-1.6307725633115475,0.015701868371950034,-0.032829619305678084,0.20906426102571735,3,left
28.828000000000003,0.5447157830190709,1.1319867015583347,-0.29403004263089727,1.0267494419554897,4.0410338103637145,-1.6273231208441725,0.01621078595511095,-0.031158657422755313,0.21192080217937342,3,left
28.829,0.5442795148899304,1.1314008949600018,-0.2932879984601203,1.0438084826156617,4.02482649934629,-1.6237926216227534,0.016654263966754144,-0.02932137221685224,0.21483767139334997,3,left
28.83,0.543814024371022,1.1307495811711086,-0.2925321944702091,1.0611622362834345,4.008446616525151,-1.6201939936997884,0.01703094088721962,-0.027321034543654088,0.21780698485631825,3,left
28.83,0.5433185842107134,1.1300316392178948,-0.2917626329662635,1.0787504079755525,3.991916871763941,-1.6165400284887907,0.017339619597959544,-0.0251615586111977,0.22081968458246395,3,left
28.831,0.5427927539219232,1.1292460440493712,-0.2909792845149868,1.0965143468251999,3.975259546336961,-1.6128432763306535,0.017579271241144667,-0.022847473134790266,0.22386563961532194,3,left
28.853,0.5422363857020678,1.128391875838439,-0.29018208778464055,1.1143973746799734,3.958496458902107,-1.6091159488570732,0.017749037145010638,-0.02038389112368613,0.22693376316444291,3,left
28.885,0.54164962825039,1.1274683300987225,-0.28937095179195693,1.1323450873496594,3.94164893041325,-1.6053698281382436,0.01784822912717476,-0.017776480214208024,0.23001214346238594,3,left
28.886,0.5410329282746167,1.126474729261331,-0.28854576079095234,1.1503056285547206,3.92473774792426,-1.6016161826042248,0.017876328477304183,-0.015031433610275044,0.23308818601105627,3,left
28.886999999999997,0.5403870294538002,1.1254105362649613,-0.2877063815705047,1.1682299366267515,3.9077831272365615,-1.5978656897293069,0.017832984110127542,-0.012155439883656069,0.23614876320809788,3,left
28.886999999999997,0.539712968522391,1.124275369944465,-0.2868526723952857,1.1860719638619972,3.8908046744633773,-1.5941283656460763,0.017718010518202525,-0.009155649123782002,0.23918036617911687,3,left
28.919,0.5390120679470021,1.123069020638113,-0.2859844922699494,1.203788867677317,3.8738213471911607,-1.5904135027430961,0.01753138599636586,-0.0060396335522282475,0.24216925493726468,3,left
28.963,0.5382859249508838,1.1217914634754356,-0.2851017091338072,1.2213411713647064,3.8568514170121797,-1.5867296178971229,0.017273251292549665,-0.0028153419634597593,0.2451016051646451,3,left
28.965,0.5375363976172883,1.1204428670464208,-0.28420420628334914,1.2386928914822457,3.83991243583235,-1.5830844147510637,0.016943908512512228,0.0005089514180220878,0.24796365040874807,3,left
28.965,0.5367655896184234,1.1190235962462276,-0.28329188718002346,1.2558116296394097,3.823021207864296,-1.579484761926798,0.016543819769002283,0.003924701863377708,0.25074181731165746,3,left
28.965999999999998,0.5359758350743185,1.1175342095570229,-0.2823646793141176,1.2726686277309838,3.8061937683262554,-1.5759366863222062,0.016073604896022265,0.007423150444300653,0.2534228506926793,3,left
28.967,0.5351696843086273,1.1159754524848158,-0.2814225379702904,1.2892387863936876,3.789445369373436,-1.5724453791197224,0.015534037718300326,0.010995379916906018,0.25599392610177407,3,left
28.987,0.5343498900523924,1.114348249575723,-0.28046545050000615,1.3055006466406314,3.7727904735536013,-1.5690152125913226,0.014926040671245002,0.014632369470554619,0.25844274889542107,3,left
29.023000000000003,0.5335193926403268,1.1126536971928767,-0.27949344115617714,1.321436334684377,3.756242754874708,-1.565649766927867,0.014250677736103754,0.01832504823099801,0.26075763968320154,3,left
29.025,0.5326813030217541,1.1108930582438366,-0.2785065761165187,1.3370314699898955,3.7398151074591786,-1.5623518669557916,0.013509145688777304,0.022064347528087027,0.26292760615246064,3,left
29.025,0.5318388835345719,1.1090677586236684,-0.27750496820659915,1.3522750371621273,3.7235196614360238,-1.5591236286949337,0.012702763660545447,0.025841251938472438,0.2649424012780577,3,left
29.026,0.5309955270005455,1.1071793845970144,-0.27648878101381963,1.3671592250620594,3.707367804217344,-1.5559665155296305,0.01183296102323368,0.029646849095577035,0.2667925680346782,3,left
29.054000000000002,0.5301547345857722,1.1052296811682645,-0.27545823238515693,1.3816792415665313,3.6913702025971964,-1.552881403438114,0.01090126368349471,0.033472378167706714,0.2684694712830022,3,left
29.101,0.5293200925023076,1.1032205519864515,-0.2744135973997719,1.3958331149644216,3.6755368200699285,-1.549868654386109,0.00990927900089499,0.03730927674049358,0.26996531849820293,3,left
29.101999999999997,0.5284952472083374,1.1011540606766284,-0.2733552107789744,1.4096214891322885,3.659876927588993,-1.546928196385154,0.008858679642072669,0.04114922574709923,0.2712731716555534,3,left
29.103,0.527683878547042,1.0990324328417918,-0.27228346859696284,1.4230474127040724,3.6443991128699964,-1.5440596076263198,0.007751186737839659,0.04498419217470138,0.2723869524958747,3,left
29.103,0.5268896704673621,1.0968580580158744,-0.271198829196064,1.4361161185998592,3.6291112971656947,-1.5412622014946238,0.006588552808538546,0.04880646942888767,0.27330144322826067,3,left
29.103,0.5261162794188937,1.0946334910647904,-0.2701018132998106,1.4488347907780537,3.6140207664235953,-1.538535110093424,0.005372544977580661,0.05260871532262712,0.27401228463542865,3,left
29.12,0.5253673009161466,1.0923614525062595,-0.2689930033528872,1.4612123169794362,3.599134219563975,-1.5358773653256492,0.004104928851342977,0.05638398768129391,0.2745159729729531,3,left
29.159000000000002,0.5246462350784732,1.0900448270938965,-0.2678730421058534,1.4732590272889758,3.584457834298113,-1.533287977366345,0.002787453214629817,0.06012577756689782,0.2748098562202279,3,left
29.160999999999998,0.5239564522133174,1.087686660061663,-0.2667426304848816,1.4849864185519557,3.5699973504434106,-1.5307660105186935,0.001421835561775313,0.06382804006716884,0.2748921297897953,3,left
29.160999999999998,0.5233011595599877,1.085290150724286,-0.2656025248649106,1.4964068646799884,3.5557581706926418,-1.528310656445877,9.748448599042001e-06,0.06748522227657487,0.274761831768875,3,left
29.162,0.5226833700154069,1.0828586435456447,-0.2644535339456951,1.5075333128849662,3.5417454783647653,-1.5259213046898383,-0.0014471933664407114,0.07109228752062795,0.27441883787491633,3,left
29.185,0.5221058732478263,1.0803956171183209,-0.2632965154831181,1.5183789658950977,3.527964369513283,-1.5235976099806916,-0.002947445032981515,0.0746447345549282,0.27386385636671834,3,left
29.206999999999997,0.5215712093570275,1.0779046716412706,-0.26213237317743654,1.5289569502369715,3.514419992894993,-1.5213395551072242,-0.004489543003306744,0.07813861079006013,0.27309842309172333,3,left
29.226999999999997,0.5210816451642002,1.0753895154862871,-0.26096205408995493,1.5392799712891398,3.5011176889537112,-1.5191475077249843,-0.006072115726042815,0.08157051916894108,0.27212489674089474,3,left
29.228,0.5206391532236745,1.0728539513886095,-0.25978654699069503,1.549359958821711,3.4880631201419607,-1.5170222699529776,-0.007693893645168661,0.08493761864286022,0.27094645432165326,3,left
29.229,0.5202453937860007,1.0703018627118126,-0.25860688190685827,1.5592077121532866,3.475262387006286,-1.5149651204639913,-0.009353718490329689,0.08823761824515947,0.2695670868155258,3,left
29.252,0.5199017002359463,1.067737200138382,-0.2574241308507481,1.568832557065648,3.462722125630314,-1.5129778492480945,-0.011050551752390546,0.09146876470594151,0.2679915948308115,3,left
29.305999999999997,0.5196090687962877,1.0651639690170425,-0.2562394094387489,1.5782420235856616,3.450449583445129,-1.511062785243719,-0.012783482072360125,0.0946298234513028,0.2662255837796176,3,left
29.308000000000003,0.5193681532596675,1.0625862174245855,-0.25505387898665305,1.5874415482949034,3.438452672189019,-1.5092228169106217,-0.014551731179366855,0.09772005292855158,0.26427545778919215,3,left
29.309,0.5191792651324825,1.0600080248364772,-0.25386874866096387,1.5964342021694642,3.4267399981283915,-1.5074614059554563,-0.016354658103690783,0.10073917302177945,0.26214841089717283,3,left
29.31,0.519042379091253,1.0574334912510972,-0.2526852773573643,1.6052204461935193,3.415320871572571,-1.505782595422892,-0.018191761553362086,0.10368732980354464,0.25985241289229444,3,left
29.311,0.5189571432511775,1.0548667266412979,-0.25150477511181285,1.6137979203144683,3.4042053008179556,-1.5041910151930553,-0.020062680433159244,0.10656505969132819,0.2573961865018279,3,left
29.364,0.5189228933278334,1.0523118405923362,-0.25032860392615336,1.6221612730815873,3.3934039772637736,-1.5026918886758138,-0.021967192505327422,0.10937325532058355,0.25478917347316576,3,left
29.366,0.5189386694203981,1.049772931914926,-0.2491581778989358,1.6303020371004937,3.3829282561325464,-1.5012910421480279,-0.023905211193945286,0.11211313397508048,0.2520414886214222,3,left
29.366999999999997,0.5190032342625597,1.0472540779878914,-0.24799496257532125,1.6382085514588396,3.3727901330712453,-1.4999949139598299,-0.025876780531891155,0.11478620820218881,0.24916386201516258,3,left
29.366999999999997,0.5191150924250761,1.0447593235580492,-0.24684047351541508,1.645865930068988,3.3630022146000442,-1.49881055849164,-0.027882068240797586,0.11739425728575449,0.2461675701484208,3,left
29.368000000000002,0.5192725106827406,1.0422926685460023,-0.2456962741880316,1.6532560748652791,3.3535776806185362,-1.4977456408701013,-0.029921356929452823,0.11993929780388594,0.24306435723196856,3,left
29.386,0.5194735401714887,1.0398580542100941,-0.24456397332862206,1.6603577334442556,3.34453023823629,-1.4968084208441093,-0.031995033401231304,0.1224235519439165,0.2398663474512199,3,left
29.443,0.5197160408711611,1.037459347292135,-0.24344522181718134,1.6671466009960665,3.3358740664726745,-1.4960077256336552,-0.034103576070281874,0.12484941304787257,0.2365859485244389,3,left
29.444000000000003,0.5199977084532815,1.0351003225205293,-0.24234170901839416,1.6735954659400556,3.327623749941073,-1.49535291224022,-0.03624754049132732,0.1272194083067358,0.23323574660940352,3,left
29.445,0.5203161029844813,1.032784644363869,-0.24125515845301967,1.6796743977644442,3.3197941968469156,-1.494853820445484,-0.038427543009033366,0.1295361586106408,0.22982839254936563,3,left
29.445999999999998,0.5206686785884966,1.0305158488565547,-0.24018732262609413,1.6853509750622995,3.3124005350818946,-1.494520718135328,-0.040644242533005616,0.1318023355619828,0.22637647944891018,3,left
29.447,0.5210528129069857,1.0282973261212527,-0.2391399768452818,1.690590552261812,3.30545798174608,-1.4943642401767048,-0.04289832045715205,0.13402061579772054,0.22289241171659946,3,left
29.502,0.5214658351481758,1.0261323042157038,-0.23811491195068085,1.6953565637980297,3.2989816848367846,-1.4943953212467345,-0.04519045880513809,0.13619363346436286,0.21938826644353504,3,left
29.504,0.5219050518110885,1.024023834898034,-0.23711392597261824,1.69961086166849,3.292986540488178,-1.4946251221489784,-0.04752131682097125,0.13832393287046504,0.21587564954204266,3,left
29.505,0.5223677696552952,1.021974781684772,-0.23613881476503795,1.7033140764566668,3.2874869950288588,-1.495064948251294,-0.04989150640679459,0.14041392366989386,0.21236555098528784,3,left
29.505,0.5228513159149316,1.0199878103709987,-0.23519136168838314,1.7064259885954178,3.2824968442216327,-1.4957261582251455,-0.05230156696327939,0.14246583956781506,0.20886820488787092,3,left
29.506,0.5233530561486774,1.018065382128067,-0.2342733265336603,1.7089058999515148,3.2780290389554403,-1.4966200617218754,-0.054751940194972724,0.14448169991720744,0.2053929600333671,3,left
29.581,0.5238704104908027,1.0162097492609925,-0.23338643406622148,1.7107130017234493,3.2740955013798287,-1.4977578057144767,-0.057242945260133904,0.14646327324502154,0.2019481645380857,3,left
29.581999999999997,0.5244008692168893,1.014422953585593,-0.2325323626788614,1.7118067377237325,3.2707069538347686,-1.499150251055684,-0.0597747544589091,0.14841204234927394,0.19854106614588968,3,left
29.583000000000002,0.5249420083405354,1.0127068272648512,-0.23171273357748698,1.7121471623638036,3.2678727649329025,-1.5008078433547494,-0.06234736974809352,0.15032917136673252,0.1951777288833268,3,left
29.584,0.5254915056029886,1.0110629958834476,-0.2309291007568701,1.7116952924281004,3.2656008186094776,-1.5027404836425562,-0.064960600732636,0.15221547598593432,0.1918629673210936,3,left
29.585,0.526047156916042,1.00949288343837,-0.2301829418884177,1.7104134519514247,3.2638974105001552,-1.504957402928867,-0.06761404499849058,0.1540713983698634,0.18860030010659143,3,left
29.586,0.5266068930625494,1.0079977187515126,-0.22947565011689927,1.7082656099249336,3.262767173386523,-1.5074670422963972,-0.07030707143720372,0.1558969879628439,0.18539192401382332,3,left
29.639,0.5271687962344287,1.0065785426828902,-0.2288085265817791,1.7052177106128585,3.2622130316563935,-1.5102769388538368,-0.07303880682694276,0.1576918886546859,0.18223870900347755,3,left
29.64,0.5277311159134691,1.0052362155271946,-0.22818277332672127,1.7012379954526435,3.2622361827475945,-1.5133936178136218,-0.07580812570108955,0.1594553323064193,0.17914021429631297,3,left
29.641,0.5282922836971068,1.0039714241128104,-0.2275994862653533,1.6962973139733961,3.2628361005059956,-1.5168224913501915,-0.07861364339594958,0.16118613816926278,0.1760947250231681,3,left
29.642,0.5288509267358635,1.0027846883223095,-0.22705964800159514,1.690369420312009,3.264010553701481,-1.5205677651115175,-0.08145371199496128,0.16288271701798918,0.17309930837387766,3,left
29.642,0.52940587934678,1.0016763669130893,-0.22656412047964525,1.683431252756588,3.2657556346359127,-1.5246323530413841,-0.08432641879007781,0.16454307842509405,0.17014988781131624,3,left
29.715999999999998,0.5299561923181458,1.0006466626098947,-0.22611363769947188,1.6754631952793926,3.2680657958184,-1.5290178007816924,-0.08722958694824244,0.1661648400562225,0.1672413340101313,3,left
29.717,0.530501139664875,0.9996956265026921,-0.2257087990372321,1.6664493205540618,3.270933894243141,-1.5337242177539216,-0.09016077809688144,0.1677452388750012,0.16436757050593467,3,left
29.718000000000004,0.5310402229166045,0.9988231618195405,-0.2253500638124782,1.6563776125318006,3.274351242492649,-1.5387502182022557,-0.0931172963721818,0.16928114507529293,0.16152169002983943,3,left
29.718000000000004,0.5315731730609179,0.9980290271982408,-0.2250377475617257,1.6452401637902296,3.278307664717534,-1.5440928718880427,-0.09609619334499939,0.17076907993510781,0.15869607625946014,3,left
29.718000000000004,0.5320999500509798,0.997312839758528,-0.2247720202303775,1.6330333412778133,3.2827915548937887,-1.5497476653518578,-0.0990942733876961,0.17220523848889013,0.1558825270327202,3,left
29.718000000000004,0.5326207396263773,0.996674078576573,-0.2245529063254297,1.619757915661542,3.2877899354119045,-1.5557084744346692,-0.1021080993123462,0.17358551737945993,0.1530723774381207,3,left
29.775,0.5331359472689756,0.9961120893999894,-0.2243802869406182,1.6054191524192636,3.2932885156109535,-1.5619675484949425,-0.10513399825918773,0.17490554795335483,0.1502566225103101,3,left
29.776999999999997,0.5336461893194936,0.9956260914265376,-0.22425390348105867,1.5900268647965352,3.2992717524438966,-1.5685155072870456,-0.10816806786691119,0.17616073452772285,0.1474260393446726,3,left
29.778000000000002,0.5341522813783269,0.9952151865901284,-0.22417336285665293,1.5735954297711006,3.305722919047897,-1.5753413527780478,-0.11120618287135321,0.17734629737692703,0.1445713075537545,3,left
29.778000000000002,0.5346552240742892,0.994878370858285,-0.22413814367094514,1.5561437685588007,3.312624188914673,-1.5824324989341936,-0.1142440024860751,0.17845731930315628,0.14168312538470113,3,left
29.779,0.5351561864776916,0.9946145458146013,-0.2241476025594699,1.5376952927979606,3.31995674143748,-1.589774821755828,-0.11727697903326027,0.17948879427532127,0.1387523179259262,3,left
29.855999999999998,0.5356564881536774,0.9944225286784651,-0.22420098001665353,1.5182778173002505,3.32770089040667,-1.5973527301033497,-0.12030036817844454,0.18043567700014268,0.1357699347220736,3,left
29.858,0.5361575815668934,0.9943010606462142,-0.22429740603556095,1.4979234421726546,3.3358362313554824,-1.6051492551992255,-0.1233092409134699,0.18129293294044516,0.1327273357867028,3,left
29.858,0.5366610363073026,0.9942488151439437,-0.22443590663698443,1.4766684111975579,3.3443417965219493,-1.6131461531121785,-0.12629849730588527,0.18205558851341136,0.12961626622709363,3,left
29.859,0.5371685252072899,0.9942644072641788,-0.22461541202824906,1.4545529556684906,3.3531962024422044,-1.6213240126253574,-0.1292628819898039,0.18271878098592345,0.12642892047512366,3,left
29.86,0.5376818108491815,0.9943464043756313,-0.22483476626557347,1.431621130563075,3.362377778943365,-1.6296623627959002,-0.13219700136196352,0.18327780742200148,0.12315799745217816,3,left
29.86,0.5382027306521172,0.9944933376392532,-0.22509273776125957,1.40792064576818,3.371864675058308,-1.6381397779428455,-0.1350953424579008,0.1837281721989376,0.11979674766167822,3,left
29.913,0.5387331797727385,0.9947037143943263,-0.22538802985392056,1.3835026924423757,3.381634941626158,-1.6467339797599994,-0.13795229350327837,0.1840656328997883,0.11633901260107048,3,left
29.915,0.5392750919570312,0.9949760307749922,-0.22571929075302669,1.35842176256511,3.39166659353752,-1.6554219369026018,-0.1407621661465368,0.18428624455144887,0.11277925655070314,3,left
29.916,0.5398304184746541,0.9953087834940694,-0.22608512247041407,1.3327354568926362,3.40193765898339,-1.6641799628844252,-0.14351921935084735,0.18438640220146163,0.10911259084790775,3,left
29.916999999999998,0.540401105020701,0.9957004806799477,-0.2264840886851996,1.306504274967987,3.4124262255114073,-1.672983813393059,-0.14621768477152766,0.1843628817857177,0.10533479134427315,3,left
29.918000000000003,0.5409890664812278,0.9961496525984979,-0.22691472157490655,1.279791382401074,3.4231104902499485,-1.6818087838606186,-0.14885179317189853,0.18421287916567752,0.10144231080570308,3,left
29.99,0.5415961596613237,0.9966548625728044,-0.22737552753699844,1.2526623534604497,3.4339688172622274,-1.6906298076399198,-0.15141580127871482,0.18393404717272213,0.09743228860448594,3,left
29.991999999999997,0.5422241543813,0.9972147173298627,-0.22786499168547478,1.2251848885873777,3.444979802549249,-1.699421554865511,-0.1539040186298283,0.18352453053756007,0.0933025594623449,3,left
29.993000000000002,0.5428747036579405,0.9978278756997125,-0.2283815811186144,1.197428506755615,3.456122346732276,-1.7081585320248613,-0.15631083423960498,0.18298299865545345,0.08905166194121164,3,left
29.994,0.5435493139159095,0.9984930549709088,-0.2289237471131022,1.169464212599117,3.4673757354459505,-1.7168151822649937,-0.15863074306144526,0.18230867610936158,0.08467884680962963,3,left
29.994,0.5442493162966654,0.9992090346380877,-0.22948992654217062,1.1413641382288813,3.4787197274736625,-1.7253659864597573,-0.16085837226854766,0.18150137053604104,0.0801840854015745,3,left
29.995,0.5449758400535606,0.9999746576004441,-0.23007854291820498,1.1132011598238778,3.4901346504993427,-1.7337855648967122,-0.16298850739482998,0.18056149679909186,0.07556807827711158,3,left
30.049,0.5457297887183914,1.0007888291097082,-0.23068800747753185,1.0850484899031072,3.501601503561283,-1.7420487786119532,-0.1650161183678777,0.1794900960979072,0.07083226455517898,3,left
30.05,0.5465118193904134,1.0016505138426213,-0.2313167206444055,1.0569792482238232,3.513102063620019,-1.7501308279951024,-0.16693638534653113,0.17828884903675635,0.06597883195124826,3,left
30.051,0.5473223252896504,1.0025587313793631,-0.23196307408193528,1.0290660178613138,3.5246189915945485,-1.7580073459004988,-0.16874472406125404,0.17696008239002314,0.06101072694533175,3,left
30.052,0.5481614216114807,1.0035125503006328,-0.2326254534621414,1.0013803972211215,3.5361359317259304,-1.7656544841308026,-0.17043681023613783,0.17550676969489773,0.05593166416827529,3,left
30.052,0.5490289346640178,1.0045110812409743,-0.23330224211778378,0.9739925600418503,3.547637598278364,-1.7730489940980159,-0.17200860277607705,0.17393252582057786,0.050746134302473066,3,left
30.122,0.5499243942743197,1.0055534694494257,-0.23399182572898114,0.9469708318366215,3.5591098456458687,-1.7801683028521458,-0.17345636559551425,0.17224159557116922,0.045459410206769295,3,left
30.124000000000002,0.5508470295784059,1.0066388874716246,-0.23469259796751515,0.920381286039221,3.5705397203747493,-1.786990585032923,-0.174776688072141,0.1704388363282847,0.04007755120497061,3,left
30.125,0.5517957684638768,1.007766528398602,-0.23540296670439487,0.8942873603339775,3.581915494881051,-1.7934948308546874,-0.17596650413006262,0.16852969472882942,0.03460740552308393,3,left
30.125999999999998,0.5527692407477499,1.0089355998539251,-0.23612136031518022,0.8687494933957718,3.593226683234386,-1.7996609103189627,-0.17702310995657852,0.16652017737312416,0.029056610860105306,3,left
30.127,0.5537657845859264,1.010145318677067,-0.23684623383643427,0.8438247837872467,3.6044640410716835,-1.805469634719024,-0.17794418035636417,0.1644168155581999,0.023433593076914082,3,left
30.128,0.5547834552070597,1.0113949061312668,-0.23757607494872884,0.8195666754966722,3.6156195547503898,-1.8109028180669455,-0.17872778374073064,0.16222662412120725,0.017747562814833348,3,left
30.184,0.5558200352397821,1.012683583357033,-0.23830940980863707,0.7960246760532587,3.6266864264493086,-1.8159433417064237,-0.17937239572057312,0.15995705492967052,0.012008508991482553,3,left
30.186,0.5568730463169922,1.01401056674938,-0.23904480871225423,0.7732441113006128,3.6376590597656837,-1.820575223318761,-0.17987691119776975,0.15761594631381745,0.006227186584941576,3,left
30.186999999999998,0.5579397619110983,1.0153750630162983,-0.239780891569483,0.7512659175668054,3.6485330464699572,-1.82478368782954,-0.18024065471155282,0.15521146991322443,0.0004150953447048032,3,left
30.186999999999998,0.5590172215789095,1.0167762637513669,-0.24051633322633786,0.7301264701137199,3.6593051529200067,-1.8285552356675028,-0.18046338862816202,0.15275207546304376,-0.005415552904122479,3,left
30.188000000000002,0.5601022471496776,1.0182133392413437,-0.24124986873969662,0.7098574467850615,3.669973304765031,-1.8318777048361303,-0.18054531870415363,0.15024643295632467,-0.011251879051039373,3,left
30.206,0.5611914616762933,1.0196854309487322,-0.24198029866825382,0.6904857263838632,3.6805365694097913,-1.8347403253888663,-0.18048709669118215,0.1477033714415016,-0.01708039350015586,3,left
30.253,0.5622813117994546,1.021191641979268,-0.24270649422892493,0.6720333216511437,3.6909951361767193,-1.8371337660819407,-0.18028981985189746,0.14513181411822215,-0.022887064887099923,3,left
30.255,0.5633680934767642,1.0227310252402027,-0.24342740189841058,0.6545173467875482,3.7013502941965415,-1.8390501732143132,-0.17995502736536198,0.14254070966937235,-0.028657400711293694,3,left
30.263,0.5644479802142099,1.024302569739726,-0.24414204689812244,0.6379500194623692,3.7116044080577666,-1.8404832016629433,-0.17948469363076822,0.13993896003216685,-0.03437653982005074,3,left
30.264,0.5655170525375746,1.0259051858937405,-0.24484953505226462,0.6223386972569755,3.7217608912450757,-1.8414280381202444,-0.1788812185225693,0.13733534586185925,-0.04002935627957541,3,left
30.265,0.5665713275537804,1.027537690602939,-0.24554905270799846,0.6076859486870345,3.731824176915279,-1.8418814166287014,-0.17814741473025275,0.13473845283295718,-0.04560057344548668,3,left
30.322,0.5676067877147244,1.0291987927016488,-0.24623986464903186,0.5939896599240111,3.741799683153712,-1.8418416269537048,-0.17728649236032842,0.13215660297356557,-0.05107488664403389,3,left
30.324,0.5686194081071951,1.0308870794116407,-0.24692131011009327,0.5812431800912605,3.751693765523802,-1.841308517139652,-0.176302040932992,0.12959779417770576,-0.056437093276288215,3,left
30.326,0.5696051819031688,1.032601004523093,-0.24759279710916576,0.5694355089861562,3.761513647316763,-1.8402834920404263,-0.17519800882503755,0.12706964914909197,-0.06167222987971286,3,left
30.326,0.5705601440523179,1.0343388790432295,-0.24825379543670864,0.5585515301090492,3.771267320313634,-1.8387695091664853,-0.17397868017471035,0.12457937384852208,-0.06676571582549254,3,left
30.326999999999998,0.5714803936445638,1.0360988649353249,-0.24890382874505337,0.5485722894800505,3.780963413677492,-1.8367710721273898,-0.1726486493009449,0.12213372465396513,-0.07170350212468662,3,left
30.388,0.5723621154263816,1.0378789723227273,-0.2495424661540868,0.5394753165017686,3.790611033378845,-1.8342942202168138,-0.1712127927719858,0.11973898226714123,-0.07647222150244415,3,left
30.389,0.5732016008493882,1.039677060254237,-0.25016931368459766,0.5312349770802182,3.8002195793219653,-1.831346510286934,-0.16967623930411332,0.11740092974751115,-0.08105933461385656,3,left
30.39,0.5739952690372543,1.041490840860455,-0.2507840058298378,0.5238228459665494,3.8097985497196385,-1.827936985774779,-0.16804433762482285,0.11512483270770604,-0.08545326855983504,3,left
30.398000000000003,0.5747396881739502,1.0433178864730337,-0.25138619767742476,0.5172080885369333,3.8193573398837732,-1.8240761290246708,-0.16632262241392556,0.1129154209136255,-0.08964354602211734,3,left
30.398000000000003,0.575431597778805,1.045155639121065,-0.25197555800527444,0.5113578480842779,3.8289050383153755,-1.8197757953588036,-0.16451677870127296,0.11077687135397145,-0.09362090385994944,3,left
30.399,0.5760679320454122,1.0470014218352852,-0.25255176362240905,0.5062376376665848,3.8384502211851443,-1.8150491288349326,-0.16263260565116755,0.10871279327786423,-0.09737739889715163,3,left
30.455,0.5766458440788661,1.0488524512917514,-0.2531144950262448,0.5018117347924772,3.8480007487585746,-1.8099104609120777,-0.16067598097484348,0.10672621586776905,-0.10090649786639902,3,left
30.456999999999997,0.5771627306818737,1.0507058513798575,-0.2536634332858998,0.4980435746760207,3.8575635726090236,-1.8043751950918496,-0.15865282690057966,0.10481957904677153,-0.10420314923823491,3,left
30.458000000000002,0.5776162572405124,1.0525586672489637,-0.25419825787904565,0.49489613637806096,3.867144565400874,-1.7984596816284193,-0.15656907806994097,0.10299472761634959,-0.10726383603203847,3,left
30.459,0.5780043819296196,1.0544078793363336,-0.2547186449732144,0.49233231757028934,3.8767483820862485,-1.7921810853723332,-0.15443065142424342,0.10125290879628801,-0.11008660944999527,3,left
30.46,0.5783253779176432,1.0562504169229703,-0.25522426548616906,0.49031529633426957,3.8863783558731715,-1.7855572482844466,-0.15224341811977393,0.09959477342328281,-0.11267110324261995,3,left
30.521,0.5785778520952315,1.0580831709400427,-0.2557147823606576,0.48880888044412535,3.8960364284043703,-1.7786065487293397,-0.1500131775766161,0.0980203814580465,-0.11501852856233499,3,left
30.523000000000003,0.5787607594429994,1.0599030059689816,-0.2561898468700226,0.48777784597849133,3.905723111234166,-1.7713477623327185,-0.14774563380271782,0.0965292126693123,-0.11713164897683476,3,left
30.524,0.5788734130598525,1.0617067715851605,-0.2566490943105196,0.4871882677265856,3.9154374747109175,-1.763799930787126,-0.14544637409775407,0.09512018314502499,-0.11901473539737759,3,left
30.537,0.5789154904029363,1.0634913134000914,-0.25709213989761287,0.48700784268964,3.9251771609969563,-1.7559822431637178,-0.14312085017472098,0.09379166788821458,-0.12067350082784156,3,left
30.539,0.5788870361737868,1.0652534843091213,-0.25751857578311743,0.48720620413142307,3.9349384179438593,-1.7479139302813713,-0.1407743616887769,0.09254152942330661,-0.12211501514919314,3,left
30.539,0.5787884618748794,1.0669901564501345,-0.25792796981753846,0.48775521808850275,3.9447161483201496,-1.7396141690593832,-0.13841204209851915,0.09136715172703744,-0.12334760129712087,3,left
30.587,0.5786205419285727,1.0686982342780247,-0.2583198662955215,0.4886292513914983,3.954503967306325,-1.7311019923349693,-0.1360388466824809,0.09026547777570233,-0.12438071621844018,3,left
30.588,0.5783844065081173,1.0703746690690186,-0.25869378866661036,0.4898054029867052,3.96429426295045,-1.7223962007501536,-0.13365954247672363,0.08923304843253785,-0.1252248211181965,3,left
30.594,0.5780815315257886,1.072016474771402,-0.25904924396644224,0.49126369527516534,3.9740782574784577,-1.7135152753353373,-0.13127869995620328,0.08826604096740684,-0.12589124438185342,3,left
30.595,0.5777137263415824,1.0736207439898402,-0.25938572833580736,0.4929872249242359,3.9838460691316158,-1.7044772905403145,-0.12890068637479424,0.08736030658378847,-0.12639203877327676,3,left
30.595,0.5772831198036339,1.0751846616360003,-0.25970273257543874,0.4949622731689557,3.9935867747688745,-1.6952998280029905,-0.12652966068523286,0.08651140719619804,-0.12673983460869057,3,left
30.655,0.5767921453142283,1.0767055137954047,-0.25999974670269954,0.49717837569114826,4.003288474519846,-1.685999892921674,-0.12416956988079356,0.0857146523545724,-0.12694769258939267,3,left
30.656,0.576243525688905,1.0781806910714329,-0.26027626314452307,0.4996283522906456,4.012938361660608,-1.6765938377333793,-0.12182414655006532,0.08496513751210652,-0.12702896120249163,3,left
30.656999999999996,0.5756402583084621,1.0796076877665526,-0.26053177898221697,0.5023082966335672,4.02252280193251,-1.667097299376293,-0.1194969074866688,0.08425778453341527,-0.12699714237153886,3,left
30.673000000000002,0.5749856001269427,1.0809840991993822,-0.2607657979339645,0.5052175267863667,4.032027425055615,-1.6575251546361642,-0.1171911532865992,0.08358738480044983,-0.12686576683002132,3,left
30.674,0.5742830512015584,1.0823076192918368,-0.26097783273757663,0.5083584995838495,4.041437227199914,-1.6478914942294498,-0.11490996893975107,0.08294864491368614,-0.12664827949443658,3,left
30.675,0.5735363356184089,1.0835760402023922,-0.2611674086360873,0.5117366962462975,4.050736678345859,-1.6382096128823573,-0.11265622554920794,0.08233623462490088,-0.12635793502331108,3,left
30.72,0.5727493796424167,1.084787255205847,-0.26133406837253664,0.5153604891120274,4.059909826154072,-1.6284920113398882,-0.11043258352233255,0.08174483609549463,-0.12600770402786898,3,left
30.721,0.571926287514108,1.0859392648840291,-0.26147737829089207,0.5192409968878917,4.068940390065678,-1.6187504072484045,-0.10824149769464812,0.08116919327304496,-0.1256101905551634,3,left
30.733,0.571071315285783,1.0870301855696134,-0.2615969345570948,0.5233919313848346,4.077811843137714,-1.608995753672407,-0.10608522470111467,0.0806041604724277,-0.12517756119586454,3,left
30.734,0.5701888429165783,1.0880582588041874,-0.26169236869926693,0.5278294362418345,4.086507481219548,-1.5992382650157064,-0.10396583255119823,0.0800447497514283,-0.12472148532381523,3,left
30.734,0.5692833448217759,1.0890218612440021,-0.2617633522116635,0.5325719174595864,4.095010480031082,-1.5894874502953815,-0.1018852119811173,0.07948617690208783,-0.12425308480147502,3,left
30.787,0.5683593589757516,1.0899195149166332,-0.26180960026619005,0.5376398646169332,4.103303943377275,-1.5797521535986516,-0.09984508898547312,0.0789239059003937,-0.12378289088892494,3,left
30.789,0.5674214544177326,1.0907498975761787,-0.2618308745809488,0.5430556599354615,4.111370950546667,-1.5700406013399535,-0.09784703807847675,0.07835369169588098,-0.12332080665931336,3,left
30.808000000000003,0.5664741969470201,1.0915118526072733,-0.26182698546011257,0.5488433714094316,4.119194613615272,-1.560360455817312,-0.09589249610131857,0.07777162129280266,-0.12287607424108696,3,left
30.81,0.5655221131139962,1.092204397759672,-0.2617977930373339,0.5550285271682774,4.1267581527023784,-1.5507188746853573,-0.0939827765402425,0.07717415311345723,-0.1224572467726219,3,left
30.81,0.564569653123094,1.092826731904386,-0.26174320779153437,0.5616378699483354,4.134044992410481,-1.541122576175234,-0.09211908432328941,0.07655815463014078,-0.12207216499375025,3,left
30.811,0.5636211536193625,1.0933782390306235,-0.26166319043036523,0.5686990914732667,4.141038879624176,-1.531577909795319,-0.09030253093230385,0.07592093819272837,-0.12172793802773862,3,left
30.853,0.5626808013099699,1.0938584889174918,-0.2615577512399566,0.5762405465966325,4.1477240203949854,-1.5220909311972075,-0.08853414943023558,0.07526029487187258,-0.12143092723957283,3,left
30.854,0.5617525981075799,1.0942672343173907,-0.2614269490091895,0.5842909468147541,4.154085230196179,-1.5126674779597782,-0.08681490887240526,0.07457452607832513,-0.12118673168551107,3,left
30.868000000000002,0.5608403282824354,1.0946044050357284,-0.2612708897048628,0.5928790329173562,4.16010808959874,-1.5033132419780202,-0.08514572770203313,0.07386247277825726,-0.12100017403997095,3,left
30.869,0.5599475280123362,1.0948700997870138,-0.26108972516332835,0.60203322815701,4.165779097731916,-1.4940338352514062,-0.08352748598444913,0.07312354213198763,-0.12087528655866694,3,left
30.87,0.5590774575711224,1.0950645768209981,-0.26088365206648206,0.6117812762217141,4.171085816454623,-1.4848348478610618,-0.08196103655249017,0.07235773094601439,-0.12081529703276196,3,left
30.921,0.558233076222886,1.0951882440118137,-0.26065291138387553,0.6221498699086355,4.176016998476222,-1.4757218980331,-0.08044721531764522,0.07156564444569267,-0.12082261480763572,3,left
30.923000000000002,0.5574170198236559,1.0952416487719534,-0.2603977883810186,0.6331642749508807,4.180562694645664,-1.4667006743656377,-0.07898685108810681,0.07074850837895184,-0.12089881696475813,3,left
30.947,0.5566315812570859,1.095225468067735,-0.2601186132120713,0.6448479513090283,4.184714338752042,-1.4577769703817816,-0.07758077514858448,0.06990817295824173,-0.12104463474063056,3,left
30.949,0.5558786941226972,1.0951404988832216,-0.25981576198014056,0.6572221753330905,4.188464811011086,-1.448956712271563,-0.07622983067731905,0.0690471081305584,-0.12125994032611487,3,left
30.949,0.5551599203107596,1.094987649494982,-0.2594896580460736,0.6703056705285722,4.191808483951133,-1.4402459820024374,-0.07493488186965894,0.06816839060403947,-0.12154373473317402,3,left
30.95,0.5544764420239537,1.094767931784598,-0.2591407734011585,0.6841142572295413,4.194741255644519,-1.431651038713422,-0.07369682240482268,0.06727568395424018,-0.12189413843409588,3,left
30.987,0.5538290584677308,1.094482454607046,-0.25876963001784337,0.6986605289162794,4.197260573995626,-1.4231783405730638,-0.07251658277285038,0.0663732135749826,-0.1223083870466879,3,left
30.989,0.5532181868548054,1.0941324180627876,-0.25837680113339756,0.713953558295919,4.199365453575417,-1.4148345679584309,-0.07139513609868738,0.06546573779678132,-0.12278283377090643,3,left
31.006,0.5526438667899009,1.093719108394676,-0.2579629124114833,0.7299986336992333,4.201056485257564,-1.4066266480774892,-0.07033350232473291,0.06455851565825527,-0.12331295933928632,3,left
31.006999999999998,0.5521057670890239,1.0932438931366573,-0.25752864294552125,0.7467970258353807,4.202335838663402,-1.3985617810105397,-0.0693327507762455,0.0636572711628557,-0.12389339007301307,3,left
31.008000000000003,0.5516031947315974,1.0927082161314043,-0.25707472613884336,0.7643457852581588,4.203207257587775,-1.3906474670280748,-0.06839400123572593,0.06276815338467466,-0.12451792523753502,3,left
31.054000000000002,0.551135106324432,1.0921135920911038,-0.2566019505660891,0.7826375724475179,4.203676049406707,-1.3828915344493833,-0.06751842369568437,0.06189769157588723,-0.1251795752892844,3,left
31.055999999999997,0.5507001226963743,1.0914616003358684,-0.25611116090707997,0.8016605251987163,4.203749070960782,-1.3753021662384914,-0.06670723691625907,0.06105274463961203,-0.1258706122077053,3,left
31.083000000000002,0.5502965471051373,1.0907538771090024,-0.25560325889128616,0.8213981693085738,4.203434713970885,-1.3678879229593879,-0.06596170583672907,0.060240444712193704,-0.12658263239138498,3,left
31.085,0.5499223872765793,1.0899921056955915,-0.2550792039617553,0.8418293757367605,4.202742890881251,-1.3606577603981271,-0.06528313784703041,0.05946813481017917,-0.12730663219967517,3,left
31.086,0.5495753811898338,1.0891780039156773,-0.2545400132634102,0.8629283623576005,4.201685018134637,-1.3536210413932377,-0.06467287790236939,0.05874330070077168,-0.1280330960726413,3,left
31.089000000000002,0.5492530261523674,1.0883133093816135,-0.25398676066804393,0.8846647356062677,4.20027399172272,-1.3467875421015476,-0.06413230239131926,0.05807349796062265,-0.12875209681658764,3,left
31.12,0.5489526104063457,1.0873997634955335,-0.2534205746888309,0.9070035682812237,4.198524151018262,-1.3401674529539895,-0.06366281153676685,0.05746627663870264,-0.1294534070202734,3,left
31.143,0.5486712463360882,1.0864390951178347,-0.25284263516119937,0.9299055120447289,4.196451229289427,-1.3337713743913184,-0.0632658200363768,0.05692910674511076,-0.13012662022129196,3,left
31.145,0.5484059041617387,1.08543300458383,-0.2522541685601046,0.9533269444306733,4.194072290626125,-1.3276103073784864,-0.06294274573211263,0.05646930699387456,-0.1307612806013849,3,left
31.146,0.54815344486381,1.0843831486900992,-0.2516564418803718,0.9772201504238192,4.191405653273391,-1.3216956386786776,-0.06269499627865205,0.05609397783728644,-0.1313470196799353,3,left
31.147,0.5479106512804335,1.0832911272989958,-0.2510507550888923,1.0015335386604347,4.188470799252471,-1.3160391207451618,-0.062523953941624,0.05580993913168675,-0.13187369714349986,3,left
31.186999999999998,0.5476742568512384,1.082158472160266,-0.2504384322299887,1.0262118922232142,4.1852882695823554,-1.3106528454723458,-0.062430958720267715,0.05562367267371046,-0.13233154208661643,3,left
31.189,0.5474409720402228,1.0809866384337734,-0.24982081134733636,1.0511966538632875,4.1818795433929985,-1.3055492099366761,-0.0624172899404493,0.05554126978617506,-0.13271129187062547,3,left
31.206999999999997,0.5472075088957057,1.0797769992101858,-0.24919923349542772,1.076426245404755,4.178266898653628,-1.3007408716413407,-0.062484146376204655,0.05556838402490456,-0.1330043274840277,3,left
31.22,0.5469706044787771,1.0785308430453586,-0.2485750312371131,1.101836421166792,4.174473252805896,-1.2962406913969475,-0.06263262490932096,0.055710189017983545,-0.1332028052193456,3,left
31.221,0.5467270439236799,1.077249374191028,-0.24794951710432325,1.127360655380676,4.170521982611667,-1.2920616630825976,-0.06286369776548179,0.05597134138197948,-0.13329978445024768,3,left
31.221999999999998,0.5464736836818579,1.0759337149577353,-0.24732397247790258,1.152930562879532,4.166436723774767,-1.2882168301516603,-0.06317818855854201,0.05635594838379867,-0.13328935020588056,3,left
31.253,0.5462074752103812,1.0745849096327913,-0.24669963722365068,1.17847634846064,4.162241154424239,-1.28471918887889,-0.06357674772179069,0.05686753952003399,-0.13316672728326465,3,left
31.278000000000002,0.5459254891086407,1.0732039295230136,-0.24607770028721357,1.2039272734390691,4.157958772776161,-1.2815815786569742,-0.06405982809810638,0.05750904090981782,-0.13292838155175232,3,left
31.28,0.5456249395014124,1.0717916787838426,-0.24545929138344538,1.2292121246578152,4.153612683118123,-1.2788165611407027,-0.06462766130541579,0.05828275176331786,-0.13257210514455478,3,left
31.28,0.5453032083773084,1.0703490007133314,-0.24484547388779832,1.2542596762665565,4.149225401586468,-1.276436292696127,-0.0652802353324303,0.05919032313343441,-0.13209708396157013,3,left
31.281,0.5449578696582261,1.0688766842246673,-0.2442372389363761,1.2789991422308329,4.144818687470685,-1.274452396080002,-0.0660172739607541,0.06023274024107597,-0.13150394658669243,3,left
31.319000000000003,0.5445867128172617,1.0673754702180813,-0.24363550051637695,1.303360620786686,4.140413401951741,-1.2728758357867416,-0.06683821875651944,0.06141031016792696,-0.13079479371348535,3,left
31.320999999999998,0.5441877656193111,1.065846057541792,-0.24304109109410865,1.3272755316811162,4.136029394756267,-1.2717167988334943,-0.06774221418956619,0.0627226562630833,-0.12997320739903978,3,left
31.358,0.5437593151214627,1.0642891083147494,-0.24245475732591387,1.350677046123084,4.131685418368825,-1.2709845812915095,-0.06872809610473944,0.06416871980405732,-0.1290442398727884,3,left
31.36,0.5432999259360018,1.06270525261405,-0.24187715572838395,1.3735005078691618,4.127399067224185,-1.2706874806649093,-0.06979438358473754,0.06574676900511837,-0.1280143818529932,3,left
31.36,0.5428084551895453,1.061095092723075,-0.2413088486321258,1.3956838413980837,4.123186735453443,-1.2708326943776287,-0.07093927417954485,0.06745441528342269,-0.12689151050774528,3,left
31.361,0.5422840642150685,1.0594592071837563,-0.24075030102655773,1.4171679417555212,4.119063584620031,-1.2714262247185233,-0.07216064233991647,0.06928863622719571,-0.12568481789295283,3,left
31.389,0.5417262272363318,1.0577981549059845,-0.2402018789171357,1.4378970420202033,4.115043515019729,-1.272472790507875,-0.0734560406445699,0.07124580387077853,-0.12440472195220167,3,left
31.416,0.541134737086231,1.0561124796858943,-0.2396638496041974,1.4578190564866134,4.11113913807232,-1.27397574572127,-0.07482270327316225,0.07332171641514786,-0.12306276285905175,3,left
31.416999999999998,0.5405097077571812,1.0544027156273597,-0.239136384004307,1.4768858974157404,4.10736174999662,-1.2759370058696538,-0.07625755131515206,0.07551163199945413,-0.12167148678615139,3,left
31.418000000000003,0.5398515736392591,1.0526693939931315,-0.23861956092485728,1.495053760573729,4.103721308335079,-1.2783569840873037,-0.07775719975289937,0.07781030396930434,-0.12024431793264748,3,left
31.418000000000003,0.5391610855392066,1.0509130518242924,-0.23811337307169705,1.512283373162766,4.10022641342042,-1.2812345395303346,-0.07931796607068013,0.08021201760582339,-0.11879541921223227,3,left
31.453000000000003,0.5384393037063524,1.049134242140323,-0.23761773440979148,1.5285401993592942,4.096884296351215,-1.2845669400401012,-0.0809358803456313,0.08271062863014372,-0.11733954319973972,3,left
31.495,0.5376875881916152,1.0473335446202103,-0.23713248828514571,1.543794601575822,4.093700814097064,-1.288349839857931,-0.08260669645468065,0.0852996042608396,-0.11589187733692484,3,left
31.496,0.5369075873813981,1.0455115751005475,-0.23665741568885543,1.5580219571731126,4.090680451828523,-1.2925772725293665,-0.08432590393947571,0.08797206778726013,-0.11446788886384686,3,left
31.496,0.536101226357488,1.0436689930957994,-0.23619224343491393,1.5712027306693903,4.087826332462204,-1.297241659007479,-0.08608874035090815,0.09072084700585929,-0.11308317426209241,3,left
31.497,0.5352706965376176,1.0418065081189878,-0.23573665245821923,1.5833225014903316,4.085140233411901,-1.3023338309661079,-0.08789020439793388,0.09353852575783844,-0.111753316771804,3,left
31.497,0.5344184461638934,1.039924885945669,-0.2352902864555833,1.5943719474966564,4.082622610534959,-1.3078430692839,-0.08972507050494596,0.09641749719052191,-0.11049375486438202,3,left
31.522,0.5335471693572998,1.038024955276551,-0.2348527610347063,1.60434678550305,4.0802726292529785,-1.3137571574049902,-0.0915879052507625,0.09935001767286931,-0.10931966363112527,3,left
31.553,0.5326597917287192,1.0361076150288178,-0.23442367362397568,1.6132476717629614,4.07808820280736,-1.3200624488220936,-0.09347308588159686,0.10232826094221177,-0.1082458498697062,3,left
31.555999999999997,0.5317594523775607,1.0341738425035245,-0.2340026141131787,1.621080066370679,4.076066037600087,-1.3267439476726919,-0.09537482091981472,0.10534437238330845,-0.10728666087291648,3,left
31.557,0.5308494833232975,1.032224701911923,-0.2335891755924885,1.6278540645490878,4.07420168558119,-1.3337854016964352,-0.09728717278588477,0.10839052323617696,-0.10645590617878575,3,left
31.557,0.5299333872076828,1.030261352067741,-0.23318296440024835,1.6335841963235165,4.072489603492922,-1.3411694071536848,-0.09920408221909457,0.11145896421135203,-0.10576679043512824,3,left
31.588,0.5290148134555569,1.0282850528280676,-0.23278360910551593,1.6382891965937696,4.070923217936599,-1.3488775250093628,-0.10111939420937376,0.11454207781470678,-0.10523185491727043,3,left
31.63,0.5280975327809854,1.0262971710789104,-0.232390768414713,1.641991750107783,4.069494993691553,-1.3568904067429584,-0.10302688519218593,0.11763242886098262,-0.10486292576010525,3,left
31.631,0.5271854098602807,1.0242991870557139,-0.23200413795783478,1.6447182173598471,4.068196502123744,-1.3651879274251364,-0.10492029122192695,0.12072281297464962,-0.10467106760933248,3,left
31.631999999999998,0.5262823739803434,1.0222927010251817,-0.23162345575461823,1.6464983460778917,4.067018488690686,-1.3737493234140596,-0.10679333660935332,0.12380630305605651,-0.1046665411783686,3,left
31.631999999999998,0.5253923875628407,1.0202794399402275,-0.23124850620322823,1.6473649705215558,4.065950942453439,-1.3825533315065417,-0.10863976235476126,0.12687629372765757,-0.10485876285778527,3,left
31.633000000000003,0.524519412677446,1.018261263563516,-0.23087912261675655,1.647353699454459,4.064983172675483,-1.391578326091701,-0.1104533538770329,0.12992654377362314,-0.10525626498766852,3,left
31.653000000000002,0.5236673759262908,1.0162401694107286,-0.23051518844643193,1.6465025932133028,4.0641038964460225,-1.4008024518075455,-0.11222796784179291,0.13295121658345507,-0.1058666562372739,3,left
31.689,0.5228401323526768,1.0142182958060864,-0.23015663731728078,1.6448518300433457,4.063301338901,-1.4102037507160805,-0.11395755808021797,0.13594491850784027,-0.10669658199477249,3,left
31.691,0.5220414292506758,1.012197922469579,-0.22980345195890023,1.6424433617281329,4.062563346301741,-1.4197602838545456,-0.11563620072332706,0.13890273453027932,-0.10775168473722008,3,left
31.691999999999997,0.5212748708534501,1.0101814683276444,-0.2294556621587266,1.6393205585111215,4.061877511968689,-1.429450247189231,-0.11725811885591628,0.1418202597501349,-0.10903656430495395,3,left
31.691999999999997,0.520543884822289,1.0081714866356546,-0.22911334202450018,1.6355278433106677,4.061231314679846,-1.4392520819124028,-0.11881770709386526,0.14469362466831182,-0.11055473797939468,3,left
31.709,0.519851691278525,1.0061706578653622,-0.22877660699735367,1.6311103152582915,4.06061226720352,-1.4491445785911383,-0.12030955638870344,0.1475195127710241,-0.11230860028973046,3,left
31.769000000000002,0.5192012748633849,1.0041817808956637,-0.22844561106402686,1.6261133626431763,4.060008069142716,-1.4591069738993676,-0.12172847915613695,0.1502951698630029,-0.11429938260895482,3,left
31.771,0.5185953600640539,1.002207762883355,-0.2281205445028634,1.6205822653745576,4.05940675632844,-1.4691190382325605,-0.12306953458747355,0.15301840534669162,-0.11652711306524074,3,left
31.772,0.5180363898912224,1.000251608085398,-0.2278016323924274,1.6145617877020426,4.058796840874168,-1.4791611530614284,-0.12432805373454675,0.1556875861784589,-0.11899057809066123,3,left
31.773000000000003,0.5175265079400869,0.9983164060033488,-0.22748913404268073,1.6080957651811132,4.0581674391698925,-1.4892143782815694,-0.1254996638206394,0.15830162447369078,-0.12168728736893339,3,left
31.774,0.5170675439532494,0.9964053193636039,-0.22718334339470292,1.60122669578608,4.057508386446966,-1.4992605113687372,-0.12658031136757616,0.1608599594915,-0.12461344350555227,3,left
31.787,0.5166610032115132,0.9945215724346,-0.2268845902316761,1.5939953483692122,4.0568103366066595,-1.5092821408583865,-0.1275662839771209,0.16336253429588615,-0.1277639169541733,3,left
31.825,0.516308060063264,0.9926684399730668,-0.22659324186560934,1.5864403983594981,4.0560648463316475,-1.5192626960457303,-0.12845423073747556,0.1658097671671606,-0.13113222642618053,3,left
31.826999999999998,0.516009555384208,0.9908492367886548,-0.2263097049606826,1.5785980946461682,4.055264443086911,-1.5291864936820838,-0.12924118122808276,0.16820251787965598,-0.13471052558023955,3,left
31.828000000000003,0.5157659971285791,0.9890673076862964,-0.22603442727615278,1.5705019582870823,4.054402676942768,-1.5390387818207438,-0.12992456305082078,0.17054204912458557,-0.1384895979718811,3,left
31.828000000000003,0.515577563043103,0.9873260174499594,-0.22576789922093163,1.5621825133467893,4.053474156536139,-1.5488057808979698,-0.130502217790488,0.17282998344731815,-0.14245886290078713,3,left
31.851999999999997,0.5154441051557741,0.9856287405062686,-0.22551065521253577,1.5536670518003661,4.052474571077349,-1.55847472241912,-0.13097241533209592,0.17506825597762055,-0.14660639413704857,3,left
31.903000000000002,0.5153651563420611,0.9839788499378868,-0.22526327495537682,1.5449794370613412,4.051400702946247,-1.5680338860318723,-0.13133386650703466,0.1772590630682619,-0.15091895232563196,3,left
31.905,0.51533993963373,0.9823797056172363,-0.22502638482406287,1.5361399507489075,4.050250435873934,-1.577472635551441,-0.13158573403263676,0.17940480696911718,-0.15538203117874252,3,left
31.906,0.5153673808881646,0.9808346413179643,-0.22480065950316153,1.5271651828426431,4.049022760065264,-1.5867814533152003,-0.13172764155360114,0.18150803715789768,-0.15997991726942754,3,left
31.906999999999996,0.5154461252032315,0.9793469505930474,-0.22458682389734788,1.5180679608600174,4.0477177716139945,-1.5959519712300236,-0.13175968030409854,0.18357138987054036,-0.16469576294242372,3,left
31.906999999999996,0.5155745572239488,0.9779198709740575,-0.22438565508490038,1.5088573136339685,4.046336663109585,-1.6049769970920857,-0.13168241274832723,0.1855975278864024,-0.1695116716932297,3,left
31.963,0.5157508251660483,0.9765565659975537,-0.22419798381996264,1.4995384677752817,4.044881704065717,-1.6138505356041335,-0.13149687271771202,0.18758908211104236,-0.17440879553222147,3,left
31.965,0.5159728678399393,0.9752601050655954,-0.22402469497333788,1.490112876478737,4.043356210939068,-1.6225678040162734,-0.13120456185195337,0.18954859557721326,-0.17936744414877784,3,left
31.965999999999998,0.5162384433706344,0.9740334418832653,-0.22386672643479189,1.4805782806465786,4.041764506734373,-1.6311252424161884,-0.13080744231155939,0.1914784699723437,-0.18436720585611985,3,left
31.965999999999998,0.5165451580553072,0.9728793925878431,-0.22372506627820798,1.4709288025251777,4.040111869897621,-1.6395205186328663,-0.13030792576133077,0.193380914698233,-0.18938708033089002,3,left
31.967,0.5168904940139954,0.9718006146387217,-0.22360074822521825,1.4611550731636564,4.038404470729139,-1.647752527410469,-0.12970885862957854,0.19525789855382955,-0.19440562302163525,3,left
31.986,0.517271834779882,0.970799587312207,-0.22349484553275648,1.4512443970066888,4.03664929090231,-1.6558213829559212,-0.12901350367563086,0.19711110455805103,-0.19940110040029094,3,left
32.04,0.5176864884997686,0.9698785943830788,-0.2234084634373965,1.4411809580465662,4.0348540202036,-1.6637284036563307,-0.12822551794842932,0.19894188919663883,-0.20435165397048924,3,left
32.042,0.5181317088673444,0.969039709431679,-0.2233427303556682,1.4309460708460437,4.033026926079315,-1.6714760880688835,-0.12734892724680671,0.2007512478031412,-0.2092354702463252,3,left
32.042,0.518604714277918,0.968284784184966,-0.22329878820846372,1.4205184769075119,4.031176694868137,-1.6790680817262864,-0.1263880971636861,0.20253978735787442,-0.2140309546153335,3,left
32.043,0.5191027058869502,0.9676154401831003,-0.22327778238496665,1.4098746815914143,4.0293122483079795,-1.6865091340488252,-0.12534770078604474,0.20430770710603205,-0.21871690799894683,3,left
32.043,0.5196228851838786,0.9670330638447715,-0.22328085184128457,1.398989319077534,4.0274425450311195,-1.6938050437096677,-0.12423268329619007,0.20605478639236452,-0.22327270462028692,3,left
32.1,0.5201624714942898,0.9665388047965286,-0.22330911968032838,1.3878355287032242,4.025576380001199,-1.7009625902410521,-0.12304822407769947,0.2077803779850397,-0.22767846698277933,3,left
32.102,0.5207187197114285,0.9661335771044021,-0.2233636844397635,1.3763853301710278,4.023722191605952,-1.7079894502271187,-0.12179969713118158,0.20948340458372655,-0.23191523285935714,3,left
32.103,0.521288938458722,0.9658180627984075,-0.22344561222954437,1.3646099926035782,4.021887880287951,-1.7148940974341,-0.12049263040276907,0.21116235678439102,-0.2359651103950587,3,left
32.104,0.5218705086159952,0.9655927169629659,-0.2235559296967176,1.3524803965818863,4.020080639356003,-1.7216856867867443,-0.11913266431974198,0.21281529190087814,-0.23981141967772737,3,left
32.105,0.5224609018411438,0.9654577737567098,-0.22369561759091774,1.3399673891702226,4.018306798379546,-1.728373922544889,-0.11772550990221059,0.21443983406144868,-0.24343881996538627,3,left
32.119,0.5230576986649542,0.9654132529296576,-0.2238656046142852,1.3270421321106969,4.0165716816069645,-1.7349689127023462,-0.11627690727735765,0.2160331769070393,-0.24683342117469675,3,left
32.178000000000004,0.5236586059092517,0.9654589665769369,-0.2240667612667467,1.3136764435607626,4.014879487152854,-1.7414810146892805,-0.11479258569933533,0.21759209065859245,-0.24998287776526176,3,left
32.18,0.5242614733495614,0.9655945259277239,-0.22429989341240616,1.2998431332549267,4.013233192912253,-1.7479206794069895,-0.11327822590386605,0.2191129347967492,-0.2528764636379672,3,left
32.181,0.5248643095906652,0.9658193479721419,-0.22456573529152918,1.2855163295808993,4.011634489835412,-1.7542982994581373,-0.11173942514251604,0.22059167638734606,-0.2555051275841623,3,left
32.181999999999995,0.5254652970060193,0.9661326617586558,-0.22486494177211525,1.270671796061999,4.010083737701988,-1.7606240647112408,-0.11018166499029172,0.22202391289554307,-0.25786152942577223,3,left
32.181999999999995,0.5260628053070132,0.9665335142254892,-0.22519807977741094,1.2552872352271414,4.008579938320835,-1.7669078263899651,-0.10861028197895699,0.22340489782657805,-0.25994005715447704,3,left
32.207,0.5266554031093336,0.9670207754283933,-0.22556561905875452,1.2393425790211796,4.007120723960078,-1.773158970040907,-0.10703044109421499,0.22472956794761187,-0.26173682530237413,3,left
32.208,0.5272418670799484,0.9675931430653811,-0.22596792285259953,1.2228202655785738,4.005702360637886,-1.7793862974539378,-0.10544711214931206,0.22599257159485994,-0.2632496546408342,3,left
32.245,0.5278211886526623,0.9682491463845287,-0.22640523930454998,1.2057055019447969,4.004319766048613,-1.7855979174329244,-0.10386504903339708,0.22718829798664725,-0.2644780332285047,3,left
32.247,0.5283925783503955,0.9689871498638793,-0.22687769457174425,1.1879865104715368,4.0029665407940005,-1.7918011447132114,-0.10228877183010894,0.2283109075461813,-0.2654230588136183,3,left
32.248000000000005,0.5289554675109628,0.9698053572859114,-0.227385288187419,1.1696547532679409,4.001635009600114,-1.7980024052398105,-0.10072255180185377,0.2293543632376591,-0.26608736259495075,3,left
32.248000000000005,0.5295095071781851,0.9707018168998116,-0.2279278908394676,1.1507051272317126,4.0003162680956965,-1.804207145418869,-0.09917039921376285,0.2303124629417172,-0.2664750146065048,3,left
32.306,0.530054564161817,0.9716744283293162,-0.2285052444245747,1.1311361241201634,3.9990002320869396,-1.8104197439756897,-0.09763605386397048,0.23117887300895876,-0.2665914122979051,3,left
32.308,0.5305907144590337,0.972720951643788,-0.22911696409805807,1.1109499538681311,3.997675689523638,-1.816643428231949,-0.09612297799361565,0.23194716333334378,-0.26644315623559006,3,left
32.308,0.5311182342472699,0.9738390181940071,-0.22976254177547598,1.0901526319461805,3.996330358744183,-1.8228802009907017,-0.09463435114264289,0.23261084439991933,-0.266037918156813,3,left
32.309,0.5316375887836309,0.975026141512518,-0.23044135011481495,1.0687540323284792,3.9949509580786113,-1.829130786435045,-0.09317306662489687,0.23316340664816793,-0.2653843052999687,3,left
32.31,0.532149420016755,0.976279726292693,-0.23115264613884132,1.0467679072315808,3.9935232906181604,-1.835394601349347,-0.09174172948056256,0.23359836230613965,-0.2644917228053111,3,left
32.384,0.5326545341972247,0.9775970754034811,-0.23189557476073086,1.0242118740520745,3.992032345672344,-1.8416697541973628,-0.0903426558521978,0.23390928974517783,-0.26337023577776103,3,left
32.385,0.5331538907128681,0.9789753972486195,-0.23266917350147073,1.0011073699593587,3.9904624166770697,-1.847953072105847,-0.08897787379620394,0.2340898801422984,-0.2620304342683688,3,left
32.385999999999996,0.533648592748684,0.9804118158690664,-0.23347237953533265,0.9774795766989499,3.9887972326298478,-1.8542401534391626,-0.08764912571913323,0.2341339856097706,-0.26048330537678427,3,left
32.387,0.5341398794396828,0.9819033843669259,-0.2343040392336947,0.9533573220879075,3.9870200957482234,-1.8605254401516833,-0.0863578727950995,0.2340356674669223,-0.2587401154506278,3,left
32.387,0.5346291182573571,0.9834471007854121,-0.2351629195699523,0.9287729668644976,3.985114015614157,-1.8668023021610676,-0.08510530167660905,0.23378924356866085,-0.2568123034299096,3,left
32.388000000000005,0.5351177961575094,0.9850399256118856,-0.23604772051817938,0.9037622833706116,3.9830618324999802,-1.8730631279292311,-0.08389233363376472,0.23338933423198518,-0.25471138543757355,3,left
32.441,0.5356075087801292,0.9866788005059145,-0.2369570876650389,0.8783643283399113,3.980846327267622,-1.8792994189167644,-0.08271963614272455,0.23283090668081272,-0.2524488705912302,3,left
32.444,0.5360999477447588,0.988360667315133,-0.23788962433291025,0.8526213084995685,3.978450319248827,-1.8855018874212417,-0.08158763688660309,0.23210931800994578,-0.2500361879276646,3,left
32.445,0.5365968861226729,0.9900824857345335,-0.23884390269078765,0.8265784347688155,3.97585675685015,-1.891660557520329,-0.08049653996603622,0.2312203566762822,-0.24748462381669276,3,left
32.445,0.5371001620141815,0.9918412486401181,-0.23981847368563278,0.8002837594547457,3.9730488072092593,-1.897764868741505,-0.07944634381780194,0.23016028253881762,-0.24480526831436153,3,left
32.446,0.537611660236775,0.9936339955834769,-0.2408118759125609,0.7737879922264912,3.9700099496453425,-1.903803782179141,-0.07843686017392593,0.2289258654762391,-0.2420089683905379,3,left
32.52,0.5381332921791624,0.99545782543574,-0.24182264358055539,0.7471442932308909,3.966724074760182,-1.9097658888476385,-0.07746773355989772,0.22751442260271013,-0.2391062864800504,3,left
32.522,0.5386669737665247,0.9973099084995931,-0.24284931357614753,0.7204080435728831,3.963175589283571,-1.9156395196075149,-0.07653846110881664,0.22592385406532348,-0.23610746366896873,3,left
32.522,0.5392146014173737,0.9991874977506822,-0.24389043147646572,0.6936365945221088,3.95934952611707,-1.9214128550296818,-0.07564841253014427,0.22415267728480523,-0.23302238702515507,3,left
32.523,0.539778025976157,1.0010879388055418,-0.24494455636643336,0.6668889972859591,3.955231658850341,-1.9270740330122702,-0.07479684991726289,0.22220005929438527,-0.22986056011488237,3,left
32.524,0.5403590248445413,1.0030086782841265,-0.2460102644299538,0.640225714709871,3.9508086202026025,-1.932611252514775,-0.07398294697381444,0.22006584671756166,-0.2266310754304098,3,left
32.524,0.5409592728897412,1.0049472701177138,-0.2470861514175919,0.6137083154030873,3.9460680241633037,-1.9380128727652548,-0.0732058073432459,0.21775059303864483,-0.22334258776978658,3,left
32.578,0.5415803131310869,1.0069013792842696,-0.2481708342235026,0.5873991503090054,3.9409985917843353,-1.9432675078466852,-0.07246448191390667,0.2152555830240613,-0.22000328817986475,3,left
32.579,0.5422235284607279,1.0088687827220537,-0.2492629519221029,0.5613610119545515,3.935590280200613,-1.9483641166306622,-0.0717579850764902,0.21258285426555246,-0.216620878389937,3,left
32.58,0.5428901155020752,1.0108473676596448,-0.2503611666679139,0.5356567781679482,3.929834412402801,-1.9532920877878575,-0.07108530994443187,0.20973521574616735,-0.21320254573541686,3,left
32.580999999999996,0.5435810612594385,1.0128351278781729,-0.251464164801023,0.5103490448529528,3.9237238015910885,-1.9580413191750488,-0.07044544261221027,0.20671626286717049,-0.20975493861506822,3,left
32.580999999999996,0.5442971227996526,1.014830158357879,-0.2525706583798165,0.4854997539629347,3.9172528618858142,-1.962602290659687,-0.06983737564221786,0.20353038754140299,-0.20628414260478897,3,left
32.655,0.5450388100017238,1.0168306486819152,-0.25367938729009704,0.46116982126460826,3.910417699221892,-1.966966129680892,-0.06926012103519652,0.20018278149587143,-0.2027956573950864,3,left
32.657,0.5458063714398873,1.0188348757027996,-0.25478912202438136,0.43741876568426213,3.9032161799468796,-1.9711246692744033,-0.06871272287509522,0.1966794313881115,-0.19929437467505956,3,left
32.657,0.5465997837360035,1.020841196144939,-0.25589866707920117,0.4143043404761318,3.895647976693649,-1.9750704985268852,-0.06819426972367981,0.19302710517246952,-0.19578455700601258,3,left
32.658,0.5474187449491473,1.0228480397333757,-0.25700686474593804,0.3918821661431497,3.887714591508033,-1.9787970054721051,-0.06770390677608118,0.18923332961424533,-0.19226981768353543,3,left
32.659,0.548262672288264,1.0248539030899857,-0.2581125990194987,0.3702053650419677,3.87941935621075,-1.982298412440915,-0.06724084775392843,0.1853063590348493,-0.18875310168884088,3,left
32.66,0.5491307037506807,1.0268573443020128,-0.25921479940528436,0.34932419809136667,3.8707674101834493,-1.9855698040730594,-0.06680438640390227,0.18125513583671057,-0.18523666838431177,3,left
32.713,0.5500217028954397,1.028856977957422,-0.26031244447546575,0.32928570643214145,3.8617656568255834,-1.9886071491817103,-0.06639390727361465,0.17708924419509037,-0.18172207760573986,3,left
32.715,0.5509342660582726,1.0308514704795444,-0.26140456508489446,0.31013336554449594,3.852422702050344,-1.9914073192868038,-0.06600889532790466,0.17281885876958256,-0.17821018135792133,3,left
32.716,0.5518667314971363,1.0328395356102378,-0.26249024720277847,0.2919067631944155,3.842748780336397,-1.9939681068936006,-0.06564894407761185,0.1684546898217186,-0.17470112276608316,3,left
32.716,0.5528171901112485,1.0348199298547944,-0.2635686343504762,0.2746413127410055,3.8327556747582325,-1.9962882443082364,-0.0653137621014919,0.16400792526133728,-0.17119434300634165,3,left
32.717,0.5537834976875318,1.036791447653136,-0.2646389296691066,0.25836801040690677,3.8224566366043353,-1.9983674212885427,-0.06500317801350214,0.1594901695550365,-0.1676885967255504,3,left
32.787,0.5547632889754225,1.038752915915202,-0.26570039764410663,0.24311324125339565,3.811866308041923,-2.0002062995667087,-0.06471714406220443,0.15491337911509326,-0.16418197696447293,3,left
32.789,0.5557539940337016,1.040703187276678,-0.26675236545971354,0.22889863553403542,3.8010006491095303,-2.001806523383465,-0.06445573861169901,0.15028979366396641,-0.16067195093955952,3,left
32.79,0.5567528571810717,1.0426411312920276,-0.26779422389385765,0.21574097566741837,3.789876869226215,-2.0031707258952616,-0.0642191676909795,0.14563186319232893,-0.15715540769727088,3,left
32.791,0.5577569584874814,1.044565623268518,-0.2688254276478527,0.2036521537852231,3.778513363187,-2.0043025314597234,-0.06400776565501083,0.14095217047815284,-0.15362871798682765,3,left
32.792,0.558763237181789,1.0464755313135967,-0.2698454950075232,0.19263917981478834,3.7669296516133683,-2.005206553803995,-0.06382199478336088,0.1362633498986973,-0.15008780608767425,3,left
32.793,0.5597685160159682,1.0483697025999825,-0.2708540067050254,0.1827042396998591,3.755146325500258,-2.0058883900339057,-0.06366244335086262,0.1315780044463288,-0.14652823277682236,3,left
32.851,0.5607695257123103,1.0502469496688644,-0.2718506038082891,0.17384480151222673,3.74318499275468,-2.0063546101897396,-0.06352982154990816,0.12690862350046764,-0.1429452883529682,3,left
32.852,0.5617629289180018,1.0521060372550368,-0.27283498446345955,0.16605376367722577,3.731068221118626,-2.0066127415320474,-0.06342495481749154,0.12226750328921242,-0.13933409472185881,3,left
32.853,0.5627453433551208,1.0539456699004104,-0.27380689937083147,0.15931963719602377,3.718819469223463,-2.006671246316295,-0.06334877449156472,0.11766667093319888,-0.13568971512707023,3,left
32.853,0.5637133639499051,1.0557644805967745,-0.27476614593374843,0.1536267552378758,3.7064629985936532,-2.0065394919366444,-0.06330230604273665,0.11311781252727875,-0.13200726875296576,3,left
32.854,0.5646635836476325,1.0575610209260256,-0.27571256106617126,0.14895550701141372,3.6940237629190698,-2.006227712840258,-0.0632866552508804,0.10863220570096335,-0.12828204657707767,3,left
32.921,0.5655926126012829,1.0593337534803833,-0.2766460127597924,0.14528259517018072,3.681527273559646,-2.0057469640369456,-0.06330299260383009,0.10422065698512795,-0.12450962575215276,3,left
32.923,0.566497095696516,1.0610810474193275,-0.2775663907278814,0.14258131667487567,3.6689994411345337,-2.005109066182236,-0.06335253602899588,0.09989344410820894,-0.12068598142356114,3,left
32.923,0.5673737288508413,1.0628011777284858,-0.2784735966556146,0.14082186709883726,3.6564663931600676,-2.004326542232999,-0.06343653197634772,0.09566026323174386,-0.11680759579073874,3,left
32.929,0.5682192749034083,1.0644923282362007,-0.27936753468736997,0.13997166836615993,3.6439542677007095,-2.0034125456742653,-0.06355623485281751,0.09153018111260267,-0.11287156440181739,3,left
32.93,0.5690305799633469,1.0661525979544233,-0.28024810273092976,0.13999571928472088,3.6314889838249136,-2.0023807802898497,-0.06371288480826451,0.08751159217950082,-0.10887569967045126,3,left
32.93,0.5698045908031292,1.0677800100585544,-0.28111518496686966,0.14085696508961632,3.6190959937972864,-2.001245411321052,-0.06390768392834625,0.08361218045479017,-0.10481863139943101,3,left
32.988,0.5705383734989294,1.0693725228865394,-0.2819686457149008,0.1425166765460466,3.6068000293894418,-2.0000209676270524,-0.06414177116523037,0.07983888596850848,-0.10069990307421206,3,left
32.99,0.5712291332335611,1.0709280425312837,-0.28280832462680605,0.14493482601371513,3.5946248588315117,-1.9987222343323725,-0.06441619683307162,0.07619787480022698,-0.09652006085096981,3,left
32.991,0.5718742349895954,1.0724444366376038,-0.28363403302664725,0.1480704510266884,3.5825930667870507,-1.9973641355743796,-0.06473189778950576,0.07269451172229839,-0.09228073107117894,3,left
32.991,0.5724712247549582,1.0739195488874114,-0.2844455510746055,0.1518820016140224,3.5707258622833895,-1.9959616071938455,-0.06508967424266655,0.0693333353129435,-0.08798468280013753,3,left
32.992,0.5730178508351561,1.0753512135776597,-0.2852426253418445,0.15632767095351846,3.5590429154937016,-1.9945294597067655,-0.06549016879600462,0.06611803701804735,-0.0836358730847617,3,left
33.054,0.5735120848074974,1.0767372697434558,-0.2860249663746414,0.1613657106599341,3.5475622239561857,-1.9930822337585046,-0.06593384816144757,0.06305144653540512,-0.07923947329140675,3,left
33.056,0.5739521415165736,1.0780755744010753,-0.28679224591234537,0.16695473394952592,3.5363000097461197,-1.991634053568624,-0.06642098782283,0.06013552534226217,-0.07480187544427377,3,left
33.056999999999995,0.5743364974526773,1.0793640146610017,-0.2875440936925163,0.17305401100162882,3.525270649633645,-1.990198485712106,-0.06695165976310478,0.05737136908911454,-0.07033067812507646,3,left
33.067,0.5746639070913231,1.080600518640779,-0.28828009424313095,0.17962375976267328,3.5144866397441312,-1.9887884087451957,-0.06752572324953648,0.05475921885133281,-0.0658346519251677,3,left
33.068000000000005,0.5749334172327557,1.0817830652364773,-0.28899978448833086,0.18662543350101543,3.5039585953087244,-1.9874158958766734,-0.06814281852347231,0.05229848050024636,-0.061323684887129484,3,left
33.068000000000005,0.5751443795964941,1.0829096929577706,-0.28970265306303367,0.19402200507180736,3.493695285082759,-1.9860921109566116,-0.06880236300920352,0.04998775036077673,-0.0568087090473391,3,left
33.121,0.575296461639372,1.08397850826439,-0.2903881419406613,0.2017782462690383,3.4837036974372615,-1.984827217230584,-0.06950354952755085,0.0478248447148194,-0.052301609565735104,3,left
33.123000000000005,0.5753896551513954,1.0849876940633338,-0.2910556505990803,0.20986099818063247,3.4739891306837456,-1.9836302974853837,-0.07024534612893454,0.04580683131833084,-0.04781511755418629,3,left
33.124,0.5754242820766747,1.0859355191131528,-0.29170454262825035,0.218239427095577,3.46455529772342,-1.9825092837557683,-0.07102649736992324,0.04393006228223246,-0.04336268735073837,3,left
33.124,0.5754009971729697,1.0868203489402357,-0.29233415435892596,0.22688526188114272,3.45540443758254,-1.9814708952185955,-0.07184552687090864,0.042190208709705516,-0.03895836016467896,3,left
33.125,0.5753207872299566,1.0876406582964142,-0.29294380461684755,0.23577301093141936,3.4465374306964005,-1.9805205838239996,-0.0727007408106231,0.04058229838521821,-0.03461661873682339,3,left
33.188,0.575184966509922,1.0883950441849377,-0.2935328041322802,0.24488015675593763,3.437953916546177,-1.979662488175574,-0.073590231897859,0.03910075824474601,-0.03035223921194397,3,left
33.191,0.5749951683951698,1.0890822377402127,-0.2941004631193753,0.25418732402909433,3.4296524114355296,-1.9788993971728566,-0.07451188347632816,0.037739462923322774,-0.026180144867983545,3,left
33.191,0.5747533342570411,1.0897011136929846,-0.29464609661616936,0.2636784155204426,3.42163042346576,-1.9782327254350798,-0.07546337362654919,0.03649178989574996,-0.022115263552517302,3,left
33.202,0.5744617011565808,1.0902506975994453,-0.29516902846089516,0.2733407117279022,3.4138845624980645,-1.9776625020199927,-0.07644217927747607,0.03535068115783413,-0.01817238927747282,3,left
33.203,0.574122788942335,1.090730171916363,-0.2956685949464018,0.28316493255896596,3.4064106442043016,-1.97718737304207,-0.07744558053004862,0.03430871063360533,-0.014366048876619956,3,left
33.204,0.5737393856729281,1.0911388818119665,-0.2961441486113738,0.2931452606743371,3.399203788276117,-1.9768046181811623,-0.07847066569423869,0.03335815527836032,-0.0107103760053472,3,left
33.255,0.57331452991037,1.0914763415423594,-0.29659506252877477,0.3032793257265442,3.392258512202208,-1.976510180431234,-0.07951433770752568,0.032491067172161575,-0.007218995526311783,3,left
33.257,0.5728514893892727,1.0917422424319527,-0.2970207355955263,0.31356814753376716,3.3855688241723736,-1.9762987074660512,-0.08057332243652311,0.03169934457422548,-0.0039049205612214327,3,left
33.263000000000005,0.5723537367045384,1.0919364626733188,-0.2974205988204812,0.3240160360987239,3.3791283195584034,-1.9761636024501004,-0.0816441790642329,0.030974801124829476,-0.000780463114740184,3,left
33.264,0.5718249230447897,1.092059077510936,-0.29779412189475446,0.3346304497046717,3.372930282715664,-1.9760970826226083,-0.08272331258568184,0.030309233051456944,0.0021428416964419587,3,left
33.265,0.5712688505477698,1.0921103676886643,-0.2981408192839221,0.34542181830018737,3.3669677909774056,-1.9760902448815825,-0.08380698833401792,0.029694484342872727,0.004854298477084557,3,left
33.321999999999996,0.5706894432505775,1.0920908251583836,-0.2984602555430366,0.35640334270661195,3.361233815007573,-1.9761331380943472,-0.08489134833774184,0.029122509803992922,0.0073441031039060915,3,left
33.324,0.570090716385962,1.0920011567518797,-0.29875204988711657,0.36759077765596276,3.3557213109535255,-1.9762148420106074,-0.08597242924230859,0.02858543587623621,0.00960338519555228,3,left
33.325,0.5694767438887195,1.0918422870077595,-0.2990158800252516,0.37900220188125766,3.3504233025652086,-1.9763235527285072,-0.08704618159681057,0.02807561913653591,0.011624243155329254,3,left
33.34,0.5688516241773058,1.0916153605026433,-0.2992514850968581,0.39065777575921884,3.3453329533111917,-1.9764466746371299,-0.0881084904278917,0.02758570243933784,0.013399772452050148,3,left
33.341,0.5682194443642954,1.0913217432499318,-0.2994586675128981,0.40257948615693223,3.3404436305735468,-1.9765709184252598,-0.0891551970904966,0.027108668694355464,0.014924087255170889,3,left
33.342,0.5675842430574758,1.0909630226351423,-0.2996372936092298,0.41479087756378347,3.3357489671508294,-1.9766824041307232,-0.0901821223662482,0.02663789226803118,0.016192335528441754,3,left
33.389,0.5669499720392824,1.0905410054582876,-0.2997872931013069,0.42731676827353077,3.3312429270472133,-1.9767667678626741,-0.09118509061880253,0.02616718794385671,0.017200708177778717,3,left
33.391,0.5663204574061139,1.0900577136607266,-0.2999086573598182,0.44018295069931074,3.3269198807782314,-1.9768092711711802,-0.09215995452494358,0.025690857281606472,0.017946443734263233,3,left
33.397,0.5656993611298109,1.089515377404904,-0.30000143661641315,0.45341587547610757,3.322774692277424,-1.9767949126540127,-0.09310261973871214,0.02520373216270303,0.018427830544625847,3,left
33.398,0.5650901443041874,1.0889164255007238,-0.30006573641721257,0.4670423193232919,3.318802817740579,-1.9767085417324517,-0.09400906901786223,0.024701215261269963,0.018644207966608248,3,left
33.398,0.5644960333072565,1.0882634736108905,-0.3001017138285808,0.4810890367094008,3.315000416016788,-1.9765349743765253,-0.09487538568567853,0.024179316772955636,0.018595967269739753,3,left
33.455,0.5639199897136055,1.0875593108791672,-0.30010957387397874,0.49558239538814775,3.3113644682643733,-1.9762591094615922,-0.09569777655841334,0.02363468588176674,0.018284552610799216,3,left
33.457,0.5633646843183607,1.0868068855159576,-0.30008956651034147,0.5105479959221605,3.3078929011851708,-1.9758660424609367,-0.09647259455405861,0.023064634953084424,0.017712462443855978,3,left
33.476,0.5628324753347141,1.086009289782684,-0.3000419843521588,0.5260102760029969,3.3045847060971676,-1.9753411721486327,-0.09719636114477506,0.022467154943575506,0.016883251634207876,3,left
33.478,0.5623253907210439,1.0851697449223725,-0.29996716134156876,0.5419921036769213,3.3014400471861185,-1.9746702974258992,-0.0978657886889167,0.021840921460315788,0.015801534316308357,3,left
33.478,0.5618451146126392,1.0842915866362919,-0.2998654725076841,0.5585143695266438,3.298460354221569,-1.9738397039745044,-0.09847780247341176,0.021185291588964286,0.01447298711121035,3,left
33.479,0.5613929779603754,1.083378251535018,-0.29973733478757675,0.5755955911602979,3.2956483961033345,-1.972836241879661,-0.0990295620132891,0.020500292044267756,0.012904351699154153,3,left
33.52,0.5609699536397142,1.082433264735652,-0.2995832086439038,0.5932515400298536,3.293008332794832,-1.9716473952431937,-0.09951848100322169,0.01978659938109338,0.011103435408203459,3,left
33.521,0.5605766561769111,1.0814602285432342,-0.29940360006092664,0.611494894616965,3.2905457446608843,-1.9702613441936614,-0.09994224546755609,0.01904551281910484,0.009079108813126978,3,left
33.537,0.5602133456387213,1.0804628119542568,-0.29919906254529044,0.6303349210882155,3.288267639435055,-1.9686670195034524,-0.10029882992829384,0.018278919901114882,0.006841299939236004,3,left
33.539,0.5598799345779054,1.079444740626538,-0.2989701989129285,0.6497771837971498,3.286182439181565,-1.9668541506778812,-0.1005865115652996,0.01748925512219252,0.004400984832488191,3,left
33.539,0.5595759968795919,1.0784097870052463,-0.29871766276295686,0.6698232915021363,3.2842999531762693,-1.9648133096834661,-0.10080388238931312,0.016679452140153973,0.001770173489652045,3,left
33.586999999999996,0.5593007779541808,1.0773617603599033,-0.2984421596193859,0.6904706871096752,3.2826313446088955,-1.962535953205688,-0.10094985947719534,0.01585289109712561,-0.001038111358901624,3,left
33.589,0.559053206482479,1.076304496416911,-0.2981444478045651,0.7117124868156208,3.28118909703212,-1.9600144656021878,-0.10102369333477938,0.015013343092430253,-0.004009865955470886,3,left
33.611999999999995,0.5588319084103683,1.0752418460347248,-0.2978253391454685,0.7335373707310778,3.279986982712002,-1.9572422032628574,-0.10102497443635795,0.014164913336362907,-0.007130150218914885,3,left
33.614000000000004,0.5586352239424215,1.0741776621216832,-0.2974856995498235,0.7559295236552416,3.279040031994173,-1.9542135396082172,-0.10095363793877929,0.013311983596599214,-0.010383146412669455,3,left
33.615,0.5584612280050838,1.073115783998258,-0.2971264493822315,0.7788686215941764,3.2783645004909734,-1.9509239084518302,-0.10080996644272751,0.01245915404509271,-0.013752231700447936,3,left
33.615,0.5583077542877283,1.0720600187804215,-0.29674856349342504,0.8023298581388496,3.2779778298318796,-1.9473698426961201,-0.10059459047403653,0.011611184523366576,-0.017220063969360898,3,left
33.653,0.5581724225781273,1.0710141200040406,-0.2963530706881641,0.8262840063047026,3.277898598783833,-1.9435490060858982,-0.10030848624862611,0.010772935250870934,-0.020768680090836017,3,left
33.655,0.558052668623057,1.0699817643671952,-0.2959410523606895,0.8506975141137958,3.278146463463308,-1.9394602171033375,-0.09995297039349403,0.00994930699429952,-0.024379605999783272,3,left
33.67,0.5579457753159202,1.0689665278092533,-0.29551364005162123,0.8755326338133559,3.278742086096411,-1.9351034648666539,-0.09952969149228559,0.00914518070357363,-0.028033978350250618,3,left
33.672,0.5578489039001079,1.0679718620274719,-0.295072011794439,0.9007475855431832,3.2797070503473362,-1.9304799171631186,-0.09904061843936003,0.008365356742737844,-0.031712677579291956,3,left
33.672,0.5577591241309295,1.0670010721802001,-0.29461738723823166,0.9262967573812877,3.2810637582672,-1.925591920958683,-0.09848802564062961,0.007614494489130789,-0.035396471570462405,3,left
33.691,0.5576734427601036,1.0660572962869597,-0.29415102159269346,0.9521309443180831,3.282835302266704,-1.9204429958437168,-0.09787447515819385,0.006897054237828392,-0.039066167880103905,3,left
33.72,0.5575888300628963,1.0651434868598133,-0.2936741984766457,0.9781976280907894,3.285045307166711,-1.9150378207556125,-0.09720279592834745,0.006217243994858967,-0.042702771807222296,3,left
33.75,0.5575022444089242,1.064262395413001,-0.293188221823573,1.0044412979658743,3.2877177410202005,-1.9093822139931567,-0.09647606014961382,0.005578973096339824,-0.04628764827020321,3,left
33.751,0.557410655147772,1.0634165604102515,-0.2926944070733731,1.0308038082925093,3.290876698394894,-1.9034831058554678,-0.09569755689975251,0.0049858133143667275,-0.04980268642381739,3,left
33.751999999999995,0.5573110642232202,1.0626082989277739,-0.2921940718875161,1.0572247619640909,3.2945461661580935,-1.8973485021999472,-0.09487076311483117,0.004440966899984623,-0.05323046534163767,3,left
33.751999999999995,0.5572005269138558,1.0618397020432795,-0.29168852661727795,1.083641905279485,3.2987497851516796,-1.8909874366496193,-0.09399931224944444,0.003947239868879895,-0.056554416902130894,3,left
33.787,0.5570761721217438,1.0611126337368266,-0.2911790648342765,1.1099915233418853,3.303510617801544,-1.8844099097428875,-0.09308696104406727,0.0035070182713852695,-0.05975898072582409,3,left
33.808,0.5569352227125149,1.0604287328453315,-0.2906669543212509,1.1362088316959702,3.3088509256861065,-1.8776268143320864,-0.09213755478481074,0.003122245826919634,-0.06282974719924779,3,left
33.81,0.5567750163287184,1.0597894174391471,-0.2901534288563955,1.1622283635499298,3.3147919577450664,-1.8706498470999136,-0.0911549915803839,0.002794402689727691,-0.06575358643370043,3,left
33.81,0.5565930268056474,1.0591958909804478,-0.2896396809382518,1.1879843526579197,3.321353749142093,-1.8634914061748569,-0.09014318667214534,0.002524486345052533,-0.0685187613781923,3,left
33.811,0.5563868859987621,1.0586491496878396,-0.28912685542895067,1.2134111118604258,3.3285549312023655,-1.856164475072689,-0.08910603810397281,0.002312996118944519,-0.07111502305311816,3,left
33.854,0.5561544056453136,1.0581499905807519,-0.28861604397060125,1.2384434068910077,3.3364125548751176,-1.8486824944231328,-0.08804739474622192,0.002159922413995937,-0.07353368638134943,3,left
33.855,0.555893598820837,1.0576990197680671,-0.2881082799318611,1.26301682435793,3.3449419338227195,-1.841059225158977,-0.08697102706970994,0.0020647411155187783,-0.07576768601199428,3,left
33.885999999999996,0.5556027004630193,1.0572966606963157,-0.2876045335971311,1.2870681323809803,3.354156514886083,-1.8333086082190735,-0.08588060073322594,0.002026413241773338,-0.07781161204215307,3,left
33.888000000000005,0.5552801862936163,1.0569431622059435,-0.28710570735604113,1.3105356325570237,3.3640677797450365,-1.8254446252937766,-0.08477965297762449,0.0020433897972473446,-0.07966172567380168,3,left
33.889,0.5549247894707366,1.05663860632529,-0.2866126307719091,1.3333595022764162,3.374685174514765,-1.8174811642005877,-0.08367157179996089,0.002113621585353528,-0.08131595499340652,3,left
33.891,0.5545355145141324,1.0563829157779632,-0.28612605556731907,1.3554821266052792,3.3860160600883242,-1.809431891954979,-0.08255957784589926,0.00223457337204106,-0.08277387133312895,3,left
33.92,0.5541116483013635,1.056175861232314,-0.2856466507829751,1.376848419218723,3.3980656775372324,-1.8013101376443479,-0.08144670893904536,0.002403241589177095,-0.08403664682292172,3,left
33.946,0.5536527681237581,1.056017068453518,-0.2851749986321222,1.3974061322175821,3.4108371263140533,-1.7931287859344598,-0.08033580718538405,0.002616174969503593,-0.08510699359126296,3,left
33.948,0.5531587468646343,1.055906025734389,-0.28471159170977534,1.417106154853283,3.42433135490844,-1.7849001813273204,-0.07922950862617562,0.002869497870153992,-0.08598908479991596,3,left
33.949,0.5526297553120239,1.055842092167855,-0.2842568320716292,1.4359028007746166,3.438547163810262,-1.7766360430559234,-0.07813023543221055,0.0031589362446474297,-0.08668845754654775,3,left
33.949,0.5520662615931942,1.055824507363411,-0.2838110323950717,1.4537540811703937,3.453481219730568,-1.7683473900449331,-0.07704019061627167,0.003479846237009564,-0.08721189786620592,3,left
33.986999999999995,0.5514690277889173,1.055852403075302,-0.2833744192084956,1.4706219571520414,3.4691280784042737,-1.7600444745450055,-0.07596135514083749,0.0038272452370126013,-0.08756730920169237,3,left
33.988,0.550839103854248,1.0559248167966184,-0.2829471379991883,1.4864725624801387,3.4854802123955873,-1.7517367225921279,-0.07489548711839161,0.0041958449930412185,-0.08776356776359016,3,left
34.023,0.5501778190498828,1.0560407062753823,-0.282529259590209,1.5012763899736568,3.502528041234187,-1.7434326798995106,-0.0738441226926719,0.004580086264652924,-0.08781036957486732,3,left
34.024,0.5494867713194488,1.0561989623403853,-0.28212078659334394,1.5150084389653145,3.5202599628411413,-1.7351399626107273,-0.07280857824290991,0.004974174732967429,-0.08771807403038676,3,left
34.025,0.5487678154870187,1.056398417219998,-0.2817216587822044,1.5276483234010256,3.5386623861105337,-1.7268652127990123,-0.07178995364977904,0.005372118311862959,-0.08749754886579292,3,left
34.025999999999996,0.5480230513795206,1.0566378478260792,-0.2813317571667783,1.5391803406964337,3.5577197649453502,-1.718614058991625,-0.07078913641549527,0.005767766238992416,-0.08716002146570434,3,left
34.053000000000004,0.5472548122899351,1.0569159760683242,-0.2809509073640487,1.5495935018130984,3.5774146352961593,-1.7103910835119744,-0.06980680649666816,0.006154850251395564,-0.08671694003736284,3,left
34.082,0.5464656528921691,1.0572314685912652,-0.2805788828518511,1.5588815236484892,3.5977276589994918,-1.7021998011569999,-0.06884344179160584,0.006527027968299918,-0.08617984605968705,3,left
34.083,0.545658335238489,1.0575829373310681,-0.28021540852112,1.5670427851834081,3.618637679462716,-1.6940426552411127,-0.06789932429098307,0.006877928445426586,-0.0855602582444815,3,left
34.084,0.5448358123635235,1.057968942261691,-0.27986016511207074,1.5740802490544468,3.640121792467021,-1.6859210352422784,-0.06697454701511966,0.007201199559595226,-0.0848695680241739,3,left
34.084,0.5440012101077119,1.0583879982823394,-0.27951279516932825,1.5800013524802645,3.662155430470405,-1.6778353161508102,-0.0660690220502726,0.00749055636892319,-0.08411894660361334,3,left
34.12,0.5431578078693835,1.05883858746345,-0.2791729106369911,1.5848178763330478,3.684712452785217,-1.6697849155691973,-0.06518249010145681,0.007739829308599365,-0.0833192636262426,3,left
34.161,0.5423090183221246,1.0593191757523626,-0.27884010142492743,1.5885458035466495,3.7077652316380556,-1.6617683628395035,-0.06431453187430834,0.007943011367387448,-0.08248101749173549,3,left
34.163000000000004,0.5414583656226883,1.0598282315486898,-0.278513943909769,1.591205173024408,3.731284729397505,-1.653783375591268,-0.0634645813855358,0.008094303891693046,-0.08161427721793185,3,left
34.163000000000004,0.5406094616598409,1.0603642435925587,-0.27819400864404115,1.5928199261609255,3.7552405717537645,-1.6458269411123012,-0.06263194107690416,0.008188160890770306,-0.0807286351234704,3,left
34.164,0.5397659802005773,1.0609257370389427,-0.2778798670598438,1.5934177380636505,3.7796011269117504,-1.6378954010611528,-0.06181579837145607,0.008219331668447445,-0.07983316851891047,3,left
34.165,0.5389316290258372,1.0615112880528208,-0.2775710972157827,1.5930298271034138,3.804333598758521,-1.629984538616226,-0.061015243191127805,0.008182901548204726,-0.07893640799077747,3,left
34.187,0.5381101201754273,1.0621195376271368,-0.2772672886739773,1.5916907402471965,3.8294041372310885,-1.6220896676858332,-0.06022928607456602,0.008074330516671353,-0.07804631046618508,3,left
34.208,0.5373051383915839,1.062749204720657,-0.2769680465680879,1.5894381137496771,3.8547779664807584,-1.6142057240975984,-0.05945687674927894,0.00788948971554351,-0.07717023633155129,3,left
34.227,0.5365203079457647,1.0633990981995327,-0.27667299489455055,1.5863124092025205,3.8804195309049754,-1.6063273587444677,-0.058696923103038146,0.007624695764078995,-0.07631493041987404,3,left
34.229,0.5357591582210443,1.0640681269126668,-0.2763817790412465,1.5823566249376395,3.906292659118615,-1.598449032664638,-0.057948310379098665,0.007276742875543479,-0.07548650649010319,3,left
34.229,0.535025088633108,1.064755307298905,-0.27609406755921256,1.5776159829183318,3.932360745584031,-1.5905651139018773,-0.05720992016008643,0.006842932676309054,-0.0746904342613011,3,left
34.253,0.5343213336892381,1.0654597680337663,-0.2758095531848627,1.5721375919511056,3.95858694785237,-1.5826699753383937,-0.05648064856112751,0.00632110160582362,-0.0739315277527406,3,left
34.287,0.5336509290770739,1.06618075143638,-0.27552795314933193,1.5659700895730693,3.984934393912572,-1.5747580914746997,-0.05575942319713621,0.005709645805685272,-0.07321393399276684,3,left
34.289,0.5330166795347989,1.0669176117030943,-0.2752490088816451,1.5591632669783901,4.011366391001842,-1.5668241312770375,-0.05504521874896668,0.005007543460266667,-0.07254112172022437,3,left
34.292,0.5324211289922696,1.0676698104163789,-0.2749724853142079,1.551767683000784,4.0378466265231925,-1.5588630445080405,-0.05433707112028872,0.004214374470596753,-0.07191587002226632,3,left
34.292,0.5318665332476875,1.068436910056127,-0.2746981700996427,1.543834273213936,4.064339353521955,-1.550870139934524,-0.0536340903200356,0.003330336795304774,-0.07134025695634251,3,left
34.321,0.5313548352966889,1.0692185663034715,-0.2744258730937323,1.5354139581990403,4.090809556316641,-1.5428411546601046,-0.05293547241067416,0.0023562577955178357,-0.07081564827906707,3,left
34.365,0.5308876433708218,1.070014519783723,-0.27415542640393936,1.5265572525296591,4.117223094709347,-1.5347723143203236,-0.05224051097666654,0.0012935983666460698,-0.07034268644634344,3,left
34.366,0.5304662118660309,1.0708245877281921,-0.273886685129248,1.5173138747131156,4.143546826576604,-1.5266603840773862,-0.05154860842589556,0.0001444482863865686,-0.06992128011974649,3,left
34.367,0.5300914256652687,1.0716486559635654,-0.2736195286713631,1.5077323585628368,4.169748709124238,-1.5185027105534852,-0.050859287093901445,-0.0010884873305261936,-0.06955059489964602,3,left
34.367,0.529763788602391,1.072486671560024,-0.2733538623385255,1.4978596689673103,4.195797880127622,-1.5102972556517353,-0.05017219975908894,-0.002401909190213136,-0.0692290469723681,3,left
34.367,0.5294834167343336,1.0733386362910822,-0.2730896190006653,1.4877408295067103,4.221664722346804,-1.5020426246719398,-0.04948713901669763,-0.0037919507342846566,-0.06895430191064512,3,left
34.387,0.529250036732595,1.0742046008447323,-0.2728267606621128,1.4774185718597648,4.247320915343618,-1.49373809193847,-0.04880404509689094,-0.005254209420352879,-0.06872328030663305,3,left
34.423,0.5290629890779761,1.0750846595762271,-0.27256527983258605,1.4669330144501047,4.272739477889479,-1.4853836263472084,-0.0481230119599241,-0.006783781814427673,-0.06853217090870622,3,left
34.425,0.5289212350250967,1.0759789455175146,-0.27230520054379526,1.456321373294117,4.297894802283688,-1.476979917780065,-0.047444291644356755,-0.008375302424673155,-0.06837645144919136,3,left
34.426,0.5288233661317826,1.0768876253143274,-0.2720465789045913,1.4456177055192345,4.3227626808634785,-1.468528404525234,-0.046768296899016244,-0.010022986391431775,-0.06825091761797532,3,left
34.427,0.5287676157432989,1.0778108937388788,-0.27178950320794254,1.4348526859162274,4.347320324914525,-1.4600313015537136,-0.046095602178426925,-0.011720676314690856,-0.06814972132044456,3,left
34.452,0.528751872572838,1.0787489674128632,-0.2715340936970534,1.4240534188567098,4.371546376868635,-1.45149162887501,-0.04542694310865095,-0.01346189359260766,-0.06806641973798612,3,left
34.503,0.5287736968879588,1.0797020773080515,-0.27128050210984017,1.413243291066472,4.395420917621677,-1.4429132380429313,-0.0447632145032708,-0.015239894552605476,-0.06799403632969354,3,left
34.505,0.5288303398226257,1.0806704594691807,-0.27102891107360344,1.4024418707991382,4.418925470109884,-1.4343008341423884,-0.04410546694835615,-0.017047731352172937,-0.0679251341448507,3,left
34.506,0.5289187661904404,1.0816543433954016,-0.2707795333610398,1.391664853541448,4.442042997131819,-1.4256599910130843,-0.04345490188857129,-0.018878316842120157,-0.06785190100750232,3,left
34.506,0.5290356809396111,1.0826539378002398,-0.2705326109484329,1.3809240489250287,4.464757888807737,-1.4169971584828531,-0.04281286503409505,-0.02072449132066738,-0.06776624528695699,3,left
