time,gFx,gFy,gFz,ax,ay,az,wx,wy,wz,subject_number,foot
14.394,0.5198977915050771,0.9990667688602701,-0.2719023097377987,1.3711866309968954,3.773465353527357,-2.3076279187763813,-0.1693535401089814,0.1790722753802065,0.24664737032427025,2,left
14.395,0.5193393427245404,0.9995474714130441,-0.2720272075777808,1.37171798131768,3.780744030899832,-2.315024667387996,-0.1686038336469427,0.17581483645089624,0.25550537232310905,2,left
14.414000000000001,0.5188167962556332,1.000012433802334,-0.27213237563823633,1.3718169974146028,3.7878119567428326,-2.322199737587027,-0.16782844822720752,0.17252450687232965,0.26422105343601615,2,left
14.450999999999999,0.5183346587064432,1.0004612637092483,-0.2722175253333818,1.3715171960203993,3.7946503266703098,-2.329135895347388,-0.16702604536493829,0.16920519831802738,0.27278303851973595,2,left
14.453,0.5178972002102668,1.0008937213397717,-0.272282432252867,1.3708528245771263,3.8012417598592525,-2.335816346149474,-0.166195391633246,0.16586128866473013,0.2811805676356912,2,left
14.454,0.5175084161358654,1.0013097158330886,-0.27232693485272125,1.369858515642033,3.8075704193300353,-2.342224848429555,-0.16533537722560332,0.16249762496108777,0.2894035201311751,2,left
14.454,0.5171719919407123,1.001709299592069,-0.27235093334776056,1.3685689353470853,3.813622116454248,-2.34834581664752,-0.1644450335678905,0.15911952169359658,0.29744244000416226,2,left
14.481,0.5168912713970806,1.0020926610957224,-0.27235438914287086,1.3670184294979608,3.819384395534545,-2.354164413367503,-0.1635235499703064,0.1557327539537969,0.30528856254083037,2,left
14.495999999999999,0.5166692282770049,1.0024601167022824,-0.2723373250346163,1.3652406687448084,3.824846596804914,-2.359666630119923,-0.1625702892982234,0.15234354453110074,0.312933842161865,2,left
14.527999999999999,0.516508441632175,1.002812101934032,-0.27229982623190757,1.3632682930603133,3.829999897590424,-2.364839357020854,-0.1615848026348291,0.1489585436335853,0.3203709813839176,2,left
14.529000000000002,0.5164110750031939,1.0031491628210458,-0.27224204200678176,1.3611325555206863,3.8348373316429933,-2.3696704411653986,-0.1605668428910902,0.14558480038269983,0.327593460717725,2,left
14.53,0.5163788601187993,1.0034719478856646,-0.2721641876157042,1.358862966006565,3.8393537868488257,-2.3741487340466785,-0.15951637721271167,0.14222972641562576,0.3345955688089063,2,left
14.530999999999999,0.5164130856595659,1.0037812011384177,-0.27206654614931336,1.356486938550365,3.843545982402265,-2.3782641294302165,-0.15843359782951277,0.13890105334581712,0.34137243113465715,2,left
14.589,0.5165145913685567,1.0040777561560432,-0.27194947011986825,1.3540294519195886,3.8474124283865594,-2.382007595113064,-0.15731893087693608,0.13560678650489225,0.347920035007348,2,left
14.591,0.5166837674046552,1.0043625310850202,-0.27181338272170064,1.3515127374614644,3.8509533727349408,-2.385371202565776,-0.15617304285319397,0.13235515677956483,0.3542352490910805,2,left
14.592,0.5169205586063272,1.0046365243237574,-0.2716587787418908,1.3489560075109446,3.8541707416854822,-2.3883481561783384,-0.1549968446709684,0.1291545712559789,0.36031583609921997,2,left
14.594000000000001,0.5172244731956497,1.0049008106570088,-0.2714862250897519,1.3463752333917738,3.857068079356184,-2.390932821098311,-0.153791493532679,0.12601356276378123,0.3661604569019138,2,left
14.594000000000001,0.5175945951758074,1.0051565376152407,-0.271296360891237,1.3437829776039085,3.8596504900320356,-2.3931207480785774,-0.15255839296680793,0.12294073828412584,0.3717686638266546,2,left
14.614,0.5180295994686552,1.005404921686529,-0.27108989710117193,1.3411882817813574,3.8619245845339196,-2.39490869461203,-0.1512991912774881,0.11994472619257188,0.3771408814930475,2,left
14.665999999999999,0.5185277691718108,1.0056472437210717,-0.2708676156294522,1.3385966102889515,3.8638984305730446,-2.3962946421806683,-0.15001577850612888,0.11703412231992522,0.38227837452804647,2,left
14.668,0.5190870150070674,1.0058848426014206,-0.2706303679926677,1.3360098471146262,3.86558150510987,-2.3972778092770914,-0.14871028189962834,0.11421743487642888,0.38718320215527074,2,left
14.669,0.5197048974092184,1.0061191062695183,-0.27037907346757245,1.3334263402097983,3.866984643752826,-2.397858659332734,-0.1473850597678522,0.11150302856394217,0.39185816020934955,2,left
14.67,0.5203786515894885,1.0063514595994933,-0.2701147167013301,1.3308409854837624,3.8681199805742477,-2.398038902395792,-0.14604269344243118,0.10889906870083567,0.3963067119288428,2,left
14.67,0.5211052155675089,1.0065833492299514,-0.26983834474550983,1.3282453446046962,3.869000873377145,-2.3978214896908954,-0.14468597695411023,0.10641346646228894,0.40053290932687796,2,left
14.724,0.5218812607251977,1.0068162260833828,-0.2695510634560451,1.325627794247689,3.869641812352043,-2.3972106007080853,-0.14331790414058235,0.10405382606128108,0.40454130649172493,2,left
14.725,0.5227032240406934,1.007051526598895,-0.26925403310978263,1.322973706296035,3.8700583113376785,-2.39621162272881,-0.1419416530672503,0.10182739419603862,0.4083368653656097,2,left
14.725,0.523567341037815,1.0072906535988642,-0.2689484630332745,1.3202656587458523,3.870266780542897,-2.39483112270139,-0.14056056773807393,0.09974101181235467,0.4119248541031702,2,left
14.725999999999999,0.5244696785494548,1.0075349575719719,-0.26863560511251544,1.3174836769832108,3.870284379204687,-2.3930768113483243,-0.13917813709258017,0.09780106817401667,0.41531073802107926,2,left
14.725999999999999,0.5254061664526233,1.0077857192328457,-0.2683167461777147,1.314605505183647,3.8701288470383695,-2.3909574994156495,-0.13779797130728513,0.09601345728703366,0.4185000633458775,2,left
14.745999999999999,0.5263726276971639,1.0080441342615352,-0.26799319933575727,1.3116069077292636,3.869818314022489,-2.3884830460256397,-0.1364237755307471,0.09438353698412055,0.4214983349470956,2,left
14.804,0.5273648063232398,1.0083113009243208,-0.2676662943758168,1.308461999935119,3.869371089201467,-2.3856642991231447,-0.1350593213812319,0.09291609144497036,0.42431089100730934,2,left
14.806,0.5283783935766914,1.0085882109716924,-0.26733736744118985,1.3051436039720339,3.8688054330614476,-2.3825130280162097,-0.13370841664696032,0.09161529818864665,0.42694277856083873,2,left
14.807,0.5294090525178012,1.0088757439618743,-0.26700775024193235,1.301623619715763,3.868139324868116,-2.3790418480206537,-0.13237487351794439,0.09048470031451579,0.4293986328516194,2,left
14.808,0.530452441698179,1.0091746649547155,-0.2666787591772228,1.2978733968315939,3.867390240151413,-2.375264137222889,-0.13106247552447578,0.08952718425314159,0.43168256190624466,2,left
14.808,0.5315042385728267,1.0094856253362785,-0.2663516847972309,1.2938640978234028,3.8665749497251722,-2.37119394536872,-0.12977494347537685,0.08874496279464013,0.433798037792751,2,left
14.862,0.5325601632231723,1.0098091664172673,-0.2660277819714742,1.2895670479324364,3.8657093447956767,-2.366845894874886,-0.1285159011197107,0.0881395627417822,0.4357477978093284,2,left
14.864,0.5336160026917748,1.0101457254066626,-0.26570826096282224,1.2849540711908949,3.8648082889163007,-2.3622350739536437,-0.12728884168747107,0.08771181656480205,0.4375337602520136,2,left
14.865,0.5346676359349556,1.010495643333485,-0.26539427946087607,1.2799978126187364,3.8638854967859544,-2.357376921838726,-0.1260970966008496,0.08746185814319747,0.4391569589835687,2,left
14.865,0.5357110591984666,1.0108591743910886,-0.2650869355342131,1.2746720465512975,3.8629534398888583,-2.3522871061002197,-0.1249438074383558,0.08738912336479492,0.4406174994745961,2,left
14.866,0.5367424115337157,1.0112364959753515,-0.26478726133089797,1.2689519712090294,3.8620232790627345,-2.3469813923344516,-0.12383190180239258,0.08749235632368642,0.4419145375821001,2,left
14.939,0.5377580001983884,1.0116277185252533,-0.2644962172054131,1.2628144902427099,3.861104824530617,-2.3414755080107454,-0.12276407330501499,0.087769621328717,0.44304628135756063,2,left
14.940999999999999,0.538754325777097,1.0120328943744357,-0.26421468592098135,1.2562384828873692,3.860206524230623,-2.33578500490674,-0.121742765558005,0.08821832015420122,0.44401001516563326,2,left
14.942,0.5397281069044774,1.0124520251477893,-0.2639434666907105,1.2492050638773373,3.8593354791882795,-2.329925125843804,-0.12077015978628729,0.08883521298127883,0.4448021441346734,2,left
14.942,0.540676304318614,1.0128850675180192,-0.2636832689266935,1.2416978316656282,3.858497479659587,-2.3239106795482027,-0.11984816555790771,0.08961644096152475,0.4454182562989677,2,left
14.943,0.5415961436312212,1.0133319372892708,-0.2634347056532027,1.2337031012653954,3.857697052428388,-2.3177559245534143,-0.1189784142498585,0.09055754885221287,0.445853200452911,2,left
14.944,0.5424851360598643,1.0137925119524274,-0.26319828683022334,1.225210118509582,3.856937511731404,-2.3114744617780576,-0.1181622550958451,0.0916535071042447,0.44610117892638407,2,left
14.997,0.5433410966393221,1.014266632091182,-0.2629744133250623,1.2162112543838723,3.8562210107630364,-2.305079135502956,-0.11740075375095314,0.09289873338905229,0.4461558548612091,2,left
14.999,0.5441621596982553,1.0147541021738227,-0.2627633725389828,1.2067021791894046,3.8555485932500524,-2.2985819426864857,-0.11669469314745451,0.09428711409236624,0.44601047225162826,2,left
14.999,0.5449467913535128,1.015254691320776,-0.2625653364531794,1.1966820165108312,3.854920245093982,-2.291993950600188,-0.1160445760812473,0.09581202709098169,0.4456579844037767,2,left
15.0,0.5456937987304664,1.015768134684901,-0.26238036231694833,1.1861534769638666,3.854334946079169,-2.2853252227663066,-0.1154506287825257,0.09746636756674805,0.44509118501998907,2,left
15.001,0.546402335778266,1.0162941360567244,-0.2622083957127656,1.1751229713690634,3.8537907216349585,-2.2785847533473937,-0.11491280491048979,0.09924257817475317,0.44430283756177796,2,left
15.075999999999999,0.5470719057308846,1.016832372050984,-0.2620492754745169,1.1636007014301317,3.853284694709548,-2.2717804109733053,-0.11443078974696283,0.10113268409526571,0.4432858011521667,2,left
15.077,0.5477023603065553,1.0173824978731987,-0.261902739952162,1.1516007233738388,3.852813138311045,-2.264918894467014,-0.11400400457742439,0.10312833300371647,0.4420331525900461,2,left
15.078,0.5482938957103437,1.0179441543473382,-0.26176843427493296,1.1391409789419138,3.8523715302749593,-2.258005703697411,-0.11363161142246735,0.10522083961587088,0.4405383036584555,2,left
15.078,0.5488470456516554,1.0185169752742904,-0.26164591829302486,1.1262432900672998,3.8519546124495307,-2.251045127900295,-0.11331251852967728,0.1074012339437721,0.4387951116843004,2,left
15.079,0.5493626721334575,1.0191005935023176,-0.2615346747874458,1.11293331618555,3.851556455992476,-2.2440402523322325,-0.11304538717321899,0.10966031210839293,0.43679798062649217,2,left
15.08,0.5498419552293943,1.019694644532557,-0.2614341176195591,1.099240474196029,3.8511705334692845,-2.2369929833548623,-0.11282864017144237,0.11198868884515574,0.43454195064865203,2,left
15.135,0.5502863823174102,1.0202987680285527,-0.26134359979038496,1.0851978214834466,3.8507897976360304,-2.2299040917498925,-0.11266047228614189,0.11437685136063186,0.43202277535553807,2,left
15.137,0.5506977355554997,1.0209126086574711,-0.26126242172774716,1.0708419042703037,3.8504067655096654,-2.222773273217338,-0.11253886253012473,0.11681521448890059,0.42923698655147824,2,left
15.137,0.5510780759037728,1.0215358176478535,-0.261189840261806,1.0562125770328983,3.8500136042349755,-2.215599223468479,-0.11246158838246068,0.1192941771542367,0.42618194651431907,2,left
15.138,0.551429723427809,1.0221680557628166,-0.2611250783743595,1.041352800636501,3.849602214094152,-2.2083797244687737,-0.11242624191092657,0.12180418014696587,0.4228558877776454,2,left
15.139000000000001,0.5517552348884353,1.0228089974870374,-0.2610673351897277,1.0263084249204497,3.849164305168171,-2.2011117392419575,-0.11243024778665808,0.12433576516445975,0.4192579405295457,2,left
15.215,0.5520573792861269,1.0234583358996836,-0.261015795514054,1.0111279579882833,3.848691466541673,-2.193791514024842,-0.11247088310298378,0.12687963479429418,0.41538814831684057,2,left
15.217,0.5523391111497367,1.0241157882525234,-0.2609696385545236,0.9958623224748481,3.8481752295498692,-2.1864146866055707,-0.11254529875063746,0.12942671261014882,0.41124747387576743,2,left
15.217,0.5526035411709034,1.024781102711707,-0.2609280457459787,0.9805645985716077,3.847607129397117,-2.1789763983862334,-0.11265054188748155,0.13196820221892944,0.4068377979222898,2,left
15.218,0.5528539041405413,1.0254540664014218,-0.26089020767026055,0.9652897535324307,3.846978770920331,-2.171471406897847,-0.11278357886032517,0.13449564426992147,0.4021619139297746,2,left
15.219000000000001,0.5530935245082319,1.0261345142442948,-0.2608553299958221,0.9500943574404582,3.8462819028266555,-2.1638941963083016,-0.1129413179272028,0.13700097087481375,0.3972235213059972,2,left
15.219000000000001,0.5533257800694122,1.0268223376389873,-0.26082263833253794,0.9350362851219574,3.8455085021361013,-2.1562390849266015,-0.11312063134274397,0.13947655721957553,0.39202721836771126,2,left
15.270999999999999,0.5535540643481454,1.0275174919099337,-0.26079138196277246,0.9201744041516894,3.844650869116064,-2.1485003295192793,-0.11331837664539607,0.14191527023017753,0.38657849562127083,2,left
15.273,0.5537817482856847,1.0282200016731478,-0.26076083653085563,0.9055682490200885,3.843701732304073,-2.140672226327932,-0.11353141716433986,0.14431051382749122,0.3808837294458366,2,left
15.274000000000001,0.5540121418206884,1.028929963615258,-0.26073030583387885,0.8912776821020592,3.8426543612067756,-2.1327492082301966,-0.11375664186059523,0.14665626962739436,0.37495017622525045,2,left
15.274000000000001,0.554248455870993,1.0296475464867578,-0.2606991228560405,0.877362543092172,3.841502680648287,-2.1247259366827342,-0.11399098465486442,0.14894713155831654,0.36878596699427485,2,left
15.275,0.5544937652950659,1.0303729883262427,-0.26066665024256624,0.8638822891408882,3.840241378732641,-2.1165973866381362,-0.11423144335670693,0.15117833325202393,0.3624001026438519,2,left
15.347000000000001,0.5547509735924139,1.0311065911791657,-0.2606322805436042,0.8508956273582372,3.838866002392933,-2.1083589230737996,-0.11447509824128212,0.15334576775394307,0.3558024496927564,2,left
15.349,0.5550227801101495,1.0318487138531336,-0.2605954366535016,0.838460140328035,3.837373038114067,-2.100006368574033,-0.11471913028192574,0.15544599948285698,0.34900373661201955,2,left
15.35,0.5553116502799024,1.0325997633986952,-0.26055557281378205,0.8266319047078728,3.835759977423865,-2.091536061852753,-0.11496083903924481,0.15747626844637364,0.34201555068380085,2,left
15.350999999999999,0.5556197891405047,1.0333601860034385,-0.2605121763351838,0.81546510287769,3.8340253671485627,-2.082944907193092,-0.11519766018189778,0.1594344867579361,0.33485033532162056,2,left
15.350999999999999,0.5559491183392904,1.0341304579431672,-0.26046476993085693,0.8050116276013258,3.8321688444284105,-2.0742304147799207,-0.11542718248659348,0.16131922769869791,0.32752138750751564,2,left
15.352,0.556301256967046,1.0349110770981955,-0.2604129144020577,0.7953206802371238,3.830191156490085,-2.0653907320671077,-0.11564716393509397,0.163129707923334,0.3200428545137373,2,left
15.408,0.5566775067860582,1.0357025552678196,-0.2603562114454265,0.7864383661550203,3.8280941654349485,-2.0564246671485114,-0.11585554639835792,0.1648657636063987,0.31242972880532427,2,left
15.41,0.5570788424400979,1.0365054112732512,-0.2602943064579822,0.7784072974980295,3.825880839593561,-2.047331706580265,-0.11605046853171956,0.16652782120898155,0.30469784014329593,2,left
15.411,0.5575059070276592,1.0373201647695918,-0.26022689129108556,0.7712662187061506,3.823555235306453,-2.038112030902576,-0.11623027676543937,0.16811686359473665,0.29686384366068147,2,left
15.412,0.5579590130706719,1.038147330699456,-0.2601537069225447,0.7650496687224199,3.821122474263628,-2.0287665302615028,-0.11639353445786826,0.16963439275626896,0.28894520163189374,2,left
15.413,0.5584381484586962,1.0389874142856075,-0.26007454598239843,0.7597876873248351,3.8185887202432296,-2.019296821051893,-0.11653902933468079,0.1710823907785814,0.28096015597527324,2,left
15.479000000000001,0.5589429864581149,1.0398409063755751,-0.2599892550133016,0.7555055677524918,3.815961156779513,-2.009705263701289,-0.11666577930686531,0.17246328026059662,0.27292768926283684,2,left
15.481,0.5594728987253693,1.040708278857933,-0.25989773634962915,0.7522236558779455,3.813247966009057,-1.9999949815646438,-0.11677303670480732,0.17377988468569538,0.2648674733331223,2,left
15.482000000000001,0.5600269707310465,1.041589979726955,-0.25979994958462044,0.7499571959107394,3.8104583086879593,-1.9901698809026451,-0.11686029093502648,0.17503538882653263,0.25679980533733093,2,left
15.485999999999999,0.560604019660961,1.0424864270991345,-0.2596959126418181,0.7487162224419448,3.807602305234905,-1.9802346717564498,-0.11692726955992996,0.17623329918810454,0.24874553119573467,2,left
15.487,0.561202615091023,1.0433980012160784,-0.25958570238242407,0.7485054977529548,3.8046910169668617,-1.9701948887329974,-0.11697393780088926,0.17737740449285555,0.2407259564412379,2,left
15.488,0.5618211025458658,1.0443250336136156,-0.25946945457318465,0.7493244917136319,3.801736425455772,-1.960056909277841,-0.11700049645453064,0.17847173616846065,0.23276274448502204,2,left
15.497,0.5624576298097846,1.0452677933113674,-0.25934736303978634,0.7511674007083736,3.7987514072465096,-1.9498279662138296,-0.11700737816027286,0.1795205285838598,0.22487780262954543,2,left
15.548,0.5631101756167488,1.046226470581788,-0.25921967789392003,0.7540232029210804,3.7957497018641084,-1.939516152121968,-0.11699524186384958,0.18052817839215796,0.21709315667681625,2,left
15.55,0.5637765799514978,1.047201159200519,-0.2590867027620242,0.7578757489139997,3.792745872276346,-1.9291304145774038,-0.11696496526969793,0.18149920212396803,0.20943081527032265,2,left
15.554,0.5644545747541098,1.0481918382174462,-0.25894879096671714,0.762703887362689,3.7897552573086175,-1.9186805420793527,-0.1169176351268374,0.18243819138953687,0.20191262481892516,2,left
15.555,0.5651418136928001,1.0491983543699472,-0.25880634064710034,0.7684816261644442,3.786793913860892,-1.9081771408123611,-0.11685453528604721,0.18334976543468623,0.19456011532875975,2,left
15.556,0.5658359000031311,1.050220406183999,-0.2586597888463417,0.7751783294541668,3.783878543564087,-1.8976316026266058,-0.11677713251243994,0.1842385211697544,0.18739433730130245,2,left
15.614,0.5665344119256167,1.0512575305722511,-0.2585096046302946,0.7827589512387493,3.781026396728575,-1.8870560647639112,-0.11668706004618307,0.18510898157533645,0.18043569065829895,2,left
15.617,0.5672349256700985,1.0523090924720133,-0.2583562813210778,0.7911843061894605,3.77825514822228,-1.8764633617168531,-0.1165860989831258,0.1859655445473372,0.173703749002852,2,left
15.618,0.567935036067444,1.053374277845672,-0.25820032795865977,0.8004113778206738,3.7755827431284166,-1.86586696935768,-0.11647615775046842,0.186812434544725,0.16721708538607968,2,left
15.619000000000002,0.568632375316947,1.0544520902109182,-0.2580422601929805,0.8103936641114948,3.773027211817762,-1.8552809413345328,-0.11635925010803906,0.18765365833100758,0.16099310638869307,2,left
15.620999999999999,0.569324630477962,1.0555413507456433,-0.2578825909306329,0.8210815598706751,3.7706064550517944,-1.8447198376592762,-0.11623747202666304,0.18849296494161702,0.15504789897937485,2,left
15.682,0.5700095603656764,1.0566407018720116,-0.25772182109781466,0.832422771528888,3.7683380028544637,-1.8341986451847836,-0.11611297759166288,0.1893338097084211,0.1493960917529576,2,left
15.684000000000001,0.5706850122600566,1.0577486140919108,-0.25756043080619523,0.8443627535310972,3.7662387565088293,-1.8237326892619432,-0.11598795395679237,0.19017932228868803,0.14405073078047967,2,left
15.685,0.5713489385322897,1.0588633957346252,-0.2573988711201558,0.8568451518851637,3.764324726156378,-1.8133375356402668,-0.11586459534825941,0.19103227870092301,0.13902317005407125,2,left
15.692,0.5719994131202664,1.0599832051329598,-0.25723755657330355,0.8698122439763062,3.76261077381994,-1.8030288821105611,-0.11574507611848474,0.1918950773699987,0.1343229765104623,2,left
15.693,0.5726346477821705,1.0611060646149013,-0.25707685851935613,0.8832053699371941,3.761110368372786,-1.7928224408359412,-0.1156315229115221,0.19276971918559901,0.12995784973692331,2,left
15.694,0.5732530081277154,1.0622298757119264,-0.25691709931291595,0.8969653538805212,3.7598353600305945,-1.782733814416187,-0.11552598631346982,0.19365779158593896,0.1259335570600695,2,left
15.748,0.5738530293880691,1.0633524350613652,-0.25675854722157193,0.9110329136909622,3.758795783638627,-1.7727783698160322,-0.11543041292173466,0.19456045669301028,0.1222538857911741,2,left
15.751,0.5744334315909374,1.0644714504301134,-0.2566014118602491,0.9253490584096968,3.757999697707731,-1.7629711132482229,-0.1153466190784253,0.19547844353355923,0.11892061499830682,2,left
15.751,0.574993133363709,1.065584556249855,-0.25644583989040864,0.9398554728488384,3.757453061978704,-1.7533265672304494,-0.11527626720177614,0.19641204437211737,0.11593350858087645,2,left
15.752,0.57553126344476,1.0666893283004215,-0.25629191091723386,0.9544948894090372,3.7571596539759096,-1.7438586499955908,-0.11522084508495274,0.19736111512073298,0.11329033028134358,2,left
15.753,0.5760471694042717,1.0677832975593073,-0.25613963388738814,0.9692114470616062,3.7571210242286193,-1.7345805573646782,-0.11518164819993525,0.19832507954490178,0.11098688032654845,2,left
15.814,0.5765404236369671,1.068863963422865,-0.25598894450285076,0.9839510370587877,3.7573364882430194,-1.7255046478802047,-0.11515976494541492,0.19930293655656858,0.10901705264726573,2,left
15.815999999999999,0.577010826854351,1.0699288065365984,-0.25583970410306733,0.9986616342192595,3.75780315043528,-1.71664233323586,-0.11515606475739258,0.20029326964784658,0.10737291127798103,2,left
15.817,0.5774584091245917,1.070975301590623,-0.25569170033566985,1.0132936122379328,3.758515953640569,-1.7080039767270652,-0.1151711890215027,0.2012942577564109,0.1060447848874565,2,left
15.829,0.5778834283543327,1.0720009306467038,-0.25554464982880737,1.0278000414808794,3.759467749043206,-1.6995988016945562,-0.1152055447626557,0.20230368728064954,0.10502137901728874,2,left
15.831,0.5782863661650837,1.0730031976580525,-0.2553982029346149,1.0421369665102314,3.7606493824138245,-1.691434810371146,-0.11525930108042512,0.2033189652273699,0.1042899056862497,2,left
15.831,0.5786679212809592,1.0739796447258083,-0.25525195049397387,1.0562636575028979,3.7620497908364308,-1.683518712270095,-0.11533238816518529,0.20433713365940573,0.10383622874889963,2,left
15.882,0.5790290006234377,1.0749278703638163,-0.2551054325142164,1.0701428278734364,3.763656102594883,-1.675855860791854,-0.11542449848250232,0.20535488585720088,0.10364502098632554,2,left
15.885,0.5793707083381148,1.075845549462503,-0.25495814845686193,1.0837408123437409,3.7654537347222727,-1.668450197051415,-0.11553508957580406,0.20636858474552267,0.10369992756796875,2,left
15.886,0.5796943332085832,1.076730453516967,-0.25480956837970037,1.0970277031806759,3.767426486017238,-1.6613042005138106,-0.11566338807523852,0.2073742839931937,0.10398373167886082,2,left
15.887,0.5800013353732609,1.0775804685805128,-0.25465914379232557,1.1099774444039336,3.7695566255357047,-1.654418846623492,-0.1158083947497227,0.2083677519159569,0.10447851959301836,2,left
15.888,0.5802933335450644,1.0783936085563315,-0.2545063172552633,1.1225678848973613,3.771824978786567,-1.6477935730424849,-0.11596889057943569,0.20934449811960557,0.10516584214768736,2,left
15.947000000000001,0.5805720936223341,1.0791680232134833,-0.25435053052068063,1.134780792697486,3.7742110171954106,-1.6414262585672093,-0.1161434438550471,0.21029980276201174,0.10602686891590138,2,left
15.949000000000002,0.580839518548953,1.079902002469109,-0.25419123181535425,1.1466018334772108,3.776692958253649,-1.6353132201580687,-0.1163304183085387,0.21122874834371452,0.10704253230125058,2,left
15.95,0.5810976380302746,1.080593979401385,-0.25402788305948504,1.158020515496426,3.7792478819180135,-1.6294492321531822,-0.11652798227785463,0.21212625399258894,0.10819366044580206,2,left
15.965,0.5813485965161618,1.0812425338664482,-0.2538599673738982,1.169030101948837,3.781851865490598,-1.6238275692841275,-0.11673411890617463,0.2129871122391175,0.10946109876843818,2,left
15.966,0.5815946389669356,1.081846397368746,-0.2536869966647368,1.1796274914828189,3.7844801368943406,-1.6184400734581856,-0.11694663737634303,0.2138060282849221,0.11082582013648938,2,left
15.967,0.5818380947310713,1.0824044588177049,-0.2535085188091045,1.189813070498102,3.7871072435747273,-1.6132772425464408,-0.11716318519687553,0.21457766172336326,0.11226902369150014,2,left
16.005,0.5820813596436611,1.0829157704939427,-0.2533241240698547,1.199590546172437,3.7897072300938506,-1.6083283368021084,-0.11738126163528129,0.21529667045211007,0.11377222243816669,2,left
16.006,0.5823268761238314,1.0833795538752677,-0.2531334505826129,1.2089667721453923,3.7922538151692677,-1.60358149708097,-0.11759823253718171,0.21595775612362378,0.11531731986392207,2,left
16.021,0.582577111108979,1.0837952053272792,-0.2529361888139723,1.2179515758110844,3.7947205612238735,-1.5990238704896063,-0.11781134681823162,0.2165557102329463,0.11688667606719938,2,left
16.023,0.5828345318502686,1.084162301685525,-0.2527320848600274,1.2265575908169548,3.7970810336776677,-1.5946417417033925,-0.1180177546826677,0.21708546002273815,0.11846316439703082,2,left
16.024,0.5831015797278776,1.08448060551486,-0.25252094249552104,1.23480009483129,3.7993089497794883,-1.5904206695551728,-0.118214527202572,0.21754211353061534,0.12003022055077756,2,left
16.081,0.5833806422987127,1.0847500695159655,-0.2523026239663,1.24269684925074,3.801378318507031,-1.5863456283127118,-0.11839867665874228,0.21792100318435972,0.12157188660130952,2,left
16.084,0.5836740238417063,1.0849708393833912,-0.2520770495903409,1.2502679324861408,3.80326357534514,-1.5824011522103696,-0.11856717718207593,0.2182177275322344,0.12307285179508437,2,left
16.101,0.5839839148412787,1.085143254482907,-0.251844196304501,1.2575355558570127,3.804939716906791,-1.5785714811772689,-0.11871698551135455,0.21842819094399374,0.12451849086037554,2,left
16.102999999999998,0.5843123610900031,1.085267845879979,-0.2516040953435873,1.2645238548625504,3.8063824385284244,-1.5748407054303108,-0.11884506183717299,0.21854864125604923,0.1258948999525087,2,left
16.104,0.5846612332451911,1.0853453314676051,-0.25135682925985425,1.2712586553251815,3.807568274672532,-1.5711929061069987,-0.11894839073249042,0.21857570536163382,0.12718893024038705,2,left
16.104,0.5850321977476679,1.085376608287591,-0.2511025285495873,1.277767217640335,3.8084747401374917,-1.5676122888390276,-0.119024002156438,0.21850642270677456,0.12838821918026752,2,left
16.146,0.5854266900123303,1.0853627425233798,-0.2508413682423952,1.2840779619814082,3.809080470384993,-1.5640833080109795,-0.11906899244901001,0.21833827645368784,0.1294812197317451,2,left
16.147000000000002,0.5858458905955078,1.085304957839328,-0.25057356483096643,1.2902201756108806,3.8093653603109185,-1.5605907807956507,-0.11908054511009203,0.2180692217148585,0.13045722814721628,2,left
16.163,0.5862907046327592,1.0852046227277297,-0.25029937386298745,1.2962237025049228,3.8093107013493177,-1.557119990806031,-0.11905595108725478,0.2176977100618509,0.13130641117501582,2,left
16.165,0.5867617444370341,1.0850632374613642,-0.25001908842086745,1.302118615309693,3.8088993169111727,-1.5536567813537605,-0.11899262835809474,0.21722270967054133,0.13201983329717848,2,left
16.165,0.5872593149452929,1.0848824211843537,-0.24973303856596513,1.3079348701604296,3.808115695804506,-1.55018763837502,-0.11888814067938422,0.216643720617195,0.1325894841971712,2,left
16.213,0.5877834017629054,1.0846638995464981,-0.24944159166809207,1.313701947461034,3.8069461215102454,-1.5466997634399404,-0.11874021537659059,0.2159607846693393,0.13300830635568242,2,left
16.214000000000002,0.5883336618400186,1.084409493123872,-0.24914515345492064,1.319448486342118,3.805378791999181,-1.5431811379007756,-0.11854676002347661,0.21517448874981235,0.1332702225816033,2,left
16.237000000000002,0.5889094171703698,1.084121106752859,-0.24884416957172203,1.3252019230822378,3.803403923003122,-1.5396205795891424,-0.11830587789890208,0.21428596145713252,0.1333701633336493,2,left
16.238,0.5895096520297393,1.083800719827871,-0.2485391274073628,1.330988141209917,3.80101382942341,-1.5360077931175076,-0.11801588216805045,0.21329686250994054,0.13330409363708867,2,left
16.239,0.5901330139743501,1.0834503775299635,-0.24823055794606508,1.336831136383411,3.798202982746884,-1.5323334142008755,-0.1176753087361168,0.21220936576698002,0.13306903875704545,2,left
16.24,0.5907778182957646,1.083072182872551,-0.2479190374358114,1.3427526968792842,3.794968044473169,-1.528589048249581,-0.11728292766401396,0.2110261375569041,0.1326631065548336,2,left
16.279,0.5914420552425278,1.0826682893768003,-0.24760518869134845,1.3487721015130103,3.791307877729224,-1.5247673043635879,-0.11683775299893086,0.2097503126308537,0.13208550376203024,2,left
16.281,0.5921233993273506,1.0822408940872925,-0.2472896818905987,1.3549058395247686,3.7872235425200667,-1.5208618275697445,-0.11633905090901456,0.20838546947152584,0.13133654409778675,2,left
16.295,0.5928192204924184,1.0817922304910277,-0.24697323480867558,1.3611673584692776,3.78271828188238,-1.5168673330939133,-0.11578634608140755,0.20693560555527923,0.13041764736351266,2,left
16.297,0.5935265974798589,1.0813245607938253,-0.2466566125381853,1.3675668448039238,3.7777975044237198,-1.5127796452851106,-0.11517942640060153,0.20540511211063373,0.1293313291640075,2,left
16.298,0.5942423339920557,1.0808401670233239,-0.24634062678956117,1.3741110399629162,3.772468765635705,-1.508595740977897,-0.11451834596957,0.20379874694731576,0.1280811807253641,2,left
16.348,0.5949629780914985,1.0803413404259627,-0.24602613480452556,1.3808030946454162,3.766741748875353,-1.504313794113336,-0.11380342655728606,0.20212160345578037,0.12667183810363813,2,left
16.35,0.5956848450656784,1.0798303685399937,-0.24571403781598963,1.3876424645478507,3.760628246724801,-1.499933217128981,-0.11303525753477764,0.20037907435088673,0.1251089402536427,2,left
16.375,0.5964040437218158,1.079309519557079,-0.245405278968071,1.3946248498462261,3.754142142768221,-1.4954546957085852,-0.11221469432338026,0.19857680958634957,0.12339907574327526,2,left
16.375999999999998,0.5971165056825867,1.0787810242811333,-0.24510084066692375,1.4017421786801723,3.7472993910515493,-1.4908802153022125,-0.11134285535739445,0.1967206683403644,0.12154971807417209,2,left
16.377,0.5978180168674212,1.0782470565412072,-0.24480174132925306,1.4089826329913464,3.740117985905595,-1.4862130785960517,-0.11042111755894313,0.19481666506741294,0.1195691496042142,2,left
16.378,0.5985042501094353,1.0777097129493811,-0.2445090313841276,1.416330714299442,3.7326179123297543,-1.481457913140115,-0.10945111030433326,0.192870909798305,0.1174663741291077,2,left
16.414,0.5991707977445344,1.0771709927817066,-0.24422378829735822,1.4237673476086266,3.7248210695785837,-1.476620668536471,-0.10843470776937657,0.1908895438064666,0.11525101849045336,2,left
16.434,0.5998132030895601,1.0766327787674865,-0.24394711043379383,1.431270022734137,3.7167511649953946,-1.4717086029409185,-0.10737401937591587,0.1888786734433387,0.11293322413641133,2,left
16.436,0.6004269900849937,1.0760968196105407,-0.24368010970700255,1.4388129729482588,3.7084335775821646,-1.4667302588255167,-0.10627137796996228,0.18684430588173928,0.11052352987130792,2,left
16.437,0.6010076908746022,1.0755647150355505,-0.24342390311388426,1.4463673907348733,3.699895191484575,-1.4616954280060024,-0.10512932545341878,0.18479228956983168,0.10803274671961813,2,left
16.437,0.60155087150402,1.0750379039842086,-0.24317960337323677,1.4539016792812922,3.691164200576029,-1.4566151060275498,-0.10395059577508517,0.1827282605095823,0.10547182549152238,2,left
16.479,0.6020521560902574,1.0745176563058971,-0.2429483089321339,1.4613817362470287,3.6822698871342623,-1.4515014361634364,-0.1027380953721242,0.18065759451901447,0.10285171843200173,2,left
16.48,0.6025072498045682,1.0740050680350528,-0.24273109359945416,1.4687712651885325,3.6732423786093413,-1.4463676433706365,-0.10149488134042195,0.1785853654171649,0.10018323826320252,2,left
16.496,0.6029119610604516,1.073501060156834,-0.24252899612057316,1.4760321111795043,3.6641123854754754,-1.4412279584566265,-0.10022413770607197,0.1765163090522109,0.09747691903522071,2,left
16.511,0.6032622234315465,1.0730063805767744,-0.24234301010125778,1.4831246186237497,3.6549109220972444,-1.4360975325515706,-0.09892915007621417,0.1744547931116207,0.09474288209466483,2,left
16.512,0.6035541177961546,1.0725216088769507,-0.24217407468059018,1.4900080072595712,3.6456690152801334,-1.4309923418968795,-0.09761327877834702,0.1724047926862999,0.09199070849009955,2,left
16.512999999999998,0.6037838949452335,1.0720471634428372,-0.24202306620641467,1.4966407569014335,3.6364174117157386,-1.4259290829548688,-0.09627993055130984,0.1703698715299817,0.08922931822027265,2,left
16.546,0.603947998618456,1.0715833106158057,-0.24189079097262592,1.5029809883058072,3.6271862992772967,-1.4209250578507528,-0.09493252907258182,0.168353168713124,0.08646685747248091,2,left
16.572,0.6040430888236651,1.0711301755132094,-0.2417779789055728,1.5089868307058343,3.6180050533755814,-1.4159980501518095,-0.09357448503902416,0.1663573899283737,0.08371059673116041,2,left
16.574,0.6040660652612467,1.0706877539895046,-0.24168527793633493,1.5146167722437647,3.60890201284325,-1.4111661909769835,-0.09220916675844104,0.16438480245901516,0.08096684359941582,2,left
16.574,0.6040140904934701,1.070255924988044,-0.24161324866890224,1.5198299926876213,3.599904286070293,-1.4064478154238944,-0.09083987200626409,0.16243723309451558,0.07824087326850028,2,left
16.575,0.6038846121826936,1.0698344624743545,-0.24156235891005662,1.5245866786159514,3.5910375873574827,-1.4018613096236405,-0.08946980165544148,0.1605160688543688,0.0755368781122842,2,left
16.613,0.6036753836139896,1.0694230463510828,-0.2415329777282716,1.528848322086952,3.582326103421014,-1.3974249503566285,-0.08810203568271488,0.15862226086981926,0.07285793741575859,2,left
16.614,0.6033844820006643,1.0690212720924035,-0.24152536898564303,1.5325780053073441,3.5737923899207287,-1.3931567420835818,-0.08673951229274193,0.1567563319570509,0.07020600832893055,2,left
16.648,0.6030103245134866,1.0686286590993523,-0.24153968471504772,1.535740674648569,3.565457297850781,-1.3890742578688082,-0.08538501069372258,0.15491838820344264,0.06758193870505737,2,left
16.65,0.6025516822785841,1.0682446578957296,-0.24157595911017093,1.5383034065229584,3.5573399296659582,-1.3851944890506955,-0.08404113761551399,0.1531081342596259,0.06498550119921849,2,left
16.651,0.6020076925914715,1.067868656359241,-0.24163410399016977,1.5402356661307142,3.549457625078464,-1.3815337055942756,-0.08271031728182665,0.15132489119999706,0.06241544630941038,2,left
16.652,0.601377869256315,1.0674999853839249,-0.24171390638057116,1.5415095589924666,3.5418259760433104,-1.3781073273164635,-0.08139478440359126,0.14956761540114238,0.05986957119908233,2,left
16.68,0.6006621105240418,1.0671379246648296,-0.24181502855408313,1.542100073709051,3.534458868202071,-1.374929805239589,-0.08009657986787247,0.14783491727402823,0.05734480192849413,2,left
16.707,0.5998607040061288,1.066781709438827,-0.2419370106180447,1.5419853120398515,3.5273685419949268,-1.3720145112295499,-0.0788175489898038,0.14612507938125255,0.054837288141444805,2,left
16.708,0.5989743283047234,1.0664305389398767,-0.24207927550261138,1.5411467010844546,3.5205656643958663,-1.3693736334645272,-0.07755934226075717,0.1444360739530246,0.05234250977236972,2,left
16.708,0.5980040515550076,1.0660835871905436,-0.24224113606566727,1.5395691834851097,3.514059404461218,-1.3670180761780015,-0.07632341833965961,0.14276558037277565,0.049855394146511314,2,left
16.709,0.5969513272326513,1.0657400164679274,-0.24242180401107608,1.5372413830638931,3.507857509836748,-1.36495736465057,-0.07511104866038049,0.14111100406719534,0.047370439415867584,2,left
16.746,0.5958179874991562,1.0653989929250727,-0.2426204001811677,1.534155743081015,3.501966383434031,-1.3631995596111064,-0.0739233228203707,0.13946949871545106,0.04488183892362965,2,left
16.748,0.5946062344676394,1.0650597026132522,-0.2428359654614953,1.530308633709471,3.496391159832626,-1.3617511867609384,-0.07276115412360022,0.13783799321249682,0.042383602439868974,2,left
16.785,0.5933186301136819,1.064721365940971,-0.24306747154541017,1.5257004261691567,3.491135781071636,-1.3606171857054516,-0.07162528502495129,0.13621322395759675,0.03986967264128971,2,left
16.785999999999998,0.5919580852991562,1.0643832499282462,-0.24331383140286722,1.5203355324915042,3.4862030716863117,-1.3598008800042154,-0.07051629246130564,0.1345917724827809,0.03733403642198062,2,left
16.787,0.5905278471111042,1.0640446786231708,-0.24357390977135784,1.5142224107510083,3.4815948130689134,-1.3593039684842536,-0.06943459324724005,0.1329701079572976,0.03477083021258725,2,left
16.787,0.5890314827421809,1.0637050417530844,-0.2438465338801324,1.5073735358550155,3.477311817837642,-1.3591265369897418,-0.06838044998519736,0.13134463341528135,0.032174437262195786,2,left
16.813,0.5874728588056,1.0633638017051,-0.24413050446027984,1.4998053361378973,3.4733540059466663,-1.359267088507117,-0.06735397809111977,0.12971173417116266,0.02953957415766675,2,left
16.844,0.585856116617993,1.0630204998437929,-0.2444246071164903,1.4915380960907434,3.4697204848536205,-1.3597225889192734,-0.06635515438556648,0.12806782727004784,0.026861364534569263,2,left
16.845,0.584185644861949,1.0626747633035625,-0.24472762392221867,1.48259582546845,3.4664096354794713,-1.360488526329662,-0.06538382741815232,0.12640941146629547,0.02413539927572459,2,left
16.846,0.5824660505513259,1.062326312385775,-0.24503834475321118,1.4730060951762474,3.463419204438629,-1.3615589830475094,-0.06443972949024687,0.12473311739193256,0.021357783767091,2,left
16.846,0.580702128320618,1.0619749680706978,-0.24535557789412288,1.462799841844261,3.46074640138748,-1.3629267195839463,-0.06352249021726339,0.12303575726738328,0.018525173986311566,2,left
16.879,0.5788988277400288,1.0616206593992321,-0.2456781597066639,1.4520111458516174,3.458387998337197,-1.3645832693755708,-0.06263165142001222,0.12131437329267698,0.015634803793452185,2,left
16.922,0.5770612185476475,1.061263430763508,-0.24600496323611235,1.4406769891554705,3.456340426729385,-1.366519042524297,-0.06176668318660471,0.11956628407151658,0.012684505198968226,2,left
16.924,0.5751944538838645,1.0609034490155176,-0.24633490560642288,1.4288369976828366,3.4545998691222417,-1.3687234372717338,-0.06092700100374149,0.11778912879460278,0.009672722409368189,2,left
16.925,0.5733037316718546,1.060541009931819,-0.2466669540966385,1.4165331701691874,3.4531623442225983,-1.3711849586985714,-0.06011198372717856,0.11598090906479175,0.0065985203335448975,2,left
16.925,0.5713942543611411,1.0601765433360262,-0.24700013088798872,1.4038095937304658,3.4520237850483135,-1.3738913445688017,-0.05932099184573649,0.11414002818501179,0.0034615889723207476,2,left
16.926,0.5694711874552219,1.059810616259385,-0.24733351655176636,1.3907121461427971,3.4511801104439597,-1.3768296981126062,-0.0585533853122411,0.11226532767176658,0.00026224559058671975,2,left
16.947,0.5675396174890184,1.0594439337028951,-0.24766625237711612,1.3772881848438279,3.450627291313434,-1.37998662648011,-0.05780854039590432,0.11035612081497972,-0.0029985639057715924,2,left
16.980999999999998,0.5656045102692971,1.0590773367072657,-0.24799754165037013,1.3635862227421742,3.450361414985625,-1.3833483816866265,-0.05708586533661196,0.10841222320927074,-0.006319263824761683,2,left
16.984,0.5636706702840967,1.058711797668755,-0.24832665009112465,1.3496555909613916,3.450378752269899,-1.3869009998083204,-0.056384814771037524,0.1064339801584551,-0.009697647682120534,2,left
16.984,0.5617427022283525,1.0583484131651748,-0.24865290580004515,1.3355460886029435,3.4506758306192213,-1.3906304352502052,-0.05570490297845354,0.10442229046047766,-0.013130877303550711,2,left
16.985,0.5598249754341194,1.0579883947679065,-0.24897569911743447,1.3213076195720692,3.4512495144366624,-1.3945226887224407,-0.05504571606919441,0.10237862534893255,-0.01661548194510828,2,left
17.012999999999998,0.5579215916801542,1.0576330583163853,-0.24929448268760387,1.3069898166386804,3.452097090765818,-1.3985639281297222,-0.05440692328046417,0.10030504096113717,-0.02014735730839816,2,left
17.058,0.5560363566117559,1.0572838120572805,-0.24960877189159236,1.292641653202481,3.4532163553973354,-1.4027406009021868,-0.05378828750256628,0.09820418310872095,-0.023721764360649555,2,left
17.06,0.5541727548971901,1.0569421440788744,-0.24991814572364485,1.2783110440586924,3.4546056926899844,-1.4070395359141394,-0.05318967508367353,0.09607928385755708,-0.027333327929759982,2,left
17.06,0.5523339292335218,1.0566096096037332,-0.25022224811652505,1.26404443957912,3.4562641436701362,-1.411448034188963,-0.05261106491963799,0.09393414982986835,-0.030976035077791557,2,left
17.061,0.5505226634081126,1.0562878187556866,-0.2505207896273171,1.2498864233366367,3.458191459250623,-1.4159539494818771,-0.05205255680470548,0.0917731422595731,-0.03464323333228352,2,left
17.063,0.5487413698061604,1.0559784252670865,-0.2508135492851063,1.2358793263197938,3.460388136675372,-1.4205457608841898,-0.0515143789072673,0.08960114901734038,-0.03832762920038635,2,left
17.079,0.5469920818248887,1.0556831163010458,-0.25110037633095716,1.2220628675620142,3.4628554380198038,-1.4252126391342859,-0.050996894033617894,0.0874235491556136,-0.04202128801287548,2,left
17.118,0.5452764514025403,1.0554036032527596,-0.2513811915921728,1.2084738250909295,3.4655953902826306,-1.4299445073173154,-0.050500604238595384,0.08524617079263849,-0.04571563662827592,2,left
17.119,0.5435957513977867,1.05514161321279,-0.25165598830978664,1.1951457378153965,3.4686107669970467,-1.4347320960782524,-0.05002615349202854,0.0830752433857781,-0.049401470869681004,2,left
17.12,0.5419508821721447,1.0548988808230608,-0.25192483234631774,1.1821086383105806,3.4719050513683984,-1.439566993361711,-0.049574328379952036,0.08091734586068146,-0.05306897018302141,2,left
17.12,0.5403423816250538,1.0546771404214266,-0.25218786181612474,1.1693888168030293,3.4754823812693165,-1.444441688713856,-0.04914605696960132,0.07877935229415231,-0.056707722347845206,2,left
17.147000000000002,0.538770438127202,1.054478118465672,-0.25244528626836743,1.1570086183628239,3.479347478039524,-1.4493496122907032,-0.048742405951420965,0.07666837639474032,-0.060306760314696714,2,left
17.195999999999998,0.5372349061797355,1.0543035261874847,-0.25269738557032495,1.144986278378699,3.4835055639461894,-1.4542851689131007,-0.04836457610262856,0.07459171527496865,-0.06385461200501572,2,left
17.198,0.5357353249580316,1.0541550522338523,-0.2529445085656464,1.1333358030973548,3.4879622747769665,-1.4592437676176024,-0.04801389608388976,0.07255679259159506,-0.06733936313560594,2,left
17.199,0.5342709400029941,1.054034354763124,-0.25318707145358926,1.1220669001175418,3.4927235723136056,-1.464221846939283,-0.04769181459881151,0.0705711010429025,-0.07074873256229572,2,left
17.2,0.5328407282324005,1.0539430523124411,-0.25342555573989295,1.1111849597266383,3.4977956579788803,-1.469216895444555,-0.04739989099233069,0.06864214420468069,-0.07407015886372811,2,left
17.202,0.5314434262428187,1.0538827128942283,-0.2536605055842848,1.1006910845794418,3.503184886348356,-1.4742274659832897,-0.04713978438987356,0.06677737768255101,-0.07729089645629306,2,left
17.255,0.5300775615116702,1.0538548411264388,-0.2538925243542631,1.0905821639431943,3.508897676348165,-1.4792531815856105,-0.04691324145352412,0.06498414956255753,-0.08039811996073958,2,left
17.257,0.5287414855810689,1.0538608636651472,-0.2541222701780532,1.0808509896698686,3.5149404185089743,-1.484294731451014,-0.04672208278523008,0.06326964014954356,-0.08337903631429086,2,left
17.258,0.5274334079057552,1.0539021136327444,-0.2543504503587512,1.0714864127424735,3.521319377633892,-1.4893538564175295,-0.046568187976747506,0.061640801083800684,-0.08622100442578418,2,left
17.259,0.5261514291085908,1.053979814874711,-0.25457781468399615,1.0624735401791432,3.528040590787108,-1.4944333238209133,-0.046453479277479476,0.06010429441077827,-0.08891166162821114,2,left
17.26,0.5248935727979183,1.054095066768695,-0.25480514781873115,1.0537939722197802,3.535109760362071,-1.4995368917701364,-0.04637990380916953,0.05866643304875322,-0.09143905505088562,2,left
17.279,0.5236578154885215,1.0542488301919306,-0.25503326100098905,1.0454260794848043,3.5425321406961277,-1.5046692629243446,-0.04634941423301962,0.0573331245828758,-0.09379177540429877,2,left
17.331,0.5224421144127038,1.0544419151767417,-0.2552629832059973,1.0373453193712978,3.5503124143724287,-1.5098360279625052,-0.04636394782882365,0.056109819820695205,-0.09595909109322967,2,left
17.333,0.521244433208064,1.054674970669345,-0.2554951518816334,1.0295245899547296,3.558454553501124,-1.5150435989946192,-0.04642540414017523,0.0550014666231356,-0.09793108067586244,2,left
17.334,0.5200627656168901,1.0549484766560124,-0.2557306033216742,1.0219346160925846,3.566961664781186,-1.5202991330983269,-0.04653562163712529,0.05401246894916922,-0.09969876046248895,2,left
17.335,0.5188951573962427,1.055262738774596,-0.25597016275201123,1.0145443559961251,3.575835823460132,-1.5256104460475508,-0.046696354004546914,0.05314665090456423,-0.10125420314346419,2,left
17.335,0.5177397267070514,1.0556178853937321,-0.2562146342773348,1.00732141296451,3.5850779048182146,-1.530985916234787,-0.04690924651254661,0.05240722563694383,-0.10259064436465702,2,left
17.392,0.5165946833428201,1.0560138670107668,-0.2564647909330027,1.0002324407543397,3.594687420147921,-1.5364343789974195,-0.047175812651705805,0.051796769012488114,-0.10370257602049612,2,left
17.394000000000002,0.5154583471559633,1.0564504577253238,-0.2567213651237727,0.9932435375241314,3.60466236171322,-1.5419650126404396,-0.04749741110453409,0.05131719808370221,-0.10458582597823662,2,left
17.395,0.5143291659104228,1.0569272585395098,-0.25698503966744873,0.9863206264001063,3.614999061659257,-1.5475872193814029,-0.04787522329678213,0.05096975447939114,-0.10523762372726578,2,left
17.396,0.5132057326204238,1.0574437022775844,-0.2572564395322355,0.9794298210815193,3.6256920709014966,-1.5533105055154635,-0.048310232136966225,0.05075499304823888,-0.10565665068161081,2,left
17.397000000000002,0.5120868022833529,1.0579990598850386,-0.25753612421614946,0.972537775294383,3.63673406252403,-1.55914436402802,-0.04880320275514177,0.050672776198813364,-0.1058430734381501,2,left
17.413,0.5109713077849626,1.058592447727758,-0.2578245806057105,0.9656120156052279,3.6481157615171433,-1.5650981609557948,-0.04935466584959617,0.05072227426814748,-0.10579855871737526,2,left
17.468,0.5098583746481876,1.0592228353651918,-0.25812221610844116,0.9586212574969624,3.6598259011849263,-1.5711810257269203,-0.04996490388000931,0.050901971965544676,-0.10552626954084797,2,left
17.47,0.5087473342136345,1.0598890532386391,-0.2584293519067761,0.9515357046869657,3.6718512062546194,-1.5774017454968072,-0.05063394011458558,0.051209680397619715,-0.10503084293858174,2,left
17.47,0.5076377347967811,1.0605897998724394,-0.2587462163303066,0.94432733166745,3.684176402720369,-1.5837686634969188,-0.05136153044669474,0.05164255338481151,-0.10431835013045918,2,left
17.471,0.5065293504183594,1.061323648485741,-0.2590729385716342,0.9369701493318863,3.696784254202928,-1.590289581457329,-0.05214715786804509,0.05219710635000978,-0.10339624043988813,2,left
17.471,0.5054221868942618,1.0620890531717726,-0.2594095432032028,0.9294404529707297,3.709655623347345,-1.596971666381249,-0.052990029514263,0.05286923649027105,-0.10227326988251798,2,left
17.497,0.504316485297518,1.0628843548927416,-0.2597559460612795,0.9217170508748029,3.7227695545128454,-1.6038213623405706,-0.053889076250548874,0.0536542437168992,-0.10095941480567801,2,left
17.537,0.5032127228574775,1.0637077875560794,-0.26011195199525244,0.9137814712039825,3.736103372749528,-1.610844308178829,-0.05484295479392823,0.0545468522794813,-0.09946577063885659,2,left
17.539,0.5021116112301652,1.0645574845421366,-0.26047725477039646,0.9056181453586353,3.74963279531763,-1.6180452617915368,-0.05585005233813645,0.05554123312030442,-0.0978044359983668,2,left
17.539,0.5010140920003178,1.0654314862157572,-0.2608514391397115,0.8972145671352286,3.7633320542745246,-1.6254280312638754,-0.056908493465434286,0.056631027228426625,-0.09598838362055034,2,left
17.54,0.4999213293950787,1.0663277490291008,-0.2612339849098019,0.8885614272976751,3.777174029762807,-1.632995413034721,-0.05801614880238362,0.057809370663527954,-0.09403132181451036,2,left
17.598,0.49883470038199873,1.0672441567784097,-0.26162427279839734,0.8796527221636368,3.791130393121386,-1.6407491377401366,-0.059170644694863044,0.059068922142482626,-0.09194755135663592,2,left
17.6,0.497755782455627,1.0681785344484216,-0.26202159193208374,0.8704858327383904,3.8051717575666366,-1.648689825338651,-0.06036937336989066,0.06040189386265059,-0.08975182167187608,2,left
17.6,0.49668633947164254,1.0691286647241451,-0.2624251487868886,0.8610615697803923,3.819267833426996,-1.6568169516482036,-0.061609503430579825,0.06180008585213591,-0.08745918870361233,2,left
17.601,0.495628305928951,1.070092306345187,-0.26283407704676265,0.8513841813297037,3.833387585678798,-1.6651288278981364,-0.0628879908047374,0.06325492394474065,-0.08508487703587138,2,left
17.602,0.494583770333096,1.071067212293214,-0.26324744743016,0.8414613213702039,3.8474993932149064,-1.6736225941026952,-0.06420159035531389,0.06475750144958842,-0.08264414935939704,2,left
17.675,0.4935549587736917,1.0720511455611648,-0.2636642766476372,0.8313039803845288,3.861571211061635,-1.682294226938614,-0.06554686830984065,0.06629862456903764,-0.08015218559837364,2,left
17.677,0.4925442200872449,1.0730418914337343,-0.2640835353571553,0.8209263823017035,3.8755707370796775,-1.6911385622981074,-0.06692021557395149,0.06786886158889381,-0.07762397262035135,2,left
17.678,0.49155401328661713,1.074037266690567,-0.2645041555254757,0.8103458578236881,3.8894655815342607,-1.7001493302640556,-0.06831786194299355,0.0694585958485254,-0.07507420467728414,2,left
17.678,0.49058689646333287,1.0750351269505076,-0.2649250377091971,0.7995827065848667,3.9032234337723186,-1.7093191977313151,-0.06973589121558435,0.0710580824952904,-0.07251719457055392,2,left
17.679000000000002,0.4896455152411363,1.07603337365192,-0.26534505880779224,0.7886600570856822,3.9168122200769058,-1.7186398143049555,-0.07117025723586318,0.07265750895597672,-0.06996679553211663,2,left
17.68,0.4887325891931505,1.0770299622824786,-0.265763080848565,0.7776037278540857,3.9302002499192676,-1.728101859531752,-0.0726168010053117,0.0742470586990809,-0.06743633381067893,2,left
17.733,0.4878508960049374,1.0780229129851449,-0.2661779609866021,0.7664420903721781,3.9433563501267486,-1.7376950911378013,-0.07407126917527666,0.07581697719576555,-0.06493855183003322,2,left
17.734,0.4870032540581056,1.0790103230664778,-0.2665885621501331,0.755205933331568,3.956249987245841,-1.7474083943584962,-0.07552933416992501,0.07735763852875331,-0.06248556120321763,2,left
17.735,0.48619250401069075,1.0799903795140084,-0.26699376327965335,0.7439283257548502,3.968851379580819,-1.757229832744893,-0.0769866157594294,0.07885961127795485,-0.06008880384482158,2,left
17.736,0.48542148943731805,1.080961370079693,-0.2673924683604853,0.7326444728739582,3.981131602550773,-1.767146701366192,-0.07843870352239628,0.08031372285800695,-0.057759018849231625,2,left
17.736,0.48469303614196696,1.0819216930528306,-0.26778361400164685,0.7213915566301929,3.9930626922088375,-1.777145583625788,-0.079881179698009,0.08171112194139556,-0.05550621338621873,2,left
17.811,0.4840099296558885,1.082869866582606,-0.26816617557188877,0.7102085546863568,4.004617750564844,-1.7872124126112672,-0.0813096422067642,0.08304333881111556,-0.05333963685763426,2,left
17.813,0.48337489073027357,1.08380453794711,-0.26853917191716997,0.6991360354877617,4.015771054188648,-1.797332537363684,-0.08271972772071433,0.08430234338250032,-0.05126775787452271,2,left
17.814,0.4827905489610764,1.0847244924689337,-0.26890166874439175,0.6882159289347177,4.026498166368708,-1.8074907941542864,-0.08410713456698025,0.0854806002867291,-0.04929824325330515,2,left
17.815,0.48225941483231904,1.085628661435442,-0.2692527808700195,0.6774912726344648,4.036776052859035,-1.8176715827975831,-0.08546764517480165,0.08657112020450439,-0.04743793796496824,2,left
17.815,0.4817838506598175,1.0865161283293814,-0.26959167358214764,0.6670059337008276,4.046583201246515,-1.827858948029791,-0.08679714784979652,0.08756750684201137,-0.04569284523642913,2,left
17.816,0.4813660412685498,1.0873861328196976,-0.2699175633408014,0.6568043061382217,4.055899743964788,-1.838036665738621,-0.08809165779125848,0.08846399930793418,-0.04406810648047548,2,left
17.87,0.48100796545459307,1.088238072236313,-0.27022971799923756,0.6469309846210776,4.064707584569332,-1.848188332689473,-0.08934733734169985,0.08925550985388198,-0.04256798099595614,2,left
17.872,0.4807113691080444,1.0890715004904585,-0.27052745669204525,0.6374304182633646,4.072990524908914,-1.8582974565793025,-0.09056051547442645,0.08993765689139607,-0.041195825444563364,2,left
17.872,0.4804777404719864,1.0898861245155353,-0.27081014949519533,0.6283465522224492,4.080734387317768,-1.8683475427081728,-0.09172770653470466,0.0905067927500306,-0.03995407316760509,2,left
17.873,0.4803082877571583,1.090681798402971,-0.27107721695883713,0.6197224668147285,4.08792712403731,-1.878322175149232,-0.0928456282677449,0.09096002483359128,-0.03884421350860715,2,left
17.874000000000002,0.48020391933405115,1.0914585156158907,-0.2713281297007967,0.6116000210386275,4.094558908052809,-1.8882050921115363,-0.09391121917647945,0.09129522838291076,-0.03786677136466504,2,left
17.949,0.4801652267669146,1.0922163998819534,-0.2715624083625335,0.6040195031530038,4.10062220303832,-1.8979802557311922,-0.09492165524210568,0.09151104950160913,-0.0370212871331233,2,left
17.951,0.4801924708592397,1.092955695438771,-0.2717796242241761,0.5970192887206341,4.106111812043118,-1.907631916394403,-0.09587436599602486,0.09160689804109524,-0.036306297255894536,2,left
17.952,0.48028557076953415,1.093676757250137,-0.27197940061299075,0.5906355060935341,4.111024904938671,-1.9171446716207763,-0.09676704978965865,0.09158293105427043,-0.03571931619460611,2,left
17.953,0.4804440963635564,1.0943800416863552,-0.2721614150319469,0.5849017093184181,4.115361024643558,-1.9265035195349414,-0.09759768786867073,0.09144002881400302,-0.03525682189577747,2,left
17.954,0.4806672642344546,1.0950660979605802,-0.2723254017987044,0.5798485584422662,4.1191220721421,-1.9356939069541697,-0.09836455672583205,0.09117976605725002,-0.034914247492816,2,left
17.955,0.48095393782547546,1.0957355603829522,-0.27247115494619495,0.5755035076425732,4.122312270572814,-1.9447017722814213,-0.09906623833872004,0.0908043804502086,-0.034685981304772684,2,left
18.004,0.48130263164464976,1.0963891413404507,-0.2725985311651624,0.5718905038229178,4.124938109971164,-1.953513584203453,-0.09970162814336245,0.09031673902869938,-0.034565376014979866,2,left
18.005,0.48171151908841375,1.09702762487765,-0.272707452629125,0.5690297023020098,4.127008276607467,-1.9621163786523106,-0.10026994076325749,0.0897203024846408,-0.03454476752485764,2,left
18.005,0.48217844323206616,1.097651860768277,-0.27279790959698696,0.566937208440598,4.128533572169162,-1.9704977972986444,-0.10077071360492529,0.08901908664397301,-0.03461550437931963,2,left
18.006,0.48270092997775776,1.098262758893357,-0.27286996272212927,0.5656248518385208,4.129526826725053,-1.9786461300340896,-0.10120380846733605,0.08821762026321203,-0.03476798895954966,2,left
18.006,0.4832762031858989,1.098861283519812,-0.27292374503214123,0.5650999959822091,4.130002807143628,-1.9865503622742224,-0.10156941127598815,0.08732089848936009,-0.03499173134017235,2,left
18.081,0.4839012019130919,1.099448446791358,-0.2729594635804673,0.5653653851682129,4.129978121796586,-1.9942002262725815,-0.10186802998673065,0.08633433171973998,-0.035275416169840416,2,left
18.084,0.4845726002650225,1.1000253005613247,-0.272977400742432,0.5664190321707883,4.129471122962318,-2.001586253979888,-0.10210049066785143,0.08526368981588993,-0.03560698263546107,2,left
18.085,0.485286830287733,1.100592925843416,-0.2729779150302368,0.5682541512810904,4.12850180881318,-2.0086998281521553,-0.10226793176148184,0.08411504166895521,-0.035973717510679716,2,left
18.086,0.4860401078310335,1.1011524198008422,-0.27296144124857735,0.5708591401905213,4.127091726398357,-2.0155332292404013,-0.10237179650072807,0.08289469025458553,-0.036362361197720586,2,left
18.087,0.4868284607386215,1.1017048809670982,-0.2729284898392978,0.5742176121099594,4.125263876185654,-2.02207967708746,-0.10241382333650154,0.08160910401926338,-0.036759226213371875,2,left
18.088,0.4876477584255309,1.1022513936340876,-0.27287964529353204,0.578308478063998,4.123042617864452,-2.028333367240301,-0.10239603400778738,0.0802648467072465,-0.03715032674479686,2,left
18.144000000000002,0.4884937420130194,1.102793012059865,-0.2728155635290615,0.5831060774617923,4.12045357519082,-2.0342895015850893,-0.1023207187666604,0.07886850844125769,-0.03752151744246642,2,left
18.146,0.48936205448018516,1.1033307448332708,-0.2727369681685,0.5885803517679776,4.117523534751522,-2.0399443124167926,-0.10219041841616093,0.07742664018932711,-0.037858639868258326,2,left
18.147000000000002,0.4902482705267496,1.1038655395852077,-0.27264464568853836,0.5946970535274951,4.114280332655311,-2.045295078499931,-0.102007903162681,0.07594569260061587,-0.03814767480335242,2,left
18.148,0.4911479258665485,1.1043982682750586,-0.2725394394118044,0.6014179838858786,4.11075272570371,-2.0503401317264616,-0.10177614862918721,0.07443195970127614,-0.03837489720945191,2,left
18.149,0.4920565454607484,1.1049297135548695,-0.2724222422944831,0.6087012550287796,4.106970246495605,-2.0550788535705573,-0.10149830952356041,0.07289152791851532,-0.038527029689847316,2,left
18.215999999999998,0.49296967007558185,1.1054605570468627,-0.2722939884782177,0.6165015765380664,4.102963042786252,-2.0595116610935262,-0.10117769133252116,0.0713302307828446,-0.038591391335307756,2,left
18.218,0.49388288085592247,1.1059913704297135,-0.2721556436705717,0.6247705655632833,4.098761701210454,-2.063639982477361,-0.10081772018887644,0.06975360944586534,-0.03855604070909733,2,left
18.219,0.49479182217283263,1.106522609924098,-0.2720081945860564,0.6334570808292982,4.0943970553591145,-2.067466222100532,-0.10042191093602917,0.06816687903279504,-0.038409912763805246,2,left
18.222,0.495692223391483,1.1070546143081117,-0.2718526378508119,0.6425075805024392,4.089899978197721,-2.0709937151687625,-0.09999383344338719,0.06657490075126463,-0.038142949484883226,2,left
18.223,0.4965799202549201,1.1075876062243246,-0.2716899688467597,0.6518665039387674,4.085301158814753,-2.074226671912646,-0.09953707749894836,0.06498215930789666,-0.03774622302916998,2,left
18.224,0.49745087639383784,1.1081216963476372,-0.2715211709109574,0.6614766766614442,4.080630864230223,-2.077170111346933,-0.09905521709619003,0.06339274451818715,-0.037212048278974605,2,left
18.281,0.49830120520003646,1.108656889902068,-0.2713472052002294,0.671279734525793,4.075918690707601,-2.0798297845045655,-0.09855177520505157,0.061810335625220175,-0.03653408070561687,2,left
18.283,0.4991271920766551,1.1091930949558846,-0.2711690014446476,0.6812165569306233,4.071193315696205,-2.0822120869120955,-0.09803018984396285,0.06023818721271904,-0.0357073964622814,2,left
18.284000000000002,0.4999253169520834,1.1097301318313972,-0.2709874496774582,0.6912276955456991,4.0664822652443515,-2.0843239599914263,-0.09749378177884525,0.05867911626390348,-0.03472855347304279,2,left
18.284000000000002,0.5006922768261026,1.1102677428445582,-0.27080339277045706,0.7012537884151903,4.061811708010033,-2.0861727811528623,-0.09694572394984388,0.05713549037658401,-0.03359563327684054,2,left
18.285,0.501425007934761,1.110805601567366,-0.2706176193298417,0.7112359555447458,4.057206280298352,-2.087766242790427,-0.09638901291018154,0.05560921766377285,-0.03230826342003982,2,left
18.347,0.5021207069587016,1.111343321004557,-0.2704308564372888,0.7211161762019431,4.052688942774817,-2.089112221976294,-0.09582644299030509,0.05410173966981223,-0.030867619884806574,2,left
18.349,0.5027768505775941,1.1118804604348367,-0.2702437619077232,0.7308376501562954,4.0482808686409,-2.0902186453770066,-0.09526058413869587,0.05261402907688917,-0.02927640887010167,2,left
18.35,0.5033912125846284,1.112416531021508,-0.2700569160919323,0.740345145817379,4.04400136299169,-2.091093355419224,-0.09469376415245541,0.05114659353202976,-0.02753882741164314,2,left
18.357,0.5039618780238886,1.1129510005271115,-0.2698708137527791,0.7495853374968444,4.039867813142475,-2.0917439822262165,-0.09412805554690401,0.04969948600855932,-0.02566050280597003,2,left
18.358,0.5044872544324385,1.1134832975432039,-0.2696858570081743,0.7585071327011265,4.0358956698315325,-2.0921778231352537,-0.09356526690001532,0.04827232109387126,-0.02364841183953835,2,left
18.358,0.5049660805342043,1.1140128156599374,-0.2695023503922705,0.7670619893774759,4.032098458742156,-2.092401730084661,-0.09300693814455462,0.046864295467165556,-0.02151078241659386,2,left
18.413,0.5053974322996239,1.1145389180549987,-0.269320498715569,0.7752042216333153,4.028487819143923,-2.0924220047829567,-0.09245433910562205,0.045474210253500576,-0.019256981045406244,2,left
18.415,0.5057807258669792,1.1150609430414529,-0.26914040796320604,0.7828912901883552,4.025073561671385,-2.092244301437666,-0.0919084707564791,0.04410049351793294,-0.01689738877582638,2,left
18.416,0.506115717038573,1.1155782111199393,-0.2689620891701192,0.7900840725625027,4.021863734602076,-2.0918735367462347,-0.0913700689449984,0.04274122229191674,-0.014443266876468271,2,left
18.417,0.5064024976039394,1.116090034016163,-0.26878546500875206,0.796747109256773,4.018864690653063,-2.091313806925457,-0.0908396103389861,0.04139414454689978,-0.011906613947907626,2,left
18.417,0.5066414889823572,1.1165957258849182,-0.26861037858075404,0.8028488241601466,4.016081151242001,-2.090568311953045,-0.09031732005098031,0.04005670244718929,-0.009300018289132775,2,left
18.482,0.5068334335190176,1.1170946161405972,-0.2684366035029578,0.8083617172561454,4.013516268535632,-2.0896392885869997,-0.08980318022387412,0.03872605865954185,-0.0066365106088768664,2,left
18.484,0.5069793836496671,1.117586062427568,-0.26826385401365094,0.8132625254088562,4.011171687435933,-2.088527956115261,-0.08929693903801002,0.03739912705162517,-0.003929420898561238,2,left
18.485,0.5070806893889878,1.1180694618446803,-0.26809179407202816,0.8175323455934077,4.009047610374295,-2.087234480105588,-0.08879811992311362,0.036072608309912754,-0.0011922409889858667,2,left
18.494,0.5071389848730685,1.1185442592737511,-0.2679200454369917,0.821156716551453,4.007142866993345,-2.0857579578423433,-0.08830603093773384,0.03474303056225067,0.0015615069619233303,2,left
18.495,0.5071561744658158,1.1190099526749238,-0.267748195538259,0.8241256584146309,4.005454989142255,-2.084096425440233,-0.08781977434174221,0.03340679490131041,0.004318395941187219,2,left
18.496,0.5071344183528952,1.1194660954565312,-0.26757580581616924,0.8264336730873012,4.003980290246005,-2.0822468829239162,-0.0873382565225062,0.03206022520531014,0.007065212819275026,2,left
18.548,0.507076117118704,1.1199122963557626,-0.26740242077601467,0.8280797094811867,4.002713947606685,-2.0802053319746094,-0.08686019867844368,0.03069962075267728,0.009789068609853447,2,left
18.55,0.5069838947208138,1.1203482183771891,-0.26722757788711504,0.8290670966721254,4.001650086554607,-2.077966822367939,-0.08638414879872282,0.0293213096274731,0.012477497921257066,2,left
18.552,0.5068605794977276,1.1207735786562905,-0.26705081815338,0.8294034462102299,4.000781866014077,-2.075525505509328,-0.08590849534284442,0.027921701412203598,0.015118545854479987,2,left
18.553,0.5067091831118753,1.1211881498319056,-0.26687169661597127,0.8291005237923064,4.000101565408324,-2.072874694796313,-0.08543148276950814,0.026497338551435563,0.017700841770239138,2,left
18.554000000000002,0.5065328772502922,1.1215917625156373,-0.26668979193968295,0.8281740906452608,3.9996006728406277,-2.070006932994076,-0.08495122887277391,0.025044946205097444,0.020213660511801644,2,left
18.613,0.5063349676714533,1.1219843088283095,-0.26650471466026604,0.8266437166967463,3.999269974189738,-2.0669140677735363,-0.08446574375508353,0.023561480394469824,0.02264697283080344,2,left
18.615,0.5061188653368713,1.1223657473276871,-0.2663161140535748,0.8245325707203723,3.9990996422190737,-2.0635873382953083,-0.08397295021034813,0.02204417417947754,0.024991487343007133,2,left
18.616,0.5058880548382751,1.1227361090589143,-0.26612368370886336,0.8218671943704007,3.999079324500248,-2.0600174766858492,-0.08347070534665275,0.020490581670137648,0.02723868576086081,2,left
18.631,0.5056460606666898,1.1230955037137116,-0.26592716588680515,0.8186772651220218,3.9991982294443025,-2.0561948268457724,-0.08295682337955315,0.018898619790708948,0.02938085210569388,2,left
18.633,0.5053964119301199,1.1234441247544638,-0.26572635471131484,0.8149953491801863,3.999445211238019,-2.0521094790847916,-0.08242909954676714,0.017266607760309576,0.0314110961184765,2,left
18.634,0.5051426060327971,1.1237822527443793,-0.26552109821500697,0.8108566421795681,3.9998088565185617,-2.0477514141349173,-0.08188533492377617,0.015593304171505621,0.033323371452974156,2,left
18.68,0.5048880716926538,1.124110256553343,-0.26531129923582747,0.8062986943122897,4.000277576644392,-2.0431106476897964,-0.0813233615912637,0.013877941377219944,0.03511249010091766,2,left
18.682000000000002,0.5046361317030801,1.1244285923095327,-0.26509691515044664,0.8013611173572028,4.00083970845637,-2.0381773688276104,-0.08074106742274642,0.012120256801171625,0.03677413497964969,2,left
18.689,0.5043899661949139,1.1247378000358885,-0.2648779564999412,0.7960852725926292,4.001483624687346,-2.032942069652655,-0.08013641994323924,0.010320520881963557,0.03830487213121137,2,left
18.69,0.5041525775396624,1.1250384980472095,-0.26465448476134984,0.7905139395783685,4.002197853825757,-2.027395665674465,-0.07950748903829806,0.008479561531860242,0.03970216311539196,2,left
18.69,0.5039267580176248,1.1253313753717977,-0.2644266097049754,0.7846909667920198,4.002971207102654,-2.0215296067559203,-0.07885246848316164,0.006598784996079093,0.040964377693551636,2,left
18.745,0.5037150609778548,1.125617182530716,-0.264194486768487,0.778660906602419,4.003792906773548,-2.0153359782293365,-0.07816969633767838,0.004680192566688649,0.04209080678248212,2,left
18.746,0.5035197758252681,1.1258967209754023,-0.2639583147387355,0.7724686378947676,4.004652707923257,-2.008807591650017,-0.07745767432377496,0.0027263917939825254,0.04308167561949691,2,left
18.766,0.5033429069919839,1.1261708315642363,-0.2637183339671478,0.7661589788286817,4.005541007965504,-2.001938064784453,-0.07671508631729843,0.0007406004470026208,0.04393815697309984,2,left
18.768,0.503186156996583,1.1264403826656089,-0.26347482535720235,0.7597762907110848,4.006448941507445,-1.9947218906610014,-0.07594081592459452,-0.0012733577769425235,0.04466238382654369,2,left
18.768,0.5030509136746788,1.126706258558383,-0.2632281102659613,0.7533640731327738,4.007368460192896,-1.987154495638537,-0.0751339628236007,-0.0033110654471145296,0.04525746022923508,2,left
18.769000000000002,0.5029382417118892,1.1269693486244854,-0.2629785512127646,0.7469645510332835,4.008292397484376,-1.9792322865667615,-0.07429385738775593,-0.0053675304036983175,0.04572746860390907,2,left
18.812,0.5028488786905555,1.1272305375129559,-0.2627265530820178,0.7406182577717436,4.009214518132208,-1.9709526875779881,-0.07342007322490053,-0.007437210684453888,0.046077472228895175,2,left
18.813,0.5027832357759153,1.1274906961698268,-0.2624725644786284,0.7343636244252326,4.010129551697353,-1.9623141678900573,-0.07251243748260701,-0.009514045022312331,0.04631351238408725,2,left
18.825,0.502741402808863,1.127750673466082,-0.26221707894857615,0.7282365889494491,4.0110332092827266,-1.9533162624661489,-0.07157103889910581,-0.011591488791427535,0.04644259995762352,2,left
18.826,0.5027231571638971,1.128011288134345,-0.2619606358164639,0.7222702354233861,4.011922182839707,-1.9439595869091109,-0.07059623363300736,-0.013662554994508141,0.04647270080127386,2,left
18.827,0.5027279756058678,1.1282733207891384,-0.26170382044927804,0.7164944677309248,4.012794127121229,-1.9342458472304234,-0.06958864895849236,-0.015719859264611682,0.0464127130526739,2,left
18.88,0.5027550485778772,1.1285375058641525,-0.2614472638459615,0.7109357199937009,4.013647626180596,-1.924177845187678,-0.06854918494230546,-0.017755667510326933,0.046272434048055755,2,left
18.882,0.5028032966833872,1.1288045232977568,-0.26119164154490404,0.7056167078612352,4.014482149265899,-1.9137594807294576,-0.06747901418903271,-0.019761945177508004,0.04606251504302729,2,left
18.903,0.5028713894289096,1.1290749897187997,-0.26093767191598743,0.7005562261392192,4.015298002575641,-1.9029957536073763,-0.0663795796874817,-0.02173040772034563,0.045794403028227286,2,left
18.905,0.5029577664111169,1.1293494487432658,-0.26068611391119084,0.6957689968631023,4.016096281725365,-1.891892765692125,-0.06525259074811578,-0.023652572244363016,0.045480269593943606,2,left
18.905,0.5030606609764497,1.1296283599303423,-0.260437764273172,0.6912655694509701,4.016878826866618,-1.8804577245899,-0.06410001695036857,-0.025519810480728322,0.04513292728294041,2,left
18.906,0.5031781261032577,1.1299120861860157,-0.2601934541551188,0.6870522729535616,4.017648180566146,-1.868698948421602,-0.06292407990142816,-0.027323403481636303,0.04476573453031167,2,left
18.945999999999998,0.5033080620521334,1.130200879908576,-0.2599540451621068,0.6831312189325931,4.018407547142086,-1.8566258704663696,-0.06172724254291601,-0.02905459855441694,0.0443924906555677,2,left
18.947,0.5034482452301999,1.1304948685761744,-0.25972042488068,0.6795003513167084,4.019160750195518,-1.8442490404702379,-0.06051219580689827,-0.030704668823832278,0.044027322005546765,2,left
18.962,0.5035963576379934,1.1307940405779053,-0.25949350191888254,0.6761535383726169,4.019912183987776,-1.8315801183643146,-0.05928184253975424,-0.03226497558137025,0.0436845596869513,2,left
18.964000000000002,0.5037500161544356,1.131098232057545,-0.2592742003917827,0.6730807031423934,4.02066675540182,-1.8186318571914428,-0.05803927869422661,-0.03372703330423727,0.04337860911297169,2,left
18.965,0.5039068008605355,1.1314071154803829,-0.25906345374444273,0.6702679907768392,4.0214298150547885,-1.8054180740153785,-0.056787771886813485,-0.03508257646160812,0.04312381227618572,2,left
19.011,0.5040642817486503,1.1317201904708813,-0.2588621978152723,0.6676979718854291,4.022207076569175,-1.7919536090217378,-0.055530737568585536,-0.03632362589468994,0.042934305029795075,2,left
19.012999999999998,0.5042200434523197,1.132036777270464,-0.25867136309464295,0.665349880325674,4.023004522062011,-1.7782542739153235,-0.05427171314134725,-0.037442551817572674,0.0428238724203713,2,left
19.022000000000002,0.5043717079035388,1.1323560130788366,-0.25849186621484876,0.6631998833327034,4.023828291263874,-1.764336791098271,-0.053014330267165274,-0.03843213122483548,0.0428058043544247,2,left
19.039,0.5045169550749452,1.1326768514995191,-0.2583246007990703,0.6612213824133272,4.024684552327154,-1.7502187247321466,-0.0517622855086488,-0.03928559886924168,0.04289275273034503,2,left
19.04,0.5046535422144862,1.132998065168266,-0.2581704278827367,0.6593853443704576,4.025579353548771,-1.7359184041013889,-0.050519309555210855,-0.03999669194654114,0.043096591500770776,2,left
19.041,0.5047793221176021,1.1333182514488425,-0.2580301661880489,0.6576606617471102,4.026518456466018,-1.7214548393148907,-0.04928913563686533,-0.04055968919440961,0.04342828294822348,2,left
19.081,0.5048922609445514,1.13363584094462,-0.2579045825677167,0.6560145390842812,4.027507153842877,-1.7068476293089165,-0.048075467928850306,-0.040969445346898205,0.04389775455143067,2,left
19.082,0.504990455934273,1.1339491084820796,-0.25779438290758616,0.6544128959874663,4.028550081336585,-1.692116862119607,-0.04688195054867406,-0.04122142165062492,0.04451378972580771,2,left
19.1,0.5050721531374852,1.1342561860974758,-0.2577002036688968,0.6528207749969399,4.029651034563434,-1.6772830073959544,-0.04571213738412156,-0.041311712725994966,0.045283933752217224,2,left
19.101,0.5051357650587454,1.1345550774081523,-0.25762260409887644,0.6512027452570986,4.030812800353851,-1.662366801120619,-0.04456946284132556,-0.041237069800552535,0.04621441519774232,2,left
19.102,0.5051798879714007,1.1348436726997657,-0.2575620590171991,0.6495232982656646,4.032037005937677,-1.6473891226539763,-0.04345721382291443,-0.04099492018911148,0.04731008333132724,2,left
19.146,0.5052033186743049,1.1351197641851598,-0.25751895203382863,0.6477472344106676,4.03332398798695,-1.6323708649831299,-0.042378503716466544,-0.04058338270574694,0.04857436278918001,2,left
19.148,0.5052050704617865,1.1353810610528523,-0.2574935690340925,0.6458400385718938,4.034672684865266,-1.6173328004422882,-0.04133624943477291,-0.04000127858720087,0.050009227162845823,2,left
19.178,0.5051843879334504,1.1356252039760963,-0.2574860917624026,0.6437682424904448,4.036080556548224,-1.6022954449404685,-0.04033315228830266,-0.03924813761183156,0.051615192765775135,2,left
19.179000000000002,0.5051407600886745,1.1358497788278745,-0.25749659148318405,0.6414997721125918,4.037543535160025,-1.587278923061482,-0.03937168300021191,-0.03832419928685419,0.05339133308309016,2,left
19.18,0.5050739312105706,1.1360523295966252,-0.25752502304088637,0.6390042787946377,4.039056005042073,-1.5723028355098219,-0.038454070889563256,-0.037230409158105326,0.05533531392053189,2,left
19.18,0.5049839093469992,1.1362303707345176,-0.2575712198928635,0.6362534531974475,4.040610806514845,-1.557386130495979,-0.037582297078379436,-0.0359684107016729,0.05744344882728567,2,left
19.213,0.5048709724627694,1.1363813991859968,-0.2576348906717119,0.6332213204630688,4.042199255249515,-1.5425469809950736,-0.03675809136602382,-0.034540533948501144,0.05971077372299869,2,left
19.236,0.5047356723713933,1.1365029062886172,-0.25771561775362284,0.629884515615465,4.0438111711878415,-1.5278026693185462,-0.03598293225561409,-0.032949782297004446,0.06213113903454072,2,left
19.238,0.5045788363455266,1.1365923898139998,-0.25781285826018263,0.6262225387571047,4.045434914588454,-1.5131694795492008,-0.035258049530249365,-0.03119981818277422,0.06469731667188858,2,left
19.238,0.5044015660465231,1.1366473665761003,-0.25792594773018784,0.622217989982596,4.047057428799696,-1.498662597895847,-0.034584428620264306,-0.029294946860144992,0.06740111741501804,2,left
19.24,0.5042052333905673,1.1366653861719738,-0.25805410635430187,0.6178567837443737,4.04866428960354,-1.484296021019811,-0.03396281591580625,-0.02724009676445128,0.07023351330748477,2,left
19.28,0.5039914732029145,1.1366440464967604,-0.258196447394344,0.6131283411276985,4.05023976017472,-1.4700824728588182,-0.03339372440773322,-0.025040795247314274,0.07318476105934567,2,left
19.281,0.5037621727920696,1.136581011494051,-0.2583519873063329,0.6080257561929832,4.05176684925846,-1.4560333313253695,-0.03287743940893038,-0.022703139198439654,0.07624452486528764,2,left
19.314,0.5035194588680444,1.1364740307572267,-0.2585196569236744,0.6025459312656205,4.053227369369715,-1.4421585667300711,-0.03241402431326549,-0.02023376046785908,0.07940199837909921,2,left
19.316,0.5032656826968143,1.1363209591965067,-0.2586983127719651,0.5966896772859113,4.054601993028589,-1.4284666934520587,-0.0320033263905492,-0.017639786082310625,0.08264602585294098,2,left
19.316,0.5030034049036257,1.1361197742018272,-0.25888674764649594,0.5904617774121363,4.055870308544169,-1.4149647362487963,-0.031644982624154994,-0.01492879327517621,0.08596522228669165,2,left
19.317,0.5027353813724231,1.1358685884896533,-0.2590837001640907,0.5838710129554004,4.057010881361897,-1.4016582134227569,-0.03133842563879478,-0.012108759479614225,0.0893480916154764,2,left
19.346,0.5024645509263883,1.1355656585302625,-0.25928786358748995,0.5769301507624063,4.058001329206428,-1.3885511396893526,-0.031082889839338202,-0.009188007669243279,0.09278314049232302,2,left
19.372,0.502194024258426,1.1352093897369655,-0.25949789448088406,0.5696558913780175,4.058818417194609,-1.3756460508701058,-0.030877417942373336,-0.006175147650251643,0.09625898442695563,2,left
19.374000000000002,0.501927072628618,1.1347983396681618,-0.2597124217722389,0.5620687777085958,4.059438175390218,-1.3629440512379467,-0.030720868141515124,-0.003079014224180988,0.09976444396586157,2,left
19.375,0.5016671147898459,1.134331220119621,-0.2599300566390097,0.5541930641228575,4.059836039214666,-1.350444883621175,-0.030611922254102714,9.139629142009008e-05,0.10328863026201483,2,left
19.375,0.5014177014745016,1.1338068992376058,-0.26014940330638275,0.5460565465674604,4.059987012087437,-1.3381470218287985,-0.030549095256230608,0.0033269893818548457,0.10682102030669963,2,left
19.413,0.501182497812905,1.1332244048118842,-0.2603690703888335,0.5376903572639522,4.059865846526882,-1.3260477829594586,-0.030530746505210905,0.006618634163673514,0.11035152215296001,2,left
19.415,0.5009652643541469,1.132582928885534,-0.26058768207779626,0.5291287329354584,4.059447234284685,-1.3141434535547838,-0.030555092768970393,0.009957223196152616,0.11387053026856932,2,left
19.451,0.5007698368551168,1.1318818330095972,-0.26080388858231435,0.5204087685010548,4.058705992944018,-1.3024294215575007,-0.030620223082168423,0.013333730195877046,0.11736897104994341,2,left
19.452,0.5006001045055897,1.1311206537128495,-0.2610163755898808,0.5115701651848088,4.05761723955321,-1.2909003080362884,-0.030724115401405322,0.016739265659202168,0.12083833862171035,2,left
19.453,0.5004599863000462,1.1302991082033302,-0.2612238727574251,0.5026549766033473,4.056156547522554,-1.2795500962418687,-0.030864654894144593,0.020165130374212085,0.12427072161956959,2,left
19.454,0.5003534055340698,1.129417100242971,-0.26142516128964116,0.4937073530941403,4.054300086545138,-1.2683722576904075,-0.031039653447925412,0.023602866761966535,0.12765882268533246,2,left
19.479,0.5002842625311362,1.1284747256978647,-0.26161908060537903,0.4847732823937348,4.052024747887898,-1.2573598760208262,-0.03124686984868419,0.027044307963616614,0.13099597297590665,2,left
19.496,0.5002564057626449,1.1274722770299461,-0.2618045340429208,0.47590032197676707,4.049308260922174,-1.2465057705427303,-0.03148403021497798,0.030481624613324484,0.13427614341492855,2,left
19.509,0.5002736016104228,1.1264102462259347,-0.26198049357590725,0.46713731684726495,4.046129308630042,-1.2358026218158948,-0.03174884852316511,0.033907369278889925,0.13749395338430664,2,left
19.51,0.5003395030527379,1.1252893259823855,-0.2621460035382573,0.4585340983049991,4.042467647415286,-1.225243099822721,-0.03203904717891021,0.037314518534757035,0.14064467702987032,2,left
19.511,0.5004576175042862,1.1241104090400735,-0.2623001833348211,0.45014116232598855,4.038304232215479,-1.2148199920915417,-0.032352377529794064,0.04069651243403781,0.14372424749071863,2,left
19.547,0.5006312741200394,1.1228745855204794,-0.26244222910909876,0.4420093279277854,4.033621345504057,-1.204526327349095,-0.03268664005504366,0.04404729078132416,0.14672925981195947,2,left
19.588,0.5008635912406162,1.121583138148163,-0.26257141441407106,0.4341893763963383,4.028402728527657,-1.1943554912354144,-0.03303970388022411,0.04736132540532301,0.1496569735504903,2,left
19.589000000000002,0.5011574450176633,1.1202375353511742,-0.26268709005430124,0.42673167379113397,4.022633712434288,-1.184301332420456,-0.03340952535561511,0.05063364776352743,0.15250531581287322,2,left
19.59,0.5015154401925254,1.1188394223513611,-0.26278868334021277,0.41968578231249815,4.016301344703192,-1.1743582581806722,-0.033794165608736305,0.053859871228707,0.1552728849126508,2,left
19.590999999999998,0.5019398836102515,1.1173906104456428,-0.2628756969981917,0.41310006793776777,4.009394504880066,-1.164521318491427,-0.034191807092894835,0.05703620698466695,0.15795895440188243,2,left
19.590999999999998,0.5024327607530508,1.115893064787442,-0.2629477080117751,0.4070213098768177,4.00190400511509,-1.1547862779202034,-0.03460076918416329,0.06015947215196985,0.16056347708020471,2,left
19.613,0.5029957154939081,1.1143488911374555,-0.26300436673440153,0.40149431405552644,3.993822673691132,-1.1451496750175616,-0.03501952286640179,0.06322708911135663,0.1630870886857078,2,left
19.646,0.5036300332797362,1.1127603221929956,-0.2630453965513394,0.39656153149316853,3.9851454213851296,-1.1356088693386748,-0.03544670452086783,0.0662370756173757,0.16553111115388125,2,left
19.648,0.5043366279994643,1.1111297041371766,-0.26307059413289646,0.3922626846364854,3.9758692916126046,-1.12616207730849,-0.03588112879804264,0.0691880257654771,0.1678975553007965,2,left
19.649,0.5051160328443587,1.1094594839221361,-0.26307983010928077,0.3886344093349438,3.9659934967607895,-1.1168084000053777,-0.03632180041621122,0.07207908256373013,0.17018912215134002,2,left
19.65,0.5059683955080869,1.1077521975477247,-0.2630730499512051,0.38570992271015603,3.955519443923732,-1.1075478469725946,-0.03676792449636397,0.07490990397368391,0.1724092009534286,2,left
19.678,0.5068934780708431,1.1060104593468718,-0.26305027486785176,0.38351872460748626,3.944450752441439,-1.0983813591329685,-0.03721891491245654,0.07768062490334718,0.17456186126355144,2,left
19.727,0.5078906616314206,1.10423695213733,-0.2630116025383683,0.38208633569961065,3.9327932641861802,-1.0893108320209612,-0.03767440026663543,0.0803918170164677,0.17665183714413518,2,left
19.73,0.5089589551094016,1.1024344180196222,-0.2629572075062666,0.3814340727470446,3.920555046727781,-1.0803391395123392,-0.038134227334046866,0.08304444710859377,0.17868450269268035,2,left
19.730999999999998,0.5100970071527684,1.1006056494922616,-0.2628873411122299,0.38157886100939853,3.9077463893461295,-1.0714701580251296,-0.03859846196710007,0.08563983417431405,0.18066583872020103,2,left
19.732,0.5113031202495129,1.0987534804138344,-0.26280233089842164,0.3825330840846004,3.894379791985502,-1.0627087910186315,-0.039067387548614343,0.08817960512972918,0.18260239023944777,2,left
19.733,0.5125752666947139,1.0968807762848425,-0.2627025794632906,0.384304472862096,3.88046994788407,-1.0540609928816778,-0.039541501215473715,0.09066564908843464,0.1845012139049253,2,left
19.746,0.5139111064914701,1.0949904233147962,-0.2625885627459306,0.3868960378100882,3.8660337217630865,-1.0455337899770727,-0.04002150814786033,0.09310007005268307,0.18636981425862517,2,left
19.783,0.5153080074948081,1.0930853156659128,-0.26246082767537443,0.39030604981138006,3.8510901257373864,-1.0371352958411226,-0.040508314145717664,0.09548513791768282,0.18821606792321094,2,left
19.784000000000002,0.5167630682232364,1.0911683403317276,-0.26231998910185206,0.3945280712864297,3.835660292658647,-1.0288747181111084,-0.041003016581928085,0.09782323775244134,0.19004813540259083,2,left
19.785,0.5182731435979036,1.0892423595738214,-0.2621667259732025,0.3995510330836316,3.819767442193709,-1.0207623557863834,-0.04150689373215826,0.10011681746266896,0.19187436054059892,2,left
19.785,0.5198348733774495,1.0873101914584897,-0.26200177677143865,0.40535934914088895,3.8034368324901684,-1.0128095860027597,-0.0420213923860878,0.10236833447743761,0.19370315826065346,2,left
19.812,0.5214447125425523,1.085374589349692,-0.2618259341922606,0.411933062715308,3.786695691960201,-1.0050288398096803,-0.042548113499731414,0.1045802030534123,0.19554289213554324,2,left
19.862000000000002,0.5230989625620844,1.083438221195519,-0.2616400389413386,0.41924802170930403,3.7695731289671204,-0.9974335667321788,-0.04308879556802049,0.10675474431937676,0.19740174385109965,2,left
19.863,0.5247938023430045,1.0815036494139743,-0.26144497247176895,0.4272760826954092,3.7521000190061633,-0.9900381880623547,-0.043645295501394656,0.10889414064065309,0.19928757633938393,2,left
19.864,0.5265253178245165,1.079573312221225,-0.2612416485857398,0.43598534365861535,3.734308869331471,-0.982858038858043,-0.0442195670551318,0.1110003948608011,0.20120779256316898,2,left
19.865,0.5282895296585826,1.0776495071707932,-0.2610310039963308,0.44534040547720544,3.716233660980147,-0.9759092986268857,-0.044813637156602214,0.11307529432312508,0.20316919345731854,2,left
19.865,0.5300824189869084,1.0757343774779247,-0.26081398810977824,0.45530266198484703,3.697909668319082,-0.969208910656971,-0.04542958061170624,0.11512037939876463,0.20517783956225985,2,left
19.921,0.5318999517130598,1.073829901506778,-0.26059155240689136,0.46583061755757843,3.6793732571183972,-0.962774489867684,-0.046069493594947455,0.1171369163135945,0.20723891992562793,2,left
19.924,0.5337381017689958,1.0719378856101962,-0.2603646398031954,0.4768802295491901,3.6606616637369047,-0.9566242188964412,-0.04673546632707971,0.11912587417028403,0.2093566306760123,2,left
19.924,0.5355928737752255,1.0700599603180998,-0.2601341742657599,0.4884052719991487,3.641812758883326,-0.9507767320495584,-0.04742955561191144,0.12108790609292384,0.21153406609946412,2,left
19.925,0.5374603253746437,1.068197579680827,-0.25990105090009813,0.5003577179399249,3.6228647985373486,-0.9452509868344049,-0.04815375809521199,0.12302333441401221,0.21377312568920973,2,left
19.925,0.5393365894019139,1.066352023407729,-0.2596661267264443,0.5126881387093453,3.6038561636954083,-0.94006612305008,-0.0489099848934636,0.12493213984501433,0.21607443977304824,2,left
19.947,0.5412178958781635,1.064524401351326,-0.2594302123315979,0.5253461168524867,3.5848250930449916,-0.9352413100059862,-0.04970003785278829,0.12681395461033093,0.21843731476404785,2,left
19.999000000000002,0.5431005936937311,1.0627156598767844,-0.25919406446118803,0.5382806645280805,3.5658094183726763,-0.9307955836113062,-0.050525587483189,0.12866805954593588,0.2208596982142002,2,left
20.000999999999998,0.5449811718444959,1.0609265896676197,-0.2589583794766746,0.5514406368688958,3.5468463153517273,-0.9267476768297187,-0.05138815259175502,0.13049338514430417,0.22333816369985202,2,left
20.000999999999998,0.5468562801397535,1.0591578345538104,-0.25872378752394903,0.5647751329326175,3.5279720781768997,-0.9231158487365758,-0.05228908174594707,0.1322885164078645,0.22586791567895642,2,left
20.000999999999998,0.5487227492927075,1.0574099009950733,-0.2584908472402199,0.578233882039907,3.5092219200634993,-0.9199177177584309,-0.053229536891442095,0.13405170115837595,0.2284428146602429,2,left
20.002,0.5505776101842125,1.0556831677903138,-0.2582600408099621,0.5917676157635506,3.4906297987871144,-0.9171701029255988,-0.054210479556492275,0.13578086133023676,0.23105542313561195,2,left
20.055999999999997,0.5524181118701629,1.0539778954438779,-0.2580317692081859,0.6053284259152684,3.4722282666367534,-0.9148888746240126,-0.05523265994442256,0.13747360687482588,0.2336970724023925,2,left
20.057000000000002,0.5542417377278259,1.0522942346535955,-0.2578063476090822,0.6188701086201323,3.454048344632067,-0.9130888150866691,-0.056296608907382494,0.13912725201700651,0.2363579491335264,2,left
20.058,0.5560462192234691,1.050632233685554,-0.2575840011566758,0.6323484945173715,3.4361194209513135,-0.9117834886168017,-0.057402632479571274,0.14073883354298558,0.23902719851893345,2,left
20.059,0.5578295471121213,1.0489918447845485,-0.2573648615203025,0.645721765126422,3.4184691735172743,-0.9109851215362617,-0.058550808511440545,0.14230513072184395,0.24169303971036882,2,left
20.059,0.5595899800670343,1.047372930086835,-0.25714896479197075,0.6589507551069098,3.4011235162472238,-0.9107044917480589,-0.05974098506185769,0.14382268656357589,0.2443428903709522,2,left
20.08,0.5613260505578482,1.0457752677117962,-0.2569362512013647,0.6719992385905025,3.3841065662651135,-0.9109508272739096,-0.06097278041297697,0.14528783029749728,0.24696349905443382,2,left
20.135,0.5630365675947618,1.0441985587593565,-0.25672656687227136,0.6848341949712208,3.3674406253993423,-0.9117317121759421,-0.06224558466562431,0.14669670111133018,0.24954108495823696,2,left
20.136,0.5647206160788185,1.0426424358240416,-0.2565196676233559,0.6974260479115325,3.3511461672865686,-0.9130529980174171,-0.0635585627840892,0.14804527349096688,0.25206148355888663,2,left
20.136,0.5663775527682586,1.041106473445146,-0.25631522473383167,0.7097488724802089,3.3352418246360296,-0.9149187209170785,-0.06491065875754916,0.14932938500424434,0.25451029438988676,2,left
20.137,0.5680069990213088,1.0395902006589262,-0.2561128325736299,0.7217805674238257,3.3197443770293296,-0.917331027670126,-0.06630060043336579,0.15054476765160765,0.2568730259728384,2,left
20.137999999999998,0.5696088305946847,1.0380931152523312,-0.2559120178366296,0.733502990732269,3.3046687428647945,-0.9202901163086022,-0.06772690468970996,0.15168708362665745,0.2591352341615733,2,left
20.195,0.5711831650755066,1.0366146982662718,-0.25571224969298656,0.7449020573593701,3.2900279784739417,-0.923794195212727,-0.0691878828461031,0.15275196573407548,0.26128265235851694,2,left
20.197,0.5727303479651006,1.0351544265097874,-0.25551294982595557,0.7559677986635018,3.275833285594847,-0.9278394624225759,-0.07068164646882373,0.15373506197332615,0.26330131306732496,2,left
20.197,0.5742509385459242,1.033711781581962,-0.2553135016480404,0.7666943835234984,3.2620940273640167,-0.9324201054323452,-0.07220611401372427,0.15463208291384076,0.2651776600560502,2,left
20.198,0.5757456958907425,1.0322862558607846,-0.25511325889573655,0.7770801011626256,3.248817752784724,-0.9375283214772614,-0.07375901889525206,0.15543885002798008,0.2668986501606992,2,left
20.199,0.5772155641708241,1.0308773573044903,-0.2549115544165907,0.7871273060051525,3.2360102293085973,-0.9431543580526,-0.07533791942441237,0.15615134360702465,0.268451844002737,2,left
20.213,0.5786616562133692,1.029484615028107,-0.2547077099293054,0.7968423263529946,3.2236754815562394,-0.9492865720451064,-0.07694021079542833,0.15676574971173493,0.2698254853330189,2,left
20.274,0.5800852352521644,1.0281075869997012,-0.25450104707814,0.8062353413672702,3.211815831782372,-0.9559115035597242,-0.07856313915478357,0.157278506067952,0.27100856895825237,2,left
20.276,0.581487695515021,1.0267458700615648,-0.25429089933779847,0.8153202326192874,3.2004319384825393,-0.9630139599172535,-0.08020381775717783,0.15768634690927777,0.27199089725442444,2,left
20.277,0.5828705419591456,1.0253991113814336,-0.25407662374006784,0.8241144155808355,3.189522835476634,-0.9705771080142067,-0.08185924521299257,0.15798634676859205,0.27276312527111896,2,left
20.278,0.5842353688578266,1.0240670202844646,-0.2538576115524466,0.8326386541045033,3.179085979110511,-0.9785825764387622,-0.08352632580851861,0.1581759632055356,0.27331679454402996,2,left
20.279,0.585583836769153,1.0227493800023657,-0.25363329757107583,0.8409168591632313,3.1691173104281067,-0.9870105693468537,-0.08520189176323018,0.15825307838510425,0.2736443563020581,2,left
20.331,0.5869176476527591,1.021446059336197,-0.25340316796376394,0.8489758722545195,3.1596113351657404,-0.995839993022408,-0.08688272704647057,0.15821603926805894,0.27373918585974133,2,left
20.333,0.5882385181518965,1.0201570242495737,-0.253166766626549,0.8568452335571849,3.150561222019123,-1.0050485952950745,-0.0885655921022984,0.15806369597635367,0.27359559095273894,2,left
20.334,0.5895481511123076,1.0188823491388166,-0.25292370004055714,0.8645569348645066,3.141958919154417,-1.0146131178396123,-0.09024724866634992,0.15779543774224114,0.2732088169200809,2,left
20.335,0.590848205447875,1.0176222271569717,-0.25267364070019194,0.8721451573169738,3.1337952889360285,-1.0245094613822516,-0.09192448391259084,0.15741122585291648,0.2725750510087921,2,left
20.335,0.5921402647180545,1.0163769787076544,-0.25241632928638663,0.8796459938895025,3.1260602604987016,-1.0347128634018383,-0.09359413344148769,0.1569116231994155,0.27169142710822103,2,left
20.409000000000002,0.5934258051259682,1.015147057259785,-0.2521515757887713,0.8870971562484857,3.1187429980607178,-1.045198085721619,-0.09525310293385338,0.1562978201892856,0.2705560313849896,2,left
20.410999999999998,0.5947061637425138,1.0139330519265017,-0.2518792597146772,0.8945376649834087,3.111832079758553,-1.055939605441124,-0.0968983884881817,0.15557165646217394,0.26916790886336067,2,left
20.412,0.5959825076560097,1.012735686605626,-0.2515993294831463,0.9020075218784525,3.1053156800525326,-1.0669118004655134,-0.09852709575708574,0.15473563707027208,0.2675270708660688,2,left
20.412,0.5972558047991603,1.011555815828067,-0.25131180119605323,0.9095473632284309,3.0991817504862613,-1.0780891230835328,-0.10013645803536532,0.15379294133968474,0.265634503202469,2,left
20.413,0.598526797364352,1.0103944178186524,-0.25101675713849897,0.9171980938136588,3.093418196701482,-1.0894462589933154,-0.10172385341524887,0.15274742307401362,0.2634921750176039,2,left
20.414,0.5997959785972476,1.0092525855185086,-0.25071434442848334,0.9250005017666499,3.088013050978298,-1.1009582714050408,-0.10328682105781191,0.15160360156310942,0.26110304826451314,2,left
20.467,0.6010635733589347,1.0081315163004283,-0.2504047741539368,0.9329948560273688,3.0829546380936326,-1.112600730469364,-0.1048230765717378,0.15036664341807787,0.2584710876664035,2,left
20.469,0.6023295225236496,1.0070325008989498,-0.2500883211794139,0.941220490596536,3.0782317290076273,-1.1243498286063247,-0.10633052637893062,0.14904233590690938,0.25560127042780334,2,left
20.469,0.6035934712198098,1.0059569119208656,-0.2497653246448901,0.9497153811927366,3.073833675064177,-1.1361824824906044,-0.10780728075885364,0.14763705348086692,0.25249959385102594,2,left
20.47,0.6048547610951704,1.0049061923302731,-0.24943618901548062,0.9585157185238166,3.0697505172173263,-1.1480764222686684,-0.10925166515918626,0.1461577197459698,0.24917307840129474,2,left
20.471,0.6061124270583949,1.0038818443382336,-0.2491013854052644,0.9676554805347786,3.0659730682877258,-1.1600102684438376,-0.11066222946451447,0.14461176656919178,0.2456297643754793,2,left
20.497,0.6073651990344363,1.0028854189532321,-0.24876145287720558,0.9771660079169726,3.0624929691151204,-1.1719635976123086,-0.11203775510224825,0.14300709099271502,0.24187870143081755,2,left
20.499000000000002,0.6086115089119387,1.0019185061786746,-0.24841699951017016,0.9870755928568116,3.0593027217040176,-1.1839169998665775,-0.11337725996907196,0.1413520100649005,0.23792993084163108,2,left
20.535999999999998,0.6098495021553703,1.0009827256967243,-0.24806870310384121,0.9974090943208389,3.0563957034968277,-1.195852131610282,-0.1146800012003802,0.13965521357684407,0.23379446041201543,2,left
20.538,0.6110770529731424,1.0000797178408247,-0.24771731140497433,1.0081875900783743,3.0537661661199573,-1.2077517664842488,-0.1159454758970697,0.13792571465969056,0.2294842316626035,2,left
20.539,0.6122917819271986,0.9992111346536816,-0.24736364174684802,1.0194280707972128,3.0514092213169386,-1.219599844849913,-0.11717342008958503,0.13617279813737904,0.22501207835221132,2,left
20.54,0.6134910754209522,0.9983786308351047,-0.2470085800571506,1.0311431802201365,3.049320817966698,-1.2313815202971887,-0.11836380631102875,0.13440596649584383,0.2203916750853508,2,left
20.616,0.6146721071812878,0.997583854323121,-0.24665307928908003,1.0433410058725843,3.0474977151117084,-1.2430832008740638,-0.11951684005902236,0.13263488336313203,0.21563747506538491,2,left
20.618000000000002,0.6158318622296225,0.9968284360580077,-0.24629815737785574,1.0560249236483013,3.045937454688484,-1.2546925833192595,-0.12063295526026635,0.1308693144551861,0.21076463660935912,2,left
20.619,0.6169671637051701,0.996113978322004,-0.24594489473887296,1.0691934976324424,3.04463833543409,-1.2661986796307119,-0.12171280875962275,0.12911906597553074,0.20578893834940865,2,left
20.621,0.6180747023612941,0.9954420412414678,-0.2455944311902658,1.082840435418147,3.0435993882100463,-1.2775918358866192,-0.12275727383703376,0.1273939204637973,0.20072668310711703,2,left
20.622,0.619151067965341,0.9948141275771031,-0.2452479621864616,1.0969545989530172,3.042820352739138,-1.2888637433523815,-0.12376743274661439,0.12570357014609063,0.1955945905241751,2,left
20.623,0.6201927815342301,0.9942316663394809,-0.2449067343689453,1.1115200706133217,3.042301655516092,-1.3000074418663965,-0.12474456822780569,0.12405754813052874,0.19040967901896488,2,left
20.671999999999997,0.6211963274456586,0.9936959957536463,-0.24457204049391576,1.1265162725051177,3.042044387477319,-1.3110173152969995,-0.12569015385854806,0.12246515831386214,0.18518913851426938,2,left
20.674,0.622158184776748,0.9932083459670229,-0.24424521374789396,1.1419181339328541,3.042050277897916,-1.3218890785018669,-0.12660584307598788,0.12093540515546043,0.17995019586767896,2,left
20.675,0.6230748574048836,0.9927698220079929,-0.24392762140720506,1.1576963002773126,3.0423216598083758,-1.3326197550204755,-0.12749345673256315,0.11947692428135118,0.17470997460734697,2,left
20.676,0.6239429024289277,0.9923813876995105,-0.24362065778816436,1.1738173780597145,3.0428614232515807,-1.3432076449379227,-0.1283549691254439,0.11809791484139659,0.16948535048883454,2,left
20.677,0.6247589565627165,0.9920438511792876,-0.24332573646115369,1.1902442131987458,3.0436729540735548,-1.3536522827573132,-0.12919249246427492,0.11680607512155068,0.1642928053223879,2,left
20.747,0.62551976038568,0.9917578524307787,-0.24304428173500933,1.2069361996721362,3.044760055776625,-1.363954385387475,-0.1300082597413525,0.11560854333803978,0.15914828221168784,2,left
20.748,0.6262221805983277,0.9915238530625,-0.24277771945890633,1.223849615304193,3.046126851454117,-1.3741157904310959,-0.13080460597789714,0.11451184505778357,0.15406704455614006,2,left
20.749000000000002,0.6268632306353806,0.9913421285153586,-0.24252746726829713,1.2409379822327717,3.047777663572096,-1.3841393849193013,-0.1315839478373065,0.11352184782066514,0.14906353974864148,2,left
20.75,0.6274400900798454,0.9912127627827496,-0.24229492450669118,1.2581524511060886,3.049716870706548,-1.3940290245686706,-0.13234876162723536,0.11264372303442154,0.14415126788732643,2,left
20.750999999999998,0.6279501232672311,0.9911356455866749,-0.24208146210345732,1.275442208891623,3.05194874109083,-1.4037894435976264,-0.1331015598213147,0.11188191500489597,0.13934265653941383,2,left
20.750999999999998,0.6283908973208931,0.9911104718589077,-0.2418884126196052,1.2927549097028468,3.0544772436081455,-1.4134261551652096,-0.13384486642405138,0.1112401167635172,0.13464894417452564,2,left
20.809,0.6287601997208242,0.9911367433572684,-0.24171706053945877,1.3100371248403462,3.0573058401866153,-1.4229453428132721,-0.13458119160950732,0.11072125224242338,0.13008007576234634,2,left
20.811,0.6290560554371765,0.9912137722765686,-0.2415686327915825,1.3272348024884888,3.0604372700849285,-1.4323537443373022,-0.1353130059975626,0.11032746444196014,0.1256446132212886,2,left
20.811999999999998,0.6292767436447863,0.9913406867601425,-0.24144428946494134,1.3442937243531146,3.0638733412544545,-1.4416585310077974,-0.13604271494045944,0.11006010934786303,0.12134966216982343,2,left
20.811999999999998,0.6294208140644558,0.9915164382077489,-0.2413451147048887,1.3611599497755154,3.067614741673872,-1.4508671856293447,-0.13677263344825905,0.1099197553074578,0.1172008161739034,2,left
20.813000000000002,0.6294871030304361,0.991739810114822,-0.2412721077858255,1.3777802436133495,3.071660877023683,-1.4599873818796936,-0.13750496256210806,0.10990618750797995,0.11320211985253419,2,left
20.883000000000003,0.6294747493284101,0.9920094278935898,-0.24122617434244936,1.3941024873344745,3.0760097363718044,-1.4690268658737593,-0.13824176778250802,0.110018417289419,0.10935605186025543,2,left
20.885,0.6293832095187416,0.9923237689379396,-0.2412081176993519,1.4100760733787607,3.0806577860528637,-1.4779933401263643,-0.13898495979672612,0.11025469618475309,0.10566352814705594,2,left
20.886,0.6292122719762319,0.9926811723240158,-0.24121863024453788,1.4256522828355205,3.08559989175282,-1.4868943499399299,-0.13973627754779486,0.11061253466974419,0.10212392555298053,2,left
20.886,0.6289620686774543,0.9930798479485354,-0.2412582849650122,1.4407846464833316,3.0908292688113916,-1.4957371722431034,-0.14049727364722145,0.11108872562261245,0.0987351257263815,2,left
20.886999999999997,0.628633084066144,0.9935178853377816,-0.24132752757976017,1.455429289238038,3.0963374607556418,-1.5045287069060966,-0.1412693021386763,0.11167937242449166,0.09549357924022943,2,left
20.888,0.6282261607902279,0.9939932625892698,-0.24142666993773126,1.469545258016077,3.102114345769257,-1.5132753705966913,-0.14205350864560518,0.11237992128305786,0.09239438920645006,2,left
20.945999999999998,0.6277425023307278,0.994503855891615,-0.24155588530261374,1.4830948328315208,3.1081481692547177,-1.5219829934325375,-0.14285082298191196,0.11318519673411788,0.08943141265389486,2,left
20.948,0.6271836725478346,0.9950474499554256,-0.2417152059219218,1.4960438206063416,3.114425597859617,-1.5306567190305578,-0.1436619542936193,0.11408943896566669,0.08659737710787521,2,left
20.948,0.6265515921460182,0.9956217496522864,-0.24190452311423766,1.5083618305865907,3.1209317886937376,-1.5393009088317389,-0.1444873885891781,0.11508634214935566,0.08388400911841325,2,left
20.949,0.6258485320828431,0.9962243931770381,-0.24212359005063902,1.520022528453946,3.1276504685261104,-1.5479190518165202,-0.14532738813764695,0.11616909393682724,0.08128217024061868,2,left
20.95,0.6250771040703547,0.9968529670316342,-0.24237202733067711,1.5310038629774811,3.1345640196634186,-1.556513681152519,-0.14618199200373133,0.11733041681877335,0.07878199527978595,2,left
21.006999999999998,0.6242402485731293,0.9975050229074063,-0.24264933117137172,1.5412882572470916,3.1416535702736477,-1.5650862995532713,-0.1470510171681998,0.1185626119233504,0.07637302899519438,2,left
21.008000000000003,0.6233412209493591,0.9981780956838628,-0.24295488335778068,1.550862758554734,3.148899087715419,-1.5736373146593554,-0.14793406001454934,0.11985760548655923,0.07404435973583479,2,left
21.009,0.6223835764748565,0.99886972065347,-0.2432879615157101,1.5597191445680672,3.1562794743092932,-1.5821659849812368,-0.1488304981474506,0.12120699803616197,0.07178474974764411,2,left
21.021,0.6213711548258097,0.9995774483084483,-0.24364774870396466,1.5678539854281897,3.163772665474108,-1.590670376514227,-0.1497394925743621,0.12260211626021841,0.06958276199268616,2,left
21.023000000000003,0.6203080639712351,1.0002988566927704,-0.24403334247453262,1.575268661798965,3.171355730249125,-1.599147330050126,-0.15065999042620906,0.12403406736930755,0.06742688255785359,2,left
21.024,0.6191986626595299,1.0010315624668173,-0.24444376414377406,1.5819693391834506,3.179004974562706,-1.6075924394870982,-0.15159072865310233,0.12549379546970038,0.06530563635729847,2,left
21.081999999999997,0.6180475405807876,1.001773231759156,-0.24487796891461142,1.5879669002713028,3.186696049306458,-1.616000042824516,-0.1525302392755738,0.1269721393026836,0.06320769306987187,2,left
21.084,0.6168594959038639,1.002521591597893,-0.24533485719573023,1.5932768396897188,3.194404068330192,-1.6243632300229112,-0.15347685662737148,0.12845989086753687,0.061121961016077475,2,left
21.085,0.6156395104837743,1.0032744423502902,-0.24581328689389828,1.597919126978855,3.2021037431711306,-1.6326738732943291,-0.15442872675631183,0.12994785469435347,0.05903766814943628,2,left
21.086,0.6143927231330424,1.0040296706770786,-0.2463120857595058,1.6019180421602346,3.209769539633022,-1.6409226840030244,-0.15538381895757444,0.13142690747841107,0.0569444305839481,2,left
21.087,0.6131244011268686,1.0047852618983975,-0.246830062733124,1.6053019858420987,3.2173758573851132,-1.6490992973288525,-0.15633993929914622,0.13288805743014404,0.05483231010252278,2,left
21.148000000000003,0.6118399099859486,1.0055393114116842,-0.2473660177874662,1.6081032652941643,3.224897227605041,-1.6571923817905052,-0.15729474595146764,0.13432250247803454,0.052691862574887574,2,left
21.15,0.6105446816061547,1.0062900358440896,-0.24791875031556182,1.6103578593257946,3.2323085153436675,-1.6651897656428603,-0.15824576618101166,0.13572168667844972,0.050514178729823826,2,left
21.15,0.6092441807839933,1.0070357844374527,-0.24848706624982766,1.6121051657406542,3.2395851088417484,-1.6730785694926993,-0.1591904149533337,0.1370773545765221,0.04829091785600001,2,left
21.16,0.60794387017847,1.0077750502231655,-0.24906978404040486,1.6133877341984346,3.2467030824760412,-1.6808453371466165,-0.16012601510236205,0.13838160348068243,0.04601433462189401,2,left
21.160999999999998,0.6066491738653786,1.008506480074042,-0.24966573963306427,1.6142509856191958,3.253639328018519,-1.688476161510296,-0.16104981885004907,0.1396269336659701,0.04367729960814221,2,left
21.160999999999998,0.605365439778624,1.009228882886795,-0.25027379060243227,1.6147429183372275,3.2603716540907595,-1.6959568051178162,-0.16195903013257615,0.14080629653780496,0.04127331504494007,2,left
21.215,0.604097901429467,1.0099412354784703,-0.2508928195409272,1.6149138010899744,3.266878858338773,-1.7032728158531352,-0.1628508270071074,0.14191314079702808,0.03879652774664331,2,left
21.218000000000004,0.6028516394207419,1.0106426859892876,-0.2515217367371918,1.6148158530490277,3.2731407836103226,-1.7104096392353405,-0.16372238359522448,0.14294145663758062,0.03624174073587022,2,left
21.219,0.6016315434713587,1.0113325546949399,-0.2521594821697448,1.614502911167247,3.2791383731702504,-1.7173527290887114,-0.16457089135377143,0.14388581791286056,0.033604424168152035,2,left
21.22,0.600442275822163,1.012010332274413,-0.2528050269154213,1.614030085047034,3.2848537362346426,-1.7240876579682705,-0.16539357967960122,0.1447414218050355,0.03088072576006451,2,left
21.221,0.5992882368244662,1.0126756757795112,-0.2534573741861673,1.6134533994279607,3.290270227924419,-1.730600227757092,-0.16618773595164937,0.14550412482339842,0.028067480988802986,2,left
21.28,0.5981735332427788,1.0133284027116607,-0.25411556028310806,1.6128294244062196,3.2953725418730664,-1.736876579680803,-0.16695072514733578,0.14617047356532803,0.025162223422697774,2,left
21.281999999999996,0.5971019495394676,1.0139684836540384,-0.25477865576005826,1.612214893633707,3.300146809171665,-1.74290330159745,-0.16768000913657938,0.14673772906544663,0.022163195450149692,2,left
21.281999999999996,0.596076922248478,1.0145960338845252,-0.2554457670344005,1.6116663108272833,3.304580695222421,-1.7486675296998726,-0.16837316569607216,0.1472038842644173,0.019069359509023196,2,left
21.298000000000002,0.5951015174958748,1.0152113044414097,-0.2561160385684582,1.6112395448355803,3.308663488182103,-1.7541570424874413,-0.16902790723427494,0.14756767449953723,0.01588040979973112,2,left
21.299,0.5941784118277953,1.0158146732245805,-0.25678865557170144,1.6109894133613436,3.3123861764757727,-1.7593603461599847,-0.16964209911850747,0.14782858089098783,0.012596784312771605,2,left
21.3,0.5933098767510462,1.0164066366951852,-0.25746284703968053,1.610969255880352,3.3157415148528804,-1.7642667513544734,-0.17021377732932705,0.14798682630566581,0.009219676760274565,2,left
21.346,0.5924977676250938,1.0169878025107646,-0.25813788894530654,1.611230498911196,3.3187240782867975,-1.7688664415288933,-0.17074116507501533,0.14804336347375668,0.0057510478669918885,2,left
21.348000000000003,0.5917435174688759,1.0175588831692701,-0.2588131074678339,1.6118222215237987,3.3213303019519174,-1.7731505337299356,-0.17122268809114105,0.1479998549393882,0.0021936356097466726,2,left
21.354,0.5910481356789035,1.0181206905729119,-0.2594878821691316,1.6127907319210837,3.3235585052152925,-1.7771111328216542,-0.1716569885161205,0.14785864471805582,-0.0014490357649775062,2,left
21.355999999999998,0.5904122109365817,1.018674131353906,-0.2601616490088801,1.6141791648814257,3.325408899651399,-1.7807413805147714,-0.17204293732223877,0.14762272176893368,-0.005172648153987192,2,left
21.357,0.5898359173038836,1.0192202027980357,-0.2608339030929466,1.6160271079648039,3.3268835848183547,-1.7840355010095605,-0.17237964528194005,0.14729567605740065,-0.008972084482787772,2,left
21.414,0.589319022734285,1.0197599891991265,-0.2615042010796749,1.6183702633390837,3.327986537605515,-1.7869888453277238,-0.17266647241670086,0.1468816491460057,-0.012841428653171344,2,left
21.416,0.5888608995993013,1.020294658383548,-0.26217216320911013,1.6212401499762286,3.328723599599247,-1.7895979358556393,-0.17290303585768513,0.14638528189803496,-0.016773974002690855,2,left
21.434,0.5884605372402528,1.0208254579705534,-0.26283747498216553,1.6246638480791116,3.3291024641858424,-1.7918605115432673,-0.1730892160652158,0.14581166123137335,-0.02076224286618842,2,left
21.436,0.5881165569716598,1.021353710771256,-0.2634998885702406,1.6286637858040482,3.329132663319714,-1.7937755728483518,-0.1732251613863137,0.14516626669693106,-0.024798018282185363,2,left
21.436999999999998,0.5878272301127387,1.0218808085255588,-0.26415922398240654,1.6332575676421976,3.3288255530311273,-1.7953434238843087,-0.1733112909391644,0.1444549169409195,-0.02887238801112615,2,left
21.438000000000002,0.5875904994376346,1.0224082029346866,-0.26481536985554815,1.6384578436095123,3.3281942964374216,-1.796565708379491,-0.17334829577570884,0.14368371563809168,-0.03297580077947626,2,left
21.480999999999998,0.5874040041533424,1.02293739311915,-0.26546828362200464,1.6442722186116148,3.3272538433299625,-1.7974454369042299,-0.17333713819940183,0.14285899586598005,-0.0370981345176497,2,left
21.483,0.587265108178209,1.0234699095221447,-0.26611799084561816,1.650703201738761,3.326020905964824,-1.7979870043505224,-0.17327904907392244,0.1419872615472695,-0.04122877627865174,2,left
21.491999999999997,0.5871709309990011,1.0240072952320416,-0.2667645835933447,1.6577481955304294,3.324513930482744,-1.798196197526658,-0.17317552299959718,0.14107512492997917,-0.04535671360560427,2,left
21.495,0.587118379960163,1.024551085910595,-0.2674082177118961,1.6653995256318137,3.322753060890853,-1.7980801930416352,-0.17302831130106186,0.14012923988915083,-0.04947063719326955,2,left
21.496,0.5871041828502631,1.0251027891371107,-0.2680491088593845,1.6736445118746068,3.3207600879405423,-1.7976475459117087,-0.172839412775142,0.1391562321628298,-0.053559054423589145,2,left
21.546,0.5871249199521693,1.0256638636896536,-0.26868752719049777,1.6824655821541818,3.3185583726810393,-1.79690816946405,-0.17261106209207502,0.13816262947927657,-0.057610412748107694,2,left
21.548000000000002,0.5871770548911449,1.026235699396398,-0.26932379070308005,1.6918404301390506,3.3161727370215495,-1.7958733069679849,-0.17234571570754573,0.13715479551876447,-0.06161323154378914,2,left
21.57,0.5872569637243026,1.0268195984679271,-0.26995825737701623,1.7017422172418075,3.31362931823145,-1.7945554951648943,-0.17204603519372877,0.13613887058967003,-0.06555624116218924,2,left
21.570999999999998,0.5873609620701452,1.0274167592642638,-0.2705913163337519,1.712139818944448,3.3109553868614428,-1.792968519723397,-0.17171486803794642,0.13512071973749307,-0.06942852725126304,2,left
21.572,0.5874853305090384,1.0280282631783428,-0.2712233782804326,1.7229981149441613,3.3081791285549578,-1.7911273625362807,-0.1713552261308081,0.13410588732537854,-0.07321967650014427,2,left
21.572,0.5876263386773926,1.0286550649698767,-0.2718548654884387,1.7342783197833205,3.305329392598965,-1.7890481403718888,-0.17097026224928244,0.13309955654210284,-0.07691991876236855,2,left
21.613000000000003,0.587780268488901,1.0292979866321583,-0.27248620156001035,1.7459383455818323,3.3024354143476393,-1.7867480336666,-0.17056324476348556,0.1321065126787626,-0.08052026177676866,2,left
21.614,0.587943436949347,1.029957714673834,-0.27311780130909913,1.7579331856874425,3.299526521032364,-1.7842452038413632,-0.17013753065805098,0.13113110970892206,-0.08401261698016241,2,left
21.629,0.5881122191012281,1.0306348004740653,-0.2737500611684324,1.7702153105402016,3.2966318287176164,-1.7815586980727758,-0.16969653688229777,0.13017724009228185,-0.08738991616965185,2,left
21.63,0.5882830716142993,1.0313296632002273,-0.27438335050167395,1.782735070472956,3.293779937010539,-1.7787083419001695,-0.16924371008520608,0.12924830782143326,-0.09064621885815549,2,left
21.631,0.5884525573647975,1.0320425947869216,-0.27501800403123644,1.7954411000542503,3.290998631391062,-1.7757146217598916,-0.16878249507701645,0.1283472048433483,-0.0937768093329682,2,left
21.680999999999997,0.5886173710691601,1.0327737665792913,-0.2756543154171426,1.8082807175192221,3.2883146056864447,-1.7725985603443373,-0.1683163028737715,0.12747629118898213,-0.09677828092648035,2,left
21.683000000000003,0.5887743657304514,1.0335232372101872,-0.276292531883199,1.8212003144571476,3.285753214081195,-1.7693815869565113,-0.16784847946694423,0.12663737925647234,-0.09964860417432392,2,left
21.706999999999997,0.5889205793822754,1.0342909610897815,-0.2769328496077727,1.834145733845148,3.283338256414073,-1.7660854037231333,-0.16738227617441376,0.125831722581461,-0.10238717636937444,2,left
21.711,0.5890532613769051,1.0350767967803847,-0.277575409421068,1.8470626361403466,3.28109179738112,-1.7627318478026464,-0.1669208219144878,0.1250600092264858,-0.10499485152000353,2,left
21.711,0.5891698972347877,1.035880514688066,-0.2782202923813419,1.8598968534674734,3.279034019637411,-1.7593427495789313,-0.16646709747185054,0.12432235983004285,-0.10747395053048102,2,left
21.712,0.5892682310097691,1.0367018038395655,-0.27886751508466423,1.8725947320674428,3.2771831106141733,-1.7559397870994942,-0.1660239118323677,0.12361833043662566,-0.10982825146954558,2,left
21.748,0.5893462844197634,1.0375402777837086,-0.27951702485562346,1.8851034638146014,3.275555181985989,-1.7525443383576982,-0.16559388078108953,0.12294692041456717,-0.1120629595800143,2,left
21.749000000000002,0.5894023725026509,1.0383954797480863,-0.28016869512531173,1.897371408766177,3.274164219135093,-1.749177335432228,-0.1651794080230345,0.12230658587162195,-0.11418465656372738,2,left
21.766,0.5894351159100039,1.039266887256276,-0.2808223214500933,1.9093484113493224,3.273022057077963,-1.7458591258379008,-0.16478266902114613,0.12169525887530777,-0.11620122879397662,2,left
21.767,0.5894434499138399,1.0401539166440488,-0.2814776187629991,1.920986112148349,3.272138380202416,-1.7426093451010007,-0.16440559761646342,0.12111037251143122,-0.11812177453146633,2,left
21.768,0.5894266299179972,1.041055928167868,-0.28213422039843716,1.9322382556492883,3.2715207443311156,-1.7394468019634812,-0.16404987537040056,0.12054889126999487,-0.11995649139506433,2,left
21.813000000000002,0.5893842331395622,1.0419722323987113,-0.2827916792024856,1.943060991412258,3.2711746184040185,-1.7363893753037194,-0.1637169234480957,0.12000734543282053,-0.12171654726512507,2,left
21.814,0.5893161563471416,1.042902098336736,-0.28344947081307903,1.9534131619742885,3.271103439457957,-1.733453919836963,-0.16340789680187584,0.11948186769599703,-0.1234139388542161,2,left
21.845,0.589222609908177,1.0438447633462322,-0.2841069989974688,1.9632565685405965,3.2713086724758593,-1.7306561766830042,-0.16312368045698714,0.11896823074546849,-0.12506134138769207,2,left
21.846,0.58910410862387,1.0447994445268476,-0.28476360265597095,1.9725562077646317,3.271789868785327,-1.7280106858647761,-0.16286488772511507,0.11846188551768164,-0.12667195225906727,2,left
21.846999999999998,0.5889614598915178,1.0457653502010253,-0.2854185636332514,1.9812804768016326,3.2725447206708904,-1.7255306998594606,-0.1626318600789141,0.11795800071312207,-0.1282593328542584,2,left
21.848000000000003,0.5887957498588244,1.0467416891162016,-0.28607111401620844,1.9894013452993096,3.27356911293272,-1.7232280998050378,-0.16242466834819827,0.11745150443806648,-0.1298372538530631,2,left
21.88,0.5886083284788699,1.0477276751577522,-0.2867204418555589,1.9968944920626257,3.2748571742768218,-1.7211133188699725,-0.16224311498314994,0.1169371286306949,-0.1314195479902343,2,left
21.901999999999997,0.5884007942448304,1.04872252741118,-0.28736569542082113,2.003739403364764,3.2764013323837746,-1.7191952787992872,-0.1620867372823168,0.11640945653314828,-0.13301997187182105,2,left
21.903000000000002,0.5881749784735385,1.0497254674266505,-0.2880059870850921,2.0099194306378827,3.2781923755425857,-1.7174813441456938,-0.16195481159169633,0.11586297318207105,-0.13465207716016228,2,left
21.904,0.587932928098297,1.050735715920438,-0.2886403979510082,2.0154218066492597,3.28021952200683,-1.715977295985835,-0.16184635861731303,0.11529211849714348,-0.13632909139396696,2,left
21.904,0.5876768861816012,1.0517524906292472,-0.2892679838355522,2.020237620486979,3.2824704968944522,-1.7146873251525399,-0.16176015020815548,0.11469134191856081,-0.138063809102754,2,left
21.945999999999998,0.5874092704091484,1.052775006499459,-0.2898877826682768,2.024361754115834,3.2849316143847185,-1.7136140433904656,-0.16169471808551794,0.11405515719518972,-0.13986849409323118,2,left
21.948,0.5871326503118116,1.0538024785607731,-0.29049882279556427,2.0277927873766335,3.2875878595890096,-1.7127585084615278,-0.1616483648757502,0.11337819627423526,-0.1417547935671048,2,left
21.980999999999998,0.586849723488363,1.0548341268366794,-0.2911001313804164,2.03053288053902,3.2904229631285697,-1.7121202580988912,-0.16161917758909303,0.11265526187167436,-0.14373366433718868,2,left
21.983,0.5865632904692119,1.055869182526089,-0.2916907422464424,2.0325876409956014,3.2934194659899765,-1.7116973500062944,-0.16160504354852745,0.1118813786386621,-0.14581531107260423,2,left
21.983,0.5862762277396147,1.0569068954751253,-0.292269702923728,2.033965976146621,3.2965587803963574,-1.711486409235382,-0.16160366865029724,0.11105184284323305,-0.1480091358701521,2,left
21.984,0.5859914586914693,1.057946543244484,-0.2928360808897502,2.0346799320020783,3.2998212569699485,-1.7114826865717208,-0.16161259766050573,0.11016227036840544,-0.15032369738665638,2,left
22.014,0.5857119225383141,1.058987441387396,-0.29338896894773886,2.0347445168036304,3.303186266176633,-1.711680130851126,-0.1616292361537285,0.10920864276204849,-0.1527666771770741,2,left
22.039,0.5854405414322124,1.060028953890509,-0.2939274896064107,2.0341775093888215,3.306632297254256,-1.7120714763748264,-0.16165087376545834,0.10818735111448023,-0.15534485140207027,2,left
22.041,0.5851801861533317,1.0610705027090706,-0.29445079836400984,2.0329992522528135,3.3101370751661947,-1.7126483456182897,-0.16167470844421553,0.10709523753349567,-0.15806406677307117,2,left
22.041999999999998,0.5849336407771517,1.0621115756552044,-0.294958085870106,2.031232429307848,3.3136776955897953,-1.713401367234274,-0.1616978711937066,0.10592963382842263,-0.16092921954804137,2,left
22.041999999999998,0.5847035667960281,1.063151732211218,-0.2954485789863789,2.028901828306929,3.31723077762495,-1.7143203089469359,-0.16171745065180998,0.1046883969035507,-0.16394423615110176,2,left
22.081999999999997,0.5844924673827416,1.0641906070090992,-0.2959215408165029,2.0260340877368805,3.320772632285367,-1.7153942229130432,-0.16173051701649271,0.10336994048525538,-0.16711205434808413,2,left
22.083000000000002,0.5843026526665888,1.0652279108242015,-0.29637626985932397,2.0226574276969758,3.3242794419139705,-1.7166115974884526,-0.1617341451227353,0.10197326303045016,-0.1704346045559708,2,left
22.116999999999997,0.5841362068838919,1.066263429160854,-0.2968120985852748,2.0188013641181257,3.327727444041024,-1.7179605073171589,-0.161725436646213,0.10049797170819372,-0.17391279123627432,2,left
22.118000000000002,0.583994958102333,1.0672970188106659,-0.29722839187563094,2.0144964058356654,3.3310931148264182,-1.7194287556819956,-0.16170154148393923,0.09894430197205648,-0.1775464744600761,2,left
22.119,0.5838804509808684,1.068328602892713,-0.2976245457678018,2.0097737346299107,3.3343533498762103,-1.7210040066718189,-0.16165967843730986,0.09731313152271724,-0.18133445185080546,2,left
