time,gFx,gFy,gFz,ax,ay,az,wx,wy,wz,subject_number,foot
33.056999999999995,0.5145896351536007,1.1181455806106178,-0.3063597603450637,1.521184300310415,4.420660377989192,-1.9960079990185957,-0.13364196089514194,0.1356506448832829,-0.12665963356713744,2,left
33.056999999999995,0.5146992011239693,1.118432286918681,-0.3066043294018127,1.5486235264488826,4.416877419192884,-2.0118616572454524,-0.13396498855615885,0.1351085875548721,-0.12453887221017673,2,left
33.058,0.5148138926213003,1.118711228285445,-0.3068393576302875,1.5755874068075901,4.412529966619746,-2.027914511509655,-0.1343128778617243,0.13454451260374925,-0.12240560312756572,2,left
33.059,0.514936610277205,1.1189809237329889,-0.30706350599252263,1.6020665124420144,4.407618633664967,-2.044151253280123,-0.13468236344005843,0.13395381691299915,-0.12027160739028214,2,left
33.08,0.5150703210357548,1.1192399558273016,-0.3072754594428698,1.6280541551329508,4.402144660933898,-2.060555402648709,-0.1350700218927555,0.13333204964590792,-0.11814809043908082,2,left
33.115,0.5152180349090748,1.1194869812675976,-0.30747393497398284,1.6535462138783883,4.396110020780462,-2.077109410072768,-0.1354722925527768,0.13267495750800556,-0.11604561877763861,2,left
33.117,0.5153827801364255,1.1197207413746213,-0.307657688207596,1.6785409579803328,4.389517506757006,-2.0937947566428994,-0.13588550022642712,0.13197852855499617,-0.11397406631591053,2,left
33.117,0.5155675767098584,1.119940072541759,-0.30782551881015546,1.70303886734819,4.382370807344623,-2.110592052426444,-0.13630587992056453,0.13123903424568384,-0.11194256999909376,2,left
33.118,0.515775408372395,1.1201439162313473,-0.3079762748421165,1.7270424498812,4.374674564316329,-2.1274811330104657,-0.13672960334920586,0.13045306965976558,-0.1099594940454017,2,left
33.147,0.5160091933134846,1.1203313279006182,-0.30810885607815597,1.750556054737299,4.366434417932354,-2.14444115474944,-0.13715280668839844,0.12961759180549706,-0.10803240121551151,2,left
33.193000000000005,0.5162717537828676,1.1205014844402061,-0.30822221633781044,1.773585678397729,4.357657044492603,-2.1614506899091914,-0.13757161887081298,0.12872995591778563,-0.10616802901292584,2,left
33.194,0.516565784826385,1.1206536899746948,-0.30831536489327077,1.7961387593816167,4.348350193618216,-2.1784878232799776,-0.1379821898889576,0.12778794967146093,-0.10437226923836256,2,left
33.195,0.5168938225376196,1.1207873799312904,-0.30838736707900366,1.8182239585170121,4.338522730784139,-2.1955302514507276,-0.13838071889529727,0.12678982527812324,-0.10265015026416874,2,left
33.195,0.5172582125741468,1.120902123250946,-0.3084373443252936,1.8398509235701452,4.328184687295713,-2.212555385250581,-0.13876348204826136,0.12573432942739612,-0.10100582187913694,2,left
33.195,0.5176610798728222,1.1209976227158338,-0.3084644739280037,1.8610300381533043,4.317347317969907,-2.229540455307101,-0.13912686000496285,0.12462073087935774,-0.09944254246138719,2,left
33.213,0.5181043003237131,1.121073713528443,-0.30846798886159466,1.8817721553728617,4.306023165998913,-2.24646261971564,-0.13946736481089506,0.12344884522899041,-0.09796266788140355,2,left
33.253,0.5185894748334267,1.1211303603399507,-0.30844717784566755,1.90208831759039,4.294226133445803,-2.263299071243388,-0.13978166585320403,0.1222190562045612,-0.09656764133987857,2,left
33.254,0.519117906013883,1.1211676529203225,-0.3084013857922775,1.9219894655785645,4.281971553981872,-2.280027140666675,-0.14006661463226766,0.12093233294072063,-0.09525798355889549,2,left
33.255,0.5196905776793389,1.1211858006563407,-0.30833001472912414,1.9414861428615542,4.269276262317173,-2.296624393815512,-0.14031926827959385,0.11959024255410085,-0.0940332831809428,2,left
33.256,0.520308137296743,1.1211851260689318,-0.30823252526863437,1.9605882020096224,4.256158654088626,-2.313068721534631,-0.14053691187468342,0.11819495679028728,-0.09289218757205096,2,left
33.28,0.5209708815370829,1.1211660576417288,-0.30810843866548226,1.979304517746436,4.242638731807437,-2.329338422594803,-0.14071707965296937,0.11674925114401355,-0.09183239434505988,2,left
33.329,0.5216787452272091,1.1211291224629836,-0.30795733947785303,1.997642708819091,4.228738135117081,-2.3454122796666845,-0.14085757517402636,0.11525649525288631,-0.09085064383932386,2,left
33.33,0.5224312942597896,1.1210749392731596,-0.30777887880001314,2.0156088690014173,4.2144801550388395,-2.361269628415145,-0.14095649046301006,0.11372063420713899,-0.08994271280374151,2,left
33.33,0.5232277231167859,1.1210042122885764,-0.3075727779806436,2.033207307284346,4.199889732166087,-2.3768904197607785,-0.14101222404010125,0.11214616144057478,-0.08910341022148066,2,left
33.330999999999996,0.5240668572974111,1.1209177257839522,-0.3073388326965062,2.050440297306028,4.1849934387674494,-2.392255275354725,-0.1410234976125979,0.11053808507099268,-0.088326577587152,2,left
33.332,0.5249471601409352,1.120816339123569,-0.3070769171630503,2.067307836556784,4.1698194449242205,-2.4073455364561616,-0.1409893711289272,0.10890189018245867,-0.08760509671858882,2,left
33.389,0.525866742846247,1.1207009818113447,-0.30678698815309047,2.0838074183101347,4.154397469657848,-2.4221433071204186,-0.14090925596897874,0.1072434989174834,-0.08693090741439194,2,left
33.391,0.5268233765374368,1.1205726481434037,-0.3064690885228932,2.0999338235811664,4.13875871949901,-2.43663149389959,-0.14078292615729773,0.1055692290629802,-0.08629503590807128,2,left
33.391,0.5278145059458449,1.1204323911105554,-0.3061233501604707,2.115678942829674,4.122935817780369,-2.450793844976,-0.1406105274448589,0.10388575088687042,-0.08568763443680667,2,left
33.391999999999996,0.5288372650434519,1.1202813151638067,-0.30574999647839957,2.131031634707213,4.106962727103018,-2.4646149909287822,-0.1403925839113652,0.102200041312375,-0.08509803233755504,2,left
33.393,0.5298884954096676,1.120120567202548,-0.30534934460264035,2.1459776249805116,4.090874665975407,-2.478080487896279,-0.14013000162394149,0.10051933421424997,-0.0845147992215678,2,left
33.413000000000004,0.5309647682363233,1.119951324875261,-0.304921807312398,2.160499447272528,4.074708020021393,-2.4911768624668595,-0.13982406900390446,0.09885106592393449,-0.0839258206402341,2,left
33.467,0.5320624105618135,1.1197747815702246,-0.3044678946950872,2.174576428446828,4.058500248401007,-2.503891656208053,-0.13947645376185389,0.09720281557550046,-0.083318386406405,2,left
33.469,0.5331775355640286,1.119592128445241,-0.30398821540524973,2.1881847222901816,4.0422897858081,-2.516213467039593,-0.13908919637714573,0.09558224022704379,-0.08267929159714267,2,left
33.471,0.534306076007825,1.1194045346440455,-0.30348347729893177,2.2012973937359686,4.026115937634664,-2.5281319853979607,-0.13866470011257667,0.09399700497862355,-0.08199495015719302,2,left
33.472,0.5354438197669558,1.1192131267698031,-0.30295448712179224,2.2138845533297253,4.0100187608980065,-2.5396380244764796,-0.1382057175135159,0.09245470943732328,-0.08125152062751502,2,left
33.473,0.5365864465866816,1.1190189681925828,-0.30240214895638107,2.2259135402257075,3.994038920752776,-2.550723544566933,-0.13771533326595126,0.09096281391302746,-0.08043504281226845,2,left
33.498000000000005,0.5377295653147552,1.1188230386171722,-0.3018274612110861,2.2373491523003812,3.9782175149083705,-2.5613816716363793,-0.13719694324633613,0.08952856985801863,-0.07953158380261972,2,left
33.535,0.5388687505505042,1.1186262145648274,-0.3012315119796826,2.2481539224446427,3.9625958633347933,-2.571606710105976,-0.1366542296374999,0.08815895793421269,-0.07852739217046721,2,left
33.536,0.5399995775128434,1.1184292515854681,-0.30061547265514793,2.2582884386108155,3.947215265597037,-2.5813941492342756,-0.13609113209030052,0.08686063496874338,-0.07740905960879775,2,left
33.537,0.5411176542275661,1.118232768878586,-0.2999805897652331,2.267711701743049,3.932116733009569,-2.5907406615456137,-0.13551181510634638,0.0856398894778036,-0.07616368845495226,2,left
33.537,0.5422186506976612,1.1180372367547489,-0.2993281751128729,2.2763815137498855,3.917340705215372,-2.5996440912129595,-0.13492063210299302,0.08450260440014984,-0.07477906138859923,2,left
33.593,0.5432983252557211,1.117842967281483,-0.2986595944856953,2.2842548890096426,3.902926758983097,-2.6081034308791895,-0.13432208677601587,0.08345422523032246,-0.07324380836079204,2,left
33.595,0.5443525486360856,1.1176501084743822,-0.29797625537079847,2.2912884832684512,3.8889133156781286,-2.6161187865826623,-0.13372079228794195,0.08249973219298756,-0.07154756685549704,2,left
33.595,0.5453773263588317,1.1174586423143877,-0.29727959412569394,2.297439030048473,3.8753373568584704,-2.6236913313942356,-0.13312142886673944,0.08164361591071713,-0.06968113285914544,2,left
33.596,0.5463688199248324,1.1172683866703461,-0.2965710629776351,2.3026637719039025,3.8622341599685206,-2.630823248706797,-0.13252870084721866,0.0808898564654987,-0.06763659944093317,2,left
33.597,0.5473233673536616,1.11707900095336,-0.2958521172596791,2.3069208770311906,3.8496370631013628,-2.6375176658878994,-0.13194729449104353,0.0802419058427137,-0.06540747914454388,2,left
33.614000000000004,0.5482375036825893,1.1168899950537088,-0.29512420338643824,2.310169837445581,3.837577262394965,-2.643778578592293,-0.13138183758685457,0.0797026737487373,-0.06298880734009209,2,left
33.672,0.5491079818284458,1.1167007408861804,-0.2943887479578126,2.3123718481046414,3.8260836426254463,-2.6496107658006833,-0.13083686124856167,0.0792745168002668,-0.06037722537914236,2,left
33.674,0.5499317936898814,1.1165104858192918,-0.29364714804147213,2.313490166990927,3.815182640961275,-2.6550196956039605,-0.1303167640878253,0.07895923110003704,-0.05757104327910466,2,left
33.675,0.5507061909149847,1.1163183673711439,-0.29290076236619284,2.3134904561630307,3.804898143843828,-2.660011421750888,-0.12982577903610537,0.07875804823972918,-0.05457028173614092,2,left
33.676,0.5514287045600157,1.1161234286129387,-0.2921509030152633,2.3123411037812605,3.795251416961344,-2.6645924709760247,-0.12936794318404793,0.07867163478531412,-0.05137669320053096,2,left
33.676,0.5520971628150347,1.1159246336284339,-0.2913988273055139,2.3100135273712112,3.786261068186532,-2.6687697215265476,-0.12894707091371882,0.07870009528627764,-0.047993761812526764,2,left
33.73,0.5527097060462909,1.1157208823383304,-0.29064572985951864,2.3064824598858884,3.7779430428574803,-2.672550275321056,-0.12856673043308034,0.07884297882509084,-0.044426682112514694,2,left
33.731,0.5532647986811771,1.1155110242078017,-0.2898927352085455,2.301726221928924,3.7703106494518215,-2.675941329633278,-0.12823022372986997,0.07909928910950158,-0.04068231650339154,2,left
33.732,0.5537612378645805,1.1152938707020899,-0.2891408913989074,2.2957269821190414,3.76337461098752,-2.6789500553727033,-0.1279405699436801,0.07946749810772741,-0.03676913145544733,2,left
33.733000000000004,0.5541981590776028,1.1150682066835442,-0.28839116506949414,2.2884710014485745,3.757143133970965,-2.68158348551382,-0.127700492155153,0.07994556322695835,-0.032697112443522316,2,left
33.734,0.5545750388399947,1.114832801293315,-0.28764443843947524,2.279948852464629,3.7516219853752206,-2.683848412761097,-0.12751240756244636,0.08053094799501556,-0.02847765784045155,2,left
33.806999999999995,0.5548916943471853,1.1145864191973598,-0.2869015085668541,2.270155605476921,3.746814570851738,-2.6857512943554687,-0.12737842087083692,0.08122064600089683,-0.024123453164087174,2,left
33.808,0.5551482797463076,1.1143278331711464,-0.28616308904734544,2.259090978555882,3.742722011486337,-2.687298163027502,-0.12730032044431908,0.08201120751915819,-0.019648329370256023,2,left
33.809,0.5553452788852932,1.1140558388111004,-0.2854298140797673,2.246759450760635,3.7393432186383695,-2.6884945439367023,-0.12727957653782523,0.08289876822339144,-0.015067110971123947,2,left
33.81,0.5554834946604382,1.1137692719302719,-0.28470224467220767,2.2331703385686916,3.736674966849265,-2.689345377602433,-0.12731734091854746,0.08387907993078086,-0.010395460229092237,2,left
33.81,0.5555640353980771,1.1134670288543476,-0.28398087666795513,2.218337835475602,3.7347119648086995,-2.6898549488309045,-0.12741444735900226,0.08494754387243318,-0.0056497224770170485,2,left
33.811,0.5555882989001557,1.113148088725838,-0.28326614990481636,2.2022810147035634,3.7334469245506603,-2.6900268219697017,-0.12757141271502395,0.08609924700444978,-0.0008467755277050736,2,left
33.867,0.5555579547848774,1.1128115351131689,-0.2825584571795115,2.1850237948264373,3.7328706299636925,-2.6898637844604383,-0.12778843848564828,0.08732900158387356,0.003996115744168445,2,left
33.869,0.5554749259095959,1.112456573599181,-0.2818581516309615,2.166594867884764,3.7329720073395447,-2.689367803611314,-0.12806541287102902,0.08863138799127529,0.008861439364203819,2,left
33.87,0.5553413702719975,1.112082543771709,-0.28116555219988837,2.147027589737043,3.733738201463,-2.688540002827297,-0.12840191352716526,0.09000080045418556,0.013731570092100184,2,left
33.87,0.5551596651112298,1.1116889263276124,-0.28048094795515793,2.126359834038767,3.735154659170658,-2.6873806602784667,-0.12879721151387843,0.09143149480216631,0.018588895425674004,2,left
33.871,0.5549323939546601,1.1112753469341778,-0.2798046022685183,2.1046338142049312,3.7372052194697774,-2.685889227124945,-0.12925027709792164,0.09291763709361439,0.023415931501866875,2,left
33.945,0.5546623354372814,1.110841578378041,-0.2791367574260776,2.08189587957931,3.739872207773081,-2.6840643593384717,-0.12975978790800233,0.09445335224549142,0.028195427193336706,2,left
33.946,0.5543524514039159,1.1103875418897837,-0.2784776399227111,2.058196291646414,3.7431365324918024,-2.6819039593416174,-0.13032413962160766,0.09603277229589464,0.0329104558434042,2,left
33.946999999999996,0.5540058720782276,1.1099133076905676,-0.27782746649466616,2.0335889853813534,3.746977783790747,-2.6794052282025853,-0.13094145910056235,0.09765008409499468,0.037544495228821674,2,left
33.946999999999996,0.553625877488913,1.1094190947448936,-0.2771864508979005,2.008131320420121,3.7513743351773856,-2.676564731632517,-0.13160961968322193,0.09929957605236617,0.04208149748904489,2,left
33.948,0.5532158756939601,1.108905270355607,-0.2765548113525268,1.9818838253150048,3.7563034485326785,-2.6733784824606337,-0.13232625824350883,0.10097568344340539,0.04650595133549956,2,left
33.948,0.5527793787797679,1.1083723502983247,-0.27593277819812917,1.9549099361376432,3.7617413828339625,-2.669842040652642,-0.13308879372500226,0.1026730319030956,0.050802938279107146,2,left
34.005,0.5523199771738282,1.1078209996009567,-0.2753206009545309,1.9272757294792102,3.767663506624462,-2.6659506306062344,-0.13389444703457387,0.10438647896129774,0.054958183579064866,2,left
34.007,0.5518413122551042,1.1072520337718414,-0.27471855409435497,1.8990496491743338,3.774044414256117,-2.6616992730938813,-0.13474026227805105,0.10611115359927836,0.05895810204055719,2,left
34.008,0.5513470471305982,1.1066664202495953,-0.2741269412406879,1.8703022251760775,3.7808580459527357,-2.6570829252911747,-0.13562312934009318,0.10784249383233933,0.06278983867371214,2,left
34.009,0.550840835663729,1.1060652796746109,-0.27354609786145206,1.841105782508977,3.788077811752356,-2.652096620144076,-0.1365398078105885,0.10957628232346171,0.06644130422571022,2,left
34.009,0.5503262900535951,1.1054498864206885,-0.2729763927063448,1.811534138723876,3.795676719378534,-2.646735598511269,-0.13748695221864535,0.11130868002450989,0.06990120567804403,2,left
34.024,0.5498069473239552,1.1048216678739946,-0.2724182281813718,1.7816622891740004,3.8036275060726523,-2.6409954314477155,-0.138461138328611,0.11303625779957129,0.07315907220312207,2,left
34.080999999999996,0.5492862350908709,1.1041822021016452,-0.271872039703689,1.7515660799288684,3.8119027744100245,-2.634872132178295,-0.13945888988050237,0.11475602590943002,0.0762052777987113,2,left
34.083,0.54876743713313,1.103533213654455,-0.2713382940435207,1.7213218682412466,3.8204751321215715,-2.6283622577461316,-0.14047670495057438,0.1164654611941787,0.07903106222084125,2,left
34.084,0.5482536595837939,1.1028765673391707,-0.27081748681260404,1.6910061704815027,3.829317335943845,-2.6214630003190997,-0.1415110813258025,0.11816253174325472,0.0816285514367296,2,left
34.084,0.547747798721907,1.1022142599990767,-0.2703101394698705,1.6606952974530593,3.838402439521117,-2.6141722681369153,-0.14255854071439755,0.11984571846926635,0.08399077811482733,2,left
34.085,0.5472525112000578,1.1015484105559505,-0.2698167962879318,1.63046497710743,3.847703945122704,-2.606488756114238,-0.14361565192231146,0.12151403223666758,0.08611170230350572,2,left
34.14,0.5467701872694137,1.1008812486246138,-0.26933802162416365,1.6003899652031166,3.8571959576324546,-2.598412006284746,-0.14467905322322078,0.12316702475622167,0.08798623238967969,2,left
34.141999999999996,0.5463029273586485,1.1002151019684268,-0.2688743976934054,1.5705436453994606,3.866853336915436,-2.589942458577214,-0.1457454740692988,0.12480479193243504,0.08961024635093208,2,left
34.141999999999996,0.5458525222192283,1.0995523830363123,-0.26842652292705993,1.5409976213453045,3.876651843295219,-2.5810814926741723,-0.14681175606867333,0.126427969297363,0.09098061299580727,2,left
34.143,0.5454204367372891,1.0988955748112483,-0.2679950109352193,1.5118213055094025,3.8865682718564205,-2.5718314619820024,-0.1478748728826202,0.12803771986281204,0.0920952123604238,2,left
34.144,0.5450077974855347,1.098247216227777,-0.2675804900522609,1.4830815134361386,3.89658057305295,-2.5621957212431745,-0.14893194856391737,0.12963571495160878,0.09295295414417185,2,left
34.215,0.5446153842061175,1.0976098875431914,-0.2671836033842197,1.4548420742976014,3.9066679580835406,-2.5521786495996026,-0.14998027397819294,0.13122410842957372,0.09355379334700921,2,left
34.217,0.5442436256140764,1.0969861961440923,-0.2668050091503956,1.4271634657962877,3.916810988084166,-2.5417856704307926,-0.1510173211668246,0.13280550450961695,0.09389874277498719,2,left
34.218,0.5438925999026663,1.096378763110618,-0.26644538100913834,1.400102476591184,3.9269916467745287,-2.5310232684791925,-0.15204075563034064,0.1343829191603494,0.09398988236037602,2,left
34.219,0.5435620398965048,1.0957902105189359,-0.26610540809529637,1.3737118967087598,3.937193396522292,-2.519899004324002,-0.15304844654261315,0.13595973524147892,0.09383036514506848,2,left
34.22,0.5432513422285684,1.095223149229862,-0.2657857946478899,1.3480402358594823,3.9474012178541606,-2.5084215261735996,-0.1540384749425281,0.1375396520767491,0.0934244190099612,2,left
34.221,0.5429595797177562,1.0946801668699382,-0.2654872592417346,1.3231314699709784,3.957601632721058,-2.4966005789881045,-0.15500914001534408,0.1391266312344782,0.09277734185484134,2,left
34.277,0.542685516332884,1.0941638157364808,-0.265210533686835,1.2990248180385269,3.9677827130609704,-2.4844470110552397,-0.15595896361233164,0.14072484087426199,0.09189548716734254,2,left
34.279,0.5424276244143592,1.0936766003978833,-0.26495636164940967,1.2757545541137416,3.9779340779357977,-2.4719727780262786,-0.15688669312233133,0.14233860042563332,0.09078623771927433,2,left
34.28,0.5421841040154647,1.0932209648277953,-0.26472549702410797,1.2533498597930992,3.9880468825234594,-2.4591909437351,-0.15779130275085645,0.14397232628381504,0.08945796668138359,2,left
34.28,0.541952904363511,1.09279927890503,-0.26451870206249145,1.2318347198458541,3.9981138000867156,-2.446115676413149,-0.15867199323957576,0.14563047858077022,0.08791998652898081,2,left
34.281,0.5417317475504029,1.0924138239108006,-0.2643367452078377,1.2112278609051401,4.008128996307319,-2.4327622390275327,-0.15952819005927232,0.1473175089507313,0.08618248643926141,2,left
34.347,0.54151815455011,1.092066776467486,-0.2641803984868287,1.1915427326099286,4.018088095369069,-2.4191469731514044,-0.16035954010170037,0.14903780923081306,0.08425645870452632,2,left
34.348,0.5413094734046859,1.091760190625237,-0.2640504342500672,1.1727875309799476,4.0279881376647735,-2.405287276229661,-0.16116590688199847,0.15079566107584305,0.0821536143681052,2,left
34.349000000000004,0.5411029089777448,1.0914959784980744,-0.2639476211196443,1.1549652639643928,4.037827529155867,-2.3912015722016364,-0.16194736425563988,0.15259518648799256,0.07988628811321433,2,left
34.355,0.5408955533146454,1.0912758904334607,-0.2638727191325773,1.1380738591078998,4.047605982413292,-2.3769092754417103,-0.1627041886523078,0.15444029926615885,0.07746733239924149,2,left
34.356,0.5406844155762235,1.0911014958720193,-0.26382647415679067,1.1221063131208253,4.057324449059306,-2.3624307479681996,-0.1634368498290122,0.15633465738015784,0.07491000083944356,2,left
34.357,0.5404664506915328,1.0909741659469765,-0.2638096116755178,1.1070508823481706,4.066985041785765,-2.3477872498209407,-0.16414600013534847,0.1582816163313762,0.07222782096126971,2,left
34.413000000000004,0.5402385861816402,1.090895058601318,-0.26382283001479745,1.09289131170244,4.076590941345251,-2.333000882418617,-0.1648324622370008,0.16028418384402163,0.06943445722858334,2,left
34.414,0.5399977469815777,1.090865106684785,-0.26386679308656485,1.0796070988329909,4.086146282367289,-2.3180945246570643,-0.16549721515941596,0.16234497673949555,0.06654356653394862,2,left
34.415,0.5397408784993095,1.0908850093051963,-0.2639421227971572,1.067173791102424,4.095656013395683,-2.3030917615586057,-0.16614137846677945,0.16446618112892042,0.06356864910728413,2,left
34.415,0.5394649684989057,1.0909552266043971,-0.2640493914005335,1.055563314374825,4.105125729321872,-2.2880168053708183,-0.16676619445667482,0.1666495167593966,0.060522897283935916,2,left
34.416,0.539167068513376,1.0910759779692103,-0.2641891141429963,1.0447443328341388,4.11456147656685,-2.2728944090845435,-0.16737300842779126,0.16889620575519018,0.05741904442347257,2,left
34.481,0.5388443153365502,1.0912472435367415,-0.26436174248651334,1.0346826362903108,4.123969534842194,-2.257749772462754,-0.16796324729199955,0.17120694555753807,0.054269217651845926,2,left
34.484,0.5384939528984805,1.0914687687882,-0.2645676580784675,1.0253415461733153,4.133356185025454,-2.2426084408736724,-0.1685383969043437,0.17358188572416858,0.05108479912947788,2,left
34.485,0.53811335466107,1.0917400719380217,-0.264807167545327,1.0166823284953022,4.1427274758543815,-2.2274961973336143,-0.16909997839150676,0.17602060833611002,0.04787629936984545,2,left
34.492,0.5377000465207216,1.092060453663532,-0.2650804981099628,1.008664604985418,4.152088998975089,-2.212438948052761,-0.16964952362927546,0.1785221119823958,0.04465324412535185,2,left
34.493,0.5372517300148251,1.0924290086165918,-0.26538779393044104,1.001246758863801,4.161445676174306,-2.1974626015750713,-0.1701885501130502,0.1810847997173644,0.04142407574148498,2,left
34.494,0.5367663055200886,1.0928446381922432,-0.2657291129752393,0.9943863346418116,4.17080155983038,-2.182592941701375,-0.17071853578252702,0.1837064720103998,0.03819607065647369,2,left
34.548,0.5362418951633194,1.0933060641045849,-0.2661044242162853,0.9880404319041315,4.180159648852851,-2.167855495412157,-0.1712408945481464,0.1863843260457472,0.034975275285743186,2,left
34.55,0.5356768651719059,1.0938118423077356,-0.26651360488415626,0.9821660929982039,4.189521725744851,-2.153275398896343,-0.1717569530803701,0.18911496239260364,0.03176646196831569,2,left
34.55,0.5350698471804239,1.0943603766829177,-0.2669564374750205,0.9767206845403852,4.198888222291665,-2.1388772658424706,-0.17226792908711588,0.1918943994581441,0.028573105640458764,2,left
34.551,0.534419757653795,1.0949499318603737,-0.2674326062514929,0.9716622726673628,4.208258119509709,-2.1246850610992323,-0.1727749111398385,0.1947180957006998,0.02539738131327886,2,left
34.552,0.5337258144285998,1.095578644751777,-0.26794169321259564,0.9669499918700488,4.217628883797839,-2.1107219809599687,-0.17327884017985012,0.19758097902297456,0.022240182186124332,2,left
34.611999999999995,0.5329875496277939,1.096244534729512,-0.26848317375080194,0.9625444066432332,4.226996437724311,-2.097010340459889,-0.1737804930316202,0.20047748188339984,0.019101157989316546,2,left
34.613,0.5322048186823258,1.0969455126697978,-0.2690564123440675,0.958407864067778,4.236355160557721,-2.0835714681956574,-0.174280468358206,0.2034015801738963,0.015978773017337952,2,left
34.614000000000004,0.5313778055238004,1.0976793893210828,-0.26966065879882645,0.9545048348202635,4.2456979120107565,-2.0704256093610742,-0.17477917538553323,0.2063468344023799,0.012870383446094081,2,left
34.629,0.5305070239819378,1.098443883751617,-0.270295045790562,0.9508022407287454,4.2550160743050665,-2.057591837509876,-0.1752768255058365,0.20930643256343306,0.00977233348280967,2,left
34.633,0.5295933151762159,1.0992366327706873,-0.27095858847268345,0.9472697676593617,4.264299610243084,-2.0450879750954334,-0.17577342665593995,0.21227323438591417,0.006680068612132532,2,left
34.634,0.528637840606648,1.100055202027481,-0.27165018665097895,0.9438801608627594,4.2735371347438535,-2.0329305219955978,-0.17626878015320704,0.21523981641189407,0.0035882616770989287,2,left
34.677,0.5276420708845851,1.1008970989745024,-0.2723686296176629,0.9406094959317012,4.282715994265035,-2.0211345900090696,-0.17676247956578336,0.2181985171766664,0.0004909461161725028,2,left
34.678000000000004,0.5266077705191468,1.1017597869818296,-0.2731126032396385,0.9374374162423984,4.291822346664943,-2.009713840651669,-0.17725391129995505,0.22114148194428193,-0.002618347904946707,2,left
34.685,0.5255369799815917,1.1026406989493525,-0.2738806984277511,0.9343473300318437,4.300841235926518,-1.9986804242408125,-0.17774225678210387,0.22406070681604456,-0.005746456408803549,2,left
34.686,0.5244319972820407,1.1035372488443709,-0.27467142016985213,0.931326564366531,4.309756659527761,-1.9880449194436272,-0.17822649623644315,0.22694808236683958,-0.008900445254577836,2,left
34.686,0.5232953614248791,1.1044468409696582,-0.2754831969611873,0.9283664755549585,4.318551628513584,-1.9778162735702554,-0.178705414112461,0.22979543727604484,-0.012087478011362429,2,left
34.745,0.522129838557779,1.1053668781481496,-0.2763143910060484,0.9254625160994507,4.327208222709811,-1.9680017462574668,-0.17917760623349502,0.23259458257247784,-0.015314692709373861,2,left
34.746,0.5209384094659479,1.1062947702962747,-0.2771633095103365,0.9226142584397101,4.335707647142128,-1.9586068632040112,-0.17964148872034388,0.23533735695996902,-0.01858909096120383,2,left
34.746,0.5197242561140363,1.1072279443652076,-0.27802821700886793,0.9198253758277234,4.34403029773474,-1.9496353888509623,-0.18009530871229515,0.23801567341504845,-0.02191744085549533,2,left
34.763000000000005,0.5184907457843361,1.1081638560000324,-0.2789073483516435,0.9171035805867827,4.3521558423507924,-1.9410893246708352,-0.18053715689297378,0.24062156704034238,-0.025306193768353274,2,left
34.764,0.517241412824632,1.1091000025268667,-0.27979892172162035,0.9144605198508916,4.360063319613764,-1.9329689357152808,-0.1809649818376367,0.24314724385165326,-0.02876141452484134,2,left
34.765,0.5159799385788378,1.1100339362663285,-0.28070115096182385,0.9119116293339137,4.367731255365954,-1.9252728054818504,-0.18137660622145682,0.24558512968167817,-0.032288723477466995,2,left
34.811,0.5147101297470176,1.110963277339617,-0.28161225679852486,0.9094759483603592,4.375137793365802,-1.9179979169160069,-0.18176974494105222,0.24792791810820716,-0.035893248587838274,2,left
34.812,0.5134358951413873,1.1118857258610235,-0.28253047697853484,0.9071759042494763,4.382260831692892,-1.9111397541269022,-0.1821420251887282,0.25016861658931866,-0.03957958607875693,2,left
34.823,0.5121612207742295,1.1127990738161835,-0.2834540753817298,0.9050370768443263,4.389078153477504,-1.9046924175972575,-0.18249100845672117,0.252300590485185,-0.04335176899524699,2,left
34.824,0.510890143195798,1.1137012167760394,-0.2843813499464041,0.9030879512781211,4.395567543422112,-1.8986487474682792,-0.18281421424000288,0.2543176049333038,-0.0472132430212504,2,left
34.824,0.5096267210325748,1.1145901652596877,-0.2853106391711274,0.9013596620726523,4.401706887209922,-1.893000452640651,-0.18310914485092109,0.2562138646212824,-0.05116684814395185,2,left
34.879,0.5083750048391076,1.1154640553444097,-0.2862403270843584,0.8998857282728546,4.407474256226982,-1.8877382448332873,-0.1833733105629559,0.2579840515135591,-0.055214804285061043,2,left
34.881,0.5071390055579768,1.1163211580838415,-0.28716884673263576,0.8987017775374089,4.412847985059649,-1.8828519763827243,-0.1836042544967272,0.25962336057554813,-0.05935869949151481,2,left
34.900999999999996,0.5059226620234287,1.1171598873259152,-0.2880946823640578,0.8978452564144062,4.417806751709189,-1.8783307801672335,-0.1837995770139796,0.261127533515726,-0.06359948012950696,2,left
34.902,0.5047298081503933,1.1179788055531403,-0.28901637059609137,0.8973551247233539,4.422329667983216,-1.8741632104407773,-0.18395695957431626,0.26249289050517843,-0.06793744297730275,2,left
34.903,0.5035641406521977,1.118776627447209,-0.28993250092614276,0.8972715332816643,4.42639638278173,-1.8703373838695323,-0.18407418801456615,0.263716359590896,-0.07237222909914823,2,left
34.905,0.5024291880723495,1.1195522210403595,-0.2908417159152139,0.8976354852626469,4.429987197138791,-1.8668411193981305,-0.18414917514940254,0.26479550308609595,-0.07690281918846706,2,left
34.945,0.5013282816295347,1.1203046065371938,-0.2917427112983216,0.8984884822529475,4.433083186909384,-1.8636620737339786,-0.18417998255774481,0.2657285399801094,-0.0815275299608188,2,left
34.946,0.5002645281632793,1.1210329531509244,-0.292634236263301,0.8998721564349655,4.435666327615243,-1.8607878681724512,-0.1841648414533378,0.26651436365030867,-0.08624401128536559,2,left
34.959,0.49924078541504885,1.121736574486681,-0.29351509417327526,0.901827889964646,4.4377196173364934,-1.8582062035532405,-0.1841021725924912,0.2671525545470831,-0.09104924395025202,2,left
34.96,0.4982596398244707,1.1224149229866351,-0.2943841439561099,0.9043964219748927,4.439227196008614,-1.8559049620588524,-0.18399060517353943,0.26764338754442585,-0.09593953812551433,2,left
34.961,0.4973233869192553,1.1230675838214523,-0.2952403022166326,0.907617443705945,4.440174460635928,-1.8538722957617793,-0.18382899463115504,0.26798783330326986,-0.10091053271689925,2,left
35.0,0.4964340143592787,1.1236942685767521,-0.29608254594799743,0.9115291843243949,4.440548175099801,-1.8520967026816462,-0.1836164391962395,0.2681875527759163,-0.10595719586417197,2,left
35.0,0.49559318787710605,1.124294809146024,-0.29690991563753694,0.9161679938282313,4.440336571246613,-1.8505670922675586,-0.18335229512424786,0.2682448841978503,-0.11107382677779026,2,left
35.039,0.4948022406458867,1.1248691522489829,-0.2977215185940484,0.9215679315671471,4.4395294368325935,-1.8492728428622611,-0.18303619055275336,0.2681628223058888,-0.11625405900014894,2,left
35.04,0.4940621665865109,1.1254173548423279,-0.298516532366001,0.927760367110032,4.438118187250448,-1.8482038531469358,-0.1826680379811853,0.2679449897395657,-0.1214908651178698,2,left
35.041,0.4933736175695012,1.125939580421038,-0.29929420809395646,0.9347735980131185,4.436095921168137,-1.847350588823488,-0.1822480453719805,0.2675956006259253,-0.1267765629398214,2,left
35.042,0.4927369038640962,1.1264360959855002,-0.3000538736132494,0.9426324898906027,4.433457463502914,-1.846704125890037,-0.18177672585977037,0.26711941645785325,-0.1321028233213396,2,left
35.079,0.4921519971083901,1.1269072693709437,-0.3007949361866476,0.9513581454192488,4.43019940058883,-1.846256192148285,-0.18125490599273023,0.2665216949274764,-0.13746068064330078,2,left
35.080999999999996,0.4916185354551813,1.127353566619883,-0.3015168848689233,0.9609676072574269,4.426320111178598,-1.8459992081716166,-0.18068373231784296,0.2658081333690054,-0.14284054844527572,2,left
35.097,0.4911358310425824,1.1277755489251697,-0.30221929257060276,0.9714735968853014,4.421819794730904,-1.845926328224588,-0.18006467605933632,0.2649848090168204,-0.14823224354012846,2,left
35.098,0.49070288030376663,1.1281738682473514,-0.3029018177897787,0.982884289849241,4.416700497230617,-1.8460314810702736,-0.17939953570175463,0.26405811773246346,-0.1536250211094924,2,left
35.099000000000004,0.49031837772628883,1.1285492602674747,-0.3035642057541792,0.9952031282017924,4.410966134612888,-1.846309409798834,-0.1786904373825473,0.263034711842535,-0.15900762177824743,2,left
35.146,0.48998073350896376,1.1289025334291323,-0.3042062885941909,1.0084286720766817,4.404622513983577,-1.8467557085123596,-0.17793983296794738,0.2619214370868325,-0.16436833078346172,2,left
35.148,0.4896880952143904,1.129234553670747,-0.30482798429665625,1.0225544929773243,4.397677352895115,-1.8473668529800007,-0.17715049553027656,0.2607252684024064,-0.16969504908925084,2,left
35.175,0.48943837300890586,1.1295462255653455,-0.30542929440063477,1.0375691107659875,4.3901402963425475,-1.848140223098679,-0.17632551185136977,0.2594532441783756,-0.174975376244305,2,left
35.177,0.4892292676050514,1.1298384711527958,-0.30601030046774713,1.053455975410259,4.3820229283988485,-1.8490741162901687,-0.1754682716739077,0.25811239888758997,-0.18019670475351812,2,left
35.178000000000004,0.4890582998853322,1.1301122074943408,-0.3065711593050036,1.0701934942920726,4.373338770621082,-1.8501677516804675,-0.17458245360979077,0.2567096950687255,-0.18534632543383955,2,left
35.179,0.48892284129597335,1.1303683235304411,-0.30711209687244595,1.0877551059722637,4.364103256722936,-1.8514212650483246,-0.17367200774297056,0.2552519573512575,-0.1904115425596833,2,left
35.211999999999996,0.4888201440158756,1.1306076568490144,-0.30763340082140184,1.1061094010936623,4.354333675628166,-1.8528356945340925,-0.17274113500220623,0.25374581213840025,-0.19537979721436982,2,left
35.233000000000004,0.4887473697249669,1.1308309713611449,-0.3081354116795065,1.1252202907257103,4.344049079735177,-1.8544129571074417,-0.17179426335965223,0.25219763565819264,-0.20023879766349503,2,left
35.235,0.4887016160876325,1.1310389371122846,-0.30861851282928543,1.1450472222434795,4.333270157842113,-1.8561558157967724,-0.1708360208996984,0.2506135113326364,-0.2049766560088886,2,left
35.236,0.4886799408081071,1.1312321132938952,-0.3090831195573054,1.1655454427937393,4.322019072704425,-1.8580678376843882,-0.16987120590119828,0.24899919585193112,-0.20958202939961051,2,left
35.236,0.4886793836883979,1.1314109351238726,-0.30952966749354954,1.1866663096587209,4.310319263764432,-1.860153342560476,-0.168904754285135,0.24736009197540035,-0.21404426166923796,2,left
35.28,0.488696987263198,1.1315757048888906,-0.30995860072920367,1.2083576431094283,4.298195218436135,-1.8624173415719136,-0.1679417048979966,0.24570122542260686,-0.21835351988678628,2,left
35.282,0.48872981654535724,1.1317265871880384,-0.3103703598858777,1.2305641106447562,4.2856722204483715,-1.8648654641989417,-0.1669871629828595,0.24402722387605988,-0.22250092168979094,2,left
35.312,0.48877497841434697,1.131863608213355,-0.31076537047545566,1.2532276277936127,4.272776086593289,-1.8675038713357401,-0.16604626197731845,0.2423422973012273,-0.2264786517544751,2,left
35.313,0.4888296412011987,1.13198665868144,-0.31114403202351043,1.2762877643797197,4.259532900380737,-1.8703391528089555,-0.16512412373659652,0.2406502194889252,-0.23028006697460476,2,left
35.314,0.48889105494273194,1.1320954998757127,-0.31150670851679757,1.299682151610937,4.2459687466180185,-1.8733782088664437,-0.16422581764373273,0.23895431106383902,-0.23389978937425318,2,left
35.315,0.48895657257615077,1.1321897722806293,-0.3118537206472039,1.3233468878930479,4.232109451294324,-1.8766281166975576,-0.1633563197657269,0.23725742457572968,-0.2373337842991964,2,left
35.346,0.48902367211012876,1.1322690063552827,-0.31218534004437937,1.3472169398819371,4.2179803363500294,-1.8800959849062262,-0.16252047360176677,0.23556193249698537,-0.2405794206089283,2,left
35.37,0.48908997955309796,1.1323326348448712,-0.31250178529925293,1.371226534273896,4.203606001869589,-1.883788800149436,-0.1617229535825385,0.23386971874303913,-0.24363551041299364,2,left
35.371,0.48915329212021585,1.1323800057512978,-0.3128032192348126,1.3953095378631664,4.189010143796836,-1.8877132707820432,-0.16096823178826553,0.23218217400217633,-0.2465023273960942,2,left
35.372,0.4892116011218618,1.1324103950614826,-0.31308974677125107,1.4193998270478954,4.174215407280407,-1.8918756734793596,-0.16026054799354134,0.23050019516832926,-0.24918160370447417,2,left
35.372,0.4892631139122652,1.1324230186077686,-0.3133614128414427,1.4434316499946789,4.159243271317207,-1.8962817094373168,-0.15960388311922039,0.22882418951459485,-0.25167650572143874,2,left
35.412,0.4893062740747235,1.1324170426977131,-0.31361819993814827,1.467339984064348,4.144113960953031,-1.900936374957725,-0.15900193619927042,0.22715408445942215,-0.2539915891656801,2,left
35.413000000000004,0.4893397788065115,1.1323915933547284,-0.31386002508899097,1.4910608895815107,4.128846385518259,-1.9058438483490885,-0.15845810494310728,0.22548934356323383,-0.2561327338391896,2,left
35.448,0.489362592764275,1.1323457643424402,-0.3140867365652205,1.5145318601856557,4.1134581026090675,-1.9110073934753946,-0.15797546989976227,0.223828988904313,-0.2581070584349013,2,left
35.449,0.4893739582672579,1.1322786245062932,-0.3142981111711528,1.5376921698323562,4.097965307770722,-1.9164292799662594,-0.15755678207891763,0.22217162925164685,-0.25992281708402987,2,left
35.45,0.48937340197540374,1.1321892251259507,-0.3144938530589152,1.560483216512591,4.082382849839145,-1.9221107201025294,-0.15720445365539312,0.22051549247907082,-0.26158928177934054,2,left
35.45,0.48936073791087953,1.1320766079644675,-0.3146735946927513,1.5828488621255934,4.0667242713271925,-1.9280518220630838,-0.1569205512598871,0.21885846014811086,-0.26311661618680054,2,left
35.479,0.4893360666598303,1.1319398146375232,-0.3148369002379634,1.604735764780355,4.051001870394893,-1.9342515575738233,-0.15670679148291256,0.21719810270388687,-0.26451574498091945,2,left
35.497,0.48929977099721955,1.13177789777471,-0.3149832714274548,1.626093694112934,4.035226775818206,-1.9407077390386864,-0.15656453844217594,0.215531714658966,-0.2657982203606159,2,left
35.498000000000005,0.4892525086564586,1.1315899339595343,-0.31511215562711714,1.6468758170460975,4.019409023523733,-1.9474169995877904,-0.15649480338779567,0.213856349657009,-0.26697608602535944,2,left
35.516,0.48919520342826645,1.1313750371891047,-0.31522295511374226,1.6670389445758664,4.00355762610355,-1.9543747711240196,-0.15649824633280526,0.21216885544773842,-0.2680617388361861,2,left
35.516999999999996,0.4891290362218638,1.1311323701228313,-0.31531503591425847,1.6865437358549304,3.987680631848564,-1.9615752584120132,-0.15657517963686862,0.21046590898625997,-0.2690677894886224,2,left
35.518,0.4890554375990074,1.130861150785708,-0.31538773503548667,1.7053548590268408,3.9717851730683034,-1.9690114093548914,-0.15672557336384452,0.20874405219648037,-0.27000692550923994,2,left
35.545,0.48897608218295746,1.1305606552295526,-0.31544036659988645,1.7234411090258557,3.9558775059478406,-1.9766748842097488,-0.15694906217432505,0.2069997291198495,-0.27089178099006883,2,left
35.575,0.48889288369036654,1.1302302188340347,-0.31547222843769546,1.7407754827909943,3.939963047636772,-1.9845560305902215,-0.15724495359187615,0.20522932495772397,-0.2717348163767988,2,left
35.576,0.4888079880525208,1.1298692381319464,-0.3154826099082377,1.75733521247174,3.92404641817865,-1.9926438733809853,-0.1576122376777768,0.20342920703202264,-0.27254820966501564,2,left
35.576,0.4887237623220428,1.129477173384327,-0.3154708005970153,1.773101757069887,3.90813149297571,-2.000926126413814,-0.15804959836803043,0.20159576722495995,-0.2733437592980896,2,left
35.577,0.4886427790179476,1.129053551966863,-0.3154360994858542,1.7880607534575281,3.892221467590347,-2.0093892283316057,-0.15855542682693163,0.1997254652654299,-0.27413279886315634,2,left
35.611999999999995,0.4885677973589964,1.1285979729608808,-0.31537782447787344,1.8022019312441284,3.8763189325260683,-2.018018401155221,-0.15912783708331826,0.19781487238636175,-0.2749261236580469,2,left
35.654,0.48850174278439257,1.1281101127949495,-0.31529532195039783,1.815519002536051,3.8604259512065466,-2.0267977266680144,-0.1597646840348337,0.19586071512678813,-0.275733929042807,2,left
35.655,0.4884476850753591,1.1275897310459833,-0.3151879757831875,1.8280095412956245,3.844544132126193,-2.035710234097177,-0.16046358370756952,0.19385991904516772,-0.2765657598815975,2,left
35.656,0.48840881474448766,1.127036675682018,-0.3150552154724476,1.839674862862335,3.828674688917586,-2.0447379943164252,-0.16122193544335173,0.19180965184669155,-0.27743046932428045,2,left
35.657,0.48838841734684835,1.1264508879770623,-0.3148965232215706,1.8505199052168662,3.8128184887559846,-2.053862219283548,-0.16203694557732548,0.18970736526325016,-0.2783361845927055,2,left
35.658,0.48838984555684867,1.1258324079062987,-0.31471144001114315,1.860553105615146,3.7969760965065835,-2.0630633680408406,-0.16290565227846363,0.18755083518853252,-0.27929027802110695,2,left
35.679,0.48841648902030976,1.1251813803329653,-0.3144995705924452,1.8697862631033528,3.7811478251027015,-2.072321261477272,-0.16382495142342104,0.1853381998656502,-0.280299342651917,2,left
35.711999999999996,0.48847174209533567,1.124498061417353,-0.314260587309915,1.8782343798031187,3.7653338000096834,-2.0816152075082655,-0.16479162345150564,0.18306799606319152,-0.28136917219776253,2,left
35.713,0.48855896965403645,1.1237828243737364,-0.3139942327473624,1.8859154782474603,3.7495340406077515,-2.090924137022102,-0.16580236100762144,0.18073919308190728,-0.28250474492250305,2,left
35.714,0.4886814711396007,1.1230361639577577,-0.3137003212893289,1.892850394968566,3.7337485572866957,-2.100226748752494,-0.1668537968867355,0.17835122420666907,-0.28371021031948046,2,left
35.714,0.4888424431091516,1.1222586993585026,-0.31337873968977786,1.8990625519884983,3.7179774599861326,-2.1095016581648864,-0.1679425316305273,0.17590401509184492,-0.2849888770904061,2,left
35.745,0.48904494071463683,1.1214511752412684,-0.3130294467148127,1.9045777084039253,3.702221072508176,-2.1187275437977053,-0.16906516029003466,0.173398008694402,-0.28634320130341384,2,left
35.79,0.489291839050292,1.1206144606737096,-0.3126524719778114,1.9094236937116096,3.6864800483363416,-2.127883286146128,-0.17021829816167566,0.1708341865962772,-0.2877747742838533,2,left
35.791,0.48958579569603194,1.1197495458207263,-0.31224791422803266,1.9136301235432551,3.6707554862270455,-2.136948097139334,-0.1713986054754884,0.16821408657141743,-0.28928431017138406,2,left
35.791,0.4899292157092331,1.1188575365828535,-0.3118159394757486,1.9172280979340632,3.655049045247048,-2.1459016399084185,-0.17260281108876446,0.16553981571648482,-0.2908716331764587,2,left
35.792,0.4903242198663953,1.1179396475408911,-0.3113567793174505,1.9202498821389857,3.63936305921162,-2.1547241388712237,-0.17382773531327825,0.16281405745334307,-0.2925356646132946,2,left
35.793,0.4907726165991568,1.1169971936644723,-0.3108707297264048,1.9227285702707697,3.623700650180172,-2.16339648013249,-0.1750703120460248,0.1600400701497738,-0.2942744098109847,2,left
35.813,0.4912758780073644,1.1160315814015753,-0.31035815052141236,1.9246977333418602,3.6080658391756217,-2.171900302059397,-0.17632761033181504,0.15722167566622475,-0.29608494498028937,2,left
35.848,0.49183512037326127,1.115044299908836,-0.30981946565499435,1.9261910556480764,3.592463649610951,-2.1802180756437903,-0.17759685537915973,0.15436323729515472,-0.29796340421682765,2,left
35.849000000000004,0.4924510895623007,1.1140369131366044,-0.309255164273803,1.9272419647401258,3.5769001974159638,-2.1883331741239505,-0.1788754488490915,0.1514696278618964,-0.2999049675310056,2,left
35.85,0.4931241515599916,1.1130110532162267,-0.3086658023059083,1.927883258917853,3.5613827633478463,-2.1962299314762896,-0.18016098793993207,0.14854619020190676,-0.3019038521110845,2,left
35.85,0.4938542881348399,1.1119684152040752,-0.30805200425181606,1.9281467345276124,3.5459198457367878,-2.2038936898185466,-0.18145128263084587,0.14559869297014677,-0.30395330975972107,2,left
35.879,0.49464109723669464,1.1109107529436455,-0.3074144648772085,1.9280628175540337,3.530521193831882,-2.2113108368200503,-0.18274437060724882,0.1426332839972471,-0.30604563271075447,2,left
35.927,0.4954837973964031,1.1098398757474386,-0.3067539505810809,1.9276602100736668,3.5151978229727976,-2.21846883589146,-0.1840385296795207,0.13965644207325603,-0.3081721687124516,2,left
35.929,0.4963812352792106,1.1087576455904078,-0.30607130033035546,1.9269655656587674,3.4999620132362006,-2.2253562528422868,-0.18533228766668325,0.13667492729871322,-0.31032334552982893,2,left
35.929,0.49733189577394477,1.1076659743261337,-0.3053674261662526,1.9260032042966166,3.484827292782747,-2.2319627817772245,-0.18662442974875584,0.133695729994544,-0.3124887048720433,2,left
35.93,0.49833391451128006,1.106566820106843,-0.3046433133383779,1.9247948710495095,3.4698084063686885,-2.2382792713517285,-0.18791400329975255,0.13072601813713675,-0.3146569458217522,2,left
35.931,0.4993850931492547,1.1054621819253265,-0.3039000200885439,1.9233595393927232,3.4549212693437186,-2.24429775150337,-0.18920032025453595,0.12777308315945027,-0.31681597819747886,2,left
35.986,0.5004829178352588,1.1043540912842613,-0.30313867704039227,1.921713260637038,3.4401829087759537,-2.250011460158661,-0.19048295713698946,0.12484428373310026,-0.31895298691737123,2,left
35.988,0.5016245810600397,1.1032446005152918,-0.30236048612372074,1.9198690626017303,3.425611395488059,-2.255414868596904,-0.19176175291821407,0.12194698702089951,-0.3210545087868151,2,left
35.989000000000004,0.5028070069394079,1.1021357678984216,-0.3015667189723112,1.9178369001083355,3.411225770274255,-2.260503703527139,-0.19303680480390345,0.11908850714027147,-0.323106522702838,2,left
35.99,0.5040268798568889,1.1010296400761024,-0.30075871474304416,1.9156236555055663,3.3970459627118235,-2.2652749640206697,-0.1943084618343313,0.11627604143090563,-0.32509455325370107,2,left
35.991,0.5052806762031282,1.0999282323304886,-0.2999378772898616,1.9132331835518839,3.383092696536461,-2.269726932027757,-0.1955773158844957,0.11351660637416866,-0.3270037866590225,2,left
36.005,0.5065646985120932,1.0988335074017035,-0.2991056715679169,1.9106663955766432,3.3693873760660336,-2.273859175830816,-0.19684418950224553,0.11081697566397196,-0.3288191975476637,2,left
36.063,0.5078751108114725,1.0977473537095908,-0.298263619069719,1.9079213807902065,3.355951951330102,-2.27767254621752,-0.19811012018585145,0.10818362231292786,-0.33052568525369763,2,left
36.065,0.5092079738526513,1.0966715638871567,-0.2974132920960904,1.9049935643822855,3.3428087614815216,-2.2811691653482207,-0.19937634106804117,0.10562266560409969,-0.3321082180200279,2,left
36.066,0.510559279130084,1.095607814418745,-0.29655630676389416,1.9018759022812712,3.3299803564531065,-2.2843524082793047,-0.2006442583146589,0.10313982317062005,-0.33355198213116893,2,left
36.067,0.5119249809681222,1.0945576470560947,-0.2956943147687072,1.8985591118474983,3.317489296834706,-2.2872268768519444,-0.20191542568533635,0.10074036841512028,-0.3348425321024074,2,left
36.067,0.513301026285051,1.093522452632137,-0.29482899400173807,1.895031936694108,3.3053579319677264,-2.2897983652025413,-0.20319151659262638,0.09842909342624771,-0.3359659390216187,2,left
36.122,0.5146833820074588,1.092503457874287,-0.29396203819899397,1.8912814425354492,3.2936081570214824,-2.2920738159144753,-0.20447429379636922,0.0962102774509978,-0.33690893588456083,2,left
36.123000000000005,0.5160680604655412,1.0915017157587428,-0.2930951458806402,1.8872933380922703,3.282261153579439,-2.294061266158515,-0.2057655768136127,0.09408766087188662,-0.33765905951521064,2,left
36.124,0.5174511432481168,1.0905180997775885,-0.2922300088516333,1.883052309916148,3.271337125037345,-2.295769783759867,-0.2070672073746282,0.09206442435193281,-0.33820478776496776,2,left
36.124,0.5188288039404197,1.0895533022376767,-0.2913683004941117,1.8785423571248514,3.26085504187906,-2.297209393457624,-0.20838101374589177,0.09014317231508237,-0.3385356687199732,2,left
36.125,0.5201973301708247,1.088607836443679,-0.2905116641201118,1.8737471156289256,3.2508324081204334,-2.2983909935944156,-0.2097087750133185,0.08832591965465128,-0.33864243755409235,2,left
36.146,0.5215531455046081,1.087682042361778,-0.28966170178959066,1.8686501676739842,3.241285053419046,-2.299326263334036,-0.21105218614667265,0.08661408083797845,-0.3385171177556738,2,left
36.199,0.5228928316652239,1.0867760951503023,-0.28881996405182186,1.8632353359918403,3.2322269515746114,-2.3000275604266722,-0.21241282421666943,0.08500846113840302,-0.33815310535349835,2,left
36.2,0.5242131512266953,1.0858900158586815,-0.28798794090973495,1.8574869625466626,3.223670065391264,-2.300507809525156,-0.21379211606825257,0.08350925033645534,-0.33754523552713966,2,left
36.201,0.5255110705446505,1.0850236836316494,-0.28716705401409665,1.8513901718614783,3.215624217874348,-2.300780381054951,-0.21519130806687933,0.08211601989078007,-0.33668983060925806,2,left
36.201,0.5267837824215422,1.0841768487443757,-0.2863586497848103,1.8449311189094388,3.208096989735705,-2.3008589606399212,-0.21661143873901834,0.08082772491475856,-0.3355847281559666,2,left
36.202,0.5280287277074728,1.083349145646434,-0.28556399291040463,1.8380972217393423,3.2010936432746857,-2.3007574094135164,-0.2180533149237941,0.07964271195995688,-0.3342292880914138,2,left
36.258,0.5292436147469449,1.082540105128167,-0.28478425963923526,1.8308773799341111,3.194617073162457,-2.300489617185586,-0.21951749168498805,0.0785587330045686,-0.3326243785272769,2,left
36.259,0.5304264356291725,1.0817491649929065,-0.2840205305737757,1.8232621816742582,3.1886677854846877,-2.3000693533885537,-0.22100425602834212,0.07757296571017695,-0.3307723401878527,2,left
36.26,0.531575478749263,1.0809756791286032,-0.2832737832230202,1.8152441031075053,3.183243906858084,-2.2995101223673418,-0.22251361440700038,0.07668203982308204,-0.32867692960945766,2,left
36.26,0.53268933786162,1.080218925319878,-0.2825448850426437,1.8068177027944055,3.1783412249788623,-2.298825027935789,-0.22404528389145034,0.07588206899500258,-0.326343242145172,2,left
36.260999999999996,0.5337669180156285,1.0794781123916304,-0.28183458780950243,1.7979798120009307,3.173953260628098,-2.2980266490841195,-0.22559868668862043,0.07516868621513663,-0.3237776173587106,2,left
36.279,0.5348074383897921,1.0787523874073588,-0.28114352396616044,1.7887297190606553,3.1700713681582684,-2.2971269266621865,-0.22717294758831716,0.07453708044411167,-0.3209875302535401,2,left
36.336,0.5358104315793172,1.078040843698645,-0.28047220527511896,1.7790693429314235,3.1666848568172306,-2.2961370597817328,-0.22876689399942007,0.0739820327042611,-0.31798147118341064,2,left
36.336999999999996,0.5367757388109118,1.0773425304380142,-0.2798210238839756,1.7690033894532393,3.1637811227241164,-2.295067410262295,-0.23037905831824734,0.07349795127362198,-0.31476881705515547,2,left
36.338,0.5377035009120322,1.076656464286282,-0.2791902557386635,1.7585394854299066,3.1613457838563095,-2.293927413863371,-0.23200768227680138,0.07307890679029652,-0.3113596979447971,2,left
36.338,0.5385941455011469,1.0759816431450713,-0.27858006606873803,1.7476882885663172,3.1593628149858755,-2.292725497798098,-0.23365072282813065,0.07271866850398814,-0.3077648643935807,2,left
36.339,0.5394483714970318,1.0753170607888027,-0.2779905161444197,1.7364635725824888,3.1578146820259603,-2.291469004611623,-0.2353058592379325,0.07241074260212198,-0.3039955593311535,2,left
36.395,0.5402671323207326,1.0746617196609796,-0.2774215698845318,1.724882285514665,3.156682475645278,-2.290164123440222,-0.2369705012528687,0.07214841298085779,-0.3000633961986928,2,left
36.396,0.5410516190325831,1.074014639377779,-0.2768730991574115,1.712964576551657,3.1559460438833544,-2.28881583114579,-0.23864179832794238,0.07192478452186729,-0.2959802435254402,2,left
36.397,0.5418032442077593,1.0733748610515483,-0.27634488800244955,1.7007337865126246,3.1555841237657467,-2.2874278464183773,-0.24031664991768548,0.07173282887397693,-0.2917581159478395,2,left
36.398,0.5425236264644261,1.0727414496986334,-0.2758366370167471,1.6882164012103538,3.1555744727117574,-2.2860025986377073,-0.24199171683593246,0.07156543273890767,-0.287409071660007,2,left
36.398,0.5432145745368363,1.0721134966997117,-0.2753479688150953,1.6754419712747242,3.1558940011082637,-2.284541211504306,-0.24366343371685384,0.07141544861734075,-0.2829451163937041,2,left
36.474000000000004,0.5438780697731656,1.0714901231357787,-0.27487843487282804,1.6624430022510757,3.15651890715904,-2.2830435008525147,-0.24532802273153034,0.07127574772332192,-0.27837811446470606,2,left
36.476,0.5445162470201151,1.07087048453216,-0.2744275240644791,1.6492548166081353,3.1574248144626926,-2.2815079863398613,-0.24698150887627152,0.0711392742233648,-0.27371970785974836,2,left
36.476,0.5451313745691858,1.0702537774809864,-0.2739946730751074,1.635915387897302,3.1585869123955943,-2.2799319169583354,-0.24861973712809082,0.07099909944643586,-0.2689812438950969,2,left
36.477,0.5457258335654582,1.069639248022483,-0.2735792781230697,1.622465147026027,3.1599800993015617,-2.2783113103632693,-0.25023839153434535,0.07084847476289867,-0.26417371087692054,2,left
36.477,0.5463020967321482,1.0690262010890603,-0.27318070683658546,1.6089467608814376,3.161579128401513,-2.2766410060063214,-0.25183301614159337,0.07068088238222744,-0.2593076807557291,2,left
36.478,0.5468627059419848,1.068414010513603,-0.27279830929315896,1.595404884909738,3.163358755890468,-2.274914732013515,-0.25339903768946,0.0704900838295177,-0.25439325820971453,2,left
36.496,0.5474102481447819,1.0678021296842863,-0.2724314277911387,1.5818858937222373,3.1652938898860383,-2.2731251856673897,-0.2549317900563543,0.07027016606760737,-0.24944003603296597,2,left
36.532,0.5479473294270598,1.0671901028716333,-0.2720794052489326,1.5684375951684673,3.167359738446566,-2.2712641273067593,-0.25642654041851376,0.0700155852535497,-0.24445705673504464,2,left
36.533,0.5484765473241633,1.0665775766889314,-0.27174159218204247,1.5551089319397795,3.1695319554153825,-2.2693224871575106,-0.2578785168682911,0.06972120806429441,-0.23945277986048122,2,left
36.534,0.5490004616694389,1.0659643109712227,-0.2714173522460804,1.5419496722651966,3.1717867841080274,-2.267290482962973,-0.2592829368496447,0.06938235042947685,-0.234435053820634,2,left
36.534,0.5495215642323868,1.065350188586303,-0.27110606639681367,1.529010089826816,3.1741012001271343,-2.265157743219863,-0.2606350355532061,0.06899481345529727,-0.22941109063247633,2,left
36.611999999999995,0.5500422473893398,1.0647352237943049,-0.27080713577387716,1.5163406327124098,3.1764530551353523,-2.2629134291081496,-0.2619300936286538,0.06855491637717795,-0.2243874423566025,2,left
36.614000000000004,0.5505647722593702,1.0641195687067697,-0.27051998349164086,1.5039915813362836,3.17882122268147,-2.2605463499020355,-0.2631634639598434,0.06805952647563292,-0.21936997874271263,2,left
36.615,0.551091237017307,1.06350351741682,-0.2702440555972801,1.4920126957094226,3.181185744957133,-2.2580450696195777,-0.26433059746347376,0.06750608594346548,-0.21436386598860105,2,left
36.615,0.5516235462387157,1.0628875075730795,-0.2699788214998737,1.4804528531687866,3.183527976390947,-2.255398004147932,-0.2654270679149992,0.06689263570302288,-0.20937354659822963,2,left
36.616,0.5521633821107372,1.0622721194878126,-0.2697237742147003,1.4693596780681926,3.185830718498532,-2.2525935082890562,-0.2664485958153888,0.06621783608944817,-0.20440272032007512,2,left
36.617,0.5527121782492166,1.061658073148205,-0.2694784307893491,1.4587791645498396,3.1880783418041507,-2.2496199523074223,-0.2673910713624851,0.0654809839025462,-0.19945432612493208,2,left
36.67,0.5532710966868631,1.0610462235735503,-0.26924233320656205,1.4487552934171868,3.1902568930860755,-2.246465787978235,-0.2682505766811223,0.06468202458602616,-0.19453052514272529,2,left
36.671,0.5538410083604106,1.0604375548633298,-0.26901504991345304,1.4393296467091865,3.1923541872045007,-2.243119605124475,-0.26902340751629167,0.06382155787955109,-0.18963268445590156,2,left
36.672,0.5544224772574531,1.0598331732247828,-0.26879617802104594,1.4305410288327463,3.194359882347494,-2.239570181193745,-0.2697060945163246,0.06290083574562999,-0.18476136174415392,2,left
36.672,0.5550157483443363,1.0592342993582902,-0.26858534618259644,1.4224251060742983,3.1962655371399795,-2.2358065272785415,-0.27029542400847645,0.06192175233502097,-0.17991629119037839,2,left
36.673,0.5556207394664773,1.0586422607020454,-0.2683822181123614,1.4150140733506613,3.198064648450821,-2.2318179331298604,-0.2707884578779738,0.06088682655992163,-0.17509637175561055,2,left
36.745,0.5562370375601624,1.0580584840270166,-0.268186496602713,1.4083363517288954,3.1997526694353833,-2.2275940121777262,-0.2711825520175226,0.059799178144809145,-0.1702996593105792,2,left
36.746,0.5568638995273709,1.057484488658379,-0.26799792780805937,1.4024163172843884,3.2013270077409652,-2.2231247467184505,-0.2714753729477466,0.05866249780649999,-0.1655233637361795,2,left
36.746,0.5575002577098026,1.0569218802660165,-0.2678163055604652,1.3972740612759411,3.20278700388026,-2.2184005332571393,-0.27166491244947943,0.05748101182221381,-0.16076385142950503,2,left
36.748000000000005,0.5581447292712758,1.0563723448666025,-0.2676414755377427,1.3929251816187203,3.204133889777693,-2.21341222799329,-0.2717495001822894,0.056259441026150055,-0.156016653276734,2,left
36.748000000000005,0.5587956286244401,1.0558376424290812,-0.26747333917165467,1.38938060563812,3.2053707274931567,-2.208151192436617,-0.2717278142960659,0.05500295430603015,-0.15127647822078102,2,left
36.749,0.5594509824639782,1.0553195992653284,-0.2673118572475712,1.386646444460921,3.2065023284099192,-2.2026093391357033,-0.27159889007216415,0.05371711704447535,-0.14653723325986634,2,left
36.805,0.5601085474409797,1.0548200983632168,-0.26715705317772903,1.384723881258092,3.207535154586081,-2.196779177482242,-0.27136212668423093,0.052407835622357596,-0.14179205198794279,2,left
36.806,0.560765830679514,1.054341067017024,-0.26700901587659076,1.3836090988960812,3.2084772065118807,-2.190653859518493,-0.27101729219849596,0.051081299474706306,-0.1370333344961346,2,left
36.806,0.5614201132940767,1.0538844614581144,-0.2668679020543086,1.3832932544114434,3.2093379029277784,-2.1842272256557234,-0.2705645269030413,0.04974392181612537,-0.13225280074614731,2,left
36.806,0.562068476852056,1.053452248737431,-0.266733937687683,1.38376250587029,3.2101279569450276,-2.177493850229634,-0.27000434497544096,0.04840227952632954,-0.12744155818444763,2,left
36.806999999999995,0.5627078323679693,1.0530463866335849,-0.266607418461714,1.3849980935724613,3.210859249942886,-2.1704490867577206,-0.2693376343384838,0.04706305254332942,-0.12259018332083667,2,left
36.883,0.5633349511942928,1.0526688023994393,-0.2664887090256684,1.386976474388476,3.211544702183011,-2.163089112308989,-0.26856565431445645,0.04573296345198072,-0.11768881624684295,2,left
36.885999999999996,0.563946497159193,1.0523213708728973,-0.26637824094432694,1.389669505275219,3.212198136782044,-2.155410969548439,-0.26769003055874896,0.04441871818611554,-0.11272726673233263,2,left
36.887,0.564539059177053,1.0520058924408757,-0.2662765092657643,1.3930446707000608,3.212834132562774,-2.1474126045450905,-0.26671274688264696,0.04312694853196621,-0.10769513087555878,2,left
36.888000000000005,0.5651091833121605,1.0517240716333085,-0.26618406769284564,1.3970653500236856,3.2134678624245794,-2.1390928989041735,-0.26563613382448287,0.04186415675695725,-0.10258191771067919,2,left
36.889,0.5656534033319682,1.0514774973433367,-0.2661015224526846,1.401691123267154,3.214114915890535,-2.130451695634128,-0.26446285404080483,0.040636662713796116,-0.09737718462584313,2,left
36.89,0.5661682692489622,1.0512676256005775,-0.2660295250700924,1.4068781149779566,3.2147911053487492,-2.121489818556772,-0.2631958847648909,0.03945055418513818,-0.09207067891427685,2,left
36.942,0.5666503738431796,1.0510957655984658,-0.26596876430628513,1.4125793752477516,3.2155122552243984,-2.1122090847785024,-0.2618384976630283,0.03831164149050851,-0.08665248189286805,2,left
36.944,0.5670963773960955,1.0509630694507142,-0.2659199575054935,1.4187452927969149,3.2162939749564323,-2.102612309004511,-0.2603942363353226,0.03722541712093962,-0.0811131529101843,2,left
36.944,0.5675030309551566,1.05087052591493,-0.2658838415491365,1.4253240279409813,3.217151422514875,-2.092703297984188,-0.25886689155745674,0.03619702070551941,-0.07544387216342312,2,left
36.945,0.5678671986164718,1.050818958054811,-0.2658611636435727,1.4322619495526105,3.218099070475195,-2.082486833677517,-0.25726047431488397,0.03523120930130156,-0.06963658188234098,2,left
36.946,0.5681858795143353,1.0508090245856527,-0.2658526722687868,1.4395040642733288,3.219150485028925,-2.0719686444663155,-0.25557918685752135,0.03433233266415441,-0.06368412437126088,2,left
36.983000000000004,0.5684562301878698,1.0508412245192307,-0.26585910867436374,1.4469944333321314,3.220318122448072,-2.0611553642261815,-0.2538273923510807,0.03350431264931729,-0.05758037316043303,2,left
36.985,0.5686755877157773,1.0509159046445202,-0.2658811992548337,1.454676576219,3.221613143801943,-2.050054479216216,-0.2520095838944535,0.032750625607850165,-0.051320352273488565,2,left
37.013000000000005,0.5688414936420599,1.0510332692478064,-0.2659196489750227,1.4624938612340237,3.223045247929446,-2.0386742627563126,-0.25013035347884627,0.03207428692811605,-0.04490033986145166,2,left
37.02,0.5689517183642312,1.0511933912705183,-0.26597513575438153,1.4703898829335156,3.2246225226702308,-2.0270236976609755,-0.24819436111584967,0.03147783738061013,-0.03831795469279639,2,left
37.021,0.5690042853402426,1.051396223900164,-0.2660483054416389,1.4783088264950732,3.22635131435842,-2.0151123863977842,-0.24620630421434325,0.030963331285293588,-0.03157222515039374,2,left
37.022,0.5689974942618721,1.0516416115191909,-0.2661397668824391,1.4861958191543387,3.2282361158487736,-2.002950449255996,-0.24417088747932306,0.03053232696670888,-0.024663640222888982,2,left
37.08,0.5689299423451412,1.0519292991264082,-0.2662500866711352,1.4939972695185235,3.2302794746741545,-1.990548412400764,-0.24209279402328923,0.03018588066320295,-0.017594181236569577,2,left
37.080999999999996,0.5688005430241367,1.0522589397442699,-0.266379783408573,1.501661196735594,3.232481925325042,-1.977917090551104,-0.23997665861274478,0.029924545446164377,-0.010367332661641174,2,left
37.082,0.568608541454654,1.0526300997325537,-0.2665293215839403,1.509137552150014,3.2348419509709014,-1.9650674706098017,-0.2378270437196085,0.0297483762210181,-0.0029880708737057074,2,left
37.082,0.5683535264531926,1.0530422622444513,-0.2666991055073886,1.5163785354236088,3.2373559786150627,-1.9520106009819804,-0.23564841852676394,0.02965694070586145,0.00453716882988192,2,left
37.083,0.5680354388507963,1.0534948292910782,-0.26688947392688867,1.523338905713145,3.2400184088021433,-1.9387574884542698,-0.2334451406198515,0.02964933503901895,0.01220054502689129,2,left
37.148,0.567654576379572,1.0539871230324354,-0.26710069597524905,1.5299762867795295,3.242821677260973,-1.925319002911413,-0.23122143994815852,0.029724202113887745,0.019992880088215946,2,left
37.15,0.5672115949439084,1.0545183870411798,-0.2673329689203108,1.5362514628570914,3.2457563412663486,-1.9117057898417942,-0.22898140474012244,0.02987975121496804,0.027903745203623435,2,left
37.150999999999996,0.5667075058255242,1.0550877884328782,-0.2675864178806494,1.5421286610465414,3.248811181095433,-1.89792819057911,-0.22672896924383235,0.03011377838471749,0.035921559723261914,2,left
37.158,0.5661436685611057,1.0556944217613997,-0.26786109732695246,1.5475758170583538,3.2519733093629557,-1.8839961702305614,-0.22446790324648383,0.030423687459201123,0.044033704405869005,2,left
37.159,0.5655217798494104,1.0563373152526694,-0.26815699398190807,1.5525648225587327,3.2552282851431644,-1.8699192532763917,-0.22220180325165734,0.030806511969877933,0.052226646821869324,2,left
37.159,0.564843859270159,1.057015439327156,-0.26847403069349435,1.5570717509887975,3.2585602311402404,-1.8557064669704468,-0.2199340850212007,0.03125893840443822,0.0604860744980804,2,left
37.214,0.5641122327792903,1.057727716418662,-0.2688120708183867,1.5610770545391568,3.261951950752608,-1.841366292926667,-0.2176679770928853,0.03177733148390544,0.06879702991225373,2,left
37.215,0.5633295152721878,1.0584730302025724,-0.26917092261415243,1.5645657225162661,3.2653850408222946,-1.8269066274176522,-0.21540651498057536,0.032357761949342576,0.07714404292467014,2,left
37.216,0.5624985933512195,1.059250232703902,-0.269550343378615,1.5675273937800556,3.268839996915254,-1.812334750769407,-0.21315253593570116,0.03299603705635384,0.08551125889597004,2,left
37.217,0.5616226081665587,1.0600581494026158,-0.269950043531866,1.5699564204798335,3.2722963102477967,-1.7976573060289762,-0.2109086742444143,0.033687733811679076,0.09388256221930785,2,left
37.217,0.560704937133422,1.0608955835327865,-0.27036969110665054,1.5718518835029254,3.2757325582833325,-1.7828802871793292,-0.20867735709256058,0.03442823491095082,0.10224169515825728,2,left
37.28,0.5597491737322493,1.061761320514504,-0.27080891709062105,1.5732175618779363,3.2791264945725676,-1.7680090375785251,-0.20646080122374913,0.035212767123908556,0.11057237121935942,2,left
37.281,0.5587591055231429,1.0626541329807981,-0.27126732182257296,1.5740618591174733,3.282455145264692,-1.7530482595395136,-0.20426101096344929,0.03603644149022318,0.118858381095553,2,left
37.282,0.5577386907647249,1.0635727866778344,-0.27174448217304015,1.5743976887391735,3.2856949178626476,-1.7380020357270112,-0.20207977837520572,0.0368942944762831,0.12708368855409874,2,left
37.294000000000004,0.5566920337792461,1.0645160472174473,-0.2722399587829502,1.5742423198623343,3.288821724457466,-1.722873862616293,-0.19991868610081706,0.03778132942685727,0.1352325144174898,2,left
37.295,0.5556233589812906,1.065482687428094,-0.27275330262820247,1.5736171830314942,3.2918111198220763,-1.7076666960188567,-0.19777911298292744,0.03869255788143771,0.14328940854021932,2,left
37.296,0.5545369834674344,1.0664714951980812,-0.2732840605571817,1.5725476368462334,3.2946384539074507,-1.6923830085155087,-0.195662242184933,0.03962304027256892,0.15123931135801408,2,left
37.347,0.553437288132468,1.0674812817911103,-0.27383177970040173,1.5710626988663992,3.2972790359517203,-1.6770248580560156,-0.19356907137871923,0.04056792541862415,0.15906760728028524,2,left
37.348,0.5523286873187256,1.068510890363638,-0.27439601067553737,1.5691947494650342,3.299708303215031,-1.661593965938145,-0.19150042467662584,0.04152248837107758,0.16676017163444093,2,left
37.355,0.5512155970890229,1.0695592041599649,-0.27497630959404606,1.566979220191352,3.3019019850205393,-1.6460918017975166,-0.189456966174576,0.0424821664419118,0.17430341185908005,2,left
37.357,0.5501024023639111,1.0706251537930727,-0.2755722390201454,1.5644542753135804,3.30383625511332,-1.6305196738206493,-0.18743921503769714,0.043442593398190406,0.18168430316465614,2,left
37.357,0.5489934232514604,1.0717077231050878,-0.2761833680641105,1.5616604898611832,3.3054878699194905,-1.6148788232638196,-0.1854475618735075,0.04439963190950532,0.18889041918625732,2,left
37.414,0.547892880859278,1.0728059532975023,-0.276809271730678,1.5586405238695946,3.306834294487499,-1.5991705220630101,-0.18348228576433503,0.045349404458489055,0.19590995890658305,2,left
37.417,0.5468048628527128,1.0739189451806446,-0.2774495296048203,1.555438790648178,3.3078538217222766,-1.583396170855343,-0.1815435711232234,0.04628832299373243,0.2027317715455465,2,left
37.418,0.5457332891875382,1.0750458594440302,-0.27810372400309025,1.552101116167308,3.308525692390545,-1.567557393853891,-0.17963152374514077,0.04721311753529164,0.20934538069361816,2,left
37.431,0.54468187872914,1.0761859149399848,-0.27877143784049735,1.5486743874712516,3.308830221169834,-1.5516561278617222,-0.1777461857988609,0.04812086381848237,0.2157410082116279,2,left
37.431999999999995,0.5436541175933779,1.0773383851754885,-0.2794522525592297,1.5452061897631566,3.3087489289673564,-1.535694704121074,-0.1758875497124498,0.049009009992480784,0.22190959800036236,2,left
37.433,0.542653229887544,1.0785025933594097,-0.280145746436141,1.5417444333184847,3.308264676837272,-1.5196759222643865,-0.17405557097018853,0.04987540228008235,0.2278428396660324,2,left
37.481,0.5416821512671522,1.0796779063381714,-0.2808514934637435,1.538336971964678,3.307361794767796,-1.5036031156387142,-0.1722501799554535,0.05071830902342425,0.2335331921425434,2,left
37.483000000000004,0.5407435055646811,1.0808637276874906,-0.28156906287921485,1.535031214427829,3.3060262002908525,-1.4874802074455515,-0.1704712931840605,0.05153644167372691,0.23897390739471966,2,left
37.488,0.5398395847553538,1.0820594902682967,-0.2822980193192669,1.5318737290607727,3.304245504894031,-1.4713117574452252,-0.1687188243892694,0.052328970801551515,0.24415905436144206,2,left
37.489000000000004,0.5389723326719262,1.0832646486932924,-0.283037923492267,1.528909842030289,3.3020091078957536,-1.4551029991455433,-0.16699269578848394,0.05309553569407871,0.2490835431959857,2,left
37.489000000000004,0.5381433330396508,1.0844786722195319,-0.2837883332130124,1.5261832294279751,3.2993082777155838,-1.4388598675495898,-0.16529284957873025,0.053836247015427316,0.25374314946879106,2,left
37.547,0.537353802377075,1.0857010384557637,-0.2845488046694162,1.5237355061395539,3.296136220149269,-1.42258901814339,-0.16361925945984257,0.05455168256465671,0.2581345373722418,2,left
37.549,0.5366045880078991,1.0869312280071735,-0.2853188938480739,1.5216058185735362,3.2924881326789306,-1.4062978388947949,-0.1619719418879167,0.05524287630521121,0.2622552806317104,2,left
37.568000000000005,0.5358961709407329,1.0881687199083547,-0.28609815806890626,1.5198304511345122,3.288361243740651,-1.3899944576576226,-0.16035096683478825,0.05591130079660263,0.2661038801538429,2,left
37.57,0.5352286729196836,1.0894129875305265,-0.28688615755211944,1.5184424560268281,3.2837548372625682,-1.3736877468531186,-0.1587564679551845,0.056558843165393544,0.269679777889538,2,left
37.571,0.5346018668155437,1.09066349465138,-0.28768245691910804,1.5174713154347497,3.2786702652911655,-1.357387326361327,-0.15718865210739738,0.057187775127276914,0.27298336600481343,2,left
37.571,0.5340151897715911,1.0919196914588543,-0.28848662656272084,1.5169426448259096,3.2731109529142866,-1.3411035650330463,-0.1556478081358316,0.057800718315249404,0.2760159892377447,2,left
37.613,0.5334677588858631,1.0931810102574193,-0.28929824390303016,1.5168779435825197,3.2670823986810937,-1.3248475810277562,-0.1541343147948611,0.05840060658650726,0.278779937607922,2,left
37.615,0.532958389508904,1.094446860512564,-0.29011689460487894,1.5172943954409737,3.2605921717897455,-1.3086312410315992,-0.1526486477225006,0.058990646562950055,0.2812784273550503,2,left
37.626,0.5324856163827117,1.0957166226943635,-0.29094217375952774,1.5182047191522623,3.253649906241057,-1.2924671583254792,-0.15119138542467056,0.05957427690828871,0.2835155692622587,2,left
37.628,0.5320477177117876,1.096989640352971,-0.29177368681290017,1.519617069363051,3.2462672919408564,-1.2763686896566018,-0.14976321424451786,0.060155126462176675,0.28549632426964694,2,left
37.629,0.5316427419078558,1.0982652101528767,-0.2926110498609074,1.5215349875881745,3.2384580625667847,-1.2603499307998274,-0.1483649322201763,0.060736971443970215,0.2872264466238702,2,left
37.681,0.5312685365085091,1.0995425700349015,-0.2934538889913345,1.5239574024943483,3.2302379791859526,-1.244425710360018,-0.14699745159590816,0.06132369225506113,0.28871241516674095,2,left
37.683,0.5309227787001027,1.100820885927324,-0.2943018385242758,1.5268786775420957,3.221624807118075,-1.2286115807631184,-0.1456617996746946,0.061919230584470304,0.28996135356393843,2,left
37.705,0.5306030067211186,1.1020992375267897,-0.2951545381243927,1.5302887033399066,3.2126382824336526,-1.2129238050122642,-0.14435911777738678,0.06252754734664087,0.2909809400753514,2,left
37.707,0.5303066512179218,1.1033766037894013,-0.2960116288214466,1.5341730325081833,3.2033000639248184,-1.1973793379391497,-0.14309065821214156,0.06315258166402836,0.2917793071099543,2,left
37.707,0.5300310656796832,1.1046518488772032,-0.2968727480451189,1.5385130556477005,3.193633665393929,-1.1819958009578135,-0.14185777923491605,0.0637982109313578,0.2923649306085905,2,left
37.708,0.5297735553696306,1.1059237093907934,-0.2977375238714848,1.5432862174507938,3.183664362553143,-1.1667914494820273,-0.1406619379928825,0.06446821203381153,0.2927465094098239,2,left
37.747,0.5295314044378769,1.1071907837799766,-0.29860556874450234,1.5484662723355784,3.173419070371678,-1.1517851324166388,-0.1395046814207293,0.06516622414399732,0.2929328355144574,2,left
37.749,0.5293019011456719,1.108451524716498,-0.29947647294951757,1.5540235793632968,3.1629261891884135,-1.1369962434607013,-0.1383876350203262,0.06589571415717464,0.292932657533636,2,left
37.763000000000005,0.5290823614685043,1.1097042349319695,-0.30034979813497625,1.559925435691057,3.152215419897226,-1.1224446641212638,-0.13731248943234448,0.06665994617682473,0.2927545403659398,2,left
37.765,0.5288701516424841,1.1109470667445653,-0.30122507122233605,1.5661364442587602,3.1413175518460594,-1.1081506982678568,-0.13628098475400804,0.06746195607445325,0.2924067236404876,2,left
37.766,0.5286627102397661,1.1121780253091462,-0.3021017790234704,1.5726189049360535,3.1302642325956267,-1.094134997867969,-0.13529489271425735,0.06830453133434256,0.29189698135885217,2,left
37.813,0.528457570138438,1.1133949754924395,-0.30297936378164636,1.5793332147594472,3.119087731741638,-1.0804184794387486,-0.13435599705104448,0.06919019571988419,0.29123248668624885,2,left
37.815,0.5282523804992721,1.1145956521434959,-0.3038572197570498,1.5862382664873085,3.1078207079452826,-1.0670222308566526,-0.13346607255740148,0.07012119804902951,0.2904196869560037,2,left
37.841,0.5280449286325836,1.1157776734031364,-0.30473469089831395,1.5932918411752397,3.096495982810669,-1.053967408357924,-0.13262686314565522,0.0710995045452054,0.2894641926845933,2,left
37.843,0.5278331614228068,1.1169385565680263,-0.3056110695065947,1.6004509940717089,3.085146322188907,-1.0412751236693853,-0.13184005906797563,0.07212679455181256,0.28837068211485783,2,left
37.844,0.5276152058835614,1.118075735790041,-0.3064855956236043,1.6076724338536776,3.0738042248765494,-1.0289663212311124,-0.13110727337391526,0.07320445956405425,0.2871428216576669,2,left
37.845,0.5273893885017651,1.1191865805993513,-0.3073574567633384,1.614912895190451,3.062501719112956,-1.0170616457329105,-0.13043001796091547,0.07433360550175692,0.2857832029454217,2,left
37.881,0.5271542531654092,1.1202684142014505,-0.3082257876408515,1.6221295044645445,3.0512701694663114,-1.005581301484463,-0.12980968011147861,0.07551505802825505,0.2842932982845571,2,left
37.9,0.5269085774637149,1.121318530772636,-0.30908966970984414,1.629280137978565,3.040140100345006,-0.9945449074809821,-0.12924750070951269,0.07674937065459518,0.2826734368905835,2,left
37.902,0.5266513869774924,1.1223342112325347,-0.30994813048819375,1.6363237707550171,3.0291410431245493,-0.9839713533564172,-0.12874455502980367,0.07803683534692168,0.2809228036063654,2,left
37.903,0.5263819670574332,1.1233127370909708,-0.3108001427483475,1.643220812283307,3.0183014091177185,-0.9738786601784806,-0.1283017364568686,0.07937749503627628,0.2790394603012923,2,left
37.903,0.5260998716829819,1.1242514021639476,-0.3116446237535569,1.6499334247931445,3.007648385250693,-0.964283847738758,-0.1279197431904319,0.08077115670864081,0.27702038878058116,2,left
37.946,0.5258049292189564,1.1251475223143221,-0.31248043495093336,1.6564258208553573,2.9972078485549725,-0.9552028086634303,-0.1275990679349147,0.08221740332888838,0.27486155348573343,2,left
37.946999999999996,0.5254972450918863,1.125998443808144,-0.31330638281639206,1.6626645390549768,2.987004297725715,-0.9466501893542428,-0.1273399905707918,0.08371560328996884,0.27255798269527,2,left
37.978,0.5251772014810951,1.1268015512717586,-0.3141212216499094,1.6686186975433286,2.977060801429572,-0.938639277738627,-0.12714257376403665,0.08526491696338821,0.2701038674083439,2,left
37.979,0.5248454540502565,1.127554276386523,-0.31492365893972124,1.674260225487694,2.9673989633320765,-0.9311818978029159,-0.12700666125868182,0.08686430085003577,0.2674926760348688,2,left
37.98,0.5245029257388752,1.1282541082476398,-0.3157123635797014,1.679564072436412,2.9580389038153245,-0.9242883108841164,-0.12693187821676352,0.08851251079166524,0.26471728042440185,2,left
37.98,0.5241507978569806,1.128898605950131,-0.3164859769090328,1.6845083953631055,2.9489992578548896,-0.9179671237217671,-0.12691763275843504,0.09020810618881821,0.2617700872785428,2,left
37.997,0.5237904990306548,1.1294854137313952,-0.31724312633613855,1.6890747218860682,2.940297186013022,-0.9122252033956139,-0.12696311806687094,0.09194945668578655,0.25864317047820207,2,left
38.036,0.5234236926866389,1.1300122787409825,-0.31798244108494655,1.6932480858777161,2.931948390983178,-0.9070675994971376,-0.12706731480375177,0.09373475190974716,0.2553284025332964,2,left
38.037,0.5230522636940907,1.1304770706117162,-0.31870256892720267,1.697017130411213,2.9239671296091636,-0.9024974740072211,-0.12722899380300418,0.09556201436485004,0.2518175847257569,2,left
38.038000000000004,0.5226783045809792,1.1308778004527056,-0.3194021916254383,1.7003741743728609,2.9163662133736414,-0.8985160395250016,-0.1274467191032251,0.09742911547933669,0.24810257519751552,2,left
38.038000000000004,0.5223041015112254,1.1312126361135537,-0.3200800364006967,1.7033152419268958,2.90915699766378,-0.8951225077424895,-0.12771885146983838,0.09933379479350965,0.24417541312559596,2,left
38.08,0.521932120044383,1.1314799118944392,-0.32073488220124774,1.7058400563271177,2.9023493676559955,-0.8923140525820008,-0.1280435526084463,0.101273682270726,0.24002843650975822,2,left
38.082,0.5215649905518343,1.1316781333866632,-0.32136556203999855,1.7079520004009519,2.8959517319545087,-0.8900857938591625,-0.12841879022074942,0.10324632371947016,0.23565439171367375,2,left
38.114000000000004,0.5212054929596107,1.131805979653592,-0.3219709640637049,1.7096580454513595,2.8899710323304255,-0.8884308058673903,-0.12884234398137193,0.10524920924851042,0.23104653400389535,2,left
38.115,0.5208565404183568,1.1318623046803524,-0.3225500334802937,1.7109686492786513,2.8844127728887603,-0.8873401526380182,-0.12931181255012358,0.10727980430031087,0.22619871892084892,2,left
38.116,0.5205211616722366,1.1318461390369183,-0.32310177606936213,1.7118976234440786,2.8792810692028676,-0.8868029501633767,-0.12982462187965468,0.10933558212025428,0.2211054843927135,2,left
38.116,0.5202024820757469,1.131756692056671,-0.32362526286093535,1.7124619702601882,2.8745787168786907,-0.8868064550220488,-0.1303780351648922,0.11141405613661641,0.2157621234768676,2,left
38.146,0.5199037032504426,1.131593354350412,-0.3241196349523578,1.7126816923921027,2.8703072764103608,-0.8873361760671763,-0.1309691646944829,0.11351281110901343,0.21016474763840942,2,left
38.174,0.5196280812978454,1.131355700205442,-0.32458410740298993,1.712579582079585,2.866467166776755,-0.8883760010800578,-0.13159498570926387,0.11562953259198075,0.20431034052048777,2,left
38.175,0.5193789032825438,1.131043489893271,-0.3250179716031435,1.7121809984202552,2.8630577589808084,-0.8899083287315417,-0.132252352286603,0.1177620346431086,0.19819680218598212,2,left
38.176,0.5191594615817529,1.1306566724835514,-0.3254205960131092,1.711513637009262,2.860077465772216,-0.8919142011688446,-0.1329380152523007,0.11990828578175824,0.1918229838144451,2,left
38.177,0.5189730258860383,1.1301953893956997,-0.325791425436512,1.7106072909404884,2.857523829832209,-0.8943734387695319,-0.13364864208886162,0.1220664331985237,0.18518871294176525,2,left
38.213,0.5188228129267861,1.12965997806309,-0.326129979103298,1.709493600741977,2.855393613949365,-0.8972647801670969,-0.13438083864412245,0.12423482518609118,0.17829480985066634,2,left
38.214,0.5187119541643093,1.1290509747488469,-0.32643584785560625,1.7082057920812088,2.8536828948015494,-0.9005660290162848,-0.13513117214745954,0.1264120317089849,0.17114309665793603,2,left
38.251,0.518643461824367,1.1283691157407851,-0.32670869065726516,1.7067784010439506,2.8523871606072646,-0.9042542077489194,-0.13589619487595914,0.12859686300016424,0.16373640116493177,2,left
38.253,0.5186201939568208,1.127615336354656,-0.32694823056322997,1.705246986907618,2.8515014125383478,-0.9083057179954734,-0.13667246797790783,0.13078838610202548,0.15607855701576687,2,left
38.253,0.5186448194500946,1.1267907672847335,-0.32715425025946193,1.7036478319500032,2.851020269277557,-0.912696505683713,-0.13745658523711796,0.1329859393037654,0.14817440082823807,2,left
38.254,0.518719783927473,1.1258967280141827,-0.32732658729722336,1.702017627150532,2.8509380731884524,-0.9174022258297048,-0.13824519662287066,0.1351891443625171,0.14002976674001988,2,left
38.279,0.5188472772319753,1.1249347172828315,-0.3274651291956477,1.7003931422613072,2.851248996056546,-0.9223984003724283,-0.13903503131663617,0.1373979162321719,0.13165147924692042,2,left
38.309,0.5190292030861529,1.1239064009691733,-0.32756980871116415,1.698810879104609,2.8519471428714676,-0.9276605640692985,-0.1398229198030657,0.13961246992969142,0.12304734550888402,2,left
38.311,0.5192671515395686,1.1228135980699516,-0.32764059969205234,1.6973067076367234,2.8530266530383583,-0.9331643964679607,-0.14060581471645003,0.1418333242628587,0.11422614799914195,2,left
38.311,0.5195623747415887,1.1216582656084422,-0.32767751388449745,1.6959154846975886,2.8544817989174476,-0.9388858396356407,-0.14138081032511876,0.1440613022163731,0.10519763782805462,2,left
38.312,0.5199157663611608,1.120442483239378,-0.3276805988431014,1.694670655842346,2.8563070812959066,-0.9448012017396079,-0.14214516066311986,0.1462975274048997,0.09597252875335387,2,left
38.346,0.5203278448202374,1.1191684381270577,-0.3276499369042592,1.6936038426538667,2.8584973194076637,-0.9508872469654692,-0.14289629638097415,0.1485434151521351,0.0865624917926869,2,left
38.388000000000005,0.5207987405429896,1.117838410483502,-0.32758564507236576,1.6927444221041297,2.8610477298310735,-0.9571212731695037,-0.14363184041046023,0.15080065627253392,0.07698015033417667,2,left
38.39,0.5213281875986416,1.1164547600770451,-0.32748787558165615,1.692119109353014,2.863953988077044,-0.9634811800664455,-0.14434962249594727,0.15307119228155305,0.06723907549826452,2,left
38.391,0.5219155202160815,1.1150199139970316,-0.3273568168569639,1.6917515584423002,2.867212271318862,-0.9699455321840418,-0.14504769250689928,0.15535718246243327,0.05735378073144402,2,left
38.391,0.5225596744879932,1.1135363558352993,-0.32719269467348217,1.6916619945557974,2.870819285768235,-0.9764936211218771,-0.1457243322499235,0.15766096520074985,0.04733971317828343,2,left
38.391999999999996,0.5232591951662405,1.1120066162349143,-0.3269957734241692,1.6918668866969042,2.8747722827214655,-0.9831055302476799,-0.1463780653979226,0.159985016928234,0.03721323857420354,2,left
38.414,0.524012246883006,1.1104332645742292,-0.32676635742197374,1.6923786641635927,2.8790690650504844,-0.9897622030642405,-0.14700766524997963,0.16233191118366802,0.026991617208460675,2,left
38.446999999999996,0.5248166286915573,1.1088189014129504,-0.3265047921325655,1.6932054775204115,2.883707984579553,-0.9964455152579196,-0.1476121602085673,0.1647042787979695,0.016692969959727945,2,left
38.449,0.5256697908784724,1.1071661512280888,-0.32621146525506084,1.6943510048860477,2.88868793117628,-1.0031383491863723,-0.14819083696995525,0.16710476930477652,0.006336234173461247,2,left
38.45,0.5265688535054774,1.1054776549937524,-0.3258868076404887,1.6958143055827353,2.8940083156125636,-1.0098246676712546,-0.1487432415089636,0.1695360131505671,-0.004058890889961743,2,left
38.451,0.5275106266766836,1.103756062283257,-0.3255312941056698,1.6975897238762974,2.8996690489330974,-1.0164895829106475,-0.14926917805815046,0.1720005836293471,-0.014472009670090706,2,left
38.481,0.5284916328555993,1.1020040225875267,-0.3251454442315534,1.6996668448549173,2.905670520389022,-1.0231194173770743,-0.14976870634756664,0.17450095710642702,-0.024882107819571907,2,left
38.498000000000005,0.5295081315983108,1.1002241753842406,-0.3247298231626843,1.702030503268745,2.9120135747692926,-1.029701755458956,-0.15024213730501657,0.17703947045649138,-0.035267642249672715,2,left
38.516,0.5305561468063629,1.0984191384476267,-0.3242850422330014,1.7046608454717427,2.9186994892822473,-1.0362254856544046,-0.15069002728545122,0.17961827541371972,-0.04560664389568054,2,left
38.518,0.5316314962427549,1.0965914942184374,-0.3238117591002723,1.7075334444716987,2.9257299500046208,-1.0426808333363717,-0.1511131707707898,0.1822392905093583,-0.055876832768097774,2,left
38.518,0.5327298228142067,1.094743774537126,-0.3233106771166819,1.7106194678139575,2.933107027544596,-1.049059384145158,-0.15151259135812487,0.18490415245486613,-0.06605574405887381,2,left
38.546,0.5338466269683517,1.0928784442966857,-0.3227825437982118,1.713885896619137,2.940833149708336,-1.0553540982497325,-0.1518895307930582,0.187614169445815,-0.07612086365159865,2,left
38.595,0.5349772994085193,1.0909978845823622,-0.3222281483292857,1.7172957913339744,2.9489110656318047,-1.0615593159394578,-0.15224543586597916,0.1903702782449027,-0.08604977180456687,2,left
38.597,0.53611715324815,1.0891043758227095,-0.3216483180415415,1.7208085971941123,2.9573437940627367,-1.0676707546245048,-0.15258194310275375,0.19317300579350896,-0.0958202943262812,2,left
38.598,0.5372614548090852,1.0872000814219334,-0.3210439137986193,1.7243804817253388,2.9661345504810925,-1.0736854961137028,-0.15290086126076727,0.1960224354916145,-0.10541065995579582,2,left
38.599000000000004,0.5384054524931773,1.0852870323155583,-0.3204158242361458,1.7279646979861376,2.975286651172205,-1.0796019621355288,-0.15320415168655704,0.1989181781756151,-0.11479966089530068,2,left
38.599000000000004,0.539544403408513,1.0833671130097682,-0.3197649588672632,1.7315119698156243,2.984803394145785,-1.0854198764507679,-0.15349390660961967,0.20185934783089918,-0.1239668124148693,2,left
38.615,0.540673597723852,1.0814420498248059,-0.3190922401991966,1.7349708977111378,2.9946879170222793,-1.09114021289167,-0.1537723254285234,0.2048445420689865,-0.1328925084758011,2,left
38.652,0.5417883811026181,1.0795134019853665,-0.3183985951881365,1.738288384532153,3.004943032670558,-1.096765129276235,-0.1540416890122854,0.20787182738618995,-0.1415581721670564,2,left
38.654,0.5428841758326717,1.0775825558948928,-0.31768494646849615,1.7414100775453223,3.015571047074194,-1.1022978874866203,-0.15430433206916572,0.21093872920376322,-0.14994640058484157,2,left
38.655,0.5439565012303635,1.0756507226601715,-0.31695220374683886,1.7442808180822837,3.0265735705794645,-1.107742760408818,-0.15456261386948297,0.21404222663855932,-0.1580411030359637,2,left
38.655,0.5450009937069903,1.0737189387865729,-0.31620125563683094,1.7468450871687418,3.03795133738756,-1.1131049266573667,-0.154818888037734,0.2171787518640252,-0.1658276297273569,2,left
38.679,0.5460134267896264,1.071788069825999,-0.31543296217152295,1.7490474383954864,3.0497040444462775,-1.118390353781706,-0.15507547236744706,0.22034419387184842,-0.1732928871492368,2,left
38.731,0.5469897313622658,1.069858816593395,-0.31464814823786214,1.7508329147366501,3.061830214245621,-1.1236056705592865,-0.15533461937401835,0.2235339064942981,-0.18042543731265068,2,left
38.734,0.5479260162778314,1.067931723488748,-0.31384759810898666,1.7521474498945862,3.0743270824291336,-1.1287580303393268,-0.15559848790469288,0.2267427206535246,-0.1872155796478888,2,left
38.735,0.5488185893202278,1.066007188539633,-0.3130320511157609,1.7529382570642615,3.0871905105984365,-1.133854970210124,-0.15586911604977943,0.22996496093783728,-0.19365541496898497,2,left
38.735,0.5496639783808897,1.0640854748985633,-0.312202198391727,1.753154208971115,3.1004149248040958,-1.1389042723485459,-0.15614839584513346,0.2331944667662626,-0.1997388904613707,2,left
38.736,0.5504589526009098,1.0621667235043994,-0.31135868052381294,1.7527462120727237,3.1139932801024304,-1.1439138323242395,-0.1564380504190502,0.23642461848678709,-0.20546182429429855,2,left
38.79,0.5512005430421745,1.060250966425231,-0.31050208580037814,1.7516675757799667,3.12791705099676,-1.148891536184557,-0.15673961407363426,0.23964836866967892,-0.2108219088131161,2,left
38.792,0.5518860622980553,1.0583381402355172,-0.30963294864911556,1.7498743750837058,3.1421762456884905,-1.153845146101442,-0.15705441548095725,0.242858278602395,-0.2158186920382005,2,left
38.793,0.5525131224740364,1.0564280988408585,-0.30875174791275267,1.7473258020683582,3.1567594388382303,-1.1587821932185336,-0.15738356393020683,0.24604655939045236,-0.22045353822432054,2,left
38.794000000000004,0.5530796510769541,1.0545206254194814,-0.30785890483647976,1.7439845002860355,3.1716538157585736,-1.1637098758779367,-0.15772793838356883,0.24920511611927051,-0.22472956951638756,2,left
38.794000000000004,0.5535839044064919,1.0526154434047028,-0.30695478100055495,1.7398168774686573,3.186845222740701,-1.1686349618647505,-0.15808817901757893,0.2523255930138705,-0.2286515914100384,2,left
38.813,0.5540244781096073,1.0507122266051845,-0.3060396768368086,1.7347933947636955,3.2023182214211556,-1.1735636941330956,-0.15846468100776434,0.25539941805133376,-0.23222600405093502,2,left
38.869,0.5544003146220742,1.0488106087548814,-0.3051138315921625,1.7288888318762328,3.218056146781686,-1.1785017001474618,-0.15885759046031436,0.2584178464133817,-0.2354607001933015,2,left
38.871,0.5547107071059317,1.0469101930455273,-0.30417742546503873,1.7220825262663306,3.2340411682620496,-1.1834539061219245,-0.15926680247560782,0.26137200268440497,-0.238364949963683,2,left
38.872,0.5549552993963867,1.0450105623856731,-0.3032305842738558,1.7143585817898213,3.250254352620916,-1.1884244593423576,-0.15969196134467886,0.2642529218037544,-0.24094927244021183,2,left
38.873000000000005,0.5551340817582406,1.0431112911751292,-0.3022733866865605,1.7057060406356397,3.2666757267109974,-1.1934166628137874,-0.16013246285195593,0.26705158885209107,-0.24322529435160184,2,left
38.874,0.5552473827444455,1.0412119592074758,-0.30130587376580625,1.6961190139427005,3.2832843388050197,-1.1984329254180783,-0.16058745851868667,0.26975897810713173,-0.24520559767368738,2,left
38.927,0.555295857768062,1.0393121675351389,-0.30032806009668656,1.6855967693933631,3.3000583181017786,-1.2034747287181595,-0.16105586137136318,0.27236609244422355,-0.24690356055458526,2,left
38.93,0.5552804751134393,1.0374115547647256,-0.29933994503009637,1.6741437764014182,3.3169749332440253,-1.2085426097557466,-0.16153635271163944,0.2748640044542485,-0.24833319761184688,2,left
38.931,0.5552025001850402,1.0355098113670291,-0.2983415222557327,1.6617697112402872,3.334010652092287,-1.2136361576600057,-0.16202738965875063,0.27724390000327365,-0.24950900486273775,2,left
38.931,0.5550634790334994,1.0336066900363674,-0.29733278664626733,1.6484894252455347,3.351141205731321,-1.2187540211523527,-0.1625272137655431,0.2794971237919908,-0.2504458131414814,2,left
38.931999999999995,0.5548652223057883,1.0317020116024125,-0.2963137387028577,1.63432287843205,3.3683416589541886,-1.2238939247649783,-0.16303386130373412,0.2816152258248548,-0.25115865307515084,2,left
38.946999999999996,0.5546097897704595,1.029795667676893,-0.29528438794395173,1.6192950394396761,3.3855864881514006,-1.2290526929089405,-0.16354517568633617,0.28359000791944045,-0.25166263370109465,2,left
39.004,0.5542994740440327,1.0278876222468745,-0.29424475665848604,1.6034357519273956,3.4028496668007224,-1.2342262816600607,-0.16405882220030968,0.2854135698959722,-0.2519728354340705,2,left
39.006,0.5539367822857536,1.0259779144274848,-0.2931948849238406,1.58677956737543,3.4201047586069975,-1.239409818277377,-0.16457230499212525,0.2870783552987682,-0.2521042167657472,2,left
39.008,0.5535244161721743,1.0240666636871019,-0.2921348370842594,1.5693655442521444,3.4373250183414705,-1.2445976484689687,-0.16508298608301974,0.28857719641549445,-0.25207153280292566,2,left
39.009,0.5530652509311351,1.0221540773321327,-0.2910647091036407,1.551237013500277,3.4544835004301495,-1.249783391420005,-0.1655881061158446,0.28990335827977015,-0.2518892631185646,2,left
39.01,0.5525623133963584,1.020240459039043,-0.2899846357760094,1.5324413106940256,3.4715531750868043,-1.2549600026368135,-0.1660848066102962,0.2910505814221297,-0.2515715470208902,2,left
39.025,0.552018758560604,1.0183262176233567,-0.288894797011582,1.5130294772128987,3.488507050516562,-1.2601198448553899,-0.16657015363811814,0.2920131232777282,-0.2511321254824764,2,left
39.063,0.5514378443306103,1.01641187596197,-0.2877954228637462,1.4930559363699374,3.505318297430689,-1.2652547676130426,-0.16704116286364332,0.29278579823558265,-0.25058428951614337,2,left
39.064,0.5508229045338027,1.0144980799657815,-0.28668679723161455,1.4725781524265256,3.5219603708433596,-1.2703561962764482,-0.16749482570450838,0.29336401631450587,-0.24994083447889162,2,left
39.065,0.5501773204213559,1.012585607141453,-0.28556926032210894,1.4516562784277278,3.5384071253904157,-1.2754152311247424,-0.16792813599745765,0.2937438204231753,-0.24921401900788748,2,left
39.065,0.5495044909672432,1.0106753741345431,-0.28444321001887884,1.430352795139777,3.554632922902841,-1.2804227564267139,-0.16833811634862222,0.2939219221461285,-0.24841552686062038,2,left
39.144,0.5488078022240144,1.0087684427549595,-0.28330910228581196,1.408732141088576,3.570612733276472,-1.2853695577105395,-0.16872184356617573,0.2938957359247835,-0.24755643035691954,2,left
39.146,0.548090595918101,1.006866024221388,-0.28216745068910565,1.3868603327849045,3.5863222318043158,-1.2902464426027707,-0.1690764730084696,0.29366341109299643,-0.24664715486842054,2,left
39.147,0.5473561374733857,1.0049694815139052,-0.28101882508597137,1.364804573936135,3.601737897176941,-1.2950443590671958,-0.16939926200385244,0.2932238604560198,-0.245697444180781,2,left
39.148,0.5466075838820239,1.003080329699911,-0.2798638495424865,1.3426328527281504,3.6168371133159885,-1.2997545064199683,-0.1696875926047785,0.292576783667957,-0.24471632661137963,2,left
39.149,0.5458479522199551,1.0012002340860424,-0.2787031996551469,1.3204135267730324,3.6315982763335404,-1.3043684372798663,-0.1699389938733493,0.2917226840984227,-0.24371208179379403,2,left
39.149,0.5450800898179886,0.9993310062315478,-0.27753759960940244,1.2982148956890798,3.646000906591247,-1.3088781501314584,-0.17015116377766276,0.29066287866369844,-0.24269220809190115,2,left
39.2,0.5443066469557045,0.9974745981057426,-0.2763678193706761,1.2761047617699903,3.6600257642327523,-1.3132761723538484,-0.17032199068669504,0.28939950054910113,-0.24166339069075038,2,left
39.202,0.5435300525908398,0.9956330947297954,-0.27519467230510625,1.2541499805079852,3.6736549639974023,-1.3175556334299592,-0.1704495743073921,0.28793549491502307,-0.24063147069548393,2,left
39.203,0.5427524933290986,0.993808705514963,-0.27401901336947215,1.2324160058069586,3.686872083431001,-1.3217103284360496,-0.17053224567197725,0.2862746078208723,-0.23960141607074845,2,left
39.203,0.5419758956822585,0.992003754429879,-0.2728417379180381,1.2109664390360122,3.6996622594602995,-1.3257347729791937,-0.17056858565249472,0.2844213686796505,-0.23857729553146761,2,left
39.204,0.5412019116394524,0.990220669261596,-0.27166378115836765,1.189862592931206,3.7120122705017407,-1.3296242515104315,-0.1705574416103532,0.28238106647624095,-0.23756225621738186,2,left
39.278,0.5404319077062445,0.9884619704885087,-0.2704861182605877,1.1691630782827438,3.7239106029649647,-1.333374860555912,-0.17049794202406376,0.28015971983955207,-0.23655850548254842,2,left
39.279,0.5396669578149066,0.9867302603605119,-0.26930976501670706,1.1489234165112174,3.735347501828155,-1.3369835475004588,-0.17038950906910105,0.27776404097902296,-0.235567296852557,2,left
39.281,0.5389078405576784,0.9850282125186356,-0.26813577880784617,1.1291956785999386,3.7463150052607337,-1.340448145038538,-0.1702318691498534,0.27520139347964206,-0.23458892014655008,2,left
39.282,0.5381550407354209,0.9833585621126353,-0.2669652595844432,1.1100281503240037,3.75680696332756,-1.343767401303394,-0.17002506138532145,0.2724797440483384,-0.23362269590733958,2,left
39.283,0.537408754567396,0.9817240961959066,-0.265799350642834,1.0914650237180654,3.766819040807479,-1.3469410056847186,-0.16976944405924163,0.2696076088002348,-0.23266697501380992,2,left
39.284,0.5366688977192747,0.98012764418648,-0.26463923912338144,1.0735461150556636,3.7763487044431914,-1.349969610402825,-0.16946569906165143,0.26659399556580926,-0.23171914566538643,2,left
39.335,0.5359351156383056,0.978572068221543,-0.2634861562605846,1.0563066112616777,3.7853951963654664,-1.3528548481970109,-0.1691148343498248,0.2634483441933093,-0.23077565063226899,2,left
39.336999999999996,0.5352067960691704,0.9770602532467307,-0.26234137744560915,1.0397768496459847,3.7939594980027,-1.355599347007603,-0.16871818440667602,0.2601804663123312,-0.2298320167994101,2,left
39.338,0.5344830838182735,0.9755950966106527,-0.2612062221392449,1.023982137495359,3.802044290212831,-1.3582067428208757,-0.16827740858515228,0.25680048510966597,-0.22888289747389223,2,left
39.339,0.5337628979321872,0.9741794966365864,-0.2600820535973189,1.0089426164154784,3.809653913945846,-1.3606816915555136,-0.16779448717731152,0.2533187751601328,-0.22792212705962203,2,left
39.339,0.5330449515197782,0.9728163392330741,-0.2589702782129273,0.9946731732344327,3.8167943330370595,-1.3630298802100096,-0.16727171508535263,0.24974590226741647,-0.22694278769196707,2,left
39.415,0.5323277744152094,0.9715084815863042,-0.25787234412409626,0.9811833970455885,3.823473098615985,-1.365258036516634,-0.16671169304469624,0.24609256329097406,-0.22593728766773558,2,left
39.417,0.5316097386228694,0.9702587326205561,-0.25678973875999767,0.9684775805810546,3.82969931309292,-1.367373935059382,-0.16611731638962776,0.2423695259466576,-0.22489745164074676,2,left
39.418,0.5308890859364025,0.9690698308153887,-0.2557239851954672,0.9565547635206568,3.8354835909974425,-1.3693863971297022,-0.1654917613600064,0.2385875685708111,-0.22381462258016266,2,left
39.419000000000004,0.530163956531576,0.9679444205470757,-0.2546766373315115,0.945408815932096,3.840838014628271,-1.3713052822767038,-0.16483846894743778,0.23475741983737103,-0.22267977548867485,2,left
39.42,0.5294324171313077,0.9668850282489007,-0.2536492739334078,0.93502856109955,3.8457760837085058,-1.3731414707380538,-0.1641611262848557,0.23088969851116833,-0.22148364275812008,2,left
39.421,0.5286924876447228,0.9658940395562655,-0.25264349154915594,0.925397937555849,3.850312658483783,-1.3749068365902706,-0.16346364561160423,0.2269948537898172,-0.22021685044287237,2,left
39.473,0.5279421656985801,0.9649736783207158,-0.25166089635156136,0.9164962000887693,3.8544638936280733,-1.3766142114412379,-0.16275014089685177,0.22308310763127664,-0.21887006365642458,2,left
39.475,0.5271794488914906,0.9641259880510669,-0.2507030949773153,0.9082981591980668,3.85824715634462,-1.3782773382134823,-0.16202490225354307,0.2191644008737044,-0.21743413844065476,2,left
39.476,0.5264023548296138,0.96335281617916,-0.24977168448683018,0.9007744583174995,3.8616809198394417,-1.3799108144142882,-0.16129236835284808,0.21524834418622818,-0.21590027676096937,2,left
39.477,0.5256089391610645,0.9626558015489681,-0.24886824163477986,0.8938918882826911,3.8647846255526552,-1.3815300244408215,-0.16055709718908032,0.21134417350695706,-0.2142601800273084,2,left
39.478,0.5247973120328701,0.9620363654913073,-0.24799431170465172,0.8876137381212761,3.867578512162376,-1.3831510606988402,-0.15982373562283478,0.20746070885661863,-0.2125061958446419,2,left
39.498000000000005,0.5239656535991656,0.9614957066904307,-0.24715139721596166,0.8819001778955519,3.8700834148566425,-1.3847906332481064,-0.15909698801838346,0.2036063156209047,-0.21063145410893003,2,left
39.548,0.5231122292608559,0.9610347998117627,-0.24634094684499772,0.8767086630398148,3.872320544700608,-1.3864659673262918,-0.1583815841004794,0.19978886793205447,-0.20862999089197626,2,left
39.55,0.5222354052074735,0.9606543975723625,-0.24556434491383627,0.8719943461236297,3.8743112611981134,-1.388194687885539,-0.1576822460496817,0.1960157140788242,-0.2064968598514806,2,left
39.55,0.5213336646641483,0.960355035650432,-0.2448229017975309,0.8677104854865554,3.876076847873175,-1.3899946904935323,-0.1570036548870265,0.1922936440147904,-0.20422823103037324,2,left
39.551,0.5204056250378168,0.9601370396584908,-0.24411784550988727,0.8638088465141266,3.8776382948051706,-1.391883998342767,-0.15635041646341888,0.1886288594400476,-0.20182147625654318,2,left
39.552,0.5194500559033004,0.9600005333876095,-0.24345031451175667,0.8602400947994129,3.879016089329611,-1.3938806055559205,-0.15572702784529385,0.1850269476605083,-0.19927523917901302,2,left
39.611,0.5184658975540012,0.9599454475853485,-0.24282135153249879,0.8569541809804507,3.8802300178270905,-1.396002308330768,-0.15513784515267076,0.18149286083416827,-0.19658948732362008,2,left
39.614000000000004,0.5174522797740074,0.9599715286451886,-0.24223189807624707,0.8539007168880668,3.8812989845267305,-1.3982665284046925,-0.15458705363647043,0.178030901753633,-0.19376554421781508,2,left
39.615,0.5164085405625526,0.9600783467932081,-0.24168278933966542,0.8510293427996428,3.8822408524800136,-1.4006901360686606,-0.15407864028186136,0.17464471630926592,-0.19080610088018643,2,left
39.615,0.5153342445460248,0.9602653034991395,-0.24117474928895535,0.848290085991377,3.88307230714274,-1.4032892797273424,-0.15361636891667715,0.17133729187552696,-0.1877152067515943,2,left
39.616,0.5142292005551202,0.9605316377617764,-0.24070838549120802,0.8456337109391356,3.8838087399980825,-1.4060792260661241,-0.15320375772709538,0.1681109605061778,-0.18449824034663306,2,left
39.681,0.5130934775012287,0.9608764308240643,-0.24028418324925577,0.8430120613584344,3.8844641504232365,-1.409074212136702,-0.15284405910694748,0.16496740610034258,-0.1811618598320469,2,left
39.681999999999995,0.5119274176877437,0.9612986090672544,-0.23990249900596425,0.8403783941153103,3.8850510654101074,-1.4122873095484654,-0.1525402418104686,0.1619076751986119,-0.1777139336092787,2,left
39.683,0.5107316471179647,0.96179694529895,-0.23956355368091956,0.8376877050003476,3.885580477142185,-1.4157303007737196,-0.15229497540249706,0.158932191344706,-0.17416345090626575,2,left
39.687,0.5095070826764433,0.962370059126185,-0.23926742701573284,0.8348970463582256,3.8860617984295156,-1.4194135675753752,-0.15211061699396472,0.15604077297502644,-0.170520412679534,2,left
39.689,0.5082549359100201,0.9630164173651514,-0.239014053862768,0.8319658365651281,3.8865028360034852,-1.4233459915663644,-0.15198920019502024,0.15323265465545588,-0.16679570468041735,2,left
39.69,0.5069767130244007,0.9637343353834704,-0.23880322285197728,0.8288561607961913,3.886909781216983,-1.4275348666361958,-0.1519324261181081,0.150506511227226,-0.16300095733450692,2,left
39.747,0.5056742111232598,0.964521980003955,-0.23863457736489074,0.8255330597748978,3.8872872154155846,-1.4319858216082564,-0.1519416562078409,0.14786048428070528,-0.15914839863626332,2,left
39.748000000000005,0.5043495112235994,0.9653773743810014,-0.23850761850454674,0.8219647983298997,3.8876381235619597,-1.4367027494853934,-0.15201790673034288,0.14529221051940613,-0.15525070470739963,2,left
39.749,0.5030049686468164,0.9662984052074075,-0.23842170981437089,0.8181231032540576,3.887963909517447,-1.4416877405880448,-0.15216184485333523,0.14279885186144609,-0.15132085006526624,2,left
39.75,0.5016432011609854,0.9672828324731185,-0.23837608358608575,0.8139833634655061,3.888264412447519,-1.4469410224357275,-0.15237378629519532,0.14037712740375224,-0.14737195906117564,2,left
39.751,0.500267075185317,0.9683283012894599,-0.23836984833220234,0.8095247908396508,3.8885379300230545,-1.4524609140124383,-0.15265369451654798,0.13802334764546825,-0.14341716137839824,2,left
39.813,0.4988796906576419,0.9694323541466696,-0.2384019965347886,0.8047305424104044,3.888781254267423,-1.458243801111283,-0.1530011814192526,0.13573345150185206,-0.13946945544643455,2,left
39.814,0.4974843653300625,0.970592441746956,-0.2384714118393858,0.7995878044324952,3.8889897225722536,-1.4642841355556229,-0.1534155095267323,0.13350304650554348,-0.13554158266114735,2,left
39.815,0.4960846185602802,0.9718059319346704,-0.23857687558202903,0.7940878383759544,3.88915728430299,-1.47057445877628,-0.15389559563578373,0.13132745234996754,-0.13164591355978078,2,left
39.823,0.4946841537105376,0.9730701177709742,-0.2387170732328248,0.7882259888389884,3.8892765829949343,-1.4771054497614098,-0.15444001595596793,0.12920174773560048,-0.1277943461037882,2,left
39.824,0.4932868384829315,0.974382226308329,-0.23889060169590348,0.7820016539211122,3.8893390537616344,-1.4838659970450248,-0.15504701283906136,0.12712082015502513,-0.12399821588326208,2,left
39.825,0.49189668355444816,0.9757394294658724,-0.23909597843542926,0.7754182213807755,3.889335033643729,-1.4908432926441246,-0.15571450335317014,0.12507941771637707,-0.12026821779442651,2,left
39.882,0.49051782015670187,0.9771388576107226,-0.23933165280776525,0.7684829789107308,3.889253879217702,-1.4980229426929448,-0.15644009004070356,0.12307220180687953,-0.11661433859598762,2,left
39.884,0.4891544766587096,0.9785776151327026,-0.23959601893706575,0.7612070096467302,3.889084083890197,-1.505389087766737,-0.1572210741151731,0.12109379969633952,-0.11304579989608575,2,left
39.885,0.4878109537494157,0.9800527966879232,-0.23988742884532066,0.7536050812407492,3.8888133891969954,-1.512924527644866,-0.1580544712000201,0.11913885671707371,-0.10957101138420583,2,left
39.885999999999996,0.48649159780858925,0.9815615033411652,-0.2402042047365056,0.7456955314295011,3.888428888054126,-1.520610848456637,-0.15893702962843262,0.11720208795487742,-0.10619753426841143,2,left
39.887,0.4852007722048173,0.9831008585291141,-0.2405446498859051,0.7375001482978145,3.88791712090243,-1.5284285520651717,-0.1598652512783342,0.11527832942079774,-0.10293205479165074,2,left
39.946999999999996,0.48394282639570624,0.9846680238936315,-0.2409070580033727,0.7290440393744919,3.887264168046151,-1.536357188174769,-0.16083541477660823,0.11336258855081979,-0.09978036712106056,2,left
39.949,0.48272206285504726,0.9862602147930016,-0.24128972111098007,0.720355481750532,3.8864557425862434,-1.544375489802236,-0.16184360065427425,0.11145009365973262,-0.09674736386032085,2,left
39.949,0.481542702065424,0.9878747149583823,-0.24169093600242011,0.7114657473556477,3.8854772872482886,-1.552461512598436,-0.16288571789419445,0.10953634185275912,-0.09383703185533081,2,left
39.961,0.4804088461147679,0.9895088895406923,-0.24210900936182322,0.7024089010326114,3.884314076423651,-1.5605927782283253,-0.16395753145327832,0.10761714502127755,-0.0910524515438923,2,left
39.961999999999996,0.47932444178010875,0.9911601958832469,-0.24254226167123294,0.6932215709951663,3.882951323641622,-1.5687464218633778,-0.16505469057327124,0.10568867372202269,-0.08839579908546387,2,left
39.963,0.4782932442044767,0.9928261916474452,-0.242989030113708,0.6839426917691273,3.8813742944172964,-1.576899343557146,-0.16617275773219473,0.10374749862264965,-0.0858683507918662,2,left
40.001,0.47731878217103346,0.9945045401850842,-0.24344767072738183,0.6746132203412698,3.8795684241573447,-1.585028362012615,-0.16730723793234975,0.10179062879047099,-0.083470488964078,2,left
40.003,0.4764043256171099,0.9961930132806476,-0.2439165600701228,0.6652758273660433,3.8775194403336064,-1.5931103669781002,-0.1684536079184812,0.0998155458619306,-0.08120170794500406,2,left
40.018,0.47555285572860456,0.9978894916553311,-0.2443940966934569,0.6559745659053308,3.8752134878717435,-1.6011224652462324,-0.169607345022148,0.09782023336956397,-0.07906061949408902,2,left
40.02,0.4747670378354757,0.9995919638309636,-0.24487870280953591,0.6467545195508907,3.8726372569636,-1.6090421164927111,-0.17076395551569185,0.09580320085534799,-0.07704495714024755,2,left
40.02,0.47404919725235084,1.0012985239330614,-0.2453688265472478,0.6376614310408888,3.8697781126320443,-1.6168472574729837,-0.17191900247665595,0.09376350224649849,-0.07515157955610947,2,left
40.078,0.4734012981151432,1.0030073688251608,-0.24586294507575657,0.6287413137945799,3.8666242238841955,-1.6245164144051953,-0.17306813321106876,0.0917007473119323,-0.07337647321903201,2,left
40.079,0.47282492523921116,1.0047167948455122,-0.24635956867849518,0.6200400521527384,3.863164687182974,-1.6320288037066766,-0.17420710629905403,0.08961510462553403,-0.07171475471522577,2,left
40.079,0.47232126915507977,1.0064251944669236,-0.24685724564069386,0.6116029980497965,3.859389637211908,-1.6393644212990817,-0.17533181831118658,0.08750729485431921,-0.07016067295315496,2,left
40.096,0.47189111473812795,1.0081310532465404,-0.247354567638732,0.6034745699061489,3.8552903396614884,-1.646504120648724,-0.1764383301877541,0.08537857401915741,-0.06870761153414896,2,left
40.096,0.47153483398494855,1.0098329472817542,-0.24785017528969785,0.5956978560413209,3.8508592639220645,-1.6534296796214683,-0.17752289311213823,0.08323070738770882,-0.06734809215997208,2,left
40.097,0.4712523832205093,1.0115295411511815,-0.24834276362358818,0.58831422343037,3.846090135562614,-1.6601238564149907,-0.1785819734438948,0.08106593585363972,-0.06607378123893624,2,left
40.146,0.47104330446301057,1.0132195862174362,-0.24883108734748186,0.5813629345337534,3.840977970029876,-1.6665704359817475,-0.17961227613117903,0.07888693727616149,-0.06487550257445106,2,left
40.148,0.47090673029100333,1.0149019191911026,-0.24931396582718363,0.5748807790621289,3.8355190911707635,-1.672754270444659,-0.1806107661679819,0.07669678463384552,-0.06374325829815118,2,left
40.155,0.4708413916515166,1.0165754608595046,-0.2497902877747683,0.5689017298332564,3.8297111393852483,-1.6786613181675867,-0.1815746879232795,0.0744989016805352,-0.06266625895273249,2,left
40.157,0.4708456284972319,1.0182392148349448,-0.25025901571443676,0.5634566295848317,3.8235530730106913,-1.6842786849812428,-0.18250158231062133,0.07229701592103491,-0.06163296311975494,2,left
40.158,0.47091740359479933,1.019892266147602,-0.2507191903526506,0.5585729116909746,3.8170451644849783,-1.689594668788139,-0.18338930178789065,0.07009510815010407,-0.06063112722493054,2,left
40.216,0.47105432004291997,1.0215337795044925,-0.251169934970962,0.5542743565008832,3.8101889922134844,-1.6945988066736686,-0.18423602317249463,0.06789735754820052,-0.05964786636550347,2,left
40.218,0.47125364292808675,1.0231629968833948,-0.25161045986352226,0.5505808864758353,3.8029874298738147,-1.699281921734489,-0.18504025826151344,0.06570808157746881,-0.05866972679252186,2,left
40.236,0.47151232521920805,1.0247792337063026,-0.2520400666108836,0.547508404366242,3.7954446354751705,-1.7036361658995045,-0.1858008622338904,0.06353167058257074,-0.05768277024554505,2,left
40.238,0.47182703766029316,1.026381872435542,-0.25245815170452246,0.5450686775599534,3.7875660416812797,-1.707655056018534,-0.1865170397149428,0.06137251830597424,-0.0566726698561095,2,left
40.239000000000004,0.47219420224868136,1.027970352555317,-0.25286420895441214,0.5432692695783701,3.7793583467387224,-1.7113335025041825,-0.18718834820231572,0.05923495147625315,-0.055624816809089726,2,left
40.24,0.47261002875003194,1.0295441566448706,-0.25325783030080085,0.5421135182004189,3.7708295027604426,-1.7146678313375838,-0.1878146984513144,0.057123162682931265,-0.054524436681723576,2,left
40.279,0.4730705533130648,1.0311027931938108,-0.25363870489784124,0.5416005592421587,3.761988696881361,-1.7176558007631044,-0.18839635151848655,0.05504114969650963,-0.053356714649344696,2,left
40.28,0.47357167776899256,1.0326457774080395,-0.2540066164776469,0.5417253952629272,3.7528463219171853,-1.7202966136677365,-0.18893391234410797,0.05299266249347825,-0.05210692923157095,2,left
40.292,0.47410920811411317,1.034172611348954,-0.25436143909209313,0.5424790089051347,3.743413935163801,-1.7225909260488201,-0.1894283198554247,0.05098115815718763,-0.05076059433601276,2,left
40.294000000000004,0.47467889106607075,1.0356827646062121,-0.25470313141165113,0.5438485208179589,3.7337042050888534,-1.7245408516443583,-0.1898808335939117,0.0490097634442751,-0.04930360848086605,2,left
40.295,0.47527644812144193,1.0371756565212256,-0.25503172978763505,0.5458173918078928,3.723730845618678,-1.7261499625260477,-0.190293016872068,0.04708124449993808,-0.04772240840464583,2,left
40.347,0.47589760696291195,1.038650640761269,-0.2553473402588013,0.5483656670739694,3.7135085363700164,-1.727423284416857,-0.19066671646646738,0.04519798303517533,-0.04600412334166564,2,left
40.349000000000004,0.47653813035192927,1.0401069928309885,-0.2556501296796928,0.5514702571707685,3.703052824739885,-1.7283672836268533,-0.1910040388523401,0.043361958449508575,-0.04413672717092541,2,left
40.371,0.4771938428910178,1.041543900915882,-0.25594031620969776,0.5551052485571009,3.692380004413279,-1.728989841462692,-0.19130732302567113,0.04157473563493269,-0.04210918710022083,2,left
40.372,0.4778606562392068,1.0429604602453786,-0.2562181594879305,0.5592422383768504,3.681506966200623,-1.7293002130025332,-0.19157911017340312,0.03983745809532693,-0.03991160738442821,2,left
40.373000000000005,0.4785345933816161,1.0443556709510917,-0.2564839508557998,0.5638506913365197,3.670451019551437,-1.7293089689943464,-0.1918221108408345,0.03815084556028927,-0.03753536479705448,2,left
40.374,0.47921181238046084,1.0457284392119484,-0.25673800396330687,0.5688983176573609,3.6592296852668955,-1.7290279207734536,-0.1920391704612436,0.03651519500057346,-0.034973231481843406,2,left
40.413000000000004,0.47988862982536806,1.0470775813477413,-0.2569806460358063,0.5743514680632217,3.6478604643232204,-1.7284700288092028,-0.19223323389664043,0.0349303842243732,-0.03221948190258427,2,left
40.414,0.4805615440600354,1.04840183044346,-0.2572122099901,0.5801755356905525,3.6363605951320848,-1.7276492964032848,-0.19240730924959723,0.033395877723302034,-0.02926998257407222,2,left
40.43,0.4812272581696111,1.049699844985943,-0.25743302747314967,0.5863353514327068,3.6247468156830207,-1.726580650568858,-0.1925644310550399,0.03191073474492615,-0.02612226428002318,2,left
40.431999999999995,0.4818827026134666,1.050970218842331,-0.2576434227618155,0.5927955626074036,3.613035142893104,-1.725279811611368,-0.1927076232428342,0.030473619802939847,-0.022775576359285683,2,left
40.433,0.4825250572737255,1.05221149179698,-0.25784370732047684,0.5995209910442781,3.6012406742611143,-1.7237631522959858,-0.192839862847348,0.02908281615968207,-0.019230922025025937,2,left
40.48,0.48315177257028785,1.053422159849694,-0.2580341747013748,0.606476970720791,3.589377413738982,-1.7220475483697104,-0.19296404576534681,0.027736242995536734,-0.01549107333871516,2,left
40.482,0.48376058909291114,1.0546006845871247,-0.2582150954407936,0.6136296669293885,3.57745812459261,-1.7201502246084075,-0.19308295553831495,0.026431476800193428,-0.011560564802462054,2,left
40.498000000000005,0.4843495549289807,1.0557455012374022,-0.2583867117117924,0.6209463796143764,3.5654942129591376,-1.7180886019497537,-0.19319923554985843,0.02516577719741217,-0.007445665148775475,2,left
40.5,0.4849170398705239,1.0568550254432476,-0.258549231775623,0.6283958328628274,3.553495644872296,-1.7158801498811669,-0.19331536469064736,0.023936117135258037,-0.003154327414759228,2,left
40.501,0.48546174618336746,1.0579276591095088,-0.2587028246179092,0.635948451355764,3.541470897843911,-1.713542245746895,-0.19343363641354652,0.022739216837443628,0.0013038817133860501,2,left
40.501,0.4859827161147201,1.0589617957965953,-0.2588476153367162,0.6435766237375796,3.5294269466375208,-1.711092041229292,-0.19355614098502774,0.021571580010617417,0.005917870804475952,2,left
40.546,0.4864793362730273,1.0599558261740987,-0.25898368179572284,0.6512549517613354,3.5173692800991905,-1.7085463358938537,-0.19368475067420748,0.02042953030203243,0.010675127523535066,2,left
40.547,0.4869513387246501,1.0609081441284944,-0.25911105289628117,0.658960482322321,3.5053019412598814,-1.7059214575310389,-0.19382110768560737,0.01930924650262991,0.015561834929970934,2,left
40.576,0.48739879868456065,1.0618171542201924,-0.25922970868479445,0.66667291852274,3.4932275803399393,-1.7032331489408115,-0.1939666147582961,0.018206795891567876,0.020562999248804337,2,left
40.577,0.48782212909835493,1.0626812812497861,-0.2593395824531054,0.6743748068802804,3.4811475128699456,-1.7004964608923259,-0.1941224283932093,0.017118165636884633,0.02566258873378016,2,left
40.578,0.4882220728416333,1.0634989824540575,-0.2594405649434215,0.6820516995389616,3.469061779792822,-1.697725651147134,-0.19428945455528857,0.016039292357551988,0.030843682264643527,2,left
40.579,0.488599693335373,1.0642687617777815,-0.259532510520703,0.6896922909459371,3.4569692089963477,-1.6949340895924765,-0.1944683464664748,0.014966090114946604,0.03608862426361044,2,left
40.611999999999995,0.48895636415610333,1.06498918396479,-0.2596152446911195,0.6972885268293947,3.444867478244915,-1.6921341699064707,-0.19465950397749157,0.013894477192208658,0.04137918137324201,2,left
40.635,0.48929375804859965,1.0656588856434386,-0.259688572019609,0.7048356800322138,3.432753179484623,-1.689337228821374,-0.1948630741345149,0.012820401929583775,0.04669669748126483,2,left
40.637,0.4896138355477095,1.0662765824050613,-0.2597522837103852,0.7123323863003312,3.4206218848269643,-1.686553474617173,-0.19507895278748993,0.011739867721138003,0.052022245735644436,2,left
40.638000000000005,0.4899188328290646,1.06684107348507,-0.25980616469858403,0.719780636781372,3.408468216154568,-1.6837919271601531,-0.19530678723713388,0.010648957233048555,0.05733677718289316,2,left
40.638000000000005,0.49021124778468034,1.0673512465136963,-0.25985000055282975,0.7271857305710586,3.3962859232412748,-1.681060373029479,-0.195545980053903,0.009543856111634101,0.06262126512350803,2,left
40.68,0.4904938233988343,1.0678060836586087,-0.25988358456716787,0.7345561943015031,3.3840679769169966,-1.6783653399572953,-0.1957956944012767,0.008420876856156726,0.06785684289644787,2,left
40.681999999999995,0.49076952822885406,1.0682046691036884,-0.259906725313955,0.7419036742955769,3.371806682165993,-1.6757120936958299,-0.19605486130632313,0.007276483757446361,0.07302493203674401,2,left
40.711999999999996,0.4910415344557722,1.0685461974257267,-0.2599192547419267,0.7492428035097642,3.359493813092964,-1.6731046585522318,-0.19632218920996472,0.0061073195773097815,0.07810735851803625,2,left
40.714,0.49131319402243906,1.06882998261454,-0.25992103652258386,0.756591043653551,3.3471207700500925,-1.670545861791506,-0.1965961759303525,0.004910234236748414,0.08308645617369505,2,left
40.715,0.4915880129399222,1.0690554675454929,-0.2599119739744817,0.7639685026599372,3.334678758173231,-1.6680374015135178,-0.1968751230622063,0.003682315554899831,0.08794515715778055,2,left
40.716,0.49186962354407254,1.0692222337109913,-0.2598920168875581,0.7713977284488851,3.3221589829925215,-1.6655799356780971,-0.19715715280014667,0.0024209219626977235,0.09266706956663406,2,left
40.748000000000005,0.4921617545802861,1.0693300110265818,-0.25986116684220495,0.7789034813065912,3.3095528523335807,-1.6631731864746873,-0.19744022711036943,0.001123716751966592,0.09723654287276529,2,left
40.772,0.49246819916057843,1.0693786874546884,-0.2598194808897252,0.7865124879707991,3.296852170142398,-1.6608160523010458,-0.19772216906037843,-0.00021129723317841117,0.10163872277844971,2,left
40.774,0.49279278072070887,1.0693683180425888,-0.25976707365987717,0.7942531797452834,3.284049311449657,-1.6585067215477316,-0.19800068605280693,-0.0015857439190504054,0.10585959762722323,2,left
40.774,0.49313931724617555,1.0692991327739885,-0.259704118078994,0.8021554155858158,3.271137374138932,-1.6562427858629756,-0.19827339473212238,-0.003000842438987937,0.10988603807846263,2,left
40.775999999999996,0.49351158419733054,1.0691715425488753,-0.2596308448921091,0.8102501903162526,3.258110307295706,-1.6540213524797889,-0.19853784724299506,-0.004457378162100938,0.11370583128667751,2,left
