time,gFx,gFy,gFz,ax,ay,az,wx,wy,wz,subject_number,foot
29.912,0.5287971977520968,0.8316108246014774,-0.25279075774785026,1.435074288904744,1.9002976675713354,-1.192289776322643,-0.10879552189557196,0.06301282178946375,0.2308484124264191,4,left
29.913,0.5280444827507698,0.8320434130365718,-0.2524895223228078,1.4390630442014143,1.9097584918651362,-1.1952496043939391,-0.10983574936620336,0.059278491222081,0.23442098776058673,4,left
29.914,0.5273570941859966,0.8324833350392475,-0.2521859675981638,1.4431999413631396,1.9197674160547769,-1.198233344040758,-0.11081226061516236,0.055506546587209736,0.2377792416499406,4,left
29.975,0.5267348862897178,0.8329331560355698,-0.2518810426715542,1.4475179076954696,1.9303035231817511,-1.2012283438016582,-0.11172215763276226,0.051700251194001276,0.24092460343679192,4,left
29.978,0.526177339292697,0.8333955947776897,-0.2515757603449905,1.4520473516785806,1.9413475460810408,-1.2042224775926915,-0.11256266556863925,0.04786326377672429,0.24385923471969767,4,left
29.979,0.5256835654454416,0.8338735155038067,-0.2512711969397601,1.4568158015926063,1.9528819643030486,-1.2072041611145046,-0.11333114093969218,0.04399961550004104,0.24658603465718246,4,left
29.986,0.5252523194150366,0.8343699200434,-0.2509684920911262,1.4618475797423025,1.9648910764470644,-1.2101623675300288,-0.11402507903670872,0.04011368336520398,0.24910864151251386,4,left
29.988000000000003,0.524882012059368,0.8348879396342853,-0.250668848353737,1.4671635129767642,1.9773610478630972,-1.2130866425558857,-0.1146421206263215,0.03621016058605579,0.25143142926283096,4,left
29.989,0.5245707266402406,0.8354308262780556,-0.2503735304575275,1.472780679811776,1.9902799340499828,-1.2159671190108865,-0.11518005822491857,0.03229402458489382,0.25355949745127615,4,left
30.04,0.5243162369151985,0.8360019434711737,-0.2500838641029495,1.4787121959322493,2.0036376815530983,-1.218794531039149,-0.11563684231609202,0.028370503403475838,0.25549865195843313,4,left
30.043000000000003,0.5241160269853256,0.8366047560230843,-0.2498012342213523,1.4849670424974628,2.017426110819624,-1.2215602285388243,-0.1160105877905887,0.024445041122786778,0.2572553749515385,4,left
30.044,0.5239673131423546,0.8372428183285947,-0.2495270826198798,1.4915499431418016,2.031638886944642,-1.2242561925015023,-0.11629958072118285,0.020523262522256645,0.2588367833183072,4,left
30.045,0.523867068159307,0.8379197601199914,-0.2492629049244869,1.4984612940954583,2.0462714827685686,-1.2268750517930198,-0.11650228546042911,0.01661093698324399,0.2602505755428333,4,left
30.045,0.5238120483915953,0.8386392689118887,-0.24901024679438535,1.505697148895629,2.0613211360379675,-1.229410101457236,-0.11661735187139231,0.012713941480034234,0.26150496743917795,4,left
30.081,0.523798823771244,0.8394050690523659,-0.24877069946716104,1.5132492561384912,2.076786800386836,-1.2318553217729518,-0.11664362221474596,0.008838222283383967,0.262608617773577,4,left
30.107,0.523823810373308,0.8402208979167273,-0.24854589470419391,1.5211051456356945,2.092669088734093,-1.2342053960404777,-0.11658013705623903,0.004989754880431494,0.26357054514784756,4,left
30.109,0.5238833046770472,0.8410904801172188,-0.24833749912935132,1.5292482567879793,2.108970207212083,-1.2364557243971215,-0.11642613971742428,0.001174501736076403,0.2644000371739873,4,left
30.122,0.5239735181664712,0.8420175007705119,-0.2481472078488711,1.537658104523086,2.1256938778755763,-1.238602431632121,-0.11618107907874757,-0.002601632260778939,0.26510655235370806,4,left
30.124000000000002,0.5240906109318948,0.8430055788273284,-0.2479767371552341,1.5463104808477592,2.1428452475664894,-1.240642368162456,-0.1158446106930742,-0.006332846545857885,0.26569961488337107,4,left
30.125,0.5242307234144068,0.8440582412467506,-0.247827816108955,1.5551776914510764,2.1604307776550375,-1.2425731039583159,-0.11541659614974316,-0.010013492900604385,0.2661887032822941,4,left
30.166,0.5243900059667638,0.8451788985813367,-0.24770217689102975,1.5642288270155769,2.178458107732448,-1.2443929153146804,-0.11489710053978043,-0.013638122423201714,0.26658313508539416,4,left
30.168000000000003,0.5245646462697485,0.8463708224654706,-0.24760154397842687,1.5734300689852825,2.196935888074817,-1.2461007643925945,-0.11428638782308613,-0.01720152834905123,0.2668919505871093,4,left
30.184,0.5247508948848821,0.8476371254692096,-0.24752762235688922,1.5827450297057282,2.2158735788367667,-1.247696271502766,-0.11358491394770182,-0.020698782397895077,0.2671237978769387,4,left
30.186,0.5249450893777264,0.8489807436035599,-0.24748208513291434,1.5921351261974208,2.2352812163999665,-1.2491796800961523,-0.11279331766020084,-0.024125263724633132,0.2672868200633192,4,left
30.186999999999998,0.5251436774797507,0.8504044215090979,-0.24746656099707479,1.601559983112337,2.255169151261082,-1.2505518142560015,-0.11191240902570528,-0.027476680432189465,0.2673885450592977,4,left
30.24,0.5253432396789602,0.8519107002299093,-0.24748262196368284,1.610977853708251,2.275547768342202,-1.251814028169808,-0.11094315583652502,-0.030749084278591417,0.26743577927043466,4,left
30.241,0.5255405115493403,0.8535019074466221,-0.24753177174494326,1.6203460439452804,2.2964272042177063,-1.2529681468839693,-0.1098866683596694,-0.03393888014341141,0.26743450853480766,4,left
30.241999999999997,0.525732406117634,0.8551801499283498,-0.24761543512781006,1.629621328539756,2.3178170721433573,-1.2540163978189691,-0.10874418302406685,-0.03704283233694521,0.26738981078126545,4,left
30.259,0.5259160364787355,0.8569473076799926,-0.24773494866963355,1.6387603545225944,2.3397261995643204,-1.2549613330460558,-0.1075170454972334,-0.040058069316835566,0.26730578375546327,4,left
30.261,0.5260887386005815,0.8588050289704784,-0.24789155274936878,1.6477200315646572,2.362162380604102,-1.2558057435403667,-0.10620669337498478,-0.04298208738231116,0.2671854892179469,4,left
30.261,0.5262480939955414,0.8607547254021257,-0.2480863847057192,1.6564579090501415,2.3851321478960883,-1.2565525685302745,-0.10481463878478986,-0.045812753091961735,0.2670309142244959,4,left
30.308000000000003,0.5263919517394184,0.8627975664273752,-0.24832047267232288,1.6649325398634711,2.4086405695542594,-1.2572048041013522,-0.1033424515835151,-0.04854830349701225,0.2668429504560858,4,left
30.309,0.5265184489537331,0.864934472965004,-0.24859472967718493,1.6731038308698216,2.4326910756477553,-1.2577654141741483,-0.10179174405816106,-0.051187342976232904,0.26662139288825537,4,left
30.32,0.5266260285067086,0.8671661099144038,-0.24890994760364918,1.6809333800960882,2.4572853159653754,-1.2582372451046304,-0.10016415776618365,-0.05372883583704824,0.26636495861515774,4,left
30.320999999999998,0.5267134529185961,0.8694928775407187,-0.2492667908842747,1.688384800633519,2.482423049424237,-1.2586229441169574,-0.09846135252278172,-0.0561720947627976,0.2660713253035537,4,left
30.322,0.5267798142378207,0.8719149019467674,-0.24966579022389865,1.6954240312170081,2.508102064786831,-1.258924881680656,-0.09668499692106568,-0.058516766149548295,0.2657371870625135,4,left
30.375,0.5268245402633779,0.8744320250896445,-0.2501073369318009,1.7020196330930737,2.534318130328006,-1.2591450784963012,-0.09483675950676465,-0.06076281380234146,0.26535832469061876,4,left
30.377,0.5268473974847742,0.8770437949744908,-0.25059167842822433,1.7081430721718855,2.5610649664512892,-1.2592851387476618,-0.09291829994733183,-0.06291050209482421,0.2649296880217143,4,left
30.396,0.5268484907079961,0.8797494567411848,-0.2511189152226521,1.7137689846254895,2.5883342331892893,-1.259346191773109,-0.09093125992824717,-0.06496037903777752,0.2644454894569994,4,left
30.398000000000003,0.5268282590488943,0.8825479453423803,-0.25168899936058764,1.7188754219848907,2.616115526338995,-1.259328843470528,-0.08887725374321173,-0.0669132593007604,0.2638993083109345,4,left
30.398000000000003,0.526787468079407,0.8854378803697309,-0.25230173421439295,1.7234440679924852,2.644396379250478,-1.2592331372407544,-0.08675785866682564,-0.06877020698087184,0.26328420465239927,4,left
30.399,0.5267271983232664,0.8884175633589951,-0.25295677551990453,1.727460417356691,2.6731622691035315,-1.259058523436016,-0.08457460533929505,-0.07053251759409764,0.2625928393464013,4,left
30.441,0.5266488310319982,0.8914849773294676,-0.2536536334908963,1.7309139090727574,2.7023966271228224,-1.2588038364552172,-0.08232896847093736,-0.07220169858762346,0.2618175959036872,4,left
30.443,0.5265540331402747,0.8946377870242324,-0.25439167560328607,1.7337980113825815,2.7320808525611047,-1.2584672791425353,-0.08002235809564967,-0.07377944784802815,0.2609507008431766,4,left
30.455,0.5264447433848362,0.8978733380653499,-0.2551701297571803,1.7361102578950067,2.762194330491135,-1.2580464144316232,-0.07765611150330634,-0.07526763001389217,0.2599843411078701,4,left
30.456,0.5263231597433049,0.9011886565235191,-0.2559880884501256,1.7378522353110326,2.792714453814184,-1.257538164313899,-0.07523148611313073,-0.07666825065608916,0.2589107774722667,4,left
30.456999999999997,0.5261917260456234,0.9045804544181102,-0.2568445154128097,1.7390295253693562,2.823616651514015,-1.256938816605273,-0.07274965391344124,-0.07798342856487363,0.25772245183836745,4,left
30.506999999999998,0.52605311512514,0.9080451456504602,-0.2577382554912602,1.7396516075367405,2.854874428101908,-1.2562440406983997,-0.07021169830367562,-0.0792153664608131,0.25641208561691553,4,left
30.509,0.5259102071682129,0.911578871540495,-0.25866804685478506,1.7397317311387,2.886459420819172,-1.2554489138833833,-0.06761861396375422,-0.08036632036816968,0.25497276709035593,4,left
30.533,0.5257660636110288,0.9151775315532591,-0.25963253370405787,1.7392867634517477,2.9183414795449854,-1.2545479594235167,-0.06497130999646462,-0.08143856774834432,0.25339802691391794,4,left
30.535,0.5256238978994505,0.9188368155271057,-0.2606302781035571,1.738337016366167,2.9504887714429375,-1.2535351968593587,-0.062270616341328695,-0.08243437448807887,0.251681901715115,4,left
30.535999999999998,0.5254870440133924,0.9225522361099823,-0.26165977024896336,1.7369060520540949,2.982867910760886,-1.2524042046180797,-0.059517293234195336,-0.083355961198802,0.24981898641211644,4,left
30.535999999999998,0.5253589227121994,0.9263191613366301,-0.2627194367953257,1.7350204677800778,3.0154441134424053,-1.2511481947419332,-0.05671204315918079,-0.0842054699628916,0.24780447680796544,4,left
30.574,0.5252430053739715,0.9301328471870759,-0.26380764721651506,1.732709660681821,3.0481813740426054,-1.2497600986316808,-0.05385552455750078,-0.08498493303996911,0.2456342045377146,4,left
30.576,0.5251427757986319,0.9339884695921931,-0.26492271854914057,1.7300055745930463,3.0810426585425374,-1.2482326610486028,-0.05094836673951177,-0.08569624466856503,0.2433046659246279,4,left
30.59,0.5250616905124896,0.9378811551139745,-0.2660629189466214,1.7269424316710773,3.113990104490726,-1.2465585387006515,-0.04799118577359433,-0.08634113641867577,0.24081304536425685,4,left
30.592,0.5250031381213396,0.9418060093950715,-0.2672264703571625,1.7235564509300754,3.146985222124469,-1.24473040046322,-0.044984601307288874,-0.08692115617296722,0.2381572333342495,4,left
30.593000000000004,0.5249703984888894,0.9457581425004178,-0.26841155060187594,1.7198855546917404,3.179989094310255,-1.2427410269743888,-0.041929254270180905,-0.0874376507363607,0.23533583911033204,4,left
30.64,0.5249666026675841,0.9497326905188829,-0.26961629512351754,1.7159690635559455,3.2129625758259026,-1.240583406530062,-0.0388258251971245,-0.08789175206198724,0.2323481987041294,4,left
30.642,0.5249946943770945,0.9537248331803201,-0.2708387986488998,1.7118473805120344,3.2458664932274814,-1.2382508234254315,-0.03567505253087522,-0.08828436706050466,0.22919437932226336,4,left
30.668000000000003,0.5250573937326852,0.9577298076970497,-0.2720771170342251,1.7075616646531222,3.2786618462570427,-1.235736935850815,-0.032477750052299255,-0.08861617094803025,0.22587518208138374,4,left
30.67,0.5251571639685115,0.9617429195045581,-0.2733292696116073,1.7031534946713438,3.3113100112303027,-1.2330358421811682,-0.02923482279695182,-0.08888760409932116,0.22239214427762163,4,left
30.671,0.5252961817514868,0.965759550870488,-0.27459324229994464,1.69866452215382,3.3437729465561383,-1.2301421354601412,-0.025947281209115467,-0.08909887245867279,0.21874754171932384,4,left
30.671999999999997,0.5254763112808275,0.9697751682677621,-0.2758669915948355,1.6941361149226346,3.376013399982379,-1.2270509461682102,-0.022616253560307303,-0.08924995189844372,0.21494439117121178,4,left
30.708000000000002,0.5256990820622304,0.9737853290707549,-0.2771484494252267,1.6896089919393433,3.407995114663738,-1.223757973847713,-0.019242996818803197,-0.0893405975041535,0.21098645282630468,4,left
30.728,0.5259656702391913,0.9777856878601674,-0.27843552877550287,1.6851228535939546,3.439683026650383,-1.2202595090279549,-0.015828906219916183,-0.08937035896753892,0.2068782325712638,4,left
30.729,0.526276883543798,0.9817720025733763,-0.2797261298768605,1.6807160124757823,3.4710434438968023,-1.2165524473768252,-0.012375523711501604,-0.0893386023255143,0.2026249832065696,4,left
30.73,0.5266331501484195,0.985740140793873,-0.28101814672346537,1.6764250284459936,3.502044199388092,-1.212634297520944,-0.008884545313788572,-0.0892445365849278,0.19823270269567894,4,left
30.730999999999998,0.5270345118544383,0.9896860864594361,-0.28230947372860343,1.672284350135792,3.5326547757377034,-1.2085031833008781,-0.005357827357380534,-0.08908724282956368,0.19370812691308817,4,left
30.773000000000003,0.5274806219663978,0.9936059471335129,-0.2835980124319781,1.6683259667350454,3.56284640241278,-1.204157841723486,-0.0017973915599501433,-0.08886570395766376,0.18905871499406762,4,left
30.775,0.5279707477830443,0.9974959618077339,-0.2848816782069673,1.6645790791138142,3.592592129590406,-1.1995976195400186,0.0017945710802192416,-0.08857883430904226,0.18429262651945205,4,left
30.805999999999997,0.5285037770884551,1.0013525090738598,-0.28615840689537075,1.661069802337876,3.6218668839517836,-1.1948224723579524,0.00541569758594296,-0.08822550905789775,0.17941869039683656,4,left
30.808000000000003,0.5290782277115681,1.0051721153708608,-0.2874261612563552,1.6578209086216444,3.6506475104153457,-1.1898329692139469,0.00906345150831878,-0.0878045933706835,0.1744463654248393,4,left
30.809,0.5296922594016142,1.0089514627338037,-0.28868293707744946,1.65485161432965,3.6789128014599517,-1.1846303037707886,0.012735122631182975,-0.08731497138218558,0.16938569248697072,4,left
30.81,0.5303436877868574,1.0126873951077524,-0.2899267687624601,1.6521774117785628,3.7066435145823027,-1.1792163121628823,0.0164278277721418,-0.08675557531264723,0.16424723812240402,4,left
30.83,0.5310300006013394,1.01637692217439,-0.2911557342134684,1.6498099467806504,3.7338223791660092,-1.1735934965297101,0.020138512412916577,-0.0861254155343674,0.15904202886257396,4,left
30.865,0.5317483765552808,1.020017219865645,-0.29236795890734896,1.6477569442956292,3.7604340958304947,-1.1677650518566862,0.02386395282776044,-0.08542361255772576,0.15378147560748545,4,left
30.866999999999997,0.5324957073865341,1.0236056269827234,-0.2935616191961375,1.6460221849698244,3.7864653320052257,-1.1617348928966251,0.027600758613992343,-0.08464943109571392,0.14847728793504927,4,left
30.866999999999997,0.5332686236689106,1.0271396375275315,-0.2947349449414399,1.6446055326470586,3.8119047148934815,-1.1555076784476632,0.0313453759521547,-0.08380231490664031,0.14314137935195412,4,left
30.868000000000002,0.5340635245220384,1.030616888879343,-0.29588622160864847,1.6435030080849273,3.8367428183447627,-1.149088831168683,0.03509409215857063,-0.08288192030379879,0.137785765114084,4,left
30.906999999999996,0.5348766104900714,1.0340351468435818,-0.29701379192349986,1.6427069014156617,3.86097213757355,-1.1424845516159394,0.03884304196897554,-0.08188814670749923,0.13242245386343188,4,left
30.908,0.5357039180677022,1.0373922891842542,-0.29811605710121974,1.6422059176368622,3.884587047045347,-1.1357018256270424,0.042588215735151355,-0.08082116358807549,0.12706333357107105,4,left
30.941999999999997,0.5365413541823235,1.0406862891111355,-0.29919147752121444,1.6419853526881167,3.9075837397513076,-1.1287484247230466,0.04632546957385389,-0.07968143368906809,0.12172005185496954,4,left
30.943,0.5373847293993874,1.0439151997478502,-0.30023857267054804,1.642027298791147,3.929960147929169,-1.1216328996419513,0.050050537472699,-0.07846973252620977,0.11640389088391508,4,left
30.944000000000003,0.5382297892642212,1.0470771402835943,-0.30125592025413933,1.6423108767036878,3.9517158460606066,-1.1143645674574745,0.053759045327183855,-0.07718716415004712,0.11112563821207884,4,left
30.944000000000003,0.5390722436595111,1.0501702842890266,-0.3022421544707847,1.64281249175533,3.9728519372274973,-1.106953492894246,0.05744652682813675,-0.07583517314616797,0.1058954569286377,4,left
30.974,0.5399077943201717,1.053192850537837,-0.3031959635381466,1.6435061113170764,3.9933709236536648,-1.0994104642923275,0.061108441088375334,-0.07441555283921329,0.10072275964020032,4,left
31.000999999999998,0.5407321608329041,1.056143096615707,-0.3041160866563962,1.644363562766043,4.013276561799541,-1.0917469643895303,0.06474019192778357,-0.07293044967423438,0.09561608967064159,4,left
31.003,0.541541105596041,1.059019315481831,-0.30500131073722253,1.6453548517901384,4.032573702121283,-1.0839751359318217,0.06833714874543267,-0.0713823638322289,0.0905830110006525,4,left
31.004,0.5423304582803773,1.061819834955844,-0.30585046732747506,1.6464485010346528,4.051268113553295,-1.0761077420901735,0.07189466871085187,-0.06977414649316344,0.08563000822329642,4,left
31.004,0.5430961402976648,1.064543019953543,-0.3066624301676787,1.647611908508729,4.069366293451713,-1.0681581216323224,0.07540811960410174,-0.06810899478946776,0.08076239916212373,4,left
31.041999999999998,0.5438341897057029,1.0671872772159157,-0.3074361137712148,1.6488117222479743,4.086875267136406,-1.0601401386498726,0.07887290240727897,-0.06639044584188769,0.07598426368567512,4,left
31.043000000000003,0.5445407868808356,1.0697510621721558,-0.30817047330783387,1.6500142224699488,4.10380238729052,-1.0520681263750098,0.08228447297689215,-0.06462237092032956,0.07129839136536247,4,left
31.081,0.5452122810649156,1.0722328873411382,-0.30886450584804653,1.6511856995373737,4.120155146876618,-1.0439568244731303,0.08563836253488336,-0.06280897014381873,0.06670624902723497,4,left
31.083000000000002,0.545845217433321,1.0746313313657403,-0.30951725264188484,1.6522928189661037,4.135941015825048,-1.0358213093452193,0.0889301969324052,-0.060954767706366576,0.062207968365444774,4,left
31.084,0.5464363637667047,1.0769450476717428,-0.3101278017510932,1.6533029699747164,4.151167305625279,-1.027676917239557,0.09215571463344652,-0.05906460715511495,0.057802353628677194,4,left
31.085,0.5469827354545289,1.0791727720074331,-0.3106952902860967,1.6541845971457934,4.165841062540951,-1.019539160397745,0.09531078327118891,-0.05714364554415637,0.05348690942816278,4,left
31.107,0.5474816175689776,1.0813133285489762,-0.31121890574855593,1.6549075161092344,4.179968989454331,-1.0114236378785548,0.0983914145775499,-0.05519734489684453,0.04925788873675758,4,left
31.138,0.5479305831414553,1.0833656346130378,-0.31169788640036644,1.6554432151364793,4.1935573957462005,-1.0033459450053084,0.10139377753842638,-0.05323145979977415,0.0451103611282388,4,left
31.139,0.5483275074593315,1.085328704262429,-0.3121315210216994,1.6557651433800502,4.2066121718898,-0.9953215857814018,0.10431420974952169,-0.051252020712688307,0.04103830101551693,4,left
31.14,0.5486705787613787,1.0872016512171196,-0.3125191486830635,1.6558489822981386,4.2191387806219565,-0.9873658894473428,0.10714922714229982,-0.04926531326059374,0.037034694358020114,4,left
31.141,0.5489583057709486,1.0889836915614162,-0.31286015917937865,1.6556728935324587,4.231142253919739,-0.9794939288623677,0.10989553251656468,-0.047277854377331605,0.0330916600220612,4,left
31.166,0.549189522145981,1.0906741469446204,-0.313153994741281,1.6552177376610857,4.242627187735253,-0.9717204379949768,0.11255002345855308,-0.04529636646144036,0.029200580710124328,4,left
31.168000000000003,0.5493633875658305,1.0922724491377556,-0.31340015351033973,1.6544672615343226,4.253597731293264,-0.9640597273113846,0.11510980008055892,-0.04332775041349942,0.025352239643290704,4,left
31.206,0.5494793854933131,1.09377814634295,-0.313598194781893,1.6534082536177424,4.264057570848902,-0.9565255971799439,0.11757217276112336,-0.04137905789921141,0.021536961463752818,4,left
31.206999999999997,0.5495373187581658,1.095190910504727,-0.3137477453440775,1.6520306661813469,4.274009910346344,-0.9491312513012825,0.11993466990323605,-0.03945746282026483,0.017744756835972354,4,left
31.208000000000002,0.5495373049277156,1.0965105438677787,-0.31384850593886804,1.650327701433377,4.283457455029753,-0.9418892152222667,0.1221950456056969,-0.03757023156369836,0.013965469195629611,4,left
31.208000000000002,0.5494797731234548,1.0977369827840509,-0.3139002572319948,1.6482958577299958,4.292402406062849,-0.9348112666856324,0.12435128697421144,-0.03572469096508826,0.010188919785942132,4,left
31.241,0.5493654626040736,1.0988702977649059,-0.3139028654324101,1.6459349329575914,4.300846472205458,-0.9279083828741641,0.12640162070500768,-0.03392819256792602,0.006405045837849279,4,left
31.284000000000002,0.5491954214064018,1.099910691125987,-0.3138562881464779,1.6432479845791703,4.308790900552447,-0.9211907064478271,0.12834451866696814,-0.0321880721146845,0.0026040280337434793,4,left
31.285999999999998,0.5489710018466765,1.1008584951309395,-0.3137605806037361,1.6402412500822454,4.316236524184288,-0.9146675300151264,0.13017870234485313,-0.030511603967003666,-0.0012235942759197692,4,left
31.285999999999998,0.5486938502281311,1.1017141723692507,-0.3136159015803762,1.6369240376627558,4.323183820309032,-0.9083472973261443,0.13190314594230632,-0.02890595113737662,-0.005086820250779863,4,left
31.287,0.5483658902417489,1.1024783181522033,-0.3134225183552249,1.6333086002590573,4.32963297032592,-0.9022376189110005,0.13351707767898077,-0.027378112822683695,-0.008994096844752214,4,left
31.31,0.5479893014767091,1.1031516642382924,-0.3131808107922802,1.629410002768685,4.3355839153875495,-0.8963453004522745,0.13501997865873155,-0.025934871961881725,-0.01295323980766832,4,left
31.311999999999998,0.547566494869252,1.1037350836182227,-0.3128912749637361,1.6252459863749056,4.341036404902767,-0.8906763831961584,0.1364115788425866,-0.024582744708581815,-0.016971366115806474,4,left
31.33,0.5471000859566221,1.1042295963521753,-0.3125545262941451,1.62083683062879,4.345990037569193,-0.8852361962719547,0.1376918499426349,-0.023327932572273488,-0.021054837722680728,4,left
31.342,0.5465928658797619,1.104636376358613,-0.3121713018163135,1.6162052128981441,4.350444295257684,-0.8800294206631339,0.138860995209733,-0.022176277350418553,-0.02520921662149796,4,left
31.345,0.5460477699698607,1.1049567587645381,-0.31174246119699145,1.6113760629063218,4.354398571595755,-0.8750601633744677,0.13991943616086125,-0.02113321885522829,-0.029439231111042328,4,left
31.346,0.5454678439128002,1.1051922472891917,-0.3112689863904771,1.6063764066856727,4.357852199842522,-0.8703320381815867,0.14086779650081355,-0.0202037554776392,-0.033748752557944836,4,left
31.374000000000002,0.5448562075824275,1.1053445211624122,-0.3107519798932875,1.601235192382205,4.360804486172439,-0.8658482481506413,0.14170688386909272,-0.019392407700458972,-0.03814078087032052,4,left
31.383000000000003,0.5442160168996171,1.1054154409508237,-0.3101926616705891,1.5959830922350158,4.363254752957542,-0.8616116663157629,0.14243767025173723,-0.01870318471138829,-0.04261743629898365,4,left
31.421999999999997,0.5435504244902767,1.1054070524340198,-0.30959236490497477,1.5906522784511397,4.365202393889459,-0.8576249130615384,0.14306127171550126,-0.018139554269970187,-0.04717995572315126,4,left
31.423000000000002,0.5428625401956538,1.1053215877469014,-0.30895253074096407,1.5852761725836002,4.366646941254878,-0.8538904299577564,0.14357892788090523,-0.0177044161209142,-0.051828692363388,4,left
31.424,0.5421553924928871,1.1051614634662152,-0.30827470219643205,1.5798891685420717,4.367588145132864,-0.850410549892966,0.14399198158584142,-0.01740007958116242,-0.056563117937147814,4,left
31.425,0.5414318917269304,1.1049292758373224,-0.30756051741695456,1.5745263300874381,4.368026063087649,-0.8471875626476371,0.14430185928519354,-0.01722824612795796,-0.06138182609974018,4,left
31.441,0.5406947958862728,1.1046277936400712,-0.3068117024698669,1.5692230649612133,4.367961156781114,-0.8442237737767961,0.14451005259570887,-0.017189997608325822,-0.06628253630636462,4,left
31.48,0.5399466794801852,1.104259949307254,-0.3060300639447832,1.5640147785228706,4.36739439073445,-0.841521553966276,0.14461810115041202,-0.017285790317757545,-0.071262097757727,4,left
31.480999999999998,0.5391899058306323,1.103828828958706,-0.30521748174399915,1.5589365090460787,4.366327329660344,-0.8390833767339166,0.1446275767926345,-0.017515454995295734,-0.07631649340811833,4,left
31.482,0.5384266028033653,1.1033376619842923,-0.30437590247923796,1.5540225455252206,4.364762232933515,-0.8369118436194511,0.14454006912224615,-0.017878202772371836,-0.08144084419136587,4,left
31.483,0.5376586418583746,1.102789810665175,-0.3035073337118102,1.5493060287278908,4.362702145606769,-0.8350096967607811,0.1443571724243639,-0.0183726371693275,-0.0866294138322993,4,left
31.506999999999998,0.5368876204382959,1.102188760159495,-0.3026138389735884,1.5448185391158191,4.3601509838541155,-0.8333798191301929,0.14408047402051744,-0.018996772265151868,-0.09187561472936963,4,left
31.558000000000003,0.5361148479988741,1.1015381090591418,-0.3016975333283366,1.540589681053266,4.357113609914189,-0.8320252233419336,0.1437115440719854,-0.01974805713512937,-0.09717201527647552,4,left
31.56,0.5353413361903951,1.1008415606121082,-0.3007605792714109,1.536646677456744,4.35359589167402,-0.83094903125851,0.14325192684002322,-0.020623406466218856,-0.1025103489315527,4,left
31.561,0.5345677936935153,1.1001029146108843,-0.29980518288701846,1.5330139890759633,4.349604747090526,-0.8301544483365546,0.14270313336373663,-0.02161923658384996,-0.10788152597849178,4,left
31.561999999999998,0.5337946259332622,1.0993260599107266,-0.29883359024632977,1.529712968844641,4.345148178649831,-0.8296447373144542,0.14206663545341486,-0.022731504956424897,-0.11327565026746822,4,left
31.563000000000002,0.5330219393790032,1.0985149675199217,-0.29784808402765384,1.5267615570063775,4.340235302994923,-0.8294231945295608,0.14134386086316816,-0.023955750598881553,-0.1186820439755147,4,left
31.585,0.5322495496302517,1.097673684125225,-0.29685098031650664,1.5241740190493462,4.334876377907449,-0.8294931301603661,0.14053618954016645,-0.025287133442306577,-0.12408928267263078,4,left
31.616999999999997,0.5314769923714849,1.0968063257372174,-0.2958446255196546,1.5219607267810367,4.329082826997094,-0.8298578526084599,0.13964495090820214,-0.02672047189843879,-0.12948524161685704,4,left
31.62,0.5307035366777249,1.0959170708022608,-0.29483139327832447,1.5201279825346043,4.322867262084446,-0.8305206570196445,0.13867142217676226,-0.02825027849351187,-0.1348571534451459,4,left
31.621,0.5299282007288737,1.095010151684263,-0.29381368117552825,1.5186778864994162,4.31624350326197,-0.8314848179444094,0.13761682766997466,-0.029870793647903102,-0.14019167725892875,4,left
31.623,0.5291497703673763,1.0940898432226467,-0.29279390697802976,1.5176082471989305,4.309226596593598,-0.8327535860412834,0.13648233915296876,-0.0315760180416134,-0.14547497902020493,4,left
31.64,0.5283668209594604,1.093160447452808,-0.2917745042176665,1.5169125352875705,4.301832829297821,-0.8343301882397138,0.13526907710309977,-0.03335974465975928,-0.15069282302443626,4,left
31.695999999999998,0.5275777426052507,1.0922262744652211,-0.2907579170546762,1.516579881104708,4.29407974205201,-0.8362178299021114,0.13397811285666728,-0.035215591975783854,-0.1558306741333821,4,left
31.699,0.5267807679998306,1.0912916203715837,-0.28974659446786244,1.5165951165723857,4.285986137940222,-0.8384196970378548,0.13261047158654016,-0.03713703926494476,-0.16087381041472845,4,left
31.7,0.5259740017023473,1.090360743830576,-0.2887429838261932,1.5169388617638278,4.277572087208139,-0.8409389570589929,0.13116713613785294,-0.0391174638763548,-0.16580744538877978,4,left
31.701,0.5251554496474623,1.0894378422694815,-0.28774952383839236,1.517587655639335,4.2688589248344035,-0.8437787571878537,0.12964905184112835,-0.04115017900966077,-0.17061685809273092,4,left
31.701,0.5243230481471932,1.0885270283391586,-0.2867686368121759,1.5185141292807256,4.25986923379424,-0.8469422196504565,0.1280571324674028,-0.04322846995935224,-0.17528752859350272,4,left
31.753,0.5234746918705317,1.08763230692898,-0.28580272013294944,1.51968721936083,4.2506268045538445,-0.8504324326297721,0.12639226744758833,-0.04534562730049015,-0.17980527717568034,4,left
31.756,0.5226082603908909,1.0867575532661133,-0.28485413693734474,1.5210724201515198,4.241156563692532,-0.8542524362120993,0.1246553303858349,-0.047494976468705805,-0.1841564062623019,4,left
31.756999999999998,0.5217216431219855,1.0859064928232176,-0.2839252060917802,1.5226320733935341,4.231484468795647,-0.8584052030256928,0.122847188772176,-0.0496699039969793,-0.18832784351673865,4,left
31.759,0.5208127627518436,1.08508268368503,-0.2830181916917859,1.5243256959181766,4.221637369119884,-0.8628936135300157,0.1209687146432503,-0.05186388131196194,-0.19230728252368434,4,left
31.76,0.5198795974756312,1.084289501735072,-0.28213529234250817,1.526110344420205,4.211642832584392,-0.8677204259169035,0.1190207958575424,-0.05407048729159868,-0.19608331624181694,4,left
31.773000000000003,0.5189202024313804,1.0835301287274424,-0.28127863050928925,1.5279410137588247,4.201528942543142,-0.8728882403374113,0.11700434773352372,-0.05628343048698142,-0.19964555962515818,4,left
31.831999999999997,0.5179327307950985,1.0828075431057276,-0.28045024225182474,1.5297710597228504,4.191324073018357,-0.8783994567218392,0.11492032494672831,-0.05849657137340072,-0.20298475997856644,4,left
31.835,0.5169154550194343,1.0821245132970214,-0.27965206769445106,1.5315526341734689,4.1810566539770395,-0.8842562252129297,0.11276973362692079,-0.06070394467020931,-0.2060928947057525,4,left
31.836,0.5158667886885708,1.081483593123614,-0.27888594263380595,1.5332371235010507,4.170754935329614,-0.890460388481683,0.11055364342864393,-0.06289978157688932,-0.20896325579139444,4,left
31.836,0.5147853093131469,1.0808871189481624,-0.278153591638195,1.5347755866030386,4.16044675354473,-0.8970134157847064,0.10827319901685536,-0.06507853153428833,-0.21159051935533227,4,left
31.838,0.5136697821005379,1.0803372081703213,-0.27745662280393535,1.5361191907594465,4.15015930407176,-0.903916329577699,0.10592963022507058,-0.0672348829875133,-0.2139707980589648,4,left
31.89,0.5125191844207466,1.079835758661264,-0.27679652409950145,1.5372196428509681,4.139918926142618,-0.9111696268215613,0.10352426032734287,-0.06936378275939842,-0.21610167470048844,4,left
31.892,0.511332730376491,1.0793844486482025,-0.27617466102846694,1.5380296126257786,4.129750908507681,-0.9187731980423348,0.1010585121966096,-0.07146045388184272,-0.21798221633787956,4,left
31.893,0.5101098945987248,1.078984736527015,-0.2755922752208287,1.538503146147615,4.119679321374502,-0.926726247588423,0.09853391230585487,-0.0735204118647091,-0.21961296883501316,4,left
31.894000000000002,0.5088504342296759,1.078637860179972,-0.2750504835922304,1.538596070125714,4.109726873902993,-0.9350272192157888,0.09595209256518152,-0.07553947940839023,-0.22099593183703747,4,left
31.895,0.5075544080815805,1.0783448355895005,-0.27455027790446535,1.5382663892534143,4.099914793324781,-0.9436737315140712,0.09331479004471387,-0.07751379953248423,-0.22213451424021502,4,left
31.969,0.5062221921978612,1.078106454760592,-0.27409252481052193,1.5374746776852053,4.09026272211145,-0.9526625263053736,0.09062384491809002,-0.07943984692506546,-0.22303347051975872,4,left
31.971999999999998,0.5048544914352945,1.077923283117097,-0.27367796662279187,1.5361844617835578,4.080788630126202,-0.9619894304236121,0.08788119747415017,-0.08131443701478348,-0.2236988188167446,4,left
31.971999999999998,0.5034523469434307,1.0777956566866125,-0.2733072230488307,1.5343625853557608,4.071508737178749,-0.9716493288144784,0.08508888532927535,-0.08313473210004253,-0.22413774198351655,4,left
31.973000000000003,0.5020171393494638,1.0777236796935048,-0.2729807940530724,1.5319795455203886,4.062437440175894,-0.9816361459121362,0.08224904168766989,-0.08489824403722912,-0.22435847248727916,4,left
31.974,0.5005505873068735,1.0777072235885432,-0.2726990638644861,1.529009790306115,4.053587240505728,-0.9919428330171596,0.07936389497713188,-0.0866028332935725,-0.22437016181049316,4,left
31.974,0.4990547412196964,1.0777459287388944,-0.2724623060096772,1.5254319744201652,4.044968669894863,-1.0025613607825448,0.07643576986975986,-0.0882467043460676,-0.22418273607624176,4,left
32.025999999999996,0.4975319724473853,1.0778392098143286,-0.27227068921855013,1.5212291725047038,4.036590214989438,-1.0134827167956155,0.07346708958060244,-0.08982839745596258,-0.22380674206693,4,left
32.028,0.49598495878074056,1.0779862655247412,-0.27212428412615414,1.516389049381124,4.028458244029,-1.0246969089612183,0.07046037924895712,-0.09134677686741455,-0.22325318937192323,4,left
32.029,0.4944166671348638,1.078186092796537,-0.27202307065084885,1.51090398604329,4.0205769440748345,-1.0361929764061928,0.0674182699637291,-0.09280101552621027,-0.22253339390296378,4,left
32.03,0.4928303343634548,1.0784375042682843,-0.2719669455681026,1.5047711597494589,4.012948280083754,-1.0479590101891438,0.06434350255643385,-0.09419057649971273,-0.22165882712250812,4,left
32.03,0.49122944708449484,1.0787391468584504,-0.27195572963728126,1.4979925769703275,4.0055719842903015,-1.0599821855372114,0.061238930042146145,-0.09551519132648036,-0.22064097483342027,4,left
32.08,0.4896177208422475,1.0790895201543258,-0.27198917431037095,1.4905750586859903,3.998445579269235,-1.0722488063186375,0.058107517871305,-0.0967748354665779,-0.21949120820709447,4,left
32.082,0.4879990775865709,1.0794869957302127,-0.27206696864672175,1.4825301779322824,3.991564435222157,-1.084744361897539,0.05495234165220494,-0.09796970092330813,-0.2182206681191651,4,left
32.105,0.4863776200725018,1.0799298386953207,-0.2721887465558005,1.4738741500809707,3.9849218610553723,-1.097453596236765,0.05177658228003733,-0.09910016605129186,-0.21684016296851266,4,left
32.106,0.48475760338819146,1.0804162307003427,-0.2723540939267005,1.4646276788560149,3.9785092267583515,-1.110360588272271,0.04858351846939089,-0.10016676265516875,-0.2153600799036735,4,left
32.106,0.4831434052785166,1.080944292578308,-0.2725625554730489,1.4548157656215892,3.9723161108875873,-1.1234488410654295,0.04537651671654282,-0.10117014098627297,-0.2137903090173498,4,left
32.107,0.4815394963569065,1.0815121057641912,-0.2728136413550689,1.4444674919954024,3.9663304649028723,-1.136701376397167,0.04215901877089549,-0.10211103415033324,-0.2121401794158837,4,left
32.163000000000004,0.4799504097485017,1.0821177329200413,-0.2731068333150116,1.4336157833195757,3.9605387881621335,-1.150100832311524,0.03893452672435509,-0.10299022394233044,-0.21041840570720885,4,left
32.165,0.4783807090213917,1.0827592384055544,-0.2734415897865394,1.4222971559844586,3.9549263110868442,-1.1636295626344277,0.03570658585958255,-0.1038085096131369,-0.2086330436985754,4,left
32.165,0.47683495375417767,1.083434708515672,-0.27381734959673,1.4105514490796465,3.949477186069101,-1.1772697383370798,0.0324787656532603,-0.10456668012619212,-0.20679145417352066,4,left
32.166,0.4753176628330198,1.084142270742458,-0.27423353419476443,1.3984215403411013,3.9441746861036853,-1.1910034507824148,0.029254639855992567,-0.10526548988647191,-0.20490027294522012,4,left
32.167,0.47383327594243446,1.084880111129344,-0.2746895485084687,1.385953046269537,3.939001411067158,-1.2048128166803724,0.026037766872874395,-0.10590563778287108,-0.20296538488067511,4,left
32.242,0.4723861139255288,1.085646488775775,-0.27518478057258927,1.3731940058319414,3.9339395012574663,-1.2186800835126526,0.022831671360439693,-0.10648774942525518,-0.200991900165137,4,left
32.244,0.4709803389890533,1.0864397466843772,-0.2757186001401857,1.3601945463253078,3.9289708572517315,-1.2325877322701524,0.01963982740072413,-0.1070123625298206,-0.1989841321112187,4,left
32.245,0.4696199160341583,1.0872583186429472,-0.2762903566379325,1.3470065295186149,3.9240773648312386,-1.2465185732811142,0.016465643304874173,-0.10747991544654183,-0.19694557639212487,4,left
32.246,0.46830857650160496,1.08810073259357,-0.27689937697766204,1.3336831766503228,3.919241124031976,-1.2604558319735704,0.013312448037099531,-0.10789073883037917,-0.19487889169333975,4,left
32.247,0.4670497858240256,1.088965611509174,-0.2775449637405326,1.3202786719122739,3.9144446815186287,-1.2743832232984502,0.010183479249807016,-0.10824505045775512,-0.19278588177701342,4,left
32.248000000000005,0.4658467149796236,1.0898516728052792,-0.2782263940782163,1.3068477456253658,3.9096712637043085,-1.2882850144298352,0.007081872908245179,-0.10854295328226173,-0.1906674789274845,4,left
32.301,0.464702216168037,1.0907577268941095,-0.27894291946973576,1.293445240407718,3.9049050043475724,-1.3021460752563152,0.004010654424759593,-0.10878443713963708,-0.18852372875848653,4,left
32.302,0.46361880250621496,1.091682675090528,-0.2796937663452108,1.280125664748783,3.9001311582735374,-1.3159519160020268,0.0009727311323279714,-0.10896938461117965,-0.18635377683483845,4,left
32.303000000000004,0.46259863174571203,1.0926255069401631,-0.2804781374964684,1.2669427372898154,3.8953362949508303,-1.3296887114912317,-0.0020291140951140827,-0.10909758069600516,-0.1841558586995048,4,left
32.304,0.4616434941439541,1.0935852971199098,-0.28129521408699837,1.2539489231078635,3.8905084694088403,-1.343343311885804,-0.0049922281826296966,-0.10916872474501957,-0.18192729572912023,4,left
32.305,0.460754804576262,1.094561202233728,-0.28214415801914344,1.2411949630381587,3.885637370064686,-1.3569032401743073,-0.007914092170997249,-0.10918244301002576,-0.17966449876866522,4,left
32.33,0.4599335986659463,1.0955524578954978,-0.2830241144718696,1.2287294010997096,3.8807144434469185,-1.3703566780968257,-0.010792324504324203,-0.10913830101982021,-0.17736298035773793,4,left
32.374,0.4591805324373643,1.0965583763017115,-0.2839342145277585,1.2165981227433027,3.875732995804075,-1.3836924446565737,-0.013624683292558474,-0.10903581563662805,-0.17501737568275852,4,left
32.376999999999995,0.4584958851652092,1.0975783441380988,-0.284873577894397,1.2048439208939299,3.8706882715867796,-1.3968999727396436,-0.016409067557285918,-0.10887446679291497,-0.17262147224859606,4,left
32.378,0.4578795656471694,1.0986118203996804,-0.2858413157798024,1.1935061025083527,3.865577508791242,-1.4099692879933414,-0.019143517481143027,-0.1086537089671194,-0.1701682483280349,4,left
32.379,0.45733112260380027,1.0996583336967116,-0.28683653401205295,1.1826201407891752,3.8603999714352613,-1.4228909915630574,-0.02182621374136974,-0.10837298275003564,-0.16764992057257197,4,left
32.38,0.4568497599369885,1.1007174787926484,-0.28785833649171394,1.1722173743135589,3.855156960860035,-1.4356562465012803,-0.024455476116479222,-0.10803172738145024,-0.1650580017532544,4,left
32.398,0.45643435716500824,1.1017889122682936,-0.2889058289748106,1.1623247541475508,3.8498518101122703,-1.4482567666402135,-0.027029761615205605,-0.1076293954298176,-0.1623833699253031,4,left
32.435,0.4560834947513865,1.1028723471155288,-0.28997812296230807,1.1529646403861091,3.844489867083948,-1.460684806303666,-0.02954766231641501,-0.10716547049423393,-0.15961634998487617,4,left
32.437,0.4557954835540116,1.1039675456614912,-0.2910743392207536,1.1441546491924646,3.8390784706638743,-1.4729331496488003,-0.032007902995855826,-0.10663948820143655,-0.15674680791688447,4,left
32.438,0.45556839751335626,1.1050743098189055,-0.2921936103806303,1.1359075507890752,3.833626921417436,-1.4849950991959562,-0.03440933853480565,-0.10605106008543533,-0.15376425728800014,4,left
32.439,0.4554001089546927,1.1061924677500197,-0.29333508222349886,1.128231218682325,3.828146446007741,-1.4968644636219421,-0.03675095105684473,-0.1053998991736742,-0.15065797671889886,4,left
32.509,0.455288326028912,1.1073218567545513,-0.29449791353605187,1.1211286306842807,3.822650152702481,-1.5085355451589293,-0.03903184671848677,-0.10468584571185294,-0.14741713665015327,4,left
32.512,0.45523063145804904,1.108462303174799,-0.29568127461093385,1.1145979224926303,3.8171529744307113,-1.520003127042857,-0.041251252099562846,-0.10390889185094936,-0.144030934135198,4,left
32.513000000000005,0.45522452115885564,1.1096136008002462,-0.2968843445366172,1.108632494395348,3.8116715967336847,-1.5312624613523917,-0.04340851017568312,-0.10306920482466404,-0.14048873514822435,4,left
32.515,0.4552674411975248,1.110775489393763,-0.29810630738573995,1.1032211713151219,3.8062243695379507,-1.5423092573947386,-0.0455030758509139,-0.10216714850926364,-0.1367802241068929,4,left
32.516,0.4553568221250221,1.111947634731709,-0.2993463474099151,1.0983484162140058,3.800831202558937,-1.5531396706917002,-0.04753451091096593,-0.10120330319766378,-0.13289555935863379,4,left
32.516999999999996,0.4554901105549032,1.1131296111627529,-0.3006036434176114,1.0939945964683722,3.7955134441093823,-1.5637502924103608,-0.04950247803789369,-0.10017848317052194,-0.12882553151664095,4,left
32.574,0.45566479833218915,1.1143208872482697,-0.3018773625592305,1.090136300961999,3.790293742037405,-1.574138138142346,-0.051406733439857306,-0.09909375152993563,-0.12456172029494754,4,left
32.575,0.4558784497293093,1.1155208147025508,-0.30316665371888857,1.0867467022917938,3.785195883629756,-1.584300633243334,-0.05324711794336895,-0.09795043200581746,-0.12009664551765721,4,left
32.576,0.45612872700746954,1.1167286206646212,-0.3044706406748725,1.0837959566183104,3.780244610266344,-1.5942355910040504,-0.05502354692455538,-0.09675011788522059,-0.11542390802401922,4,left
32.577,0.45641341462265705,1.1179434032089917,-0.3057884152286431,1.0812516355584594,3.7754654036620847,-1.603941180863156,-0.05673599974983694,-0.09549467845937074,-0.11053831621667203,4,left
32.577,0.4567304423968317,1.1191641298856756,-0.30711903062265544,1.079079187012072,3.7708842431832115,-1.613415885614877,-0.0583845092482669,-0.09418626330426641,-0.10543599521509121,4,left
32.641,0.45707790800184683,1.1203896390093948,-0.30846149566018,1.0772424193693069,3.7665273385819655,-1.6226584477605621,-0.05996915142741761,-0.09282730451906003,-0.10011447739075817,4,left
32.643,0.4574540990058261,1.1216186433829927,-0.3098147698855155,1.075703996162264,3.7624208495560594,-1.6316678058035812,-0.06149003547219643,-0.09142051693989453,-0.09457277406833126,4,left
32.644,0.4578575144826526,1.1228497360123724,-0.3111777599635992,1.0744259239154814,3.7585906073465476,-1.640443021543484,-0.06294729403132762,-0.08996889632544179,-0.08881142837815643,4,left
32.650999999999996,0.4582868857949165,1.1240813971136305,-0.31254931710731476,1.0733700204136973,3.7550618499554176,-1.6489831994186115,-0.06434107379605236,-0.088475715510245,-0.08283254924482811,4,left
32.652,0.4587411957722923,1.125312001566828,-0.31392823519943164,1.072498359128652,3.75185897658148,-1.6572873997382997,-0.0656715263937527,-0.0869445184819257,-0.07663982648522544,4,left
32.708,0.4592196953706954,1.1265398261557857,-0.3153132492622704,1.071773691234157,3.7490053246306667,-1.6653545496479414,-0.06693879971070262,-0.08537911213866835,-0.07023852693554157,4,left
32.709,0.4597219169792762,1.1277630563242544,-0.31670303410067063,1.0711598482662255,3.7465229727649563,-1.6731833568736059,-0.06814302992299227,-0.08378355512413929,-0.0636354714302973,4,left
32.71,0.4602476836197772,1.1289797925222274,-0.31809620318428455,1.0706221277206132,3.744432572586503,-1.680772230036698,-0.06928433460617033,-0.08216214293736859,-0.05683899240243955,4,left
32.711,0.4607971134556278,1.1301880564712343,-0.31949130811885157,1.070127662503584,3.742753209991106,-1.6881192070684732,-0.0703628072022867,-0.08051938871454528,-0.04985887192630952,4,left
32.711999999999996,0.4613706193367417,1.1313857979511357,-0.3208868392785763,1.0696457743870575,3.7415022963576576,-1.695221891998006,-0.07137851292549874,-0.07885999952042969,-0.04270626031900925,4,left
32.713,0.4619689031980763,1.1325709029451414,-0.3222812281308266,1.0691483111807798,3.740695489177751,-1.7020774001251464,-0.07233148593397282,-0.07718884859504463,-0.035393576460504006,4,left
32.774,0.4625929450104912,1.1337412039626182,-0.3236728515099308,1.0686099659055759,3.7403466397816425,-1.7086823115379637,-0.07322172728647355,-0.07551094477647148,-0.027934392788673996,4,left
32.775999999999996,0.4632439861160963,1.1348944931626759,-0.32506003785066845,1.0680085736800953,3.7404677623094154,-1.7150326328410996,-0.07404920304028313,-0.07383140072904136,-0.020343308917117237,4,left
32.777,0.4639235073414161,1.1360285387415687,-0.32644107523936033,1.067325380604717,3.7410690161282827,-1.7211237669094046,-0.07481384200848189,-0.07215540119766654,-0.012635816830966812,4,left
32.789,0.4646332030595439,1.1371411045307207,-0.3278142208376294,1.0665452803548747,3.7421586958474697,-1.7269504905318374,-0.0755155330037985,-0.07048817174314037,-0.004828159027421722,4,left
32.791,0.4653749530942442,1.1382299714390005,-0.32917771074948476,1.065657016767581,3.7437432265920076,-1.7325069399022708,-0.07615412165029488,-0.06883494785183424,0.0030628190367713204,4,left
32.791,0.46615079494944867,1.1392929580246849,-0.33052976930715516,1.064653351741605,3.745827164285024,-1.7377866041092782,-0.07672940704308624,-0.06720094395633831,0.011019819249004092,4,left
32.83,0.46696289901893767,1.1403279375941522,-0.331868617452292,1.063531196098212,3.748413201767728,-1.7427823275107421,-0.07724113862878429,-0.06559132175073458,0.019025239966070417,4,left
32.830999999999996,0.4678135478628536,1.1413328516790613,-0.33319248075571595,1.0622916975228192,3.7515021828267883,-1.7474863231820328,-0.07768901358650195,-0.06401115733711443,0.027061321019650846,4,left
32.846,0.46870511720269226,1.1423057229550246,-0.33449959770222115,1.0609402777485826,3.7550931268886134,-1.7518902003499697,-0.07807267482227326,-0.06246540701519777,0.03511028343924378,4,left
32.848,0.4696400545464758,1.143244670769052,-0.33578822821778365,1.0594866131016178,3.759183266453097,-1.7559850079996957,-0.07839170963624369,-0.0609588717264065,0.04315446357989528,4,left
32.849000000000004,0.47062085375157303,1.1441479290676455,-0.33705666201773565,1.0579445568665935,3.7637680977400962,-1.7597612952192074,-0.07864564930002825,-0.05949616042712068,0.05117644084972727,4,left
32.908,0.4716500270524401,1.1450138642593273,-0.3383032266448686,1.0563320079557423,3.768841442526641,-1.7632091865317905,-0.07883397013561827,-0.058081653084828384,0.05915915699022996,4,left
32.911,0.4727300763742069,1.1458409915544365,-0.3395262953324284,1.0546707380739164,3.7743955157616624,-1.7663184674600168,-0.07895609688379149,-0.05671946422370703,0.06708602417223139,4,left
32.912,0.4738634640368293,1.1466279901005036,-0.34072429452733266,1.052986193637661,3.780420991738125,-1.7690786739746793,-0.07901140895303323,-0.055413407713584856,0.07494101986043375,4,left
32.924,0.4750525818362382,1.147373717631328,-0.34189571047299305,1.0513072841849953,3.7869070642769644,-1.7714791813022523,-0.07899924978562033,-0.054166963077484934,0.08270876764136541,4,left
32.926,0.4762997177777155,1.1480772245981496,-0.34303909422325174,1.049666159416902,3.793841503957587,-1.773509291583288,-0.07891893932616222,-0.05298324339123967,0.09037460405934121,4,left
32.974000000000004,0.477607020568588,1.148737767046537,-0.3441530647855212,1.0480979688463787,3.8012107250225577,-1.7751583235486164,-0.07876978926631546,-0.051864964956534206,0.09792463244214214,4,left
32.977,0.4789764623930162,1.1493548173894361,-0.3452363104143401,1.0466405949403275,3.808999879271102,-1.776415708856012,-0.07855112024953215,-0.050814419206561705,0.10534576613664433,4,left
32.978,0.4804098006362585,1.1499280722819143,-0.34628758830062417,1.0453343529171553,3.817192989933313,-1.7772710985699698,-0.07826227994747233,-0.049833447457905175,0.11262576437365224,4,left
32.984,0.48190853968260877,1.1504574568538506,-0.34730572315804414,1.044221654693231,3.8257731299049356,-1.7777144807120786,-0.07790266119154728,-0.04892341896819509,0.1197532631815441,4,left
32.985,0.483473894420863,1.1509431248986102,-0.3482896054285415,1.0433466379019547,3.834722640249408,-1.7777363063095872,-0.07747171981213997,-0.04808521255681664,0.1267178024034521,4,left
32.986999999999995,0.4851067570115571,1.1513854551096088,-0.34923818979888116,1.0427547634401673,3.8440233765395146,-1.7773276169251406,-0.07696899200796706,-0.0473192022678107,0.13350984944423663,4,left
33.042,0.4868076679426503,1.1517850437737742,-0.35015049446631547,1.0424923861499882,3.853656966461735,-1.7764801643096675,-0.07639411093880373,-0.046625248200128734,0.14012082088147546,4,left
33.044000000000004,0.4885767920257526,1.1521426945803197,-0.35102560133666766,1.0426063020920502,3.8636050662578163,-1.775186515159,-0.0757468221326741,-0.04600269400653067,0.1465431034454779,4,left
33.063,0.49041389975932703,1.152459406487971,-0.35186265713652326,1.0431432737918902,3.8738496110497884,-1.773440138165256,-0.07502699740031768,-0.045450372186697584,0.1527700755015855,4,left
33.064,0.49231835403009333,1.1527363606849872,-0.35266087520231215,1.0441495336894002,3.8843730582459717,-1.7712354728925641,-0.07423464713411791,-0.04496661749186387,0.15879612938235643,4,left
33.065,0.4942891015912757,1.1529749074682125,-0.35341953756034516,1.045670266751068,3.895158623563221,-1.7685679807624433,-0.07336993097606395,-0.044549287723508246,0.16461669396101503,4,left
33.066,0.49632466858871155,1.1531765535289176,-0.35413799695839726,1.0477490780024483,3.906190506734925,-1.7654341798780309,-0.07243316686971216,-0.044195789947377,0.17022825573077663,4,left
33.107,0.498423159549235,1.153342949808126,-0.3548156786796007,1.050427459373352,3.9174540995352825,-1.7618316680163766,-0.07142483851658409,-0.04390310948526308,0.17562837606966267,4,left
33.108000000000004,0.5005822594085928,1.153475879789772,-0.35545208212673607,1.053744275046216,3.928936166284583,-1.757759139561882,-0.07034560125155183,-0.043667839706200265,0.18081570295425417,4,left
33.119,0.5027992384683676,1.1535772478445048,-0.3560467822760505,1.0577352797032158,3.9406249894674965,-1.7532164007074325,-0.06919628636326168,-0.04348621189487304,0.1857899763222878,4,left
33.12,0.5050709607468288,1.1536490671020816,-0.35659943115561127,1.0624326756537381,3.952510478024674,-1.7482043845959518,-0.06797790398939858,-0.04335412548264848,0.19055202629329115,4,left
33.121,0.5073938965699223,1.153693446392588,-0.3571097594804415,1.0678647111193622,3.9645842407845033,-1.7427251663727896,-0.06669164491259832,-0.04326717968570502,0.19510376253858594,4,left
33.168,0.5097641400980144,1.153712575987145,-0.35757757850461297,1.07405532295849,3.976839632386488,-1.736781977368614,-0.06533888169224887,-0.04322070794327274,0.1994481525168534,4,left
33.171,0.5121774320407432,1.1537087120211786,-0.35800278205243274,1.0810238282049918,3.989271781487625,-1.7303792173753592,-0.06392116945758873,-0.04320981620075489,0.20358918686537303,4,left
33.196999999999996,0.5146291872898945,1.1536841594850689,-0.358385348529547,1.0887846677071307,4.001877608604376,-1.7235224642322062,-0.062440246482997105,-0.043229425376633115,0.20753183132726194,4,left
33.199,0.517114526714086,1.1536412535171354,-0.35872534252819593,1.0973472031928306,4.014655836552608,-1.716218480397617,-0.06089803452166806,-0.04327431760928101,0.21128196545234063,4,left
33.2,0.5196283122098706,1.153582338604264,-0.3590229155783748,1.106715567999383,4.0276069940090595,-1.7084752164378882,-0.059296638788969284,-0.04333918510012244,0.21484630893363624,4,left
33.201,0.5221651842933225,1.1535097454860823,-0.35927830572139086,1.1168885714519374,4.040733411983952,-1.7003018114171589,-0.05763834745172817,-0.04341867997515132,0.21823233672433553,4,left
33.24,0.5247196016191903,1.153425766120062,-0.35949183579209903,1.1278596566875982,4.0540392117618085,-1.691708590195624,-0.05592563051438909,-0.043507463981408985,0.2214481837960795,4,left
33.242,0.5272858816366943,1.153332627604142,-0.35966391044478957,1.1396169113825572,4.067530280648594,-1.6827070576830072,-0.05416113805559439,-0.04360025754518549,0.22450253988889707,4,left
33.258,0.529858241314691,1.153232466177144,-0.3597950119776404,1.1521431306521779,4.081214230630783,-1.6733098901162138,-0.05234769780345486,-0.043691888113260344,0.22740453431919605,4,left
33.26,0.5324308367897073,1.153127302485615,-0.35988569498037615,1.1654159315860466,4.095100336285489,-1.6635309234057805,-0.05048831201072436,-0.043777337735915335,0.23016361105550498,4,left
33.260999999999996,0.5349978011209103,1.1530190193015122,-0.35993657986802147,1.179407919015727,4.1091994503581795,-1.6533851383906428,-0.04858615342158745,-0.043851789642908895,0.23278939527337464,4,left
33.306999999999995,0.5375532798977687,1.1529093426168429,-0.35994834544432275,1.1940869012639292,4.123523895945059,-1.6428886420046611,-0.04664455981678734,-0.043910673189999506,0.23529155440433724,4,left
33.309,0.5400914648737104,1.1527998265805266,-0.3599217206875695,1.2094161527900082,4.1380873331808905,-1.6320586418913274,-0.04466702645433284,-0.04394970634603313,0.23767965769559013,4,left
33.329,0.542606626053609,1.152691842347317,-0.35985747601562756,1.2253547196077104,4.152904597620615,-1.620913411190191,-0.04265719589225731,-0.043964935098133893,0.23996303729450771,4,left
33.334,0.5450931428150201,1.152586570671062,-0.3597564143902815,1.2418577643941038,4.167991508216816,-1.6094722410293645,-0.04061884498463141,-0.04395276952609184,0.24215065206780667,4,left
33.335,0.5475455345998479,1.1524849979581842,-0.35961936265768335,1.2588769500843786,4.1833646440792505,-1.5977553797188302,-0.03855586905229366,-0.043910016482833276,0.24425095460824955,4,left
33.336,0.5499584915039284,1.152387915505154,-0.3594471634328974,1.2763608609721286,4.199041090700428,-1.5857839584761388,-0.03647226346858274,-0.04383390875076729,0.2462717629088824,4,left
33.374,0.5523269048979229,1.1522959217434894,-0.3592406676953924,1.2942554564552196,4.215038160394628,-1.5735799038072595,-0.0343721032693484,-0.04372213034836019,0.24822014039464846,4,left
33.375,0.5546458980810326,1.1522094273848293,-0.3590007281475474,1.3125045452080124,4.231373098754549,-1.5611658368979304,-0.03225952160148864,-0.043572837552667186,0.2501022892288162,4,left
33.393,0.5569108568430285,1.1521286632842733,-0.35872819330907857,1.3310502635282975,4.248062793095836,-1.5485649607608445,-0.030138687619160394,-0.04338467531199136,0.2519234605835815,4,left
33.394,0.5591174597024917,1.1520536906382735,-0.3584239022634919,1.349833545975739,4.265123496166454,-1.535800937058983,-0.028013784067688927,-0.04315678891810223,0.25368788335387055,4,left
33.395,0.5612617075165135,1.1519844129297283,-0.3580886799423955,1.3687945842807374,4.2825705735492825,-1.5228977566409643,-0.025888984626163805,-0.04288883090766086,0.25539871163996886,4,left
33.442,0.5633399520341964,1.151920588922795,-0.3577233328326054,1.3878732748707419,4.300418280493126,-1.509879608999382,-0.023768431218873752,-0.042580963143023766,0.25705799145203967,4,left
33.444,0.5653489226835363,1.1518618460138763,-0.3573286450187037,1.4070096559016516,4.318679571898604,-1.496770754531416,-0.021656211830075312,-0.042233853948556895,0.25866664776116605,4,left
33.471,0.5672857505208064,1.1518076933358385,-0.3569053745453967,1.4261443339816045,4.337365946697088,-1.4835954011596992,-0.019556339536786968,-0.04184867013740581,0.26022449339457965,4,left
33.473,0.5691479882110868,1.1517575341543358,-0.35645425021380656,1.4452188994939907,4.3564873252215355,-1.4703775857090418,-0.01747273329411588,-0.04142706380462571,0.26173026089940304,4,left
33.474000000000004,0.5709336254047159,1.1517106773406856,-0.3559759691177061,1.4641763275659831,4.376051955377642,-1.4571410604310946,-0.015409200659737683,-0.040971153919606346,0.2631816576949035,4,left
33.475,0.5726410995709948,1.1516663480922116,-0.35547119544251815,1.4829613607260073,4.396066342010255,-1.4439091852120935,-0.013369422346206207,-0.04048350320776472,0.26457544379768816,4,left
33.507,0.5742693026327543,1.1516236984881651,-0.35494056115654643,1.501520870296271,4.416535195275959,-1.430704825855459,-0.011356938241769482,-0.03996709156852413,0.26590753013746576,4,left
33.531,0.5758175835001618,1.1515818188195794,-0.35438466910915806,1.5198041953712658,4.437461396380404,-1.417550258573156,-0.009375134428680843,-0.039425287624545655,0.26717309450825216,4,left
33.532,0.577285746314978,1.1515397508052634,-0.3538040987549094,1.5377634592355223,4.458845980454969,-1.4044670806764976,-0.0074272308760302075,-0.038861819240863314,0.2683667113101947,4,left
33.533,0.5786740444379429,1.151496503264711,-0.3531994142598949,1.555353863273825,4.480688136631543,-1.3914761274285101,-0.005516269750541392,-0.03828074249128785,0.2694824896358428,4,left
33.533,0.5799831710622565,1.1514510686639563,-0.35257117407940775,1.572533957887081,4.502985225090787,-1.3785973951536825,-0.003645104436837394,-0.037686407793147206,0.2705142133649631,4,left
33.573,0.5812142482149923,1.1514024361177346,-0.35191994066484333,1.5892658872299505,4.525732809436622,-1.3658499713689742,-0.0018163893521428137,-0.03708342218830495,0.2714554786160053,4,left
33.575,0.5823688156519836,1.1513495970518544,-0.3512462895601566,1.6055155997322386,4.54892470018804,-1.3532519739023317,-3.2570586163242e-05,-0.03647660736061718,0.27229982669528746,4,left
33.608000000000004,0.5834488192144837,1.1512915451840693,-0.3505508182923779,1.6212530136687153,4.572553003756704,-1.3408205016331345,0.001704122592546098,-0.03587095342048906,0.27304087208759026,4,left
33.609,0.584456595847807,1.1512272767973382,-0.3498341553864562,1.6364521302582404,4.596608172289991,-1.3285715986951494,0.003391685125102461,-0.03527156905714058,0.2736724245974122,4,left
33.61,0.5853948518162424,1.1511557958175003,-0.34909696862338796,1.6510910942313997,4.621079050253176,-1.3165202321490348,0.005028341841157698,-0.0346836295626777,0.2741886034097025,4,left
33.611999999999995,0.5862666324226095,1.1510761242713552,-0.34833997140145584,1.6651522091925186,4.645952911323302,-1.3046802813267564,0.006612550620191288,-0.034112324734011344,0.27458394009406006,4,left
33.641,0.5870752843420836,1.1509873164473357,-0.34756392709037753,1.678621918246256,4.671215477383049,-1.2930645362853803,0.008143002430408015,-0.03356280815674221,0.27485346832060537,4,left
33.667,0.5878244132491989,1.1508884748121613,-0.3467696519190882,1.6914907577507332,4.696850913474332,-1.281684703440122,0.009618618006070475,-0.03304014847166485,0.2749927993955578,4,left
33.668,0.5885178387858646,1.150778766542483,-0.3459580166316747,1.7037532871250187,4.722841797451565,-1.2705514176563122,0.011038541127169925,-0.03254928272264961,0.2749981834687374,4,left
33.669000000000004,0.5891595474829602,1.1506574403124383,-0.345129946744482,1.715407993827856,4.749169070909661,-1.2596742610717506,0.012402128505829725,-0.03209497178433459,0.27486655641375557,4,left
33.67,0.5897536437274525,1.150523842943417,-0.3442864212539465,1.7264571699367965,4.77581198875168,-1.2490617896947225,0.01370893633881261,-0.031681757880287605,0.2745955725298617,4,left
33.707,0.5903042990885662,1.1503774351021778,-0.3434284698492312,1.7369067555525672,4.802748090525907,-1.2387215691829865,0.014958703861013693,-0.03131392426314287,0.2741836239568994,4,left
33.708,0.5908157004714569,1.1502178050750578,-0.34255716882456605,1.7467661454543673,4.829953210899262,-1.2286602208504478,0.016151334730866128,-0.030995457237678457,0.27362984903160154,4,left
33.745,0.5912919977237263,1.1500446797436956,-0.341673635960077,1.7560479575947279,4.857401536260082,-1.2188834783022295,0.017286877380873023,-0.03073001082176376,0.2729341326325215,4,left
33.748000000000005,0.5917372516616374,1.149857932067124,-0.3407790246880667,1.7647677632234562,4.885065708680355,-1.2093962547403132,0.01836550532454188,-0.030520874544940554,0.2720971012005922,4,left
33.748000000000005,0.5921553837427673,1.149657584696125,-0.33987451787319806,1.7729437786690116,4.912916977315512,-1.2002027209108568,0.01938749815564093,-0.03037094525301086,0.27112011447408213,4,left
33.749,0.5925501286439618,1.1494438098812787,-0.33896132153979197,1.7805965191348387,4.940925396564917,-1.1913063932535253,0.020353223833759183,-0.030282703991861015,0.27000525561640987,4,left
33.774,0.5929249909048232,1.1492169263638359,-0.33804065892353674,1.787748416520671,4.969060066538662,-1.1827102297560428,0.021263122660958304,-0.03025819876630301,0.2687553208833296,4,left
33.804,0.5932832065122412,1.148977394146072,-0.3371137652332858,1.7944234062546793,4.997289404576054,-1.1744167273136994,0.022117693113128674,-0.030299033492058,0.26737380928625065,4,left
33.805,0.5936277098048981,1.1487258079512233,-0.33618188336578,1.800646489774933,5.025581432783446,-1.166428012336443,0.022917479551402633,-0.03040636312799282,0.2658649122746457,4,left
33.806,0.5939611056521514,1.1484628900328133,-0.3352462605599378,1.8064432783720805,5.053904069817028,-1.1587459185981175,0.02366306179103173,-0.030580894594152218,0.26423350313130384,4,left
33.806,0.594285646722673,1.1481894828375738,-0.33430814578865886,1.8118395247712231,5.08222541933406,-1.1513720509931415,0.024355046467163428,-0.030822892489730507,0.2624851253198176,4,left
33.830999999999996,0.5946032156440885,1.147906541866432,-0.333368787673136,1.8168606537362861,5.110514046628903,-1.1443078376627502,0.024994060115788693,-0.031132188296657808,0.26062597877111177,4,left
33.882,0.5949153117098388,1.147615128972097,-0.3324294327755125,1.8215313062929834,5.138739233122817,-1.1375545743309465,0.02558074390898298,-0.0315081920833268,0.2586629033476881,4,left
33.884,0.595223041566962,1.1473164061793937,-0.3314913241607663,1.8258749085204773,5.166871200979603,-1.1311134637256393,0.026115750021221656,-0.031949906314764416,0.2566033591779163,4,left
33.885,0.5955271133787928,1.1470116298149573,-0.33055570013899765,1.8299132693000282,5.194881304804572,-1.1249856512233407,0.02659973962440557,-0.03245594170440402,0.2544554038046021,4,left
33.885999999999996,0.5958278344453282,1.1467021445025676,-0.32962379316698487,1.8336662077630743,5.222742189987261,-1.119172256891137,0.02703338248974506,-0.03302453509241284,0.25222766599300106,4,left
33.887,0.596125112787408,1.1463893766451665,-0.3286968289784846,1.8371512108749695,5.250427918229851,-1.113674404041743,0.027417358056810035,-0.03365356925510129,0.24992931529713777,4,left
33.907,0.5964184633041972,1.1460748272381414,-0.3277760260439735,1.840383123708256,5.277914063109023,-1.1084932450899225,0.027752357618061056,-0.03434059440501585,0.24757002514017085,4,left
33.941,0.5967070188287948,1.1457600639990455,-0.32686259539218643,1.8433738785658753,5.305177782557419,-1.1036299865911854,0.028039087149339302,-0.03508285106088007,0.2451599264182827,4,left
33.943000000000005,0.5969895460800063,1.145446712825346,-0.3259577407119794,1.8461322702024319,5.332197876896293,-1.0990859154306443,0.02827827041746139,-0.03587729409005111,0.24270954945069964,4,left
33.944,0.5972644663514566,1.1451364485371975,-0.32506265857364075,1.8486637804183128,5.358954837735808,-1.0948624264053584,0.028470652123361275,-0.03672061808500398,0.24022975377760653,4,left
33.945,0.5975298807507257,1.1448309846058415,-0.3241785385421971,1.8509704504573818,5.385430888347674,-1.0909610496500843,0.028617000804839126,-0.03760928470055542,0.23773164665925517,4,left
33.974000000000004,0.5977835997417433,1.1445320611340735,-0.3233065628471365,1.8530507985497895,5.411610014368231,-1.0873834762711998,0.02871811116196987,-0.038539552808381665,0.23522649161512552,4,left
34.018,0.5980231765086177,1.144241430315822,-0.32244790523049077,1.8548997814877939,5.437477983894529,-1.0841315813691834,0.028774805552498735,-0.03950751211195454,0.23272560800544703,4,left
34.02,0.5982459432852901,1.1439608393472358,-0.32160372873587156,1.8565088007351433,5.463022354885428,-1.0812074436920334,0.028787934591793102,-0.04050912037908345,0.2302402622161862,4,left
34.022,0.5984490495888997,1.1436920115792615,-0.32077518239877395,1.8578657548258164,5.48823246481297,-1.0786133603360548,0.028758377053388132,-0.04154024372759596,0.2277815514945938,4,left
34.023,0.5986295013767435,1.143436626797598,-0.319963396883016,1.8589551403905202,5.513099395798421,-1.0763518543869564,0.02868703960185892,-0.04259669844231532,0.22536028289558327,4,left
34.024,0.5987842001881825,1.1431963012791628,-0.31916947910481275,1.859758203565377,5.537615910176425,-1.0744256739195686,0.02857485706681592,-0.04367429229338524,0.22298685062173276,4,left
34.041,0.5989099812908094,1.1429725683820022,-0.31839450590149654,1.8602531424865927,5.561776354507707,-1.0728377817194183,0.028422793789508686,-0.04476886383428164,0.22067111421730198,4,left
34.077,0.599003650180177,1.1427668606942705,-0.3176395168860202,1.860415360990856,5.585576531769749,-1.0715913356147835,0.02823184625446222,-0.04587631907269161,0.218422278596303,4,left
34.079,0.5990620174856411,1.1425804946659457,-0.31690550674201556,1.8602177735237257,5.609013541795857,-1.0706896594137003,0.028003047006889402,-0.04699266540957858,0.21624877631599942,4,left
34.08,0.5990819328059687,1.142414658166685,-0.3161934172607147,1.8596311612573782,5.632085590032018,-1.0701362044413694,0.02773746964920063,-0.04811404281280729,0.214158153611256,4,left
34.08,0.5990603179621854,1.1422704009684912,-0.31550412937117145,1.8586245784642381,5.6547917653142346,-1.0699345016642816,0.02743623440045352,-0.049236752136596104,0.21215696398843426,4,left
34.106,0.5989941999254254,1.1421486279758415,-0.31483845535071114,1.8571658034226057,5.677131790539628,-1.0700881043378598,0.027100513530606607,-0.05035728046745563,0.21025067444612305,4,left
34.155,0.5988807435539554,1.1420500950084933,-0.3141971314089423,1.8552218195443566,5.699105755812476,-1.0706005210244725,0.02673153615320582,-0.051472323407921884,0.20844358812185054,4,left
34.156,0.5987172842508743,1.1419754069163626,-0.31358081091049306,1.8527593075791533,5.72071384721883,-1.0714751389668695,0.026330592169396483,-0.05257880426453972,0.20673878488109482,4,left
34.157,0.5985013606279235,1.1419250177229696,-0.3129900585312535,1.8497451341924758,5.741956083219998,-1.0727151387921434,0.02589903532792507,-0.05367389013718142,0.20513808009680243,4,left
34.158,0.5982307471925961,1.1418992323497532,-0.31242534552633444,1.8461468302128698,5.762832068562105,-1.0743234033025943,0.025438285376885153,-0.05475500488291727,0.20364200168631297,4,left
34.159,0.5979034869433321,1.1418982092896632,-0.31188704607076345,1.8419330562864928,5.783340774435572,-1.0763024240999512,0.02494982916692856,-0.05581983877773282,0.2022497858332957,4,left
34.224000000000004,0.5975179234551836,1.141921963514739,-0.3113754344589224,1.837074054954554,5.803480350973631,-1.078654208862041,0.02443522040611585,-0.0568663544830067,0.20095939233338928,4,left
34.226,0.5970727315494266,1.1419703690422702,-0.31089068289168276,1.8315420887529754,5.823247974561097,-1.0813801904027431,0.02389607789673447,-0.05789278904106908,0.19976754017315812,4,left
34.227,0.5965669452854352,1.1420431608518051,-0.31043285966793427,1.8253118642570567,5.842639730414156,-1.0844811377086192,0.023334082643399028,-0.05889765225523165,0.19866976235022998,4,left
34.228,0.5959999821435363,1.142139936052186,-0.31000192785616654,1.8183609419780784,5.861650530156477,-1.0879570690926328,0.022750974676547915,-0.05987972234678865,0.19766047760422972,4,left
34.228,0.5953716628009227,1.1422601542973196,-0.3095977448490473,1.8106701316216005,5.880274062452997,-1.0918071682747132,0.022148550305142185,-0.06083803966398614,0.1967330770577806,4,left
34.281,0.5946822264162769,1.1424031376057457,-0.30922006338587776,1.8022238708764915,5.898502771635655,-1.096029705481654,0.021528660092371678,-0.061771898766656064,0.19588002493665588,4,left
34.283,0.5939323415223939,1.1425680700612004,-0.30886853459416697,1.7930105823700402,5.916327856926777,-1.1006219667220336,0.02089320758764581,-0.06268083889806024,0.19509297295022762,4,left
34.284,0.5931231125260908,1.142753998117722,-0.30854271344151146,1.7830229981721535,5.933739285331326,-1.1055801944335957,0.02024414872741819,-0.06356463257823868,0.19436288666164006,4,left
34.285,0.59225608160253,1.1429598322381698,-0.308242066755849,1.7722584388045621,5.950725813596579,-1.110899541892557,0.019583491688758004,-0.06442327165040172,0.1936801796755119,4,left
34.285,0.5913332256451432,1.143184350593923,-0.3079659836293456,1.760719037240376,5.967275016964105,-1.1165740427132558,0.01891329690809969,-0.06525694988812002,0.19303485008124988,4,left
34.31,0.5903569484734317,1.1434262052109319,-0.30771378749535516,1.748411904101644,5.9833733239665055,-1.122596595924997,0.018235677049000185,-0.06606604149470886,0.1924166149801271,4,left
34.329,0.5893300699106673,1.1436839295760677,-0.30748474873436527,1.7353492333967222,5.999006057184785,-1.1289589667201343,0.017552796831286164,-0.06685107522881702,0.19181504142625305,4,left
34.359,0.5882558138049652,1.143955945978656,-0.30727809703186754,1.7215483487643224,6.014157480013871,-1.1356518028896778,0.016866872705383205,-0.06761270411387285,0.1912196735015772,4,left
34.361,0.5871377947892988,1.1442405729367928,-0.30709303363339696,1.7070316901889049,6.028810849482478,-1.1426646669637082,0.01618017231774922,-0.06835167082873349,0.19062015535617688,4,left
34.363,0.5859800007938134,1.1445360352293008,-0.3069287436834642,1.6918267415184571,6.042948475176789,-1.1499860836312106,0.01549501345264148,-0.0690687693519143,0.19000634921037465,4,left
34.364000000000004,0.5847867684734868,1.1448404777996446,-0.3067844079585803,1.6759659009562222,6.056551784338933,-1.1576035997966674,0.014813761666217288,-0.06976480428689079,0.1893684458126921,4,left
34.381,0.583562751165051,1.145151982370877,-0.30665921313941386,1.6594863000126359,6.069601393251071,-1.1655038506388664,0.014138825568287963,-0.07044054977100014,0.18869706401288158,4,left
34.418,0.5823128810681893,1.1454685851631594,-0.3065523605978879,1.6424295782941696,6.082077185452813,-1.1736726233845258,0.013472648967728658,-0.07109670939530682,0.1879833369439911,4,left
34.421,0.5810423279195959,1.145788295038645,-0.3064630742283534,1.624841619910153,6.093958399392828,-1.1820949155508245,0.01281769961503579,-0.0717338777522474,0.1872189839622054,4,left
34.422,0.579756455683784,1.1461091122575138,-0.30639060763000864,1.6067722544080971,6.105223731812212,-1.1907549934848847,0.012176454777507398,-0.07235250397617851,0.18639636908936286,4,left
34.424,0.5784607776459699,1.1464290482057222,-0.3063342504570645,1.5882749235526403,6.115851465210182,-1.19963646206966,0.011551384368999542,-0.07295285794911573,0.18550854824057716,4,left
34.439,0.577160909741065,1.146746145940783,-0.30629333340553105,1.569406314644316,6.12581962565883,-1.2087223540876382,0.010944932597531282,-0.07353500006736378,0.18454930828074595,4,left
34.498000000000005,0.5758625221610504,1.1470585007311662,-0.3062672312920578,1.550225960928598,6.135106173019225,-1.2179952419755777,0.010359498852762983,-0.07409875524121766,0.18351320019206607,4,left
34.501,0.5745712897049415,1.1473642794235048,-0.3062553640080671,1.5307958109136024,6.143689221166191,-1.2274373684891111,0.009797418162339323,-0.07464369142919311,0.18239556733087622,4,left
34.501999999999995,0.5732928414151743,1.1476617375837037,-0.3062571954689826,1.5111797710964174,6.15154728115385,-1.2370307861254486,0.009260941511040574,-0.07516910294259083,0.18119256932588423,4,left
34.503,0.5720327099171126,1.1479492336919717,-0.30627223081117577,1.4914432281151502,6.15865951788645,-1.2467574917603523,0.008752216639623313,-0.07567399899560998,0.17990120262110168,4,left
34.504,0.5707962810918241,1.1482252398845718,-0.306300012217379,1.4716525548250596,6.165006013222573,-1.2565995463486412,0.00827327014648451,-0.07615709813403765,0.1785193190020129,4,left
34.556999999999995,0.5695887453026647,1.1484883488922975,-0.3063401139938999,1.4518746027620015,6.1705680321156,-1.2665391759042945,0.007825991509170396,-0.07661682901761868,0.1770456431078261,4,left
34.559,0.5684150517895691,1.1487372771789834,-0.306392137669728,1.43217618542714,6.175328287851674,-1.2765588546676288,0.007412119274456681,-0.07705133767274103,0.1754797892645852,4,left
34.559,0.5672798676313984,1.1489708646532566,-0.30645570777001113,1.4126235628034975,6.179271197688183,-1.2866413743830087,0.007033229473428603,-0.07745850080288716,0.17382227731807381,4,left
34.56,0.5661875421432079,1.1491880714626772,-0.3065304686768988,1.3932819410040347,6.182383117288496,-1.2967699049092407,0.006690726301687401,-0.07783594404440054,0.1720745465018191,4,left
34.561,0.5651420771907807,1.1493879724788572,-0.3066160828237675,1.3742149974620925,6.184652545251457,-1.30692805008662,0.006385835118708009,-0.07818106368378694,0.17023896605508784,4,left
34.58,0.5641471036362288,1.149569750286612,-0.3067122302896837,1.3554844357950773,6.186070294260847,-1.3170999004476498,0.0061195978066702975,-0.07849105072394735,0.16831884162565788,4,left
34.635,0.5632058637885069,1.1497326875186789,-0.3068186095658869,1.3371495709837768,6.186629628282737,-1.3272700830601751,0.005892870471856877,-0.07876291681622222,0.1663184169054214,4,left
34.637,0.5623211994228919,1.1498761590672186,-0.3069349390616624,1.3192669448126744,6.186326365817222,-1.3374238085320793,0.005706323295571398,-0.07899352175282806,0.16424286945305416,4,left
34.638000000000005,0.5614955447045676,1.1499996242982964,-0.30706095894745783,1.301889971517573,6.185158949208603,-1.3475469152067305,0.005560442046482072,-0.07917960194018882,0.16209829825707123,4,left
34.639,0.5607309231509678,1.1501026191338428,-0.30719643302293737,1.2850686135879843,6.183128480015599,-1.357625910578363,0.005455530603964079,-0.07931779908009358,0.1598916997786367,4,left
34.639,0.5600289478397641,1.1501847477655465,-0.30734115035961207,1.2688490882690922,6.180238720874578,-1.3676480101535653,0.005391714004573701,-0.07940468847895411,0.1576309300270056,4,left
34.693000000000005,0.5593908245901925,1.1502456738088995,-0.3074949265901844,1.253273607819996,6.176496066370706,-1.3776011747116945,0.005368941816302823,-0.07943680675353673,0.1553246516849828,4,left
34.695,0.5588173583767083,1.1502851108416066,-0.3076576048503916,1.2383801596016395,6.171909488910114,-1.3874741473980456,0.005386991798774762,-0.07941067897499289,0.1529822662031662,4,left
34.696,0.5583089633269371,1.150302812362598,-0.3078290564236498,1.2242023308207723,6.166490466989909,-1.3972564907427059,0.005445473794903324,-0.07932284573219155,0.15061383138350076,4,left
34.696999999999996,0.5578656764857446,1.1502985612021959,-0.30800918113834724,1.2107691774282725,6.1602529006672695,-1.406938621420489,0.0055438337182125265,-0.07916989131634057,0.14822996576304612,4,left
34.698,0.5574871753757363,1.1502721583200943,-0.30819790755566134,1.1981051336569895,6.153213015545797,-1.416511840085988,0.005681357454885795,-0.07894847462935109,0.14584174154792684,4,left
34.77,0.5571727991877267,1.1502234106481892,-0.30839519287270956,1.1862299599350958,6.145389255188749,-1.4259683549582525,0.0058571745726697195,-0.07865536387766732,0.14346056756209374,4,left
34.772,0.5569215731700236,1.150152117222873,-0.3086010222602203,1.1751587286665053,6.136802161856482,-1.435301298924461,0.006070261948788415,-0.07828747469235592,0.14109806365448832,4,left
34.773,0.5567322356423031,1.1500580528207893,-0.3088154072817228,1.1649018478420212,6.127474245547917,-1.444504740190063,0.006319447723636799,-0.07784190965613738,0.138765928954141,4,left
34.774,0.5566032669981473,1.1499409490841712,-0.3090383832180863,1.1554651224471337,6.1174298413236,-1.4535736865025475,0.00660341613465457,-0.07731599643810923,0.13647580704443202,4,left
34.775,0.5565329198060449,1.149800474254484,-0.3092700053440896,1.1468498536346805,6.106694954885741,-1.4625040829756364,0.006920713646414758,-0.07670732243629662,0.13423915035828637,4,left
34.775999999999996,0.5565192487624678,1.1496362132562339,-0.3095103442648213,1.139052975667669,6.095297096170677,-1.4712928035335207,0.007269756543809512,-0.07601376508722442,0.13206708471104148,4,left
34.830999999999996,0.5565601392453386,1.1494476497338697,-0.30975948035717704,1.132067230813631,6.083265099618143,-1.4799376359603271,0.007648840016840718,-0.07523351770107439,0.12997027411833562,4,left
34.833,0.5566533337424037,1.1492341511615545,-0.31001749733375894,1.1258813826869518,6.070628927819547,-1.4884372604783265,0.008056148737923567,-0.0743651108206745,0.1279587858926157,4,left
34.834,0.556796456212519,1.1489949576823393,-0.3102844750445039,1.1204804687116972,6.057419454156502,-1.4967912217439365,0.008489768932702091,-0.07340742910232406,0.12604195601204726,4,left
34.835,0.5569870350500419,1.1487291749258977,-0.31056048178995294,1.1158460922060383,6.043668221128088,-1.5049998941842169,0.00894770193387209,-0.07235972376201673,0.12422825502636482,4,left
34.836,0.557222525475541,1.1484357707065636,-0.310845566487322,1.1119567535165917,6.029407173740261,-1.5130644406404392,0.00942787914963932,-0.07122162085940413,0.12252515611714179,4,left
34.908,0.5575003319362366,1.148113575333633,-0.3111397509635764,1.1087882156476758,6.0146683720006795,-1.5209867642341008,0.009928178274209068,-0.06999312610384673,0.12093900936508731,4,left
34.91,0.5578178308056908,1.1477612852781476,-0.31144302256848766,1.106313892936641,5.9994836932267726,-1.5287694532243854,0.010446440466127475,-0.06867462706733282,0.11947492773228799,4,left
34.91,0.5581723935484932,1.147377469969939,-0.3117553273151088,1.1045052475167527,5.983884538455931,-1.5364157185408123,0.01098048805982241,-0.06726689331804792,0.11813668942652301,4,left
34.911,0.558561410496513,1.1469605814603443,-0.31207656383206495,1.103332182122988,5.967901553662804,-1.5439293237592677,0.0115281420867838,-0.06577107432078617,0.11692665980112564,4,left
34.912,0.5589823153112713,1.1465089665892285,-0.3124065784386423,1.1027634246593836,5.9515643700391,-1.55131450744195,0.012087238722338448,-0.06418869457939841,0.11584573510310642,4,left
34.913000000000004,0.5594326100277518,1.1460208811103656,-0.3127451615320421,1.1027669037367285,5.93490136438172,-1.5585758980067301,0.012655644004094241,-0.06252164559211529,0.11489330960047968,4,left
34.968,0.5599098903743452,1.1454945050296665,-0.31309204522480855,1.1033101150356652,5.917939441787947,-1.565718422110493,0.01323126659070208,-0.06077217448840533,0.1140672665979312,4,left
34.97,0.5604118709677309,1.1449279584048755,-0.31344690196978675,1.1043604781397447,5.900703846222287,-1.5727472089751282,0.013812068694408928,-0.058942869572492056,0.1133639928322404,4,left
34.971,0.5609364098811608,1.1443193170419022,-0.31380934385328335,1.105885683366707,5.883218006389096,-1.5796674938869644,0.014396075627952708,-0.05703664341376459,0.1127784147252204,4,left
34.972,0.561481531701106,1.1436666276612442,-0.3141789222332138,1.1078540282457316,5.86550342247378,-1.5864845232976106,0.014981384552677921,-0.05505671433908621,0.11230405446579954,4,left
34.973,0.5620454477341826,1.1429679221593565,-0.3145551275027731,1.110234743461493,5.84757959557312,-1.5932034627065321,0.015566172868458492,-0.053006586966770394,0.11193310439971646,4,left
35.041,0.5626265721592183,1.1422212307551283,-0.31493738910698965,1.112998308002101,5.829463997891327,-1.599829308688592,0.016148706422670415,-0.05089003203476264,0.11165651911733444,4,left
35.043,0.563223533606166,1.141424594202073,-0.31532507634969237,1.116116752907383,5.811172078032637,-1.6063668080432727,0.016727347569153114,-0.048711065560349,0.1114641251368953,4,left
35.044000000000004,0.5638351820680438,1.140576075824583,-0.31571750068237836,1.1195639528121046,5.792717293847889,-1.612820388027721,0.017300563078835783,-0.04647392732550996,0.11134474818212808,4,left
35.045,0.564460590962043,1.1396737746856491,-0.31611391996885496,1.12331590468288,5.774111167164763,-1.619194100649777,0.017866931898675855,-0.044183058636912166,0.11128635772132144,4,left
35.045,0.5650990542504136,1.1387158411152303,-0.3165135446923579,1.1273509935140191,5.755363358101823,-1.6254915822226281,0.018425152730431753,-0.04184307908467259,0.11127622677483591,4,left
35.046,0.5657500793430652,1.1377004943160713,-0.31691554510965797,1.131650244296052,5.736481758185976,-1.6317160282631697,0.01897405135557169,-0.03945876161944026,0.1113011020095691,4,left
35.080999999999996,0.5664133775853618,1.1366260392910603,-0.3173190573453375,1.1361975563346363,5.71747260010293,-1.6378701829507654,0.019512587607486826,-0.03703500504250787,0.11134737747868813,4,left
35.102,0.5670888544757563,1.1354908795618983,-0.3177231869811048,1.1409799100988418,5.6983405787342765,-1.6439563411604352,0.020039861876695077,-0.034576803294478604,0.11140126682873416,4,left
35.103,0.5677766008664191,1.1342935247040475,-0.3181270113494732,1.1459875335010488,5.6790889763702905,-1.6499763604162707,0.020555120877036145,-0.032089211663683365,0.11144897080137768,4,left
35.104,0.5684768846970855,1.133032595277602,-0.31852958347887783,1.151214017788935,5.6597197867513165,-1.655931680778688,0.021057762060787067,-0.029577310856583387,0.11147683674706205,4,left
35.105,0.5691901412415341,1.1317068289340997,-0.3189299390478225,1.1566563794050997,5.640233835811627,-1.6618233517599157,0.021547335872753846,-0.027046170248604673,0.11147150621627237,4,left
35.166,0.569916959578958,1.1303150897061487,-0.31932710516713847,1.1623150688223125,5.620630898992613,-1.6676520654226037,0.022023545236224996,-0.02450081130239186,0.11142004767774638,4,left
35.167,0.5706580644128637,1.128856379876964,-0.3197201093361954,1.168193930492193,5.600909815757162,-1.673418193856658,0.022486242028792753,-0.02194617154392557,0.11131007318336181,4,left
35.168,0.5714142940729126,1.1273298528772402,-0.3201079878756497,1.1743001194200215,5.581068602165948,-1.6791218286218805,0.022935420508874867,-0.019387069155517613,0.11112983878293811,4,left
35.181,0.5721865759298692,1.125734826475764,-0.32048979368754366,1.180643978504748,5.56110456214678,-1.6847628203511504,0.023371207736044567,-0.016828168211028432,0.11086832883413385,4,left
35.181999999999995,0.5729758996676402,1.1240707963202414,-0.3208646030725392,1.1872388783688204,5.541014398148128,-1.6903408181201554,0.023793851236937398,-0.01427394474185397,0.11051532507923326,4,left
35.183,0.5737832881810869,1.1223374498455163,-0.32123152118710213,1.1941010203218763,5.52079432400222,-1.6958553103880565,0.02420370454412444,-0.011728654116029132,0.11006146266861849,4,left
35.24,0.5746097659022882,1.1205346802756624,-0.3215896858758454,1.201249203601956,5.500440186671904,-1.7013056718460888,0.024601211444002742,-0.009196300376024978,0.10949827603727032,4,left
35.243,0.5754563246962319,1.1186626002921478,-0.32193826990248864,1.2087045595633965,5.479947604120097,-1.7066912198377249,0.024986889561016662,-0.0066806080176000345,0.10881823681360113,4,left
35.244,0.5763238876779885,1.1167215547810385,-0.32227648177707374,1.2164902574054683,5.459312120938467,-1.7120112783466914,0.02536131352982802,-0.004184996398277936,0.10801478463143266,4,left
35.244,0.5772132714614963,1.1147121317929394,-0.3226035654152157,1.2246311867409698,5.43852937731793,-1.7172652424203239,0.02572509779831802,-0.0017125568008305543,0.10708235098884054,4,left
35.245,0.5781251477308718,1.112635170619987,-0.3229187988924896,1.2331536207801015,5.4175952863782415,-1.7224526365687427,0.026078879098897098,0.0007339678268916766,0.10601637624897828,4,left
35.311,0.5790600055187302,1.1104917660378848,-0.3232214926123118,1.242084861630145,5.396506217638739,-1.7275731644378458,0.02642329880740172,0.003152200291577301,0.10481332036304325,4,left
35.313,0.5800181157629074,1.1082832683532966,-0.32351098723259036,1.2514528679807366,5.375259186210757,-1.732626749318324,0.026758985736129753,0.005540143312197147,0.1034706687689027,4,left
35.313,0.5809994995200922,1.1060112796513841,-0.3237866517036934,1.261285865199283,5.353852047651565,-1.7376135655056002,0.027086540089372318,0.007896189851671391,0.10198693540391901,4,left
35.317,0.5820039008361613,1.1036776472087892,-0.3240478817952968,1.2716119383734454,5.332283697770093,-1.7425340605895214,0.02740651912793804,0.010219129200984167,0.10036166428471907,4,left
35.318000000000005,0.5830307647760149,1.1012844551983982,-0.32429409945604265,1.2824586113949679,5.310554273428504,-1.747388969073015,0.027719424761837454,0.012508148651234669,0.09859543023253027,4,left
35.319,0.5840792206812165,1.0988340155784275,-0.3245247531645989,1.293852419781403,5.288665344540915,-1.7521793182957717,0.02802569310303685,0.01476283073489042,0.09668983880572202,4,left
35.373000000000005,0.5851480705808143,1.0963288587077291,-0.3247393191750924,1.3058184874897838,5.266620084224333,-1.7569064279594098,0.028325685946802848,0.01698314606128168,0.09464752524781633,4,left
35.374,0.5862357826502693,1.0937717239797047,-0.32493730343010196,1.318380115421707,5.244423407302156,-1.761571904229807,0.02861968410153986,0.019169441798830684,0.09247215197822471,4,left
35.376,0.5873404893923522,1.0911655505920175,-0.32511824394386835,1.3315583847199115,5.222082073202501,-1.7661776288150615,0.02890788246000427,0.0213224258717179,0.09016840399668029,4,left
35.376999999999995,0.5884599899334312,1.0885134684001356,-0.3252817134748303,1.3453717754019918,5.199604752538881,-1.7707257430967744,0.029190386707261012,0.023443147003037474,0.08774198156552454,4,left
35.378,0.5895917558288949,1.0858187886752477,-0.32542732225415055,1.359835801065924,5.177002057721748,-1.7752186275297888,0.029467211486834385,0.025532971107617278,0.08519958900268375,4,left
35.396,0.5907329400542244,1.0830849945599927,-0.3255547205510131,1.3749626638965775,5.1542865400104985,-1.779658877533933,0.029738279652995886,0.027593555240065855,0.08254891711290963,4,left
35.44,0.5918803891558053,1.0803157310525962,-0.32566360096816116,1.3907609404911085,5.131472659125653,-1.7840492789166378,0.03000342212002004,0.029626820699226914,0.07979861600413932,4,left
35.442,0.5930306586998355,1.0775147943368846,-0.3257537004527685,1.4072353125157244,5.108576733602073,-1.7883927868737348,0.030262377941717874,0.03163492649136238,0.07695825584704567,4,left
35.454,0.594180032179457,1.0746861201322524,-0.3258248020088071,1.424386352715478,5.085616878002259,-1.792692511606995,0.030514794475032112,0.033620243636513204,0.07403827459632534,4,left
35.455999999999996,0.5953245434502548,1.0718337704330658,-0.32587673603294626,1.4422103705137577,5.062612929397978,-1.7969517117813418,0.03076022759206583,0.0355853302723585,0.07104991256597169,4,left
35.457,0.5964600026622677,1.068961917639185,-0.32590938111963025,1.4606993176725311,5.039586363493837,-1.8011737958614211,0.030998141869945144,0.03753290677367019,0.06800513422501826,4,left
35.509,0.5975820256126889,1.0660748250142513,-0.325922664158856,1.4798407524136992,5.016560200489537,-1.8053623302927162,0.031227910580883745,0.039465828923880376,0.06491653814194416,4,left
35.512,0.598686066349487,1.063176822973127,-0.3259165596315329,1.4996178579304844,4.993558901021289,-1.809521051921539,0.03144881524534474,0.04138705651882382,0.061797256317924085,4,left
35.514,0.5997674525020772,1.060272281730315,-0.32589108814619683,1.5200095098455977,4.970608252658341,-1.8136538811754859,0.03166004457062553,0.04329961543906483,0.058660843836759215,4,left
35.515,0.6008214222257373,1.0573655817440717,-0.3258463143406138,1.540990388548872,4.947735247295072,-1.817764933398482,0.031860692749144444,0.045206552589193164,0.05552115930650691,4,left
35.516,0.6018431612700267,1.0544610835985804,-0.32578234424307706,1.562531134828243,4.924967949197258,-1.821858527251022,0.03204975737494821,0.04711088466134667,0.05239223680175586,4,left
35.576,0.6028278389032926,1.0515630984902067,-0.3256993221097495,1.5845985486138734,4.90233535163594,-1.8259391896878707,0.032226137653486656,0.04901554343599049,0.04928815093616899,4,left
35.578,0.6037706420234723,1.0486758599733756,-0.3255974266832776,1.6071558309858534,4.879867216973727,-1.830011656712302,0.03238863380448426,0.050923321235475924,0.046222877241108705,4,left
35.579,0.6046668073087699,1.0458034975672363,-0.3254768667752476,1.6301628696275785,4.857593893378827,-1.8340808688349972,0.03253594833289085,0.05283681924338506,0.043210149479988594,4,left
35.59,0.605511651614259,1.0429500129798162,-0.3253378761098212,1.6535765672146248,4.8355461035322405,-1.8381519604542864,0.03266668943819221,0.05475839977815014,0.04026331454490578,4,left
35.591,0.6063006010536977,1.0401192596122504,-0.32518070747839767,1.6773512088575824,4.81375470623528,-1.842230242950455,0.03277937659882624,0.056690142719055044,0.03739518529991881,4,left
35.592,0.6070292192321582,1.0373149256670147,-0.32500562633630303,1.7014388587150278,4.792250438014183,-1.8463211817169167,0.03287244828003877,0.05863380616283723,0.03461789294575077,4,left
35.64,0.6076932349393149,1.034540520874012,-0.3248129039863461,1.7257897725693423,4.771063644656723,-1.8504303674936664,0.03294427163533568,0.060590791498204684,0.031942742855994445,4,left
35.641999999999996,0.6082885695064246,1.0317993666461505,-0.32460281055771073,1.7503528164777342,4.750224010116937,-1.8545634822800123,0.03299315402823088,0.06256211314620796,0.029380079154625805,4,left
35.649,0.6088113640780544,1.029094589327849,-0.3243756081526476,1.7750758875852157,4.729760285725707,-1.8587262599444732,0.0330173562443384,0.0645483731538444,0.026939161985386238,4,left
35.65,0.6092580071003891,1.0264291161000172,-0.3241315446486744,1.7999063362554162,4.7097000207581035,-1.862924441603884,0.03301510734192498,0.06654974071923424,0.024628059048776733,4,left
35.650999999999996,0.6096251622395061,1.0238056730721476,-0.3238708485572484,1.8247913880882303,4.690069297968378,-1.8671637260389198,0.03298462108695381,0.06856593665472908,0.022453551789739984,4,left
35.71,0.6099097967793593,1.021226785128908,-0.3235937251103367,1.8496785621415803,4.670892483210651,-1.8714497157962902,0.03292411370013441,0.07059622272511722,0.020421056988137485,4,left
35.711999999999996,0.6101092103768082,1.018694777102567,-0.3233003535135507,1.874516080423671,4.652192001323417,-1.8757878598407205,0.03283182223459192,0.07263939569532062,0.018534565643151844,4,left
35.713,0.610221063698356,1.0162117756796758,-0.3229908850815439,1.8992532649734772,4.6339881473982825,-1.8801833934072014,0.03270602267556245,0.07469378586490193,0.016796601675718757,4,left
35.726,0.6102434058006382,1.013779711264759,-0.3226654417774873,1.923840921099401,4.616298937048619,-1.8846412753211432,0.03254504709111301,0.07675725990899532,0.015208202278175355,4,left
35.728,0.6101746985628301,1.011400319101181,-0.3223241146692243,1.948231706597094,4.599139996236227,-1.8891661228414593,0.03234729962438364,0.07882722787381398,0.013768920288386003,4,left
35.728,0.610013836717806,1.009075139255798,-0.32196696208426684,1.972380487068154,4.582524490360335,-1.8937621442894013,0.03211127143985363,0.08090065409827925,0.012476847768804962,4,left
35.773,0.6097601629972492,1.0068055153808608,-0.32159400765963714,1.9962446777147191,4.566463091097635,-1.8984330709770667,0.03183555483422218,0.08297407177045535,0.011328659531155716,4,left
35.775,0.6094134786811953,1.0045925924847205,-0.3212052388085554,2.0197845724411603,4.5509639772928105,-1.9031820922013396,0.03151885666962423,0.0850436009018012,0.010319675661521097,4,left
35.786,0.6089740498195568,1.002437314374049,-0.3208006062389715,2.0429636607161634,4.536032864532782,-1.908011798146238,0.031160011191817265,0.08710496963601663,0.009443942665698432,4,left
35.788000000000004,0.6084426089509697,1.0003404217631842,-0.3203800250605324,2.0657489292391458,4.521673057003245,-1.9129241334164038,0.030757992243097113,0.08915353888356926,0.008694333168773449,4,left
35.789,0.6078203519859009,0.9983024520119642,-0.3199433777931095,2.0881111393186385,4.507885513362442,-1.9179203601078658,0.030311924870309613,0.09118433025345495,0.008062663872771793,4,left
35.83,0.6071089302464403,0.9963237412002338,-0.3194905193851199,2.110025067460703,4.494668917332482,-1.923001027201967,0.02982109633460072,0.09319205708180534,0.007539830010478403,4,left
35.830999999999996,0.6063104382739404,0.9944044288240038,-0.319021284013588,2.1314696997683744,4.48201974620691,-1.9281659436879588,0.029284966540937252,0.09517115804747166,0.007115951894806825,4,left
35.865,0.6054273988563662,0.9925444643746419,-0.31853549268488124,2.1524283764305534,4.4699323345309185,-1.9334141543851622,0.028703177911700517,0.09711583269274623,0.006780527697288495,4,left
35.867,0.6044627471778651,0.9907436142314552,-0.3180329604184744,2.1728888857323003,4.45839893246555,-1.938743918305385,0.0280755647221307,0.09902007833923242,0.006522588055711897,4,left
35.867,0.6034198147454338,0.9890014686548371,-0.3175135031227371,2.1928435076480963,4.447409758799529,-1.9441526895704286,0.027402161870994004,0.10087772822403362,0.006330850534061089,4,left
35.868,0.6023023112548876,0.9873174513333148,-0.3169769453530711,2.212289007115888,4.43695304911579,-1.9496371012505727,0.02668321288950437,0.1026824909822298,0.006193872343147306,4,left
35.907,0.60111430143667,0.9856908344567222,-0.31642312913831355,2.231226577276475,4.427015102330268,-1.9551929542442317,0.025919176695257416,0.10442799186804197,0.0061001980776951206,4,left
35.908,0.5998601752910009,0.9841207600603462,-0.31585192284039904,2.249661733300045,4.417580333698193,-1.9608152164765311,0.025110732433990098,0.1061078162359331,0.006038498144676643,4,left
35.922,0.5985446123950829,0.9826062658644521,-0.3152632293178499,2.267604158170223,4.408631344907512,-1.9664980391294629,0.024258781915662244,0.10771555567375975,0.0059976946390023515,4,left
35.923,0.5971725422868649,0.9811463129189184,-0.31465699337282715,2.2850675044155735,4.400149018241295,-1.9722347932654722,0.023364449446090844,0.10924485694775263,0.005967073368885769,4,left
35.924,0.5957491026656898,0.9797398132872916,-0.31403320854449474,2.30206916049492,4.3921126352416735,-1.9780181241747274,0.022429079019601526,0.11068947369960026,0.005936381893252052,4,left
35.975,0.5942795959418504,0.978385657556547,-0.31339192303949515,2.3186299931624825,4.384500016670023,-1.9838400174254958,0.021454228873537935,0.11204332035823651,0.005895914043866277,4,left
35.977,0.5927694437871024,0.9770827426189487,-0.3127332443795842,2.334774074290624,4.3772876809479335,-1.989691871843314,0.02044166341027692,0.113300526915702,0.0058365821141115075,4,left
36.001,0.5912241394232828,0.9758299996331333,-0.31205734238137367,2.350528395570122,4.370451019939444,-1.9955645775192383,0.019393342495018135,0.1144554927645359,0.005749978290361089,4,left
36.001999999999995,0.5896491980179615,0.9746264211532588,-0.3113644503521897,2.365922571697447,4.363964491866545,-2.0014485985444916,0.01831140813476557,0.11550293824556496,0.005628426507849447,4,left
36.003,0.5880501060832284,0.9734710859732516,-0.3106548647067757,2.3809885319220823,4.357801831069261,-2.0073340602964587,0.01719816853888212,0.11643795336768505,0.005465025203668917,4,left
36.004,0.586432270974665,0.9723631804573858,-0.30992894337165544,2.395760198958923,4.3519362729831075,-2.0132108401417748,0.016056079623062134,0.11725604359417303,0.005253681162354698,4,left
36.041,0.5848009715179433,0.9713020156598123,-0.3091871033007356,2.410273152709293,4.346340790296463,-2.019068658695656,0.014887724339445003,0.11795317258791822,0.0049891351552423914,4,left
36.043,0.5831613106230292,0.9702870400232937,-0.30842981734054103,2.4245642753662833,4.340988334911713,-2.024897167817373,0.013695790794242078,0.11852580164172676,0.0046669811269867715,4,left
36.061,0.5815181707631301,0.9693178478378989,-0.3076576107310162,2.43867137534617,4.335852081674509,-2.030686032480987,0.012483050432434292,0.11897092535201001,0.004283681287353069,4,left
36.062,0.5798761733612324,0.968394183974467,-0.3068710576769392,2.4526327890473905,4.330905672247472,-2.0364250053870605,0.011252337231229445,0.11928610280933126,0.0038365789827914136,4,left
36.063,0.5782396430476707,0.9675159455919667,-0.3060707785090398,2.466486960745756,4.326123458400798,-2.0421039940770735,0.010006528235873042,0.11946948306684599,0.003323910351932074,4,left
36.08,0.5766125773656696,0.966683181499841,-0.3052574379020195,2.48027200331205,4.321480742039681,-2.0477131201883,0.008748525433553905,0.11951982336281504,0.0027448152855157684,4,left
36.106,0.5749986221305367,0.965896089785988,-0.30443174443543863,2.494025246406069,4.31695400529115,-2.053242769918486,0.007481238913061178,0.11943649896809791,0.0020993479929930867,4,left
36.137,0.5734010524223508,0.9651550143256686,-0.30359445148050956,2.5077827810054707,4.312521121752331,-2.058683634453783,0.006207571287094503,0.11921950420715301,0.0013884872957273318,4,left
36.138000000000005,0.571822758975514,0.9644604407750074,-0.3027463591043082,2.5215790069229715,4.3081615422235915,-2.0640267394289062,0.004930403366011451,0.11886944476813126,0.0006141464942514635,4,left
36.139,0.570266239450486,0.963812992477051,-0.3018883165841844,2.5354461859970274,4.3038564522482545,-2.0692634630565285,0.00365258105325396,0.11838752244648226,-0.00022081821899694654,4,left
36.14,0.5687335938364917,0.9632134263945158,-0.3010212251909763,2.5494140022603173,4.299588901095223,-2.074385543229341,0.002376903393491276,0.11777551518309778,-0.0011126033703106547,4,left
36.168,0.5672265231722353,0.9626626288901057,-0.3001460409746744,2.563509134068543,4.295343902731861,-2.079385075715858,0.0011061116827368156,0.11703575621151835,-0.002056461263349102,4,left
36.169000000000004,0.5657463309909353,0.9621616110224265,-0.299263777346065,2.5777548505864587,4.291108510174499,-2.084254508729367,-0.000157120428535672,0.1161711151744689,-0.0030467130549765332,4,left
36.205999999999996,0.5642939274166663,0.9617115030332075,-0.29837550735548696,2.5921706491473397,4.286871865070673,-2.0889866409038897,-0.0014101958815243116,0.11518498217218552,-0.0040767728655524025,4,left
36.207,0.5628698363866207,0.9613135478094462,-0.2974823656876457,2.6067719458834597,4.282625223900641,-2.0935746279558654,-0.0026506022872683803,0.11408125384852906,-0.005139183025343444,4,left
36.209,0.5614742066602791,0.9609690932078556,-0.29658555042076457,2.621569824479558,4.278361961636276,-2.0980119999644815,-0.003875919327452554,0.1128643188057557,-0.006225660279511731,4,left
36.209,0.5601068270874601,0.9606795831542914,-0.295686324534964,2.636570843123925,4.27407755468077,-2.1022926885143307,-0.005083825730739879,0.11153903873624821,-0.0073271527141201,4,left
36.24,0.5587671463167071,0.960446547347681,-0.2947860170766,2.651776897722465,4.269769547432598,-2.1064110609114377,-0.006272106015166173,0.11011072256139287,-0.008433907225812885,4,left
36.264,0.5574542968595885,0.9602715891115017,-0.2938860238226993,2.667185138806202,4.265437508044955,-2.1103619576907264,-0.007438657074900684,0.10858509249145538,-0.009535547466123166,4,left
36.265,0.5561671231655725,0.9601563704983589,-0.2929878072273275,2.6827879403391544,4.261082976379261,-2.1141407302741393,-0.008581494627303218,0.10696824182221597,-0.01062116225152478,4,left
36.266,0.554904213124258,0.9601025936913952,-0.29209289540638184,2.698572920030674,4.256709402520654,-2.1177432767929996,-0.009698759499887997,0.1052665846262775,-0.011679404373584196,4,left
36.266999999999996,0.5536639322053177,0.9601119784277089,-0.29120287997054795,2.7145230115327967,4.252322071650772,-2.1211660747293215,-0.010788723617748366,0.10348679830670209,-0.012698599399541738,4,left
36.306,0.5524444592155598,0.9601862361370306,-0.2903194126096082,2.7306165889184593,4.2479280119033636,-2.124406209509539,-0.011849795337739381,0.10163576143840854,-0.013666863434386873,4,left
36.308,0.5512438223838015,0.9603270421567843,-0.28944420039661894,2.746827643626314,4.243535883845374,-2.127461398710048,-0.012880523656648098,0.09972049013254089,-0.014572228471403164,4,left
36.33,0.5500599344054091,0.9605360076654055,-0.28857899978516915,2.763126013941319,4.239155851346786,-2.1303300118258934,-0.013879600939497305,0.09774807534877339,-0.015402774302055656,4,left
36.343,0.5488906255159206,0.9608146529568217,-0.28772560926143803,2.77947766660276,4.234799433731284,-2.1330110855348776,-0.014845864028234896,0.09572562212227485,-0.016146766575164735,4,left
36.346,0.5477336744541519,0.9611643834017608,-0.2868858606671742,2.7958450278590896,4.230479338623136,-2.135504334003685,-0.01577829369394384,0.09366019092743313,-0.016792800689216437,4,left
36.372,0.5465868377094749,0.9615864689756811,-0.2860616093052517,2.8121873571985216,4.226209274047712,-2.1378101530888145,-0.016676012339293524,0.09155874156619066,-0.017329950020629904,4,left
36.374,0.5454478775098239,0.9620820277159613,-0.2852547230001793,2.828461154711875,4.222003737866486,-2.139929616899432,-0.017538279713639058,0.08942808055895039,-0.017747914741244833,4,left
36.383,0.5443145889218034,0.9626520130657501,-0.2844670703639322,2.844620595316785,4.217877783104095,-2.1418644655738555,-0.01836448632295593,0.08727481334380575,-0.01803716622839459,4,left
36.400999999999996,0.5431848264023531,0.9632972048497142,-0.28370050867511337,2.860617986495854,4.213846759516693,-2.14361708381438,-0.019154144296820344,0.08510530226182667,-0.018189083320236017,4,left
36.402,0.5420565300829367,0.9640182035982336,-0.28295687190442287,2.876404245137881,4.209926036894936,-2.145190470111008,-0.019906875659323572,0.0829256306705779,-0.018196078734444406,4,left
36.402,0.5409277519591228,0.9648154280170964,-0.2822379593632371,2.891929383521006,4.206130724091582,-2.1465881966634153,-0.020622398233624693,0.08074157297396974,-0.018051714299972075,4,left
36.441,0.5397966820611201,0.965689115422735,-0.2815455252414574,2.907142991140305,4.202475402431265,-2.1478143600112363,-0.021300509790800514,0.07855856988394211,-0.01775080224931423,4,left
36.443000000000005,0.5386616745588335,0.966639324732527,-0.2808812690597694,2.9219947024176105,4.198973887493014,-2.148873522380947,-0.021941071256342592,0.07638170800336068,-0.017289488900653027,4,left
36.479,0.537521273476173,0.9676659411238525,-0.28024682683229285,2.936434646335044,4.195639024855378,-2.1497706437548922,-0.02254398961161657,0.0742157030648393,-0.016665317993974214,4,left
36.481,0.5363742372322485,0.9687686811135204,-0.27964376254245665,2.950413877368692,4.192482520727141,-2.150511004666234,-0.023109200896802188,0.07206488666345456,-0.01587727268407349,4,left
36.482,0.5352195607612245,0.9699470969090583,-0.2790735594615937,2.9638847878968013,4.189514807460893,-2.151100120017818,-0.02363665376074891,0.06993319672073502,-0.014925796268041467,4,left
36.482,0.5340564937118231,0.9712005793224053,-0.2785376109143096,2.976801502914712,4.186744943983762,-2.1515436456971835,-0.02412629409685975,0.06782417205883748,-0.013812791995366856,4,left
36.507,0.5328845534852977,0.9725283589977378,-0.2780372103229294,2.9891202590737365,4.184180551245872,-2.1518472824139563,-0.024578051169662447,0.06574095136758512,-0.012541602220846092,4,left
36.537,0.5317035327446803,0.9739295061686357,-0.27757354079629437,3.0007997701722213,4.181827782182181,-2.15201668252218,-0.0249918253947973,0.06368627667378847,-0.011116967002550654,4,left
36.539,0.5305135019204119,0.975402929652318,-0.27714766501035804,3.0118015778337823,4.179691322437583,-2.1520573634252713,-0.02536747780069713,0.06166250132605395,-0.009544962159158602,4,left
36.54,0.5293148073703621,0.9769473760615436,-0.27676051628510673,3.0220903800009284,4.1777744122621625,-2.1519746272648828,-0.025704821173256943,0.05967160248910127,-0.007832916783008731,4,left
36.54,0.5281080653401141,0.9785614301355567,-0.2764128915058299,3.03163432647879,4.176078876737783,-2.151773484430118,-0.02600361287291693,0.05771519806247661,-0.005989310501317771,4,left
36.574,0.526894151545507,0.9802435168866263,-0.27610544619283667,3.0404052733625475,4.174605154700304,-2.151458578817988,-0.026263549254649035,0.05579456754255821,-0.004023652260180225,4,left
36.58,0.5256741866509819,0.9819919059314806,-0.27583869171519004,3.0483789930988716,4.173352322500093,-2.1510341140171767,-0.02648426151534462,0.05391067563390429,-0.001946345074250377,4,left
36.615,0.5244495190328575,0.9838047174841675,-0.2756129941156395,3.0555353396622156,4.1723181119540085,-2.1505037802766087,-0.026665312734166044,0.052064197020013185,0.0002314573327699282,4,left
36.616,0.5232217071175281,0.985679928487301,-0.27542857379350366,3.061858368871096,4.1714989224846,-2.1498706822579123,-0.026806195941802922,0.05025554117908269,0.0024979973310831553,4,left
36.617,0.5219925032809757,0.9876153778524769,-0.27528550653329187,3.0673364138676456,4.170889827840391,-2.1491372679403593,-0.026906333218673698,0.04848487724008531,0.004841060516534581,4,left
36.618,0.5207638399001793,0.9896087717205319,-0.27518372808034014,3.071962115783501,4.170484579778959,-2.1483052608954614,-0.0269650759858167,0.04675215998469264,0.0072481195271564,4,left
36.641,0.5195378164643546,0.9916576909916174,-0.275123043985772,3.075732409616486,4.170275614672243,-2.1473756014761682,-0.02698170672219396,0.045057158576589845,0.00970647007941299,4,left
36.676,0.518316685388707,0.9937596029926815,-0.275103143859492,3.078648465342257,4.170254070981323,-2.1463484043142342,-0.026955442283683916,0.0433994892031459,0.01220335587715938,4,left
36.678000000000004,0.5171028344073296,0.9959118773523349,-0.2751236174223384,3.0807155842805156,4.170409823561294,-2.1452229376701184,-0.026885438893926247,0.04177865210048245,0.014726081058723632,4,left
36.679,0.5158987652176356,0.9981118043332523,-0.275183970231207,3.081943050729152,4.1707315371803055,-2.1439976268514562,-0.02677079884135357,0.04019407291552412,0.017262110003430163,4,left
36.679,0.514707069335411,1.0003566138682294,-0.27528363824976065,3.082343939764411,4.171206739654801,-2.142670081958832,-0.026610579018069496,0.03864514767496499,0.01979915473187999,4,left
36.707,0.5135304017739508,1.0026434949250713,-0.27542200107027826,3.081934886548672,4.1718219146293745,-2.1412371493070435,-0.02640380163971167,0.03713128954323768,0.022325250475134013,4,left
36.751999999999995,0.5123714524037585,1.0049696154990377,-0.2755983936065713,3.0807358304884773,4.172562614072086,-2.139694984896904,-0.02614946753260239,0.03565197494147565,0.024828820302602396,4,left
36.754,0.5112329146425234,1.0073321431005324,-0.27581211601305905,3.0787697520294603,4.173413590579844,-2.138039147771847,-0.025846571932137102,0.034206787175073715,0.02729873013568574,4,left
36.755,0.5101174513709713,1.009728265056252,-0.2760624416432225,3.0760624147521534,4.174358949323942,-2.136264711192827,-0.025494121940228657,0.03279545675347369,0.029724336261213378,4,left
36.756,0.5090276584621216,1.012155207706608,-0.2763486230566283,3.0726421140570985,4.17538231821613,-2.1343663883328645,-0.025091154347267112,0.03141789816141327,0.03209552789589939,4,left
36.756,0.5079660267124847,1.0146102535412562,-0.27666989629099725,3.0685394232133887,4.176467032678072,-2.132338665764224,-0.024636752830400187,0.03007424299076543,0.034402766688531865,4,left
36.773,0.5069349030903039,1.0170907554027413,-0.27702548371338465,3.063786923283511,4.177596330184585,-2.130175935914284,-0.024130064132190817,0.02876486939422537,0.03663712391869903,4,left
36.811,0.5059364524107274,1.0195941471887937,-0.2774145958270492,3.0584189068051866,4.178753550959313,-2.1278726218704964,-0.023570313152670604,0.027490427851106766,0.038790315524152935,4,left
36.812,0.5049726209147721,1.022117951029899,-0.2778364325101682,3.052471051603206,4.179922342927213,-2.1254232918443154,-0.022956816953482066,0.02625186324138806,0.04085473496341977,4,left
36.813,0.5040451033018644,1.0246597814473324,-0.27829018420852825,3.0459800666149137,4.181086867991093,-2.1228227626151184,-0.022288997671736716,0.025050433149449946,0.042823483947797274,4,left
36.814,0.5031553143188775,1.027217347155925,-0.2787750335084265,3.038983316142041,4.182232002899712,-2.1200661913679926,-0.021566394336485366,0.023887721945052218,0.04469040121534766,4,left
36.841,0.5023043653502256,1.0297884510302906,-0.2792901573398572,3.0315184310825836,4.183343525729703,-2.117149155145661,-0.0207886735723018,0.02276564951601251,0.04645008976889909,4,left
36.889,0.5014930459119864,1.0323709886663854,-0.27983472989156905,3.0236229135521993,4.184408281248821,-2.114067717327558,-0.01995563916974662,0.021686473153163032,0.048097943138494775,4,left
36.891,0.5007218096938808,1.0349629460247523,-0.2804079261495127,3.01533373744631,4.185414322469473,-2.1108184808963246,-0.01906724050921564,0.020652781592783612,0.04963017096487825,4,left
36.891999999999996,0.4999907648954269,1.0375623966304377,-0.28100892583241593,3.006686945350086,4.186351027946627,-2.107398628444702,-0.01812357984434097,0.01966748154759788,0.051043823326334774,4,left
36.893,0.4992996688513888,1.04016749866802,-0.2816369174961182,2.997717241773707,4.187209194823149,-2.103805948913966,-0.017124918476377985,0.01873377860618465,0.05233681196844455,4,left
36.893,0.49864792693284277,1.0427764921601341,-0.282291102667353,2.9884575835829628,4.187981107657202,-2.100038851355415,-0.01607168186334917,0.017855155108168597,0.05350792594392935,4,left
36.946999999999996,0.49803459543247713,1.0453876962764963,-0.28297069990835383,2.978938772963174,4.188660583225099,-2.096096367510217,-0.014964463695976581,0.017035346950112103,0.05455683979373929,4,left
36.95,0.4974583879922151,1.0479995066490677,-0.2836749487129302,2.969189066292835,4.1892429920627245,-2.091978147603603,-0.013804028951431855,0.0162783201025317,0.05548411352392744,4,left
36.951,0.49691768529795244,1.0506103924217578,-0.28440311317886396,2.959233816747435,4.189725259086905,-2.087684454720497,-0.012591315924195486,0.015588246966039433,0.05629118425681503,4,left
36.951,0.4964105480547,1.0532188927462893,-0.28515448547777295,2.949095163940974,4.190105848034183,-2.083216160666099,-0.011327437242121766,0.014969482474803883,0.05698034951794205,4,left
36.952,0.4959347334530426,1.0558236125514744,-0.285928389185811,2.938791775843811,4.190384735587674,-2.0785747429740455,-0.010013679932030667,0.014426539408412797,0.05755474191234997,4,left
36.974000000000004,0.4954877153857383,1.058423217463551,-0.28672418251015597,2.928338643769989,4.1905633794839,-2.0737622817526837,-0.008651504700477434,0.013964061568283446,0.058018294569720553,4,left
37.027,0.4950667085693116,1.0610164274894076,-0.28754126133976543,2.917746930346388,4.190644682100453,-2.0687814556995474,-0.0072425446515815076,0.013586793027678535,0.05837569652995755,4,left
37.03,0.49466869652968115,1.0636020085937483,-0.2883790619201442,2.9070238702510793,4.190632948586646,-2.063635537057025,-0.00578860360727599,0.013299542111897112,0.05863233744807033,4,left
37.031,0.4942904632073085,1.0661787611900038,-0.2892370629056383,2.896172723245207,4.19053383648131,-2.058328385227488,-0.004291654093720901,0.013107139570569783,0.05879424137058119,4,left
37.032,0.4939286276300748,1.0687455052451122,-0.2901147866163024,2.8851927788737957,4.190354292742838,-2.05286443867637,-0.002753835001112029,0.01301439085152608,0.05886798954297464,4,left
37.032,0.4935796805680942,1.0713010627352122,-0.2910117994489637,2.874079412359017,4.190102475135069,-2.0472487048405243,-0.001177448894349772,0.013026022608076577,0.058860632307143314,4,left
37.082,0.4932400216342402,1.0738442387233298,-0.2919277114604008,2.8628241914764834,4.1897876567462164,-2.041486747919457,0.0004350411399060584,0.01314662423511211,0.05877959043853514,4,left
37.085,0.4929059953886744,1.0763738021985272,-0.29286217510727097,2.8514150343533085,4.189420113436582,-2.035584674515887,0.0020810153896540363,0.013380586423625539,0.058632546796293164,4,left
37.086,0.49257392555340174,1.078888467630512,-0.29381488304851894,2.8398364181559934,4.189010994214337,-2.0295491171095206,0.0037577025292257933,0.013732039386848364,0.05842732945046816,4,left
37.086999999999996,0.4922401470205809,1.0813868782462193,-0.2947855648961708,2.828069638635766,4.188572174538509,-2.023387215347489,0.005462186037349975,0.014204792810068877,0.058171787369283356,4,left
37.089,0.49190103574143024,1.083867591977016,-0.2957739828653032,2.8160931201619643,4.188116092363579,-2.0171065950753,0.007191412202866413,0.0148022786918519,0.057873660276060244,4,left
37.106,0.49155303675699297,1.0863290706804856,-0.2967799263489018,2.8038827741904098,4.187655565817276,-2.010715344735626,0.00894219990716434,0.015527498138071168,0.057540445885409415,4,left
37.164,0.4911926906029446,1.0887696728610508,-0.2978032054787669,2.7914124003671144,4.187203590588384,-2.004221988190211,0.010711252409435056,0.016382973347100996,0.057179268720598427,4,left
37.166,0.49081665825087073,1.091187649893851,-0.2988436437646881,2.7786541192014234,4.186773118409881,-1.9976354525302198,0.012495171305600213,0.01737070571562592,0.056796753663228804,4,left
37.166,0.4904217447660608,1.0935811456589297,-0.2999010699904275,2.7655788204766436,4.186376826561722,-1.9909650293878987,0.014290472732298276,0.018492140438251415,0.05639890549506904,4,left
37.167,0.49000492197508855,1.0959481994286953,-0.30097530971731523,2.7521566110125333,4.1860268942097925,-1.9842203286016273,0.016093605802043838,0.019748137567638928,0.0559909948502104,4,left
37.168,0.4895633505857032,1.098286751795177,-0.30206617694106064,2.7383572506588183,4.185734798089069,-1.977411223575803,0.017900973094556627,0.02113894895247991,0.05557745183081175,4,left
37.222,0.4890944022826595,1.1005946533887583,-0.30317346653799,2.7241505721831096,4.185511132607396,-1.9705477880842268,0.019708952724357888,0.022664199706616737,0.05516177045595148,4,left
37.224000000000004,0.48859568228246353,1.1028696761102352,-0.3042969480954307,2.709506884298099,4.1853654552151704,-1.963640224458945,0.021513921180898395,0.024322872944562497,0.054746428332212174,4,left
37.225,0.48806505266730027,1.1051095265057984,-0.30543636158056037,2.6943973577883216,4.185306157040089,-1.9566987831450036,0.023312275974834953,0.026113298032090306,0.05433282520223414,4,left
37.226,0.4875006564356859,1.1073118606829901,-0.3065914150021384,2.6787943946956165,4.185340358786361,-1.9497336736014226,0.025100457220499,0.028033144048733655,0.05392124231978193,4,left
37.227,0.48690094146846474,1.1094742998480416,-0.30776178371877405,2.6626719806386387,4.185473831992207,-1.942754966785342,0.026874967608448253,0.030079420077862424,0.053510823380728406,4,left
37.241,0.48626468274393053,1.1115944454149458,-0.30894711055840013,2.646006020927906,4.1857109462109765,-1.935772490740059,0.028632390564753314,0.032248483012869304,0.053099577217382954,4,left
37.305,0.4855910007962092,1.1136698929152367,-0.3101470057952758,2.6287746619879924,4.186054643039438,-1.928795723209751,0.030369406567397558,0.034536052998874855,0.05268440228974882,4,left
37.306999999999995,0.4848793749061979,1.1156982444830559,-0.3113610463687491,2.6109585991551643,4.186506435937394,-1.9218336869434707,0.03208280762488065,0.036937236515821696,0.052261132972526096,4,left
37.306999999999995,0.48412965046893164,1.1176771202058446,-0.3125887742915983,2.592541369477009,4.187066429900163,-1.914894852887841,0.03376950996224062,0.03944655699919454,0.051824607421976004,4,left
37.308,0.4833420408516847,1.1196041689966936,-0.31382969473147443,2.573509626052294,4.187733351746628,-1.9079870546128852,0.03542656516051775,0.04205799234501523,0.05136875573326613,4,left
37.309,0.4825171243292914,1.1214770798718259,-0.31508327449607737,2.553853390889455,4.1885045837655905,-1.9011174155756618,0.03705117035717667,0.04476501765621959,0.05088670516662313,4,left
37.330999999999996,0.48165583624877956,1.123293594622075,-0.31634894146045045,2.533566284995625,4.189376197780919,-1.894292289748927,0.03864067831579331,0.04756065103790568,0.05037089814709702,4,left
37.358000000000004,0.4807594564371617,1.1250515225011068,-0.31762608498909384,2.5126457354356546,4.1903429891472035,-1.8875172156861935,0.04019260797236179,0.050437500799161955,0.04981321981616617,4,left
37.36,0.47982959315442125,1.1267487557273037,-0.31891405676658086,2.4910931593046426,4.191398510678132,-1.8807968840034621,0.041704655663664186,0.05338781343339318,0.04920513355014727,4,left
37.36,0.47886816666861676,1.1283832818212558,-0.3202121709706728,2.4689141245556856,4.192535106510081,-1.8741351182580326,0.04317470684088559,0.05640352241958272,0.04853782245647769,4,left
37.361,0.4778773951529855,1.129953188911257,-0.32151970339405683,2.4461184870530093,4.193743946109102,-1.8675348691290607,0.04460084766904751,0.05947629821376082,0.04780233241440725,4,left
37.397,0.47685978251200595,1.131456664979955,-0.32283589102192384,2.4227205003700525,4.195015059656855,-1.860998221425315,0.04598137571142567,0.06259759992049935,0.046989710749210656,4,left
37.4,0.47581810495035026,1.1328919964776054,-0.32415993434170115,2.3987388897225204,4.1963373779000985,-1.8545264127628533,0.047314809099290936,0.06575872901410029,0.04609113610614179,4,left
37.435,0.4747553932362946,1.1342575707665716,-0.3254910028197171,2.3741968785758942,4.1976987805756085,-1.848119862376147,0.0485998939235928,0.06895088518872268,0.04509803774340757,4,left
37.437,0.4736749098288421,1.1355518828663111,-0.3268282419118726,2.349122159313935,4.1990861564955395,-1.8417782089057328,0.04983560965675785,0.07216522392662669,0.044002203911232905,4,left
37.437,0.4725801219984302,1.1367735446299019,-0.3281707800251746,2.323546805351073,4.200485476158806,-1.8355003568351367,0.05102117221960212,0.07539291468400375,0.04279587922661869,4,left
37.438,0.4714746726217526,1.1379212945935528,-0.329517734924738,2.297507129270078,4.201881874873608,-1.8292845323623306,0.05215603417860816,0.078625198224086,0.04147185092385872,4,left
37.495,0.47036234966734963,1.138994007748413,-0.33086821949992484,2.2710434999669906,4.203259740834564,-1.8231283508863523,0.05323988168828612,0.08185344199715665,0.04002352388985271,4,left
37.496,0.4692470542914309,1.1399907052963465,-0.3322213466147779,2.244200135705834,4.204602801215275,-1.8170288986243273,0.05427262802649178,0.08506919313287765,0.03844498444561542,4,left
37.496,0.4681327668574577,1.1409105646088018,-0.33357623261616626,2.2170248834862543,4.205894203544704,-1.8109828281487115,0.05525440370003917,0.08826422898022825,0.036731052864310845,4,left
37.497,0.4670235104706837,1.1417529291662194,-0.3349319992166763,2.1895689834295187,4.2071165972093985,-1.8049864627286687,0.05618554312372119,0.09143060520431046,0.03487732462163815,4,left
37.498000000000005,0.46592331222239275,1.1425173177459043,-0.33628777379930697,2.16188681038916,4.20825222413104,-1.7990359016340662,0.05706656794043145,0.09456070144896785,0.03288020050512786,4,left
37.563,0.4648361626152589,1.1432034319359055,-0.3376426884310817,2.134035586268101,4.209283025685258,-1.793127120406775,0.057898167373566276,0.09764726457273613,0.030736906364041406,4,left
37.563,0.4637659737217158,1.1438111611634594,-0.33899587789501484,2.1060750603874014,4.21019076869012,-1.7872560636908699,0.058681176585276926,0.10068344946309826,0.028445504461106746,4,left
37.564,0.46271653699050175,1.1443405847039574,-0.340346476996105,2.078067157397889,4.210957190938332,-1.7814187302060978,0.05941655433763014,0.10366285743254433,0.026004899042434488,4,left
37.571,0.4616914821834926,1.1447919705197163,-0.34169361743348997,2.0500755926547893,4.211564166276047,-1.7756112498476269,0.06010536093764652,0.1065795721186798,0.023414838142557824,4,left
37.571,0.46069423909956286,1.1451657712023358,-0.34303642460837874,2.0221654552434765,4.211993888712049,-1.7698299528129136,0.060748736902933045,0.10942819240043976,0.02067591274387161,4,left
37.571999999999996,0.45972800330178537,1.1454626175451506,-0.34437401470845236,1.9944027601858718,4.212229072446458,-1.7640714302451352,0.06134788253001948,0.11220386110116207,0.017789554262648038,4,left
37.63,0.4587957064330694,1.1456833102638426,-0.34570549228120373,1.966853973771851,4.2122531600381565,-1.7583325851420766,0.06190403852107099,0.11490228783686005,0.014758031484969285,4,left
