time,gFx,gFy,gFz,ax,ay,az,wx,wy,wz,subject_number,foot
20.615,0.5078782985944152,1.1275582322891662,-0.2527186753032662,0.7762572488936141,2.917984720149644,-1.108296548179839,-0.0730994106834879,0.1474206979209044,-0.024753721336913562,1,left
20.615,0.5087507474394515,1.1269676672220046,-0.2517739405666547,0.7639266872956982,2.927839788622961,-1.1133516344738361,-0.07242924954608092,0.1435698684617023,-0.028024798514524697,1,left
20.616,0.5096687519165152,1.126366194123168,-0.25084281158037486,0.7517635088384144,2.9380175049224233,-1.1186100450328589,-0.07174186416967632,0.13967263863394067,-0.031426294082159925,1,left
20.643,0.5106309058864377,1.1257552574900895,-0.24992579687323482,0.7397983280473017,2.948504646538906,-1.1240547161918764,-0.07103775970437913,0.13573448691038847,-0.034951753876208594,1,left
20.671,0.5116354498429342,1.1251363031641024,-0.2490234186352582,0.728058860023914,2.959288795737378,-1.129668971048159,-0.07031766374313135,0.1317612950820153,-0.03859385210029625,1,left
20.675,0.5126802834483424,1.1245107706786908,-0.2481362142985889,0.716569663648402,2.9703583610255255,-1.1354365758223703,-0.0695825301897546,0.12775930536441657,-0.04234440645784032,1,left
20.676,0.513762979974716,1.123880085805481,-0.24726473788603034,0.7053519249611857,2.9817025914648836,-1.1413417973863045,-0.06883354074316035,0.12373507730590924,-0.04619440260460645,1,left
20.677,0.5148808025168603,1.1232456531518982,-0.2464095610720161,0.6944232849239116,2.993311586619885,-1.1473694596230188,-0.06807210400925721,0.1196954441411158,-0.05013402908477652,1,left
20.712,0.5160307222591773,1.12260884851241,-0.2455712739471939,0.6837977147021423,3.0051763042499644,-1.1535049968731368,-0.06729985229248948,0.11564746793802375,-0.05415272412646015,1,left
20.714000000000002,0.5172094392451287,1.1219710102846003,-0.24475048541822356,0.6734854397077513,3.0172885666066174,-1.1597345037791489,-0.06651863610539054,0.11159839304657782,-0.058239235331571264,1,left
20.749000000000002,0.5184134059265995,1.1213334290143486,-0.24394782304245022,0.6634929123538809,3.029641065211774,-1.1660447813730648,-0.0657305164101803,0.10755559764505611,-0.06238169268091757,1,left
20.750999999999998,0.5196388534296611,1.1206973345221578,-0.24316393206545295,0.6538228321271672,3.042227362380314,-1.172423379098517,-0.06493775458729724,0.10352654343222181,-0.06656769487135132,1,left
20.752,0.5208818202500001,1.1200638807973284,-0.2423994735481611,0.6444742095356172,3.0550418850934378,-1.1788586319689434,-0.06414280009504085,0.09951872400342177,-0.07078440861911044,1,left
20.753,0.5221381829688558,1.119434129236328,-0.2416551215746671,0.6354424693541075,3.068079905354266,-1.1853396917916332,-0.06334827573410531,0.09553961327350241,-0.07501867999726122,1,left
20.778000000000002,0.523403688313695,1.118809030878166,-0.24093155952584547,0.6267195897277229,3.0813375026337404,-1.1918565516596995,-0.06255696040278554,0.09159661576760939,-0.07925715656062385,1,left
20.807,0.5246739855273493,1.1181894084640598,-0.24022947537671985,0.6182942755738868,3.094811506518193,-1.1984000633040441,-0.061771769256617315,0.0876970201428418,-0.08348641932630363,1,left
20.809,0.5259446579099761,1.1175759393257363,-0.23954955600691208,0.6101521650255665,3.1084994183755827,-1.2049619466701043,-0.0609957312604437,0.08384795646951863,-0.08769312403595254,1,left
20.81,0.5272112526862534,1.1169691399924104,-0.2388924805662698,0.6022760663797425,3.1223993097653593,-1.2115347902395877,-0.060231964268159285,0.08005635729468928,-0.09186415039842262,1,left
20.81,0.5284693087842213,1.1163693531137726,-0.23825891296181248,0.5946462221792798,3.13650969454652,-1.2181120401179926,-0.0594836479856733,0.07632892233248066,-0.09598675619854495,1,left
20.843000000000004,0.529714382479116,1.1157767371483476,-0.23764949356901507,0.5872405978940446,3.1508293724100516,-1.224687976408258,-0.05875399529192214,0.07267208657794486,-0.10004873211557509,1,left
20.886,0.5309420711663668,1.115191259271213,-0.2370648303790821,0.5800351941743138,3.165357242950447,-1.2312576762900151,-0.058046222320341734,0.06909199167946116,-0.10403855392129176,1,left
20.886999999999997,0.5321480357631341,1.1146126918689245,-0.23650548991253068,0.5730043818748873,3.180092091022528,-1.2378169638134344,-0.0573635177226184,0.0655944604422219,-0.10794552952552708,1,left
20.888,0.5333280222578229,1.1140406127749602,-0.23597198823496918,0.5661212561551524,3.195032348584083,-1.2443623469666134,-0.05670901183859599,0.06218497429497415,-0.11175993743863608,1,left
20.888,0.5344778827739165,1.1134744091946778,-0.23546478231725193,0.5593580004507767,3.2101758459645513,-1.2508909433855304,-0.05608574670646473,0.058868653512783205,-0.11547315235073013,1,left
20.889,0.5355935964164333,1.112913285091687,-0.23498426191851166,0.5526862480520177,3.2255195698000545,-1.257400396525619,-0.055496647613391376,0.055650240038061044,-0.11907775460516672,1,left
20.910999999999998,0.5366712901599158,1.1123562716168596,-0.23453074215272576,0.5460774320852477,3.241059440576171,-1.2638887836639194,-0.054944496465562674,0.05253408283098753,-0.12256762228375034,1,left
20.944000000000003,0.5377072599308921,1.1118022399862049,-0.23410445682229505,0.539503120204775,3.2567901149813507,-1.2703545162906222,-0.05443190702266553,0.04952412572995966,-0.1259380056987156,1,left
20.945999999999998,0.538697991778138,1.111249916086774,-0.23370555244432284,0.532935333482514,3.272704814052603,-1.2767962332579905,-0.05396130199511749,0.04662389781283256,-0.12918558430183363,1,left
20.947,0.5396401827734127,1.1106978960364426,-0.2333340827500594,0.5263468501905569,3.288795177624153,-1.2832126882609602,-0.05353489200246707,0.043836506250008865,-0.13230850602065763,1,left
20.947,0.5405307611858142,1.1101446619558022,-0.23299000337299947,0.5197114962429452,3.3050511462893852,-1.2896026355571564,-0.05315465641996795,0.04116463164891095,-0.1353064089523622,1,left
20.976999999999997,0.5413669054837068,1.1095885972775144,-0.2326731664564523,0.5130044246580464,3.32146087247528,-1.2959647191303798,-0.05282232628280885,0.03861052593055431,-0.1381804249491814,1,left
20.984,0.5421460617226485,1.1090280010169429,-0.2323833150391162,0.5062023858077989,3.3380106618407055,-1.3022973692051625,-0.05253936967385063,0.03617601285282758,-0.1409331639161143,1,left
21.023000000000003,0.5428659588853977,1.1084611006480345,-0.23212007738855653,0.4992839891488078,3.3546849455112744,-1.3085987076864085,-0.05230698016321168,0.03386249133628514,-0.14356867724511005,1,left
21.024,0.5435246218880788,1.1078860635722716,-0.23188296186578394,0.4922299565349925,3.371466283275573,-1.3148664628016715,-0.052126068708446736,0.03167094163446698,-0.14609239935369708,1,left
21.025,0.5441203822529507,1.1073010074669123,-0.23167135313565,0.4850233668407298,3.3883353973399175,-1.3210978928960337,-0.05199725908108441,0.02960193395124305,-0.1485110677486768,1,left
21.026,0.5446518866118132,1.1067040099006864,-0.2314845104149102,0.47764989036577365,3.4052712339874875,-1.3272897189883484,-0.051920886586696094,0.027655638407823927,-0.1508326237633066,1,left
21.043000000000003,0.5451181030327097,1.1060931176227309,-0.23132156813842597,0.47009800922963896,3.422251046434952,-1.3334380650834974,-0.051896999730466874,0.025831834887959357,-0.15306609693531928,1,left
21.081,0.5455183248297385,1.1054663560949474,-0.23118153916981612,0.4623592187053671,3.439250489928262,-1.339538404894104,-0.051925364567265826,0.024129921656493424,-0.15522147525280602,1,left
21.083000000000002,0.5458521714630414,1.1048217400748848,-0.2310633205095085,0.45442820569945575,3.456243722371157,-1.3455855139661308,-0.05200547158982371,0.022548922390933552,-0.15730956243492628,1,left
21.083000000000002,0.5461195865102063,1.1041572860737296,-0.2309657013138283,0.4463030028474345,3.473203507833093,-1.3515734268166828,-0.05213654488605656,0.021087492056357463,-0.15934182403538527,1,left
21.084,0.5463208331107713,1.1034710272760575,-0.23088737300830312,0.43798511771134746,3.490101322405281,-1.3574953992540821,-0.05231755293682367,0.01974392289082678,-0.16133022645864234,1,left
21.11,0.5464564874224147,1.1027610311019107,-0.23082694133012735,0.42947963561617075,3.5069074616750346,-1.363343877222244,-0.05254722021595881,0.018516152192842427,-0.16328707433987028,1,left
21.16,0.5465274305909713,1.10202541875226,-0.23078293997961427,0.4207952926189665,3.523591148416268,-1.3691104755879169,-0.052824038964157265,0.017401773178699762,-0.16522485037827736,1,left
21.162,0.5465348397038768,1.1012623847846932,-0.23075384510387253,0.4119445144918422,3.5401206409226145,-1.374785971841535,-0.053146280904768826,0.01639804941530925,-0.16715605941566639,1,left
21.162,0.5464801781606822,1.1004702140627782,-0.23073808953625138,0.4029434198577496,3.556463347517967,-1.3803603193855902,-0.053512008974532725,0.015501932913390167,-0.1690930779539472,1,left
21.163,0.5463651858181795,1.099647294292203,-0.23073407597899342,0.3938117883658899,3.5725859564243043,-1.385822683545678,-0.0539190893557932,0.014710085886919714,-0.17104801140674264,1,left
21.164,0.5461918689977464,1.0987921243268206,-0.2307401889700205,0.3845729954052072,3.5884545883373953,-1.3911615018867227,-0.054365204192113555,0.014018906188066848,-0.17303256214339058,1,left
21.22,0.5459624897104971,1.0979033200036843,-0.23075480608239432,0.3752539142502061,3.6040349740029853,-1.3963645689605904,-0.05484786527408205,0.013424556424118888,-0.17505791062047893,1,left
21.221999999999998,0.5456795526716165,1.0969796192644385,-0.2307763090127803,0.36588478701744587,3.6192926529705094,-1.4014191430226581,-0.05536442881077283,0.012922996757754174,-0.17713461052237334,1,left
21.223000000000003,0.545345788944726,1.0960198872790867,-0.23080309501458027,0.3564990676235757,3.634193182658064,-1.4063120683131694,-0.05591211130718798,0.012510021389272936,-0.1792724980690986,1,left
21.224,0.5449641363639637,1.095023121678386,-0.23083358877181612,0.34713324100800524,3.648702343224273,-1.4110299043589825,-0.05648800654906159,0.012181298719070258,-0.18148061549741548,1,left
21.225,0.5445377176621268,1.0939884579593677,-0.23086625436610506,0.3378266218107168,3.662786327379015,-1.4155590558907272,-0.057089103699847835,0.01193241508524496,-0.18376714862323593,1,left
21.244,0.5440698167883824,1.0929151751717014,-0.230899606655554,0.32862113376527474,3.6764119108110327,-1.419885900821599,-0.057712306531524406,0.011758921453210853,-0.18613937790447663,1,left
21.296999999999997,0.5435638532621944,1.091802702142816,-0.23093222145700107,0.3195610700831493,3.6895466029889623,-1.4239969159058,-0.058354453841019775,0.011656381501511975,-0.18860364154305967,1,left
21.299,0.5430233543382097,1.0906506244351943,-0.23096274416425452,0.3106928353334032,3.702158781030504,-1.4278788002842986,-0.05901234112086537,0.011620419029991091,-0.19116530867577358,1,left
21.3,0.5424519249574055,1.089458691765373,-0.2309898965647841,0.302064670118122,3.714217813314613,-1.4315185974170337,-0.0596827435360167,0.011646763134958913,-0.1938287611931712,1,left
21.301,0.5418532156380869,1.0882268252233536,-0.23101248178915615,0.2937263602866373,3.7256941817221234,-1.434903816062316,-0.060362440185039536,0.011731290538243152,-0.19659738350578598,1,left
21.301,0.5412308886081805,1.0869551235304349,-0.23102938755206975,0.2857289319899014,3.7365596091767936,-1.4380225508012747,-0.06104823938865256,0.011870065021074199,-0.19947355956270596,1,left
21.355999999999998,0.5405885825650133,1.085643867643744,-0.23103958793498433,0.27812433303149053,3.7467871948865894,-1.440863602068112,-0.06173700435195618,0.01205937409968815,-0.2024586756189488,1,left
21.358,0.539929876477432,1.0842935231765802,-0.2310421439360316,0.27096510028262094,3.7563515560260705,-1.4434165942621675,-0.06242567832817428,0.012295763125300157,-0.20555312674464363,1,left
21.359,0.539258252946501,1.0829047402617866,-0.2310362029886003,0.2643040123952647,3.765228971554935,-1.4456720882853697,-0.06311130863028301,0.01257606694565272,-0.2087563255730695,1,left
21.36,0.5385770619090067,1.0814783506493386,-0.2310209976837014,0.25819372680089825,3.773397522420582,-1.447621683626063,-0.06379106923026312,0.012897439183400874,-0.21206671269164185,1,left
21.36,0.5378894857528427,1.0800153621200146,-0.23099584404815005,0.2526864002313806,3.7808372238360093,-1.4492581063311623,-0.0644622819125637,0.013257379064533252,-0.21548176856485562,1,left
21.377,0.5371985069087569,1.0785169506478804,-0.230960139842532,0.24783329244571745,3.7875301479240755,-1.4505752814069557,-0.0651224360336727,0.013653755338062566,-0.2189980268836014,1,left
21.435,0.5365068786366199,1.0769844509002235,-0.23091336330709514,0.2436843537084663,3.793460536279992,-1.451568389581816,-0.06576920701457041,0.014084826138989495,-0.2226110890633987,1,left
21.436999999999998,0.5358170993191379,1.0754193455725822,-0.23085507262382382,0.24028779968046138,3.7986149013785133,-1.4522339094677286,-0.06640047373442785,0.014549253263684161,-0.22631563951873765,1,left
21.438000000000002,0.5351313903540308,1.0738232539632444,-0.2307849062017048,0.23768968289899778,3.80298211410787,-1.4525696477049512,-0.06701433495227054,0.015046109709906278,-0.23010546143666222,1,left
21.439,0.5344516777536767,1.0721979202751215,-0.23070258374162603,0.23593347309029328,3.8065534737979165,-1.4525747605333843,-0.06760912480839308,0.015574880023133909,-0.23397345294517838,1,left
21.439,0.5337795777888411,1.070545202258568,-0.23060790787727042,0.23505965549554297,3.8093227580201154,-1.452249769373097,-0.06818342739745419,0.01613545337041961,-0.23791164370911552,1,left
21.485,0.533116387227281,1.0688670607183677,-0.23050076610167372,0.23510535087958723,3.811286251077021,-1.4515965714471952,-0.06873609030580333,0.01672810932208561,-0.2419112122110897,1,left
21.487,0.5324630785127901,1.0671655500939372,-0.2303811327246,0.2361039578299655,3.8124427510090464,-1.450618445619081,-0.06926623684172277,0.017353496289990326,-0.24596250434560454,1,left
21.500999999999998,0.5318202995044474,1.065442810020628,-0.23024907066981232,0.23808481771792475,3.8127935554956705,-1.449320053523175,-0.06977327659620314,0.018012602553595186,-0.25005505416017476,1,left
21.503,0.5311883766772926,1.0637010576441994,-0.2301047329455047,0.24107290456557637,3.8123424288720615,-1.44770743646724,-0.0702569140588304,0.01870671993865506,-0.25417760753481533,1,left
21.504,0.5305673206005538,1.0619425804662228,-0.22994836365545143,0.24508854543211028,3.811095555802785,-1.4457880093035234,-0.07071715515718166,0.019437400824651275,-0.2583181500358898,1,left
21.561,0.5299568330314449,1.0601697295479386,-0.22978029849680526,0.2501471788047811,3.809061488998057,-1.4435705528650227,-0.07115431163976633,0.02020641018792063,-0.26246394140549073,1,left
21.564,0.5293563155622432,1.0583849129066552,-0.229600964775543,0.2562591566132705,3.806251096509603,-1.4410652061622764,-0.07156900320360755,0.021015674820527647,-0.26660155974270144,1,left
21.565,0.5287648801287232,1.0565905888935911,-0.22941088102689777,0.2634295921229865,3.802677510817893,-1.4382834588151918,-0.07196215725655822,0.021867231015403856,-0.27071695729726925,1,left
21.566,0.5281813618743249,1.0547892592310262,-0.2292106563345675,0.271658254095852,3.7983560800741585,-1.4352381437935606,-0.07233500622310655,0.02276317081518066,-0.2747955281513855,1,left
21.568,0.5276043348673758,1.0529834611394342,-0.22900098935650254,0.28093950704830184,3.7933043213933524,-1.431943430294124,-0.07268908233943884,0.023705586492784342,-0.27882218742902415,1,left
21.639,0.5270321309393851,1.051175757708308,-0.22878266689850313,0.2912622964999878,3.787541875613094,-1.4284148157563872,-0.07302620991900229,0.02469651320492015,-0.2827814617342128,1,left
21.642,0.5264628616144293,1.0493687256856927,-0.22855656176818503,0.30261017641907,3.7810904620694132,-1.4246691145339057,-0.07334849509033346,0.025737870503468502,-0.28665759021654286,1,left
21.643,0.5258944429128214,1.0475649403232594,-0.22832362968064446,0.31496137521422335,3.7739738310916557,-1.4207244399273413,-0.07365831301847503,0.026831404488644694,-0.2904346348312307,1,left
21.644000000000002,0.5253246226732822,1.045766957533218,-0.2280849050823689,0.3282888979681448,3.7662177105587658,-1.416600177185571,-0.07395829262468896,0.027978632981625878,-0.29409659787944076,1,left
21.645,0.5247510098277839,1.0439772940026417,-0.22784149582980687,0.34256066502530486,3.7578497404126145,-1.41231694670167,-0.07425129881569854,0.029180795500780198,-0.2976275453957494,1,left
21.646,0.5241711047752846,1.0421984060239156,-0.22759457673512185,0.35773968839123477,3.7488993876640024,-1.4078965575306714,-0.0745404122274756,0.03043880875709876,-0.30101173581587704,1,left
21.697,0.5235823297579537,1.0404326678909106,-0.2273453820788844,0.3737842871888556,3.7393978363579774,-1.4033619514446705,-0.07482890648512744,0.031753227790871336,-0.30423375383889206,1,left
21.699,0.5229820581668314,1.0386823508645386,-0.22709519723273722,0.3906483426956843,3.7293778502700494,-1.3987371376039657,-0.07512022299396554,0.033124212740744445,-0.3072786492639137,1,left
21.7,0.5223676420536866,1.0369496037179562,-0.22684534951711122,0.40828159308591827,3.718873607940231,-1.3940471178467484,-0.07541794334799443,0.0345515011748758,-0.31013207943050014,1,left
21.701,0.5217364375986207,1.0352364356236445,-0.2265971983876094,0.42662996792339086,3.7079205100176913,-1.3893178025843587,-0.07572575957015942,0.036034385803208786,-0.31278045182069447,1,left
21.701,0.5210858286619962,1.0335447018228494,-0.22635212505032248,0.44563596179163845,3.6965549593122304,-1.3845759172753414,-0.07604744246986783,0.03757169732846799,-0.31521106222977274,1,left
21.775,0.5204132487410262,1.0318760922952688,-0.22611152164181744,0.46523904313903053,3.684814116072006,-1.3798488993836275,-0.07638680833214902,0.03916179225522173,-0.31741222506261074,1,left
21.778000000000002,0.5197162016735328,1.0302321234994887,-0.2258767801387058,0.48537608846008423,3.6727356348299622,-1.375164785604178,-0.07674768402474706,0.04080254558736799,-0.31937339438274903,1,left
21.778000000000002,0.5189922814011335,1.0286141331126686,-0.2256492811934525,0.5059818286254761,3.660357391284826,-1.3705520890716814,-0.07713387053831161,0.042491348406139516,-0.3210852754910293,1,left
21.779,0.5182391910735615,1.0270232775679924,-0.2254303831174311,0.526989297485464,3.647717205556869,-1.3660396663356567,-0.07754910501652215,0.04422511031412384,-0.32253992689671307,1,left
21.78,0.5174547616683797,1.025460532124489,-0.22522141118243758,0.5483302786120525,3.6348525648517414,-1.3616565741226714,-0.07799702161230428,0.0460002666355993,-0.32373085182635897,1,left
21.78,0.5166369701385027,1.0239266932329605,-0.2250236472975391,0.5699357482581379,3.621800349032242,-1.3574319165511222,-0.07848111200903846,0.047812790092015396,-0.32465307712451075,1,left
21.833000000000002,0.5157839570238566,1.022422383018926,-0.2248383200377298,0.5917363112970333,3.608596566837847,-1.3533946845161173,-0.07900468675867597,0.04965820654193729,-0.3253032166832973,1,left
21.834,0.5148940434907215,1.020948055708292,-0.22466659498578703,0.613662625809313,3.5952761129913875,-1.3495735896945076,-0.0795708384778556,0.05153161429874235,-0.3256795172578982,1,left
21.835,0.5139657477973095,1.0195040057938647,-0.2245095653552698,0.6356458130911399,3.581872553380956,-1.3459968958203534,-0.08018240774357217,0.05342770640239316,-0.325781885821152,1,left
21.835,0.5129978011691873,1.0180903776775416,-0.2243682428567169,0.6576178518504621,3.5684179400131635,-1.3426922502412801,-0.08084195241914685,0.05534079514555524,-0.3256118983304151,1,left
21.837,0.5119891629383854,1.0167071763252802,-0.2242435487291108,0.679511956464292,3.5549426543827374,-1.3396865189665794,-0.08155172091717132,0.05726483834496354,-0.32517278991872633,1,left
21.912,0.5109390344826253,1.0153542782375293,-0.22413630481417973,0.7012629393826981,3.5414752778436016,-1.3370056275266515,-0.08231362960320462,0.0591934671576861,-0.3244694265149648,1,left
21.914,0.5098468711708074,1.0140314420911398,-0.22404722462533866,0.7228075577515353,3.528042488392284,-1.334674408566275,-0.08312924437579136,0.06112001541346974,-0.32350825789325116,1,left
21.915,0.5087123915727856,1.012738318805987,-0.22397690463852754,0.7440848443181762,3.5146689837332388,-1.332716456318447,-0.08399976642484434,0.06303755046868151,-0.3222972521503412,1,left
21.916,0.5075355836566459,1.0114744612086306,-0.2239258163893405,0.7650364226825932,3.5013774305874574,-1.3311539879511483,-0.08492602214742688,0.0649389055271253,-0.3208458118070044,1,left
21.916999999999998,0.5063167081129213,1.010239333658329,-0.22389430015234968,0.7856068069555501,3.488188440205827,-1.3300077117803795,-0.08590845708433882,0.06681671307177357,-0.319164672718634,1,left
21.918000000000003,0.5050562990507257,1.0090323219912363,-0.22388256088047365,0.8057436855547422,3.4751205696379377,-1.3292967023002302,-0.08694713353265503,0.06866343850920799,-0.31726578876161204,1,left
21.97,0.5037551622881334,1.0078527440663645,-0.2238906668197938,0.8253981872179778,3.462190346252617,-1.3290382817635118,-0.08804173137373958,0.0704714128272833,-0.3151622062512542,1,left
21.971999999999998,0.5024143714675121,1.0066998611989157,-0.22391855098273986,0.8445251243399465,3.449412309308367,-1.3292479076546517,-0.08919155177220416,0.07223286336769326,-0.3128679310565126,1,left
21.973000000000003,0.5010352622742792,1.0055728907951826,-0.22396601545087919,0.8630832070870698,3.4367990603175924,-1.3299390651794443,-0.09039552360985237,0.07393994235724785,-0.31039778959400033,1,left
21.973000000000003,0.4996194251400641,1.0044710201326894,-0.22403273808876237,0.8810352233943605,3.4243613160035293,-1.3311231641158998,-0.09165221259507335,0.07558475325458616,-0.30776728410861726,1,left
21.974,0.49816869689590765,1.0033934202649217,-0.22411828070626044,0.8983481829481818,3.4121079614784673,-1.3328094401061787,-0.09295983281385048,0.07715937558813395,-0.3049924435259795,1,left
21.99,0.4966851517594596,1.002339258245388,-0.22422209742504787,0.9149934250579849,3.400046103981306,-1.3350048623962307,-0.09431626013300265,0.07865588996710586,-0.3020896730989898,1,left
22.045,0.4951710917995423,1.0013077060788986,-0.2243435422403745,0.9309466909185583,3.3881811291016564,-1.3377140531472502,-0.09571904666881409,0.08006640550614513,-0.29907560714689635,1,left
22.046999999999997,0.4936290367490002,1.0002979458739005,-0.22448187541297265,0.9461881609125046,3.3765167620725403,-1.3409392251514007,-0.09716543573196637,0.08138309134502021,-0.2959669681083047,1,left
22.048000000000002,0.49206171277424504,0.9993091719553495,-0.2246362691787689,0.9607024574507409,3.3650551360599836,-1.3446801430788151,-0.09865237701552884,0.0825982129384261,-0.2927804331916004,1,left
22.049,0.4904720396758246,0.99834059156838,-0.22480581386358386,0.9744786138810235,3.3537968679493666,-1.348934110022649,-0.10017654199050897,0.0837041732317196,-0.28953250882945325,1,left
22.049,0.488863116262498,0.9973914260548636,-0.2249895254801225,0.9875100113634514,3.3427411402185134,-1.3536959779570974,-0.10173433953868304,0.08469355862749628,-0.2862394130137118,1,left
22.108,0.4872382041613344,0.9964609142645168,-0.22518635556851316,0.9997942883315193,3.33188578535362,-1.358958177995683,-0.10332193198040215,0.08555918915333613,-0.2829169660127912,1,left
22.111,0.4856007105112786,0.9955483194019324,-0.22539520366365853,1.0113332287456942,3.321227369295901,-1.3647107659716478,-0.10493525188532206,0.08629417135100977,-0.27958049074031005,1,left
22.112,0.483954169708027,0.9946529394008256,-0.22561493210723807,1.0221326339484649,3.3107612739807717,-1.3709414822532713,-0.10657002018195955,0.08689195191281308,-0.2762447244696208,1,left
22.113000000000003,0.4823022240027247,0.9937741198115313,-0.22584438207517335,1.0322021802593824,3.3004817825803885,-1.3776358283914656,-0.10822176595420517,0.08734637058463318,-0.2729237431627735,1,left
22.113000000000003,0.48064860254617325,0.9929112678558711,-0.22608238934853622,1.0415552628559759,3.290382171029695,-1.3847771635653487,-0.10988584807261406,0.08765171172443333,-0.2696308988001831,1,left
22.179000000000002,0.47899709845526967,0.9920638667986027,-0.22632779880639683,1.050208826054996,3.2804548073507345,-1.39234682213906,-0.11155747862932891,0.08780275429743258,-0.2663787690942585,1,left
22.180999999999997,0.4773515436464271,0.9912314903480678,-0.22657947728348726,1.05818318003684,3.270691259003131,-1.4003242525649127,-0.11323174802785832,0.0877948200053471,-0.26317911784650405,1,left
22.182,0.4757157814121188,0.990413816860659,-0.2268363247854122,1.0655018040400672,3.2610824082317262,-1.4086871776533596,-0.11490365152779847,0.08762381914532386,-0.2600428636306874,1,left
22.186,0.4740936368780669,0.9896106428453895,-0.2270972841592439,1.0721911360509073,3.2516185753828206,-1.417411776231473,-0.11656811709577786,0.08728629389506476,-0.2569800550617788,1,left
22.186999999999998,0.47248888561918756,0.9888218950368732,-0.22736134937103125,1.0782803489487747,3.2422896500535736,-1.42647288564316,-0.11822003450601964,0.08677945890253863,-0.2539998519491013,1,left
22.188000000000002,0.47090522090993964,0.9880476403204796,-0.2276275725629191,1.083801112757212,3.23308522940258,-1.4358442216972207,-0.1198542856381908,0.08610123914964585,-0.25111051211790336,1,left
22.245,0.4693462202118203,0.9872880930012021,-0.22789507001611825,1.0887873420903924,3.2239947619835627,-1.4454986075435765,-0.12146577569597858,0.08525030502961001,-0.24831938334216064,1,left
22.247,0.46781531153234657,0.9865436191387763,-0.22816302707403283,1.0932749275738756,3.2150076949275337,-1.455408200110747,-0.12304946465832386,0.08422610439037986,-0.2456328990044866,1,left
22.248,0.4663157404155129,0.9858147378292641,-0.2284307020653631,1.097301450326398,3.2061136228361056,-1.465544705586752,-0.1246003980933558,0.08302889075580527,-0.24305657561956656,1,left
22.248,0.46485053846937313,0.9851021194678325,-0.22869742934645998,1.1009058791454427,3.197302437715459,-1.4758795805532525,-0.12611373679414106,0.08165974610205443,-0.24059501077393847,1,left
22.249000000000002,0.4634224942471446,0.9844065812727967,-0.22896262173505164,1.1041282504336865,3.188564479538298,-1.486384218255163,-0.12758478516988392,0.08012059616446479,-0.2382518808351506,1,left
22.311999999999998,0.4620341270214892,0.983729080573792,-0.22922577272698524,1.1070093313944258,3.179890685731516,-1.4970301201756842,-0.1290090185079543,0.07841421678955413,-0.23602993826336516,1,left
22.314,0.46068766375568543,0.9830707064056254,-0.22948645886024852,1.109590267797535,3.171272735372494,-1.5077890532985747,-0.13038210917420992,0.0765442307394777,-0.23393100849108941,1,left
22.314,0.4593850195253684,0.9824326699166728,-0.22974434244561098,1.1119122180467864,3.1627031824799245,-1.5186331935573865,-0.13169995176634974,0.07451509484638562,-0.23195598635976625,1,left
22.323,0.45812778180491287,0.9818162941834434,-0.22999917469883435,1.1140159748480132,3.154175574182469,-1.5295352558543878,-0.13295868722438095,0.07233207751178557,-0.2301048321068453,1,left
22.324,0.45691719921570595,0.9812230041020199,-0.23025079910812385,1.1159415750020591,3.14568455206379,-1.5404686108208994,-0.13415472586919294,0.07000122665547621,-0.22837656698966952,1,left
22.325,0.45575417527316586,0.9806543168700933,-0.2304991547336617,1.1177278981401764,3.137225936365838,-1.5514073885094983,-0.13528476917536303,0.06752932876779447,-0.2267692690946809,1,left
22.377,0.45463926735189325,0.9801118332570052,-0.23074427916008236,1.1194122587569266,3.1287967929416975,-1.5623265698646316,-0.1363458297876691,0.06492386070782297,-0.2252800707120682,1,left
22.378,0.4535726906416264,0.9795972296449827,-0.23098631094198682,1.121030002418539,3.1203954827231133,-1.5732020680412018,-0.13733524912589487,0.062192936439415356,-0.22390515911814549,1,left
22.379,0.452554326349508,0.9791122507531642,-0.23122549147528218,1.1226141206483728,3.1120216933977716,-1.584010802320095,-0.13825071208703496,0.05934525034685841,-0.22263978214628083,1,left
22.38,0.4515837330784338,0.97865870288681,-0.23146216628724064,1.1241948953667356,3.103676453061632,-1.5947307666901773,-0.13909025866917718,0.056390017822829264,-0.22147825922469536,1,left
22.381,0.45066016051915847,0.9782384474656614,-0.23169678578780853,1.125799577605197,3.095362126051135,-1.6053410939498538,-0.1398522926002869,0.0533369134741316,-0.22041399874011045,1,left
22.445999999999998,0.44978256514111686,0.977853394565525,-0.23192990553699508,1.1274521034238016,3.0870823927960163,-1.6158221155348278,-0.14053558725784224,0.05019600754550833,-0.21943952365003283,1,left
22.449,0.44894962798028343,0.9775054962091253,-0.23216218605712025,1.1291728525331797,3.0788422183658057,-1.6261554172021924,-0.1411392892594929,0.04697770136433997,-0.21854650790890945,1,left
22.45,0.44815977479909963,0.9771967389789176,-0.23239439216663244,1.1309784569560872,3.070647815948891,-1.6363238907337914,-0.14166292001025266,0.04369266240593806,-0.2177258256315164,1,left
22.458000000000002,0.4474111988982316,0.9769291352077546,-0.232627391709511,1.1328816652305695,3.0625066099374068,-1.646311781788304,-0.14210637531427117,0.04035175922255122,-0.21696761370010478,1,left
22.459,0.4467018866792282,0.9767047118565813,-0.2328621534317574,1.1348912639735023,3.0544272003419017,-1.6561047338772892,-0.14246992302833836,0.03696599631983492,-0.21626134757374335,1,left
22.461,0.446029645813983,0.9765254964334238,-0.23309974372929648,1.137012054865113,3.046419328038027,-1.6656898279360468,-0.14275419864995545,0.033546449102394724,-0.2155959293789671,1,left
22.484,0.44539213567110975,0.9763934998265893,-0.23334132209162228,1.1392448812822087,3.038493838853512,-1.6750556161055794,-0.1429601986963539,0.030104199053527368,-0.21495978705484914,1,left
22.509,0.44478689934715204,0.9763106965021389,-0.23358813519136348,1.1415866968822057,3.0306626438477076,-1.6841921478705917,-0.1430892717668372,0.02665026927048074,-0.21434098363193108,1,left
22.516,0.44421139626619877,0.9762790029630969,-0.23384150965689285,1.1440306703662961,3.022938673792351,-1.693090987168668,-0.14314310724242588,0.023195560486901662,-0.21372733614093986,1,left
22.517,0.443663034159134,0.9763002555195165,-0.2341028436310717,1.1465663241170503,3.0153358270434403,-1.701745219932556,-0.14312372159592976,0.019750788115696968,-0.2131065432798165,1,left
22.518,0.4431391994544304,0.976376188301333,-0.23437359724535578,1.1491797063447893,3.0078689102665908,-1.7101494519608307,-0.14303344226225698,0.01632642163829744,-0.21246631981628467,1,left
22.581,0.44263728548567166,0.9765084122738541,-0.23465528209346925,1.1518535968265313,3.0005535696900747,-1.7182997969216667,-0.1428748890016997,0.012932628111607874,-0.21179453502954582,1,left
22.583000000000002,0.4421547182431395,0.9766983959302109,-0.2349494497364974,1.154567746436794,2.9934062071046124,-1.7261938539625388,-0.1426509527055811,0.00957922111865829,-0.2110793531683233,1,left
22.583000000000002,0.44168897969926313,0.9769474483092182,-0.23525767930252248,1.1572991507337547,2.986443872909682,-1.733830674213933,-0.14236477162378383,0.006275615687496294,-0.2103093751150023,1,left
22.594,0.44123762904795255,0.9772567049073267,-0.2355815643508415,1.1600223578004285,2.9796841304262642,-1.741210715658442,-0.14201970503522532,0.003030789218411694,-0.2094737808927413,1,left
22.596,0.4407983223654156,0.9776271168451394,-0.23592269925716158,1.162709809705618,2.973144889780582,-1.748335786186302,-0.14161930450995294,-0.00014675182555825788,-0.20856247165484276,1,left
22.596999999999998,0.4403688311260458,0.9780594433969046,-0.23628266537083742,1.165332213286375,2.9668442147272076,-1.7552089749377013,-0.1411672831353207,-0.003249000062910248,-0.20756620775756726,1,left
22.643,0.4399470598513637,0.9785542478141447,-0.23666301715420954,1.1678589294626114,2.9608001118228153,-1.7618345722410258,-0.1406674832029645,-0.006268470966841015,-0.206476738385194,1,left
22.645,0.4395310631258462,0.9791118962282077,-0.23706526854333906,1.1702583666953579,2.955030314506067,-1.7682179785514842,-0.14012384272870929,-0.009198222865005368,-0.20528691932810927,1,left
22.656,0.43911906221957303,0.9797325592351317,-0.23749087983221576,1.172498367799009,2.9495520714962282,-1.774365602697829,-0.1395403610122527,-0.01203187339773095,-0.20399081745774003,1,left
22.656999999999996,0.43870946145480766,0.9804162156323161,-0.2379412453461817,1.1745465857958948,2.944381943265466,-1.7802847495714107,-0.13892106361302417,-0.01476361240777191,-0.20258380110072924,1,left
22.656999999999996,0.43830086427017356,0.9811626577657273,-0.23841768202284214,1.1763708480994568,2.9395356076274735,-1.7859834974856006,-0.1382699676230227,-0.017388211082962252,-0.2010626148888711,1,left
22.712,0.43789208880528296,0.9819714979860513,-0.23892141885755747,1.1779395090279503,2.935027677009594,-1.7914705663661965,-0.13759104841143957,-0.019901027110507497,-0.19942543718767256,1,left
22.714000000000002,0.4374821827462813,0.9828421757081276,-0.23945358703866446,1.1792217906433742,2.930871533850822,-1.796755179647169,-0.13688820872165142,-0.02229800566370904,-0.19767191867944112,1,left
22.730999999999998,0.43707043696442804,0.9837739645528796,-0.24001521049292557,1.180188111905993,2.9270791927213646,-1.8018469236979193,-0.13616525047166403,-0.024575676153834245,-0.19580320152850494,1,left
22.733,0.43665639711811793,0.9847659791554716,-0.2406071965725923,1.180810406137779,2.923661195608026,-1.8067556076551712,-0.13542584931488852,-0.026731144741872725,-0.19382191902919196,1,left
22.733,0.4362398722928208,0.985817181484689,-0.2412303268577791,1.1810624267456795,2.9206265425955755,-1.8114911249677221,-0.13467353195923887,-0.028762082617057195,-0.19173217573153206,1,left
22.734,0.4358209402474169,0.9869263867639343,-0.24188524840691764,1.1809200409170242,2.917982656318848,-1.816063317759709,-0.13391165624362672,-0.030666710109062585,-0.1895395081073007,1,left
22.776999999999997,0.4353999494665992,0.9880922691645397,-0.2425724659706436,1.1803615105646819,2.915735375063628,-1.820481846277814,-0.1331433939766045,-0.03244377700233114,-0.18725082615860442,1,left
22.778000000000002,0.4349775183862474,0.9893133674713972,-0.24329233564373107,1.179367759557125,2.913888967691435,-1.8247560664377775,-0.13237171655217178,-0.03409253996400576,-0.1848743369827252,1,left
22.791,0.4345545319507975,0.9905880910725261,-0.24404506038081697,1.1779226265088178,2.9124461652684834,-1.8288949177346696,-0.13159938336345528,-0.03561273829847591,-0.1824194516465503,1,left
22.791999999999998,0.43413213548454904,0.9919147268363252,-0.24483068776951497,1.1760131023886238,2.9114082071162715,-1.8329068223625509,-0.13082893302923093,-0.03700456893929128,-0.1798966763837383,1,left
22.793000000000003,0.433711725860929,0.993291447509976,-0.2456491103014468,1.1736295501890333,2.9107748995502405,-1.8367995953002219,-0.13006267740790234,-0.038268661039083864,-0.17731748874457925,1,left
22.845,0.433294940045954,0.9947163220737206,-0.2465000681630993,1.1707658998869475,2.910544683833743,-1.8405803643607912,-0.12930269821761167,-0.03940605018410709,-0.17469420013278217,1,left
22.846999999999998,0.4328836411240928,0.9961873278349451,-0.24738315432238767,1.1674198096703972,2.910714708719499,-1.8442554988643498,-0.1285508458096374,-0.04041815214205305,-0.1720398081551766,1,left
22.868000000000002,0.4324799019264261,0.9977023628893292,-0.2482978212885275,1.16359278665925,2.911280904108103,-1.8478305459307638,-0.12780873949203175,-0.04130673601966285,-0.16936784335455604,1,left
22.87,0.4320859868692337,0.9992592569945083,-0.24924338871651092,1.1592902644056418,2.9122380544354565,-1.851310173997785,-0.12707776896298859,-0.04207389670304585,-0.16669221398338174,1,left
22.87,0.43170433383344786,1.00085578025127,-0.25021905163761093,1.1545216369704152,2.9135798718712,-1.8546981238605902,-0.126359096745378,-0.04272202633538784,-0.1640270515761428,1,left
22.871,0.4313375386095061,1.0024896510597647,-0.2512238899992263,1.1493002511059747,2.915299071206749,-1.8579971693619484,-0.125653661774894,-0.04325378430301063,-0.16138656102187887,1,left
22.91,0.4309883429315005,1.00415854507128,-0.25225688011654884,1.1436433603866998,2.9173874511281435,-1.8612090930403207,-0.12496218438587516,-0.04367206503167329,-0.1587848797695722,1,left
22.910999999999998,0.430659624406155,1.0058601056070955,-0.25331690769882687,1.1375720464112202,2.919835988134191,-1.864334683808692,-0.12428517287735392,-0.04397996306974382,-0.15623594963905485,1,left
22.927,0.43035438572566287,1.0075919553417414,-0.25440278156386675,1.131111110915068,2.922634947797295,-1.8673737619709159,-0.12362293173115683,-0.04418073524967945,-0.15375340262198467,1,left
22.929000000000002,0.43007574201000487,1.0093517089988062,-0.2555132472776479,1.124288940481261,2.9257740144778865,-1.8703252332447238,-0.12297557149237792,-0.04427775989400798,-0.1513504608974648,1,left
22.929000000000002,0.4298269064429864,1.0111369864225064,-0.2566470001584363,1.1171373450625055,2.929242435180034,-1.8731871693995623,-0.12234302031357151,-0.04427449315960749,-0.1490398509584309,1,left
22.967,0.42961117428137613,1.0129454250898609,-0.2578026972255744,1.1096913727319677,2.933029165975534,-1.8759569086330468,-0.12172503718050322,-0.04417442307830456,-0.14683373126220964,1,left
22.968000000000004,0.4294319049347485,1.0147746915819988,-0.25897896789590696,1.1019891038903529,2.937123005564531,-1.8786311665146016,-0.1211212268669519,-0.04398102268766718,-0.14474363194964,1,left
23.006,0.4292925018696153,1.0166224922303635,-0.2601744234171972,1.0940714274279848,2.9415127050586216,-1.8812061506014064,-0.12053105668254856,-0.04369770411011032,-0.1427804046945017,1,left
23.006999999999998,0.4291963903057578,1.0184865833181584,-0.26138766506827804,1.0859818002970352,2.946187053305271,-1.883677675871662,-0.11995387506122866,-0.0433277749736243,-0.14095418122820505,1,left
23.008000000000003,0.4291469927859568,1.0203647808750544,-0.2626172911249809,1.0777659918899285,2.9511349468439114,-1.8860412802514352,-0.1193889319644626,-0.0428743977161651,-0.1392743398553649,1,left
23.008000000000003,0.4291477026690112,1.0222549697923025,-0.2638619025810539,1.0694718148755342,2.9563454576405284,-1.8882923398792506,-0.11883540083781412,-0.0423405517767153,-0.13774947926464204,1,left
23.043000000000003,0.4292018555495534,1.0241551119253798,-0.26512010765151256,1.0611488437257048,2.9618079084648157,-1.8904261838431053,-0.11829240146155776,-0.04172899844923298,-0.13638739814608306,1,left
23.066,0.42931269872495925,1.0260632528476283,-0.26639052515161676,1.0528481213424923,2.967511959543928,-1.8924382081262658,-0.11775902281691843,-0.041042248101223845,-0.13519507863209487,1,left
23.068,0.4294833590349803,1.0279775268769131,-0.26767178689058213,1.0446218534353533,2.9734477052419335,-1.8943239877814342,-0.11723434530678865,-0.04028252959622795,-0.13417867203880443,1,left
23.068,0.429716809490337,1.0298961600192709,-0.2689625392071727,1.0365230895978308,2.979605775974233,-1.8960793849176174,-0.1167174620546563,-0.03945176221065357,-0.1333434860984268,1,left
23.069000000000003,0.4300158351498128,1.0318174705699452,-0.27026144373949107,1.0286053896910319,2.985977438964783,-1.8977006492764286,-0.11620749920721411,-0.038551530981328186,-0.13269397305017314,1,left
23.109,0.43038299892906434,1.033739867234381,-0.2715671775629175,1.020922474483674,2.992554693056759,-1.8991845089814494,-0.11570363520027035,-0.03758306675250353,-0.13223371787991767,1,left
23.111,0.43082060830904767,1.0356618448593715,-0.2728784329784368,1.0135278601148658,2.9993303556717694,-1.900528250496977,-0.11520511895732005,-0.03654723187311791,-0.13196542617608054,1,left
23.141,0.4313306838898512,1.037581978194836,-0.27419391736013293,1.0064744762885425,3.0062981416154826,-1.9017297876393449,-0.11471128700764835,-0.03544451192300707,-0.1318909113878062,1,left
23.143,0.4319149303947859,1.0394989142939297,-0.2755123534331483,0.9998142681776024,3.0134527337485406,-1.9027877196450875,-0.1142215795133514,-0.03427501356740891,-0.13201108147548535,1,left
23.143,0.4325747104271873,1.041411364095613,-0.276832480183312,0.9935977820166169,3.020789845542219,-1.9037013782997931,-0.11373555516050778,-0.033038468768266854,-0.1323259251130979,1,left
23.144000000000002,0.43331102125467974,1.0433180936438888,-0.2781530544133838,0.9878737348522161,3.028306275338041,-1.9044708642217028,-0.11325290480474688,-0.03173424592786305,-0.13283449784277673,1,left
23.177,0.43412447508267554,1.0452179154425372,-0.2794728528129807,0.982688571367679,3.035999951127149,-1.9050970728467125,-0.11277346372536232,-0.030361368733019554,-0.13353490871608603,1,left
23.201,0.43501528350549956,1.0471096804710354,-0.28079067434260213,0.9780860155125445,3.0438699631223662,-1.9055817115867455,-0.11229722237823944,-0.028918543275012407,-0.13442430782352865,1,left
23.203000000000003,0.4359832469536646,1.0489922712393627,-0.28210534277533,0.974106629164298,3.0519165817110525,-1.9059273106375099,-0.11182433559214948,-0.027404193534158523,-0.13549887506006086,1,left
23.203000000000003,0.4370277498520771,1.0508645960352891,-0.28341570932228977,0.9707873912917814,3.060141261754815,-1.9061372304508595,-0.11135513013544303,-0.02581650443108256,-0.13675381127178854,1,left
23.204,0.43814776170732195,1.0527255843458967,-0.28472065529170687,0.9681613087368561,3.068546637328375,-1.9062156686225837,-0.11089011049085737,-0.024153470358950782,-0.13818333457754453,1,left
23.243000000000002,0.43934184352101713,1.0545741832895716,-0.28601909468682085,0.9662570652378082,3.077136510675731,-1.9061676679415855,-0.11042996262252261,-0.022412946416898033,-0.1397806855899598,1,left
23.244,0.4406081583126231,1.0564093547577873,-0.2873099766116288,0.9650987111432655,3.085915836989582,-1.9059991262628062,-0.10997555557290174,-0.020592700258517577,-0.14153814433077383,1,left
23.28,0.44194448474914055,1.0582300728935279,-0.2885922874102597,0.964705394322323,3.0948907053345702,-1.9057168081644238,-0.10952794082396311,-0.018690463718006003,-0.14344705996093757,1,left
23.281999999999996,0.4433482337755994,1.0600353215489113,-0.28986505260433937,0.9650911328862917,3.104068315935091,-1.9053283574892184,-0.10908834942093308,-0.016703984113601404,-0.14549789348373127,1,left
23.283,0.44481646883628545,1.0618240914415709,-0.29112733879369423,0.9662646312708661,3.1134569543430577,-1.90484230851968,-0.10865818691969992,-0.014631075483566097,-0.14768027323137195,1,left
23.284000000000002,0.44634593030950276,1.0635953767869006,-0.29237825566255776,0.9682291417470602,3.123065963164979,-1.904268092786119,-0.10823902631252157,-0.012469670400457182,-0.14998306265418368,1,left
23.31,0.44793306441245667,1.0653481711288209,-0.29361695808789207,0.9709823729141184,3.132905711864881,-1.9036160392567307,-0.10783259913869114,-0.01021787322625739,-0.15239443976968073,1,left
23.338,0.44957405626438185,1.0670814620079567,-0.2948426481020936,0.9745164457986158,3.142987564866131,-1.9028973670082465,-0.10744078494350877,-0.007874015302069519,-0.15490198766426444,1,left
23.34,0.45126486614914224,1.068794224195499,-0.2960545762250766,0.9788178976688587,3.1533238480124712,-1.9021241702255591,-0.1070655991986044,-0.005436711417345371,-0.1574927950966421,1,left
23.34,0.45300126766149174,1.0704854114797155,-0.2972520416234443,0.9838677335724759,3.163927813416549,-1.9013093955284628,-0.10670917982252055,-0.0029049153223385947,-0.16015356527012625,1,left
23.340999999999998,0.4547788864600339,1.072153947253847,-0.29843439070035654,0.989641525684499,3.1748136024433182,-1.900466811697489,-0.1063737724733368,-0.000277971246041897,-0.16287073023790355,1,left
23.377,0.4565932385247362,1.0737987143474363,-0.2996010139362386,0.9961095609412873,3.185996205168325,-1.899610972240721,-0.1060617147419393,0.0024443408606477277,-0.16563056904137072,1,left
23.379,0.45843976700052375,1.0754185446502649,-0.300751340968757,1.0032370381323508,3.1974914121171087,-1.8987571719094782,-0.10577541929678737,0.005261767273111319,-0.16841932882622687,1,left
23.416,0.460313876897665,1.0770122091292609,-0.30188483399404714,1.0109843160100602,3.20931575268467,-1.8979213986407448,-0.10551735598786374,0.00817354979163494,-0.17122334881694354,1,left
23.418000000000003,0.46221096713630344,1.0785784089266872,-0.30300097966805084,1.0193072135933485,3.2214864160428927,-1.8971202820341158,-0.105290032914115,0.011178402311172146,-0.17402918697209394,1,left
23.419,0.46412645974959765,1.080115768278122,-0.30409927983550344,1.0281573631488357,3.234021152879281,-1.896371038804924,-0.10509597648475216,0.014274494147559307,-0.176823748216022,1,left
23.419,0.46605582644160837,1.0816228298297053,-0.3051792415395837,1.0374826151227878,3.246938157866303,-1.8956914150409823,-0.10493771055164335,0.017459438821609125,-0.17959441147362212,1,left
23.443,0.4679946129621175,1.0830980526306537,-0.3062403668144842,1.0472274900922012,3.260255933777832,-1.8950996237953928,-0.10481773471610781,0.020730286567128282,-0.18232915180792195,1,left
23.474,0.46993846186512916,1.0845398128178911,-0.30728214276196825,1.0573336653715208,3.2739931394924264,-1.8946142743501,-0.10473850188752731,0.024083519264811636,-0.18501665488721433,1,left
23.476,0.4718831342216384,1.0859464068245275,-0.30830403237660475,1.0677404797832684,3.288168424858868,-1.8942542882640065,-0.10470239516368482,0.027515047342756886,-0.18764642256741798,1,left
23.476999999999997,0.47382453078763087,1.0873160567988875,-0.3093054664997559,1.0783854442316478,3.3028002546659545,-1.894038798540777,-0.10471170427272351,0.03102020889211209,-0.19020886875357013,1,left
23.476999999999997,0.47575871296299715,1.0886469178565936,-0.31028583713614344,1.0892047527719981,3.317906723162214,-1.893987030667257,-0.10476860216409005,0.034593771823112,-0.19269540390187126,1,left
23.483,0.4776819236487056,1.0899370868119531,-0.3112444921887092,1.1001337910968365,3.3335053624612763,-1.8941181665826627,-0.10487512253181154,0.038229940158860304,-0.19509850597477785,1,left
23.511999999999997,0.4795906078978357,1.0911846120684117,-0.3121807315051716,1.111107636761196,3.349612952745144,-1.8944511948413658,-0.10503313885772371,0.04192236529254784,-0.19741177621020745,1,left
23.544,0.48148143306588126,1.09238750433425,-0.3130938039737566,1.1220615437619053,3.3662453447016625,-1.8950047516307857,-0.10524434520985275,0.04566416254461288,-0.19962997905347174,1,left
23.545,0.4833513079939912,1.0935437478037415,-0.31398290527148187,1.1329314069584848,3.383417301507039,-1.8957969577707108,-0.10551023883543313,0.049447933084650994,-0.20174906614907584,1,left
23.546,0.48519740066134087,1.0946513114917995,-0.3148471758667123,1.143654206994343,3.401142362037381,-1.8968452576566597,-0.10583210454901913,0.0532657912286672,-0.20376618439901717,1,left
23.546999999999997,0.48701715371453647,1.0957081605548258,-0.3156856990653063,1.1541684392496072,3.4194327238678617,-1.898166266574809,-0.10621100091234992,0.057109397109265235,-0.2056796680794187,1,left
23.576999999999998,0.4888082973098391,1.0967122675922811,-0.3164974991668474,1.1644145297670785,3.4382991445984694,-1.8997756310470497,-0.1066477481830348,0.060969994650797124,-0.20748901493439895,1,left
23.621,0.4905688588696408,1.0976616240127905,-0.31728154001435865,1.1743352389535358,3.4577508607191456,-1.9016879039054124,-0.10714291797373542,0.06483845466334888,-0.20919484603502317,1,left
23.622,0.49229716963642745,1.0985542515487998,-0.3180367243024097,1.1838760509248973,3.4777955225623036,-1.9039164334122218,-0.1076968245486524,0.06870532270411342,-0.21079884928687606,1,left
23.622,0.4939918681116602,1.0993882139810345,-0.31876189397547106,1.1929855426355584,3.498439141887248,-1.9064732639359372,-0.10830951772762783,0.07256087092190977,-0.21230370738533855,1,left
23.623,0.49565190048921487,1.100161629205232,-0.3194558320027948,1.2016157249682968,3.5196860474728067,-1.9093690448619338,-0.1089807774463499,0.07639515232151715,-0.2137130126658714,1,left
23.623,0.49727651811032203,1.1008726820095784,-0.3201172658709744,1.2097223499230574,3.541538845266067,-1.9126129452499572,-0.1097101100646528,0.08019805545164721,-0.2150311722121577,1,left
23.643,0.4988652719259452,1.1015196382272283,-0.32074487325289003,1.2172651815750781,3.5639983817426555,-1.9162125732477335,-0.1104967464954344,0.08395935803201458,-0.21626330575601224,1,left
23.679000000000002,0.5004180040672923,1.1021008609253276,-0.32133729024680463,1.2242082304344601,3.5870637103056247,-1.9201739001027636,-0.11133964218442492,0.087668778932261,-0.2174151373849457,1,left
23.68,0.5019348368491744,1.1026148284548603,-0.3218931220292548,1.230519951230383,3.610732060785722,-1.9245011887816337,-0.11223747894761746,0.0913160284139294,-0.21849288122982016,1,left
23.68,0.503416159799314,1.1030601525291293,-0.32241095479225995,1.2361734041415535,3.634998812107565,-1.9291969272071998,-0.11318866864892184,0.09489085671238454,-0.2195031213493588,1,left
23.680999999999997,0.5048626156622061,1.103435593279755,-0.32288936716756983,1.2411463794664686,3.6598574684150273,-1.9342617664475648,-0.1141913586022832,0.09838310136599351,-0.22045268709409543,1,left
23.709,0.5062750865240169,1.1037400687924355,-0.32332693970338017,1.2454214855937713,3.685299640086134,-1.9396944658044728,-0.11524343840539847,0.10178273429472108,-0.22134852715103515,1,left
23.756999999999998,0.5076546808650002,1.1039726588140106,-0.3237222622698883,1.248986199894411,3.711315033112986,-1.9454918496525904,-0.11634254783698803,0.10507990988405813,-0.2221975866095503,1,left
23.759,0.5090027216150143,1.104132604698005,-0.3240739407063288,1.2518328820238733,3.737891451459167,-1.9516487824948539,-0.11748608566397065,0.10826501461642811,-0.22300669068977846,1,left
23.76,0.5103207345285458,1.104219308434392,-0.3243806044535583,1.2539587492522515,3.765014815873507,-1.9581581670874573,-0.11867121959066815,0.11132871750758161,-0.22378243751628255,1,left
23.761,0.51161043570475,1.1042323325153143,-0.3246409160119729,1.255365813674588,3.7926692005972398,-1.9650109675863128,-0.11989489779654448,0.11426201989165881,-0.22453110162051446,1,left
23.761999999999997,0.5128737173601109,1.1041714010470005,-0.32485358185238894,1.256060781679059,3.820836887684818,-1.9721962577108043,-0.1211538624130445,0.11705630341513558,-0.2252585492753289,1,left
23.776,0.5141126319106942,1.104036401735087,-0.32501736376908896,1.2560549180532872,3.8494984355176527,-1.97970129187719,-0.12244466508184522,0.11970337578886961,-0.22597016610415258,1,left
23.816,0.5153293749294878,1.1038273879374303,-0.32513108962775944,1.2553638806519452,3.8786327534718477,-1.9875115943811144,-0.12376368462118013,0.12219551423006045,-0.22667079704036566,1,left
23.816999999999997,0.5165262671386041,1.1035445803666653,-0.3251936629454503,1.254007533443516,3.908217174927876,-1.9956110611157005,-0.12510714678085985,0.12452550660665276,-0.2273646985218744,1,left
23.818,0.517705735067818,1.103188368943614,-0.3252040713603088,1.2520097436264588,3.9382275293807445,-2.00398207206494,-0.12647114595177086,0.12668669031889135,-0.2280555022201969,1,left
23.819000000000003,0.5188702899600482,1.1027593155083852,-0.32516139423626733,1.2493981648600694,3.9686382227994073,-2.0126056170404447,-0.12785166848883822,0.12867298899297241,-0.2287461885492496,1,left
23.842,0.5200225047205613,1.1022581575451742,-0.32506480948026983,1.2462040067566662,3.9994223351600504,-2.021461437724402,-0.12924461719157618,0.13047894708387162,-0.2294390676133906,1,left
23.895,0.5211649889019927,1.1016858125099505,-0.32491359951548976,1.2424617904733022,4.030551738671893,-2.0305281869662144,-0.130645836601341,0.13209976246134536,-0.2301357658398776,1,left
23.896,0.5223003618353408,1.1010433820063217,-0.32470715630598657,1.2382090900309894,4.061997235391246,-2.0397836030024954,-0.13205113894505213,0.13353131699589998,-0.2308372175152908,1,left
23.897,0.5234312240445695,1.1003321550020788,-0.32444498529666893,1.2334862584817612,4.093728709262796,-2.049204692174145,-0.13345633048875175,0.1347702050583068,-0.23154366063256346,1,left
23.898000000000003,0.5245601270731598,1.0995536095701754,-0.3241267081552569,1.2283361377521385,4.125715285944982,-2.0587679115642854,-0.13485723776092726,0.13581375969701084,-0.23225463585504966,1,left
23.898000000000003,0.5256895419477335,1.0987094129853596,-0.3237520642807681,1.2228037512802974,4.157925495460321,-2.0684493451319232,-0.13624973292417034,0.13666007617713855,-0.23296898700554786,1,left
23.954,0.5268218267782006,1.0978014200671284,-0.32332091111405964,1.2169359792693588,4.190327435502559,-2.0782248707245286,-0.13762975775510866,0.13730803264435823,-0.23368486188673437,1,left
23.956,0.5279591943043331,1.096831669497431,-0.32283322333158637,1.2107812175888082,4.222888933719023,-2.0880703171878183,-0.1389933460347582,0.1377573077308917,-0.23439971296480783,1,left
23.956999999999997,0.529103680268757,1.0958023777815962,-0.3222890910346592,1.2043890230701157,4.255577705468598,-2.097961610652977,-0.14033664441162622,0.13800839455263333,-0.23511029788662635,1,left
23.958000000000002,0.530257113301845,1.0947159307027752,-0.3216887170993773,1.197809748862295,4.288361502358955,-2.1078749087659707,-0.14165593197805063,0.13806260975560605,-0.23581267995223532,1,left
23.958000000000002,0.5314210868596614,1.0935748724294432,-0.32103241398135673,1.191094172591684,4.321208248064473,-2.1177867219396584,-0.14294763887905632,0.1379220958215373,-0.2365022287046283,1,left
23.976,0.5325969337933912,1.0923818927214637,-0.3203206004227636,1.1842931184124421,4.354086160081854,-2.127674021278042,-0.1442083641941091,0.13758981528964773,-0.23717362075862083,1,left
23.99,0.5337857041496142,1.0911398128805874,-0.31955379854134913,1.1774570731130969,4.386963857278098,-2.1375143331379283,-0.14543489319016084,0.13706953635736066,-0.23782084091878325,1,left
24.03,0.5349881467461053,1.0898515711927643,-0.3187326316208626,1.170635796259955,4.419810453325104,-2.147285820356417,-0.1466242139654583,0.13636580976995966,-0.23843718359639193,1,left
24.031,0.5362046950686986,1.0885202085354644,-0.3178578226294236,1.16387792435795,4.452595636115296,-2.156967350172574,-0.14777353348772992,0.13548393699824735,-0.23901525452731506,1,left
24.031,0.5374354579931752,1.0871488545117853,-0.3169301932217755,1.1572305690093971,4.485289733252655,-2.1665385488715083,-0.14888029300183245,0.13442992978541976,-0.23954697290318772,1,left
24.031999999999996,0.5386802155288585,1.0857407141039612,-0.31595066288159135,1.1507389096902458,4.517863763732951,-2.175979843370707,-0.14994218263965423,0.13321046155733887,-0.240023574580694,1,left
24.089000000000002,0.5399384193537818,1.084299054679085,-0.31492024793827417,1.144445784959026,4.550289476024347,-2.1852724909273187,-0.1509571548090379,0.1318328119341652,-0.24043561802825683,1,left
24.090999999999998,0.5412091976494638,1.082827193233078,-0.3138400603389403,1.1383912916657557,4.582539372934845,-2.1943985998711892,-0.15192343579684983,0.13030480605434433,-0.24077299532679727,1,left
24.092,0.5424913636110444,1.0813284838440194,-0.3127113061740927,1.1326124049239452,4.614586723750244,-2.2033411452271623,-0.15283953516669463,0.12863475030812888,-0.24102495051323722,1,left
24.092,0.5437834269796926,1.0798063053179563,-0.3115352840132183,1.1271426284139667,4.646405564028316,-2.2120839821306446,-0.153704252793538,0.1268313658733558,-0.24118010750513766,1,left
24.093000000000004,0.5450836081683662,1.0782640489348132,-0.3103133831223891,1.122011679195918,4.677970683496901,-2.2206118582196064,-0.15451668352286166,0.12490372133242882,-0.24122650981682092,1,left
24.11,0.5463898549307765,1.0767051060659527,-0.3090470816284334,1.1172452098200936,4.709257603595813,-2.2289104252568195,-0.15527621946694375,0.12286116526619457,-0.241151673641844,1,left
24.169,0.5476998617487956,1.075132855286233,-0.30773794462939813,1.1128645731333324,4.740242548324891,-2.2369662500982455,-0.15598254994473315,0.12071325917973827,-0.24094265493190986,1,left
24.171999999999997,0.5490110920706625,1.0735506484625572,-0.30638762210247106,1.1088866369851076,4.770902413250085,-2.2447668251531474,-0.15663565906882637,0.11846971085184149,-0.2405861305082194,1,left
24.173000000000002,0.5503208033309037,1.0719617952545424,-0.3049978463170912,1.105323654233622,4.801214736328396,-2.2523005784505625,-0.1572358209847986,0.1161403083256276,-0.24006849279072814,1,left
24.173000000000002,0.5516260744128293,1.0703695457217075,-0.30357042844273063,1.1021831902049282,4.831157672068991,-2.259556883371578,-0.1577835927725931,0.11373485509267815,-0.2393759571089457,1,left
24.174,0.5529238348758796,1.0687770712938018,-0.302107254128894,1.0994681076266382,4.860709969183304,-2.266526068010831,-0.15827980502208003,0.1112631072087726,-0.2384946802122476,1,left
24.228,0.554210894992874,1.0671874448186844,-0.3006102779334684,1.097176607058225,4.889850950771376,-2.2731994237986797,-0.1587255500921861,0.10873471289301322,-0.2374108889424503,1,left
24.229,0.5554839756678391,1.0656036204591222,-0.29908151656818,1.0953023178894534,4.9185604945309205,-2.279569212429474,-0.15912216806612206,0.1061591548498055,-0.23611101848134214,1,left
24.230999999999998,0.5567397375977204,1.0640284140622676,-0.2975230410325023,1.093834433339883,4.946819009608029,-2.285628669815384,-0.15947123045194014,0.10354569548176072,-0.23458185907558973,1,left
24.230999999999998,0.5579748093008733,1.062464484558162,-0.2959369677828929,1.092757884533399,4.974607407573717,-2.2913720061095306,-0.15977452174793608,0.1009033253310735,-0.23281070867095352,1,left
24.232,0.5591858137314716,1.0609143169911288,-0.29432544911635056,1.0920535515046288,5.001907066399917,-2.2967944013227526,-0.1600340190316792,0.09824071520172203,-0.23078552803214933,1,left
24.305999999999997,0.5603693932482813,1.0593802078398467,-0.29269066296615964,1.0916985097852836,5.0286997863284615,-2.301891995863599,-0.1602518697155594,0.09556617231388823,-0.22849509557220618,1,left
24.307,0.5615222328157392,1.057864253204431,-0.2910348023077075,1.0916663100179196,5.054967735177158,-2.306661874461109,-0.16043036765892243,0.09288760070548267,-0.22592915961940435,1,left
24.308000000000003,0.5626410815051138,1.0563683402316504,-0.2893600643583052,1.0919272871958836,5.0806933797803975,-2.3111020414100323,-0.16057192800018602,0.09021246610747759,-0.22307858484287565,1,left
24.309,0.5637227726237358,1.0548941419421407,-0.28766863979104806,1.0924488969789972,5.105859401105517,-2.3152113855962018,-0.1606790611825813,0.08754776556717885,-0.21993548869415605,1,left
24.309,0.5647642430258816,1.0534431154240045,-0.28596270225340314,1.093196078065072,5.130448592106066,-2.3189896346929815,-0.16075434652879722,0.08490000202310607,-0.21649336475521894,1,left
24.31,0.5657625521675901,1.052016503119193,-0.28424439847122923,1.0941316398659053,5.154443738842847,-2.32243729851764,-0.16080040550684452,0.08227516390835025,-0.21274719174395088,1,left
24.363000000000003,0.5667149012427883,1.0506153367772557,-0.2825158391017325,1.095216671996731,5.177827488701345,-2.3255556020388166,-0.16081987474774836,0.07967870977643304,-0.20869352786576068,1,left
24.365,0.567618652477711,1.0492404436989045,-0.28077909036891063,1.0964109668500834,5.200582215167018,-2.328346409244335,-0.16081537903516327,0.07711555786752701,-0.20433058992866313,1,left
24.366,0.5684713484984266,1.0478924550107176,-0.279036166426806,1.0976734436151945,5.2226898917485185,-2.330812139477141,-0.16078950481672813,0.07459008042113949,-0.19965831577916743,1,left
24.366999999999997,0.5692707315733605,1.0465718156860724,-0.2772890223162306,1.0989625650148382,5.244131984506847,-2.33295567744672,-0.160744774970129,0.07210610247932021,-0.19467840813812046,1,left
24.366999999999997,0.5700147624292636,1.0452787958181926,-0.275539547302127,1.1002367433248728,5.264889367252979,-2.3347802776495534,-0.16068362537354197,0.0696669049866703,-0.18939435839207094,1,left
24.443,0.5707016383041342,1.0440135024501442,-0.27378955835598,1.1014547352022743,5.284942261193376,-2.3362894647054837,-0.16060838350025863,0.0672752321053585,-0.18381144975397523,1,left
24.445999999999998,0.5713298099509084,1.0427758912819116,-0.2720407936022872,1.1025760248099645,5.304270200566504,-2.337486932966375,-0.160521249074017,0.06493330272559122,-0.177936739683487,1,left
24.445999999999998,0.5718979973229572,1.0415657777562966,-0.270294905644514,1.1035611930026177,5.322852023819023,-2.3383764494700188,-0.16042427678486657,0.06264282616453513,-0.1717790215516618,1,left
24.447,0.5724052035503147,1.040382847173981,-0.2685534548187586,1.1043722689569437,5.340665886888112,-2.3389617627954356,-0.1603193610728567,0.060405021958292615,-0.16534876564269688,1,left
24.448,0.5728507266892078,1.0392266636089411,-0.2668179026020482,1.1049730612493185,5.357689294762598,-2.339246518444533,-0.16020822302430576,0.058220643209001374,-0.15865804012770826,1,left
24.449,0.5732341688489342,1.0380966776255969,-0.2650896055651844,1.1053294671073186,5.3738991494859585,-2.339234180656679,-0.16009239949288478,0.056090002152470314,-0.15172041362252564,1,left
24.483,0.5735554426238421,1.0369922331466583,-0.2633698103649342,1.1054097596156554,5.389271814297102,-2.33892796060085,-0.15997323459522741,0.054012996169243314,-0.1445508414839225,1,left
24.484,0.5738147749421908,1.0359125742006465,-0.26165965033947053,1.1051848528781565,5.403783193957795,-2.3383307509461715,-0.15985187369325934,0.05198913290480576,-0.13716553745473806,1,left
24.499000000000002,0.5740127083629969,1.0348568525440411,-0.25996014423606617,1.1046285451367563,5.417408831313257,-2.3374450668108326,-0.15972925987386902,0.05001755402633462,-0.12958183154766653,1,left
24.5,0.5741500997728933,1.033824137088765,-0.2582721973720024,1.103717739847661,5.4301240201300125,-2.336272993088498,-0.1596061327287751,0.04809705790984813,-0.12181801580268192,1,left
24.500999999999998,0.5742281165513391,1.032813425574489,-0.2565966051986559,1.1024326444631802,5.441903934012455,-2.334816138260518,-0.15948302892348137,0.046226122222833274,-0.11389318176413503,1,left
24.578000000000003,0.5742482304255807,1.0318236580944065,-0.2549340589012313,1.1007569454127641,5.452723769995999,-2.3330755953515063,-0.15936028387395046,0.044402927691210174,-0.10582705481206371,1,left
24.58,0.5742122092947737,1.0308537310944061,-0.2532851522924947,1.0986779555185342,5.462558903250281,-2.3310519116751642,-0.15923803401988135,0.04262538401600753,-0.09763982919266948,1,left
24.58,0.5741221074388703,1.0299025099581736,-0.2516503891099429,1.096186728825524,5.471385048122169,-2.32874506956651,-0.15911621948993201,0.0408911583227278,-0.08935200527212339,1,left
24.581,0.5739802545654233,1.0289688390582625,-0.25003019029397794,1.0932781390797393,5.479178421946611,-2.3261544797457607,-0.1589945871522602,0.039197706182095234,-0.08098422943974243,1,left
24.581999999999997,0.5737892434876304,1.0280515495981888,-0.24842490146608326,1.0899509203432272,5.485915910212309,-2.323278987968156,-0.15887269421668532,0.03754230507232673,-0.07255713778519363,1,left
24.581999999999997,0.5735519154269795,1.0271494663684366,-0.2468348009300184,1.0862076696277387,5.491575233265899,-2.3201168952895874,-0.158749912804757,0.035922089966067015,-0.06409120639629404,1,left
24.636999999999997,0.5732713422859991,1.0262614147459714,-0.24526010836372386,1.0820548125711182,5.496135116275799,-2.316665992917485,-0.15862543604289492,0.0343340906212892,-0.05560661208052179,1,left
24.638,0.5729508062941132,1.0253862293239966,-0.24370099438101472,1.077502535411256,5.499575464297953,-2.3129236127439774,-0.1584982860948843,0.03277527025952801,-0.04712310635640583,1,left
24.639,0.572593777829523,1.024522765057905,-0.2421575910124574,1.072564688965668,5.5018775400419,-2.3088866923520635,-0.1583673243000276,0.03124256550203634,-0.03865990383865016,1,left
24.64,0.5722038919168956,1.0236699107564011,-0.24063000268564413,1.067258670601762,5.503024136476536,-2.3045518502423894,-0.15823126344436775,0.02973292753850524,-0.030235585184016645,1,left
24.64,0.5717849234793281,1.022826603972655,-0.23911831691004345,1.061605287949817,5.502999736287579,-2.2999154668989874,-0.1580886821519939,0.028243364462381838,-0.0218680144591898,1,left
24.713,0.5713407611320547,1.0219918464515287,-0.23762261403279256,1.0556286056551873,5.501790654436235,-2.2949737696169557,-0.15793804132031752,0.026770984399489526,-0.013574270219669008,1,left
24.715,0.5708753792909833,1.0211647198541145,-0.23614297588951919,1.0493557753497151,5.499385163129657,-2.2897229206976237,-0.15777770240959443,0.025313038503392494,-0.00537058855882058,1,left
24.715999999999998,0.5703928085493083,1.020344401620851,-0.23467949336740887,1.0428168488261667,5.495773599203158,-2.2841591089978883,-0.15760594733383798,0.023866962583599508,0.002727684185851692,1,left
24.717,0.5698971044078072,1.0195301804390884,-0.2332322728184212,1.0360445743985793,5.490948453910621,-2.2782786448195074,-0.15742099976335638,0.02243041644015642,0.010706130809713383,1,left
24.717,0.5693923145420782,1.0187214704546534,-0.23180144125387114,1.029074176430562,5.484904445116216,-2.2720780581232614,-0.15722104772147094,0.021001320540314065,0.018551295503499036,1,left
24.718000000000004,0.568882444924584,1.0179178234037345,-0.23038715035348997,1.021943118101618,5.477638572438976,-2.2655541999677524,-0.1570042672148189,0.019577890024229303,0.026250709690980416,1,left
24.775,0.5683714251543096,1.0171189380984873,-0.22898957937798006,1.014690847906775,5.469150158321551,-2.2587043465115126,-0.1567688462780135,0.018158666167062784,0.033792912844683776,1,left
24.776999999999997,0.5678630732508567,1.0163246669809531,-0.22760893706247096,1.0073585310931585,5.459440881115839,-2.2515263034632156,-0.15651300860715925,0.016742545468690747,0.04116747014215227,1,left
24.778000000000002,0.5673610602183773,1.0155350196422381,-0.22624546258993694,0.9999887675184005,5.448514805605356,-2.2440185071919836,-0.15623503616290302,0.015328806498433465,0.04836498836483652,1,left
24.778000000000002,0.5668688750611698,1.0147501633099092,-0.22489942587999018,0.9926252968814143,5.436378411638161,-2.2361801184352763,-0.15593329050318167,0.013917134464978552,0.05537713063097458,1,left
24.779,0.5663897913360857,1.0139704204568407,-0.22357112760478207,0.9853126915669171,5.423040618415766,-2.228011105993888,-0.1556062328535859,0.012507643046153708,0.062196630181952546,1,left
24.846,0.5659268363043953,1.01319626390753,-0.22226089939266672,0.9780960370632759,5.408512802649246,-2.219512319474483,-0.1552524430393005,0.01110089229938181,0.06881730350862202,1,left
24.849,0.5654827633038729,1.0124283100274647,-0.22096910456620264,0.9710205999145933,5.392808810161142,-2.2106855509181913,-0.15487063744409957,0.009697901081956367,0.07523406319212637,1,left
24.85,0.5650600274788923,1.0116673106811298,-0.21969613956685083,0.9641314831861283,5.37594496089488,-2.2015335852918025,-0.15445968612021663,0.008300152801984347,0.08144293074463063,1,left
24.851,0.5646607647918767,1.0109141446070218,-0.21844243599157787,0.9574732694224137,5.357940047289967,-2.19206023981714,-0.1540186290979748,0.0069095940259152845,0.08744104957529054,1,left
24.851,0.5642867744153018,1.0101698087632751,-0.21720846298846203,0.951089651077843,5.338815325977926,-2.1822703921132742,-0.1535466918855227,0.00552862589294849,0.09322669806944849,1,left
24.851999999999997,0.5639395049876853,1.0094354101107474,-0.21599472976256215,0.9450230490044949,5.31859450261064,-2.1721699973097035,-0.1530433000562563,0.004160088528263532,0.0987993025099342,1,left
24.909000000000002,0.5636200453589717,1.0087121581740845,-0.21480178808819447,0.9393142226049442,5.297303708930055,-2.1617660952098254,-0.15250809266956625,0.0028072389409753064,0.10415944913531748,1,left
24.91,0.5633291201396278,1.008001358527738,-0.213630234808,0.9340018806987644,5.2749714699258785,-2.1510668102428987,-0.15194093418598434,0.0014737231134951119,0.1093088942392482,1,left
24.910999999999998,0.5630670898611602,1.0073044071560449,-0.2124807142532659,0.9291223051746521,5.251628658225297,-2.1400813478639003,-0.151341924621517,0.00016354311299218081,0.11425057070865123,1,left
24.912,0.5628339551910053,1.0066227854603262,-0.2113539204462263,0.9247089964788113,5.22730843355514,-2.128819990137717,-0.1507114078367079,-0.0011189797211464602,0.11898858848757135,1,left
24.912,0.5626293645613636,1.005958055493576,-0.21025059892776277,0.9207923447747567,5.202046166671514,-2.117294091579639,-0.15004997793968322,-0.002369244335927207,0.12352822594710197,1,left
24.978,0.5624526247853715,1.0053118548501672,-0.2091715481032599,0.9173993287064216,5.175879349340957,-2.105516075381983,-0.14935848379977662,-0.003582411411366603,0.12787590993594813,1,left
24.980999999999998,0.5623027146324505,1.0046858906221325,-0.20811762008106838,0.9145532451053827,5.1488474947806875,-2.0934994299368825,-0.1486380316692501,-0.004753446354059996,0.1320391836293838,1,left
24.982,0.562178301633534,1.0040819318318128,-0.2070897209967304,0.9122734741022365,5.120992034455264,-2.081258705545321,-0.14788998591110075,-0.005877163783828732,0.1360266620403484,1,left
24.988000000000003,0.5620777623601718,1.0035017996317257,-0.2060888106931829,0.9105752829968643,5.092356215512382,-2.0688095110982876,-0.1471159678309691,-0.006948273516920157,0.1398479752051886,1,left
24.989,0.5619992061365071,1.002947354590624,-0.20511590146543598,0.9094696702868849,5.062984999853913,-2.0561685099364704,-0.1463178526110822,-0.007961428049113371,0.14351369905602349,1,left
24.989,0.5619405018157069,1.0024204808310426,-0.20417205558559337,0.9089632502364978,5.032924963267544,-2.0433534130093856,-0.1454977643325729,-0.008911271535115771,0.1470352740240571,1,left
25.006,0.5618993069921907,1.0019230673898163,-0.20325838150564948,0.9090581782010791,5.002224192145946,-2.0303829668447264,-0.1446580690148751,-0.009792490226325577,0.150424911581926,1,left
25.043000000000003,0.5618730988329352,1.0014569875175434,-0.20237602877579355,0.9097521168695227,4.970932175915984,-2.017276934451538,-0.1438013654972067,-0.010599864267383567,0.15369548922835574,1,left
25.045,0.5618592055743393,1.0010240767199639,-0.2015261817225481,0.9110382434889444,4.93909969437446,-2.004056068384388,-0.1429304739384583,-0.011328320612665768,0.15686043469594751,1,left
25.046,0.5618548376679277,1.0006261104180567,-0.20071005193070796,0.9129052980830263,4.9067786997227385,-1.990742075808646,-0.14204842181400212,-0.011972986333175112,0.1599336005668974,1,left
25.046,0.5618571176695104,1.0002647821587178,-0.1999288696277612,0.9153376726837193,4.874022192788787,-1.977357575498706,-0.14115842747193882,-0.012529240701183948,0.1629291312089584,1,left
25.111,0.5618631082494645,0.9999416832177264,-0.19918387409659427,0.9183155416864086,4.840884090815045,-1.9639260465478683,-0.14026388141351173,-0.012992763949256216,0.16586132434801182,1,left
25.114,0.5618698380283117,0.9996582842864226,-0.19847630322405743,0.9218150335999583,4.80741908039386,-1.9504717682932966,-0.139368325429215,-0.013359581131525093,0.16874448899190433,1,left
25.115,0.5618743252792402,0.9994159198422848,-0.1978073823063847,0.9258084445533652,4.7736824470224,-1.9370197508064833,-0.13847542964166748,-0.013626100459228258,0.17159280039650657,1,left
25.125,0.5618735998878724,0.9992157756867184,-0.19717831230850566,0.9302644938336097,4.739729874856435,-1.9235956554523028,-0.13758896746162677,-0.013789146006892744,0.1744201521961664,1,left
25.125999999999998,0.561864724209812,0.9990588798753927,-0.19659025787176565,0.9351486215711337,4.70561721403672,-1.910225705294709,-0.13671278848141258,-0.013845984825541066,0.1772400059642721,1,left
25.127,0.561844813508274,0.9989460969732589,-0.19604433541774283,0.9404233278417564,4.671400215686045,-1.8969365852807596,-0.13585078946418006,-0.013794348675631342,0.1800652397565457,1,left
25.176,0.561811056488976,0.9988781254351226,-0.19554160165473197,0.9460485486357652,4.637134238178764,-1.8837553321694782,-0.13500688382900272,-0.013632450910078552,0.18290799950623932,1,left
25.177,0.5617607361862846,0.9988554979171546,-0.19508304268542376,0.951982057303153,4.602873933833097,-1.870709214179713,-0.13418497016591852,-0.013358999214028293,0.18577955842739105,1,left
25.182,0.5616912512201868,0.9988785842692804,-0.1946695638161914,0.9581798762834368,4.568672928258847,-1.8578256003355837,-0.1333889001809679,-0.012973204731115545,0.1886901882953035,1,left
25.182,0.5616001372769219,0.9989475967796269,-0.19430198008271485,0.9645966876240909,4.534583502068162,-1.8451318196746613,-0.13262244622980707,-0.012474787787694421,0.19164904415684514,1,left
25.183000000000003,0.5614850885623447,0.9990625970854158,-0.19398100740161786,0.9711862371002332,4.500656281897024,-1.832655011429087,-0.13188926852808341,-0.011863980246771927,0.194664062877697,1,left
25.245,0.5613439789616629,0.9992235041680106,-0.19370725418082907,0.9779017295871255,4.46693994962273,-1.8204219690000383,-0.13119288241853944,-0.011141524473704398,0.19774187638363055,1,left
25.247,0.5611748826404489,0.9994301028920121,-0.19348121319280526,0.9846962135627372,4.43348098083536,-1.8084589814978438,-0.1305366266482606,-0.010308668870144252,0.20088774172609442,1,left
25.248,0.5609760936266485,0.9996820524313033,-0.1933032534860273,0.9915229531533892,4.40032342083273,-1.796791675668489,-0.12992363392811632,-0.009367159918375874,0.20410549080979948,1,left
25.261999999999997,0.5607461435569957,0.9999788938330051,-0.1931736121700041,0.9983357870993455,4.367508701388808,-1.785444859314041,-0.12935680472801037,-0.00831923069188684,0.20739750191291617,1,left
25.263,0.560483816733939,1.000320056239618,-0.19309238621662833,1.0050894745527126,4.335075498757379,-1.7744423663631177,-0.12883878469380552,-0.0071675858599673445,0.210764693815324,1,left
25.264,0.5601881621511439,1.0007048617727663,-0.19305952483113414,1.0117400277102673,4.303059632568169,-1.7638069037236843,-0.12837194578086636,-0.00591538346291697,0.21420654243175255,1,left
25.31,0.559858502682832,1.0011325293626048,-0.19307482309459947,1.0182450311993132,4.2714940040356435,-1.7535599008801523,-0.12795837118507636,-0.004566214160065432,0.2177211193246233,1,left
25.311999999999998,0.5594944416559193,1.0016021778611348,-0.19313791742203124,1.0245639479824449,4.2404085696733445,-1.7437213646895016,-0.1275998441798183,-0.0031240788875873432,0.2213051512600651,1,left
25.319000000000003,0.5590958666874963,1.0021128288680945,-0.19324828320347762,1.0306584114623272,4.209830345469796,-1.7343097426609653,-0.12729784089845478,-0.001593365628374541,0.22495409990615917,1,left
25.32,0.5586629504424734,1.0026634098394849,-0.19340523490295605,1.0364925035516634,4.17978343772134,-1.7253417971761664,-0.12705352684448473,2.1174423965458038e-05,0.22866225977257867,1,left
25.320999999999998,0.5581961480578658,1.0032527580639847,-0.1936079287581653,1.0420330181745006,4.150289098431327,-1.7168324915190427,-0.12686775650976861,0.0017144512544760905,0.23242287021693817,1,left
25.378,0.5576961912712646,1.0038796259997458,-0.19385536805385378,1.0472497074961191,4.121365801846085,-1.7087948872725796,-0.1267410752678521,0.0034810609611330354,0.2362282360047738,1,left
25.38,0.5571640796008723,1.0045426883434527,-0.19414641079576664,1.0521155041399808,4.093029334305865,-1.7012400516023032,-0.12667372291760945,0.0053153112290392065,0.24006985229113173,1,left
25.399,0.5566010692333926,1.0052405508613218,-0.19447977938545405,1.056606710447751,4.065292887399065,-1.6941769728553377,-0.1266656386270423,0.007211247345534901,0.2439385323774864,1,left
25.4,0.5560086605363647,1.0059717603449034,-0.1948540715556455,1.0607031483458622,4.038167148923053,-1.687612485351573,-0.12671646722330313,0.009162678810306342,0.2478245377837024,1,left
25.401,0.5553885851066341,1.0067348144327004,-0.19526777161264322,1.0643882678961414,4.011660394280801,-1.6815512086483408,-0.12682556675697598,0.011163206843723428,0.25171770947592,1,left
25.401999999999997,0.5547427929766153,1.0075281697552274,-0.19571926109894275,1.0676492151153287,3.9857785854576306,-1.6759955090077963,-0.12699201716115754,0.013206253543775586,0.2556075973361162,1,left
25.443,0.5540734401879779,1.0083502471242978,-0.19620682838597758,1.0704768598421008,3.9605254833049397,-1.6709454889329705,-0.1272146297662375,0.015285093690445572,0.2594835839840291,1,left
25.445,0.5533828763381919,1.0091994336645407,-0.1967286774808282,1.0728657839689155,3.935902775376679,-1.6663990071090191,-0.12749195749125658,0.01739288994818974,0.26333500003726684,1,left
25.459,0.5526736311297871,1.0100740833456672,-0.1972829370060115,1.0748142306910051,3.911910219111661,-1.6623517286876983,-0.12782230564054423,0.019522731770353772,0.2671512296506165,1,left
25.461,0.5519483991529052,1.010972518201144,-0.19786767036859912,1.0763240183317593,3.888545797171895,-1.658797203270604,-0.12820374331444173,0.021667677981173725,0.2709218061434018,1,left
25.461,0.551210022993275,1.0118930323469932,-0.19848088778570896,1.0774004276291804,3.8658058770729875,-1.6557269640032302,-0.12863411555569318,0.0238208025615844,0.2746364976824899,1,left
25.482,0.5504614751921504,1.0128338998276996,-0.19912056022893704,1.0780520743261113,3.843685364646741,-1.653130639001693,-0.1291110565344228,0.025975242445392666,0.27828538292328514,1,left
25.511999999999997,0.549705839286384,1.0137933856524053,-0.19978463448135364,1.0782907759464078,3.8221778434756044,-1.6509960685270193,-0.12963200417542164,0.028124245732568366,0.2818589164747152,1,left
25.535,0.5489462896946166,1.0147697583994184,-0.20047104799730658,1.0781314160270985,3.8012756976705946,-1.649309425399995,-0.13019421653094804,0.030261219126277484,0.2853479840902576,1,left
25.535999999999998,0.5481860699107973,1.0157613032567308,-0.20117774258793555,1.0775918046950934,3.7809702207349285,-1.6480553390015404,-0.13079478999904057,0.032379774102997506,0.2887439476656925,1,left
25.537,0.5474284684143199,1.0167663354158702,-0.20190267660225342,1.076692531326176,3.7612517187649743,-1.6472170248293867,-0.13143067927602936,0.03447377163980574,0.2920386807285849,1,left
25.538,0.5466767919854083,1.0177832140686667,-0.20264383561936675,1.0754568036018886,3.7421096190129792,-1.646776422242083,-0.13209871871251577,0.036537365249719005,0.295224596134489,1,left
25.576999999999998,0.5459343365285165,1.0188103567841236,-0.20339924171271254,1.0739102686998279,3.7235325920666265,-1.6467143423636337,-0.13279564463141966,0.038565041990828296,0.2982946682529337,1,left
25.578000000000003,0.5452043557659769,1.019846253473575,-0.2041669613140233,1.072080814909621,3.705508690914107,-1.647010626937091,-0.13351811827757487,0.040551661199984615,0.301242451357628,1,left
25.593000000000004,0.5444900282580012,1.0208894789823486,-0.2049451117138023,1.0699983533957036,3.68802550709647,-1.6476443179044487,-0.13426274926784962,0.04249249085485334,0.30406209491201797,1,left
25.595,0.5437944232675422,1.0219387035629521,-0.20573186628994367,1.0676945801553814,3.671070342109099,-1.6485938355937466,-0.1350261195216302,0.04438324155313479,0.30674835587266863,1,left
25.596,0.5431204660972514,1.022992700790478,-0.20652545857797514,1.0652027182991548,3.654630389538646,-1.6498371602170334,-0.13580480764106823,0.0462200980940358,0.3092966080882252,1,left
25.645,0.5424709037125091,1.0240503526890157,-0.20732418528355634,1.0625572408236144,3.638692921936002,-1.6513520096180734,-0.13659541354721247,0.04799974854388746,0.31170284921784425,1,left
25.648000000000003,0.5418482716123743,1.025110652026998,-0.20812640839121332,1.0597935740025308,3.6232454779147116,-1.6531160079753127,-0.13739458288418624,0.04971941048215448,0.3139637062163053,1,left
25.671,0.5412548628482517,1.0261727020081866,-0.20893055667115382,1.0569477817612511,3.6082760473218327,-1.6551068433398206,-0.13819903054027188,0.05137685402086866,0.31607644077911795,1,left
25.671999999999997,0.540692699854688,1.0272357138137205,-0.20973512700344002,1.0540562329516796,3.593773252212151,-1.6573024136296846,-0.1390055628127515,0.05297042120279805,0.31803895578195907,1,left
25.673000000000002,0.5401635094845805,1.0282990024571719,-0.2105386858927129,1.051155256309947,3.5797265187667184,-1.6596809610116794,-0.13981109811044604,0.05449904111591531,0.3198498030642834,1,left
25.674,0.5396687014165538,1.0293619812784562,-0.21133987138674074,1.0482807894752995,3.5661262336932116,-1.6622211945769554,-0.14061268638274618,0.05596223934905937,0.32150819245135565,1,left
25.71,0.5392093500077677,1.03042415537594,-0.21213739547799101,1.0454680268519463,3.5529638802518133,-1.664902401242807,-0.14140752756965672,0.057360139981030234,0.3230140017788496,1,left
25.729,0.538786179776869,1.0314851144093082,-0.21293004696445203,1.042751068221597,3.540232151940398,-1.6677045448576318,-0.14219298929431992,0.05869345874825526,0.3243677877440979,1,left
25.730999999999998,0.5383995549911639,1.0325445252966454,-0.21371669462160636,1.0401625684178404,3.5279250434789633,-1.6706083535113818,-0.142966623860521,0.05996348697689773,0.32557079738094524,1,left
25.730999999999998,0.5380494740373412,1.033602125217353,-0.2144962904532636,1.0377333880543531,3.516037919055471,-1.6735953950591742,-0.1437261844073215,0.06117206694501567,0.3266249793382728,1,left
25.732,0.5377355690220381,1.0346577150936747,-0.21526787279940005,1.0354922458795888,3.504567557963022,-1.6766481410750838,-0.14446963981121622,0.06232156055912219,0.3275329929356244,1,left
25.776999999999997,0.5374571104110548,1.0357111535361765,-0.21603056911491428,1.0334653762328694,3.4935121785920007,-1.6797500204985611,-0.1451951877888902,0.06341481385615773,0.3282982122921125,1,left
25.779,0.5372130159475336,1.036762351143503,-0.21678359825516977,1.03167620030069,3.4828714432405685,-1.6828854661173624,-0.14590126579089752,0.06445511921486921,0.32892472350117613,1,left
25.808000000000003,0.5370018629398033,1.0378112649486937,-0.21752627216770823,1.030145023042333,3.47264644720349,-1.6860399579475673,-0.1465865595236519,0.06544617603211206,0.3294173140416224,1,left
25.809,0.5368219032449796,1.038857892676184,-0.21825799700065848,1.0288887660917727,3.462839695582469,-1.6892000658832567,-0.1472500090743527,0.06639204999259046,0.329781454291794,1,left
25.811,0.5366710806905818,1.0399022664097948,-0.21897827372353285,1.0279207441306306,3.453455071229968,-1.6923534909498306,-0.14789081265007795,0.06729713091372945,0.3300232710870266,1,left
25.811999999999998,0.5365470510331033,1.0409444452909873,-0.21968669836427818,1.027250490664949,3.4444977972216844,-1.6954891028068477,-0.14850842798824843,0.0681660890407156,0.33014951295193934,1,left
25.842,0.5364472046753967,1.0419845068315585,-0.22038296189334705,1.0268836372197665,3.4359743962730516,-1.6985969715803098,-0.14910257157846,0.06900382947488665,0.3301675060839126,1,left
25.866,0.5363686922675677,1.0430225363185002,-0.2210668496470698,1.0268218472387334,3.4278926477592164,-1.7016683932476133,-0.14967321588164811,0.06981544431201744,0.3300850998555209,1,left
25.868000000000002,0.5363084531178127,1.044058613866022,-0.22173824005429266,1.027062803052516,3.420261540729634,-1.7046959083706088,-0.1502205846864514,0.07060616217346259,0.32991060091159286,1,left
25.869,0.5362632460949888,1.0450927990897927,-0.22239710242583688,1.027600241159514,3.413091218527686,-1.7076733139733107,-0.1507451466537171,0.07138129510931755,0.3296526955737652,1,left
25.869,0.5362296824334819,1.046125113891569,-0.2230434936842682,1.028424029478134,3.406392909171973,-1.7105956682899297,-0.1512476070239861,0.0721461834820161,0.32932036098675094,1,left
25.909000000000002,0.5362042596530183,1.0471555241007198,-0.2236775540209942,1.0295202818158697,3.4001788371122617,-1.7134592881795503,-0.15172889739951168,0.07290614040109206,0.32892276624605077,1,left
25.910999999999998,0.5361833957272413,1.0481839207486894,-0.22429950150258834,1.0308715076545407,3.3944621145934613,-1.7162617391310506,-0.1521901634822937,0.07366639780260403,0.32846916516000446,1,left
25.945,0.5361634626094594,1.0492101018427344,-0.22490962566659833,1.032456796936996,3.389256612317406,-1.7190018178524977,-0.15263275067955417,0.074432055743877,0.3279687818854593,1,left
25.945999999999998,0.5361408183218614,1.0502337556843988,-0.22550828018544788,1.0342520398583959,3.384576809384621,-1.7216795274532395,-0.15305818755156483,0.0752080355490806,0.32743069013660747,1,left
25.947,0.536111837141563,1.0512544467700409,-0.2260958746990185,1.0362301814379062,3.3804376224871135,-1.7242960451620795,-0.15346816715435693,0.07599903694808711,0.32686368727591686,1,left
25.976999999999997,0.536072937804992,1.052271605015235,-0.22667286590496974,1.0383615095073047,3.3768542142618534,-1.7268536822014549,-0.1538645264215962,0.07680949930003075,0.3262761663545584,1,left
25.978,0.5360206099024005,1.0532845186795192,-0.22723974799367627,1.0406139727015837,3.3738417806030094,-1.7293558348554279,-0.15424922377752667,0.07764356702275704,0.32567599019256255,1,left
25.984,0.5359514387988323,1.0542923311284036,-0.2277970425712228,1.0429535238971561,3.371415316669718,-1.7318069254458324,-0.1546243151251729,0.07850505931965565,0.3250703705659144,1,left
26.003,0.535862129543693,1.0552940414213408,-0.22834528830970816,1.0453444851027331,3.369589362181867,-1.7342123323225092,-0.15499192826814723,0.07939744424189885,0.32446575372644504,1,left
26.004,0.5357495302359733,1.0562885085679115,-0.2288850306230759,1.0477499289554502,3.3683777306674743,-1.736578308897636,-0.15535423577670504,0.08032381709443714,0.32386771245739676,1,left
26.005,0.5356106552286403,1.0572744591718657,-0.22941681167368064,1.050132067886331,3.3677932345111565,-1.7389118926934597,-0.15571342634586643,0.08128688314182642,0.32328084486672315,1,left
26.044,0.5354427085123493,1.0582504981140035,-0.229941161027243,1.052452639342485,3.3678474216238325,-1.7412208057795697,-0.15607167492707913,0.08228894433800799,0.3227086811391045,1,left
26.045,0.5352431075960347,1.0592151218406172,-0.2304585872875985,1.0546732783583106,3.368550335599216,-1.743513347633442,-0.1564311123355055,0.08333188938658706,0.32215360130173953,1,left
26.081999999999997,0.5350095080423495,1.060166733601789,-0.2309695709489337,1.0567558739966532,3.3699103041030494,-1.7457982808417296,-0.15679379526868548,0.08441718620621887,0.32161676807792483,1,left
26.083000000000002,0.5347398283888829,1.0611036596315666,-0.23147455840177117,1.0586629090855244,3.371933756286522,-1.7480847097174224,-0.1571616774386461,0.08554587610786331,0.32109807788355255,1,left
26.083000000000002,0.5344322745229261,1.0620241650757665,-0.23197395662469075,1.0603577832566862,3.3746250692259134,-1.7503819518394712,-0.15753658215446514,0.08671856948828063,0.3205961312257318,1,left
26.084,0.5340853620170228,1.0629264687298583,-0.23246812790938648,1.0618051194047298,3.377986443497636,-1.7526994027587277,-0.15792017673640696,0.0879354434754094,0.3201082229343191,1,left
26.11,0.5336979349452532,1.0638087561791232,-0.23295738415747097,1.0629710542484456,3.3820178085260597,-1.7550463953003486,-0.15831394959603032,0.08919624272619424,0.3196303527962259,1,left
26.14,0.533269180342907,1.0646691913907291,-0.23344198067700137,1.0638235146902626,3.3867167592907284,-1.7574320570281998,-0.15871919109446875,0.09050028497666514,0.31915725735286693,1,left
26.142,0.532798638332865,1.065505927113435,-0.23392210983025255,1.0643324822324862,3.3920785265077993,-1.7598651706231527,-0.1591369789680602,0.09184647242760535,0.3186824632680629,1,left
26.143,0.5322862085747763,1.0663171146199646,-0.234397895250514,1.0644702471446035,3.3980959818761725,-1.7623540407409508,-0.15956816838418733,0.09323330874347041,0.31819836151773445,1,left
26.143,0.5317321537569433,1.0671009133672913,-0.23486938747688432,1.0642116528696164,3.4047596784235377,-1.7649063688074107,-0.16001338600503154,0.0946589199859035,0.3176962999985479,1,left
26.176,0.5311371003237471,1.0678555011348962,-0.23533656169482917,1.063534329638636,3.412057922414191,-1.767529136159219,-0.16047302715508244,0.0961210771360843,0.3171666913013903,1,left
26.22,0.5305020360292021,1.0685790851818289,-0.23579931796351905,1.0624189144318277,3.4199768676888747,-1.7702284959474572,-0.16094725539053253,0.0976172185023071,0.3165991329717699,1,left
26.221,0.529828303741517,1.0692699148836826,-0.2362574840008444,1.0608492534685807,3.4285006202597472,-1.7730096743578354,-0.16143600405568523,0.09914447163980586,0.3159825378582308,1,left
26.221,0.5291175912798602,1.0699262961598075,-0.23671082038974212,1.0588125843626586,3.437611344034418,-1.7758768815651451,-0.16193897942107086,0.10069967548907621,0.31530527083053533,1,left
26.221999999999998,0.5283719177828474,1.0705466075937997,-0.23715902790955196,1.0562996967941936,3.4472893640329465,-1.778833232593692,-0.16245566492282149,0.10227940382970273,0.3145552871272057,1,left
26.221999999999998,0.5275936177602061,1.0711293170218639,-0.23760175624095933,1.0533050711110208,3.457513266632775,-1.7818806782468979,-0.16298532614334943,0.10387999087360898,0.31372026877656506,1,left
26.244,0.526785324099998,1.0716729959362328,-0.23803861264508544,1.0498269925005754,3.46825999758957,-1.7850199468815002,-0.16352701639022987,0.1054975593300056,0.3127877576676789,1,left
26.276999999999997,0.5259499510216337,1.0721763292360478,-0.23846916945033067,1.045867634842868,3.4795049596663734,-1.7882504989527954,-0.16407958287629645,0.10712805097356988,0.3117452848808696,1,left
26.28,0.5250906776394846,1.0726381203134119,-0.23889297067877763,1.0414331063929145,3.4912221123065685,-1.7915704968969568,-0.16464167365616958,0.10876725955465466,0.31058049536812443,1,left
26.28,0.5242109321903015,1.0730572936950595,-0.23930953925720244,1.0365334514003812,3.5033840751861076,-1.7949767922773985,-0.16521174570502192,0.11041086564168245,0.30928126571255593,1,left
26.281,0.5233143759902976,1.0734328975232466,-0.23971838571956516,1.0311826056593851,3.5159622363243974,-1.7984649309480658,-0.16578807465349918,0.11205447284775796,0.30783581193971293,1,left
26.31,0.5224048857921024,1.0737641073199624,-0.24011901826972132,1.0253983077268527,3.528926864459403,-1.8020291762296012,-0.16636876656465846,0.11369364503171675,0.3062327851092348,1,left
26.355,0.5214865339555866,1.0740502319508638,-0.24051095374969272,1.0192019711535518,3.5422472246010206,-1.8056625497545504,-0.16695177190825838,0.11532394431253014,0.30446135377583655,1,left
26.357,0.5205635667324513,1.0742907218209008,-0.240893728956306,1.0126185248566861,3.5558916953043322,-1.8093568895201213,-0.16753490174394978,0.11694096983157562,0.30251127329276756,1,left
26.357,0.5196403810724805,1.0744851780171023,-0.24126691141056636,1.0056762271473874,3.56982788659615,-1.8131029247118002,-0.16811584602071553,0.11854039701205017,0.30037294272428194,1,left
26.358,0.5187215000074417,1.074633360606861,-0.24163010861469683,0.9984064565690927,3.5840227582470714,-1.8168903666069411,-0.16869219375844088,0.120118016681646,0.2980374512899294,1,left
26.359,0.5178115464593706,1.0747351951752169,-0.2419829753151297,0.9908434824613356,3.598442738609379,-1.820708014145689,-0.1692614547988998,0.12166977321171794,0.2954966169056007,1,left
26.378,0.5169152153222163,1.0747907779866432,-0.2423252188875024,0.9830242186639662,3.613053844401972,-1.824543872313783,-0.16982108289203268,0.12319180103897345,0.29274301874308434,1,left
26.413,0.5160372436757088,1.0748003805878164,-0.24265660318105714,0.9749879629219705,3.6278218017689725,-1.8283852816467958,-0.17036850002484974,0.12468045931878677,0.2897700245725759,1,left
26.414,0.5151823789416426,1.074764454115551,-0.24297695101397773,0.9667761230285804,3.6427121689358173,-1.8322190564969856,-0.1709011219333922,0.126132364676864,0.28657181309694724,1,left
26.415,0.5143553447905131,1.0746836329986376,-0.2432861453416764,0.9584319299282175,3.6576904609720367,-1.836031627455685,-0.17141638452647967,0.12754442209271016,0.2831433917954279,1,left
26.416,0.5135608047680265,1.0745587376467156,-0.24358412910386015,0.9500001378525116,3.6727222773033676,-1.8398091819092255,-0.1719117705406258,0.12891385399188335,0.2794806115820837,1,left
26.441999999999997,0.5128033239326651,1.0743907757409863,-0.2438709038216841,0.9415267115380734,3.6877734324661557,-1.8435377982146244,-0.17238483551806827,0.13023822764815543,0.2755801800218127,1,left
26.485,0.5120873291810332,1.0741809416418089,-0.24414652709584503,0.9330585005310174,3.702810090327077,-1.847203571696051,-0.17283323242720258,0.13151548097234556,0.2714396744079406,1,left
26.487,0.5114170693162337,1.0739306134465991,-0.24441110926180815,0.9246429005589243,3.717798901841321,-1.8507927321712507,-0.17325473465396463,0.13274394672084155,0.26705755521646085,1,left
26.488000000000003,0.5107965761650819,1.0736413475574227,-0.24466480958875889,0.916327501946002,3.7327071463923795,-1.8542917530185985,-0.17364725733610564,0.13392237503758095,0.2624331800232214,1,left
26.489,0.5102296279669136,1.0733148710437261,-0.24490783247560283,0.9081597250358839,3.747502876495878,-1.8576874517551176,-0.1740088771380592,0.13504995376389786,0.257566817931652,1,left
26.51,0.5097197158435876,1.0729530722583112,-0.24514042401022712,0.9001864425299919,3.762155064346203,-1.860967081894701,-0.17433785070864713,0.13612632509661463,0.2524596646471737,1,left
26.561,0.5092700137192435,1.0725579900760414,-0.2453628690857639,0.8924535885476669,3.776633746338103,-1.864118415493961,-0.17463263214413494,0.13715159670023133,0.2471138583833155,1,left
26.563000000000002,0.5088833518215169,1.0721318020816535,-0.24557548915829056,0.8850057541580302,3.7909101603916056,-1.8671298155919636,-0.17489188967224673,0.1381263458863626,0.24153249666513063,1,left
26.564,0.5085621938203677,1.0716768121347415,-0.2457786407153742,0.8778857698721421,3.804956872107502,-1.8699902980957175,-0.17511452149570753,0.13905161649260875,0.23571965365977118,1,left
26.565,0.508308617635799,1.0711954377804747,-0.2459727145180799,0.8711342790936192,3.818747887605533,-1.872689583749842,-0.1752996704152499,0.13992890886481388,0.22968039699137113,1,left
26.566,0.5081242999873232,1.070690197869311,-0.24615813559996966,0.8647893127157925,3.832258751262603,-1.8752181423349639,-0.17544673670352684,0.14076016360669164,0.2234208026409913,1,left
26.62,0.5080105049324172,1.0701637006272198,-0.24633536386637747,0.8588858788052326,3.845466626606059,-1.8775672320335417,-0.17555538883359215,0.14154773959536257,0.21694796687752238,1,left
26.622,0.5079680768422405,1.0696186323173615,-0.24650489504096765,0.8534555795685104,3.8583503606305305,-1.8797289363211964,-0.17562557190368883,0.142294386463681,0.21027001478724341,1,left
26.623,0.5079974382002855,1.0690577465079059,-0.24666726172247314,0.8485262646609836,3.8708905354315846,-1.8816961996968518,-0.17565751373483404,0.14300321168001193,0.20339610516488446,1,left
26.624000000000002,0.5080985921857295,1.0684838538600399,-0.24682303438144707,0.8441217281536453,3.8830695130627464,-1.8834628629843255,-0.17565172865670148,0.1436776427989785,0.19633643084747113,1,left
26.625,0.5082711294848188,1.0678998123160754,-0.24697282217173966,0.840261454131153,3.8948714781325062,-1.8850236986471838,-0.17560901901997808,0.1443213863134617,0.18910221222142723,1,left
26.644000000000002,0.508514238461222,1.0673085175275578,-0.2471172734650028,0.8369604129023926,3.9062824799691613,-1.8863744462967493,-0.17553047448591946,0.14493838501406936,0.1817056808827294,1,left
26.697,0.5088267178787326,1.0667128932608092,-0.2472570760671374,0.8342289078814878,3.917290474526768,-1.8875118482986508,-0.17541746913106293,0.1455327752861503,0.1741600511794977,1,left
26.699,0.5092069918020973,1.0661158813909908,-0.24739295712579643,0.83207247155586,3.9278853651041805,-1.888433684710089,-0.1752716563821677,0.14610884491746295,0.166479478716122,1,left
26.7,0.5096531267700077,1.0655204309581927,-0.2475256827227709,0.8304918066010344,3.9380590395051844,-1.8891388056209493,-0.17509496178369105,0.146670991513489,0.1586790056476801,1,left
26.701,0.5101628515095843,1.0649294855668736,-0.24765605702392834,0.8294827668932382,3.9478054004649934,-1.8896271583276933,-0.17488957359593518,0.14722368150221016,0.1507744927908867,1,left
26.701,0.510733579398181,1.064345968328036,-0.24778492072628752,0.8290363744827514,3.957120386968788,-1.88989980741193,-0.17465793121418563,0.14777140961062385,0.1427825388168509,1,left
26.756999999999998,0.5113624337039703,1.0637727639284813,-0.24791314855566518,0.8291388709728189,3.9660019851967636,-1.8899589469121343,-0.1744027113851769,0.14831865851614953,0.13472038722153987,1,left
26.76,0.5120462753551768,1.0632126981963748,-0.24804164572812384,0.8297718031693123,3.9744502269663444,-1.8898079042136768,-0.17412681218941847,0.14886985827655963,0.12660582200897538,1,left
26.761,0.5127817326663846,1.0626685160895888,-0.24817134342187544,0.8309121433252321,3.982467170705742,-1.889451135039122,-0.17383333476556032,0.1494293452415458,0.11845705278251437,1,left
26.761,0.5135652321710875,1.0621428590669362,-0.24830319332669412,0.8325324444141786,3.9900568583276366,-1.8888942087138703,-0.17352556276680633,0.15000132032811309,0.11029258950840021,1,left
26.761999999999997,0.5143930295293214,1.0616382427177113,-0.2484381613348589,0.8346010307599644,3.9972252430346833,-1.8881437830878904,-0.1732069395572932,0.15058980672530403,0.1021311071133807,1,left
26.776,0.5152612395300961,1.061157035580379,-0.24857722047341005,0.8370822241557472,4.003980086082852,-1.887207568865003,-0.17288104320908418,0.15119860753271408,0.09399130071611438,1,left
26.835,0.5161658645290075,1.060701440061504,-0.24872134320620237,0.8399366054989629,4.0103308221915865,-1.8860942832968681,-0.17255155945261486,0.15183126459156296,0.08589173352668172,1,left
26.838,0.51710282109507,1.0602734761934032,-0.24887149324072308,0.8431213119479256,4.016288393621387,-1.8848135932395411,-0.17222225278463457,0.1524910201861708,0.07785068013443572,1,left
26.839000000000002,0.518067965053744,1.0598749687617672,-0.24902861699958942,0.8465903696071365,4.021865052938252,-1.883376047569928,-0.1718969358864292,0.15318078287470857,0.06988596721857798,1,left
26.84,0.5190571154411238,1.0595075380604067,-0.24919363496362845,0.8502950617494097,4.027074134483228,-1.8817929989589588,-0.17157943743621765,0.153903097938231,0.06201481272621579,1,left
26.840999999999998,0.5200660780132175,1.059172594201149,-0.24936743311942608,0.8541843319414498,4.031929795243607,-1.8800765150384606,-0.17127356846510441,0.15466012243973626,0.054253665101369634,1,left
26.893,0.5210906688266007,1.058871334729984,-0.24955085471030897,0.8582052181695945,4.0364467296502315,-1.8782392793674119,-0.17098308760584405,0.15545360466032526,0.04661804621546146,1,left
26.896,0.522126738157191,1.0586047453531409,-0.24974469240657107,0.862303307988083,4.040639871099522,-1.8762944837984246,-0.17071166574568128,0.1562848676319497,0.039122403002168495,1,left
26.897,0.5231701948448465,1.0583736036896512,-0.2499496809418408,0.8664232009727456,4.044524100284081,-1.8742557155418453,-0.17046285070413197,0.1571547967177692,0.03177997221353474,1,left
26.897,0.5242170311001664,1.0581784859704093,-0.2501664902637685,0.8705089676821673,4.048113979178636,-1.8721368428512086,-0.17024003275383645,0.15806383160782528,0.024602661659237936,1,left
26.898000000000003,0.5252633477974201,1.0580197764576986,-0.25039571930091503,0.8745046004036257,4.0514235212519765,-1.8699519020578805,-0.17004641191223915,0.15901196332928244,0.01760095070500243,1,left
26.973000000000003,0.5263053801857578,1.0578976791140864,-0.25063789045082413,0.8783544547011579,4.05446600118837,-1.8677149869855334,-0.16988496768227213,0.15999873673312606,0.010783811923543198,1,left
26.975,0.527339523774121,1.0578122308064175,-0.2508934447641876,0.8820036817187152,4.057253804560958,-1.8654401409043673,-0.16975843152449466,0.1610232585765126,0.004158654612487787,1,left
26.976,0.5283623599910721,1.0577633151948478,-0.25116273760351615,0.8853986512497639,4.059798317466665,-1.863141251018834,-0.16966926217458642,0.1620842108310852,-0.0022687098976179017,1,left
26.976999999999997,0.5293706810937711,1.0577506764613636,-0.25144603442231084,0.8884873655842751,4.062109856131396,-1.860831945482465,-0.16961962397870603,0.16317986821249877,-0.00849408162586159,1,left
26.978,0.5303615135603,1.0577739321405701,-0.2517435062843261,0.891219864081935,4.064197636156961,-1.858525493060565,-0.16961136847698347,0.16430811859064273,-0.01451486464785916,1,left
26.978,0.5313321389310689,1.0578325845409766,-0.25205522483751963,0.8935486181120085,4.06606977939761,-1.856234706197798,-0.16964601940786472,0.165466485276017,-0.020330039606520526,1,left
26.99,0.532280111168341,1.057926030611426,-0.2523811567370219,0.8954289154455988,4.067733353424199,-1.8539718493930575,-0.16972476120235835,0.16665215078236872,-0.025940116228994604,1,left
27.029,0.5332032701955731,1.0580535704957819,-0.25272115796903594,0.8968192323740645,4.069194436419015,-1.8517485552682664,-0.1698484309796946,0.16786198200165267,-0.03134706589782549,1,left
27.03,0.5340997518988858,1.058214415240678,-0.253074968937659,0.8976815896174279,4.0704581998694405,-1.8495757493210165,-0.17001751401974882,0.16909255676161886,-0.036554234589833576,1,left
27.031,0.5349679950402375,1.0584076941130076,-0.25344221122899335,0.8979818841095356,4.071529000574313,-1.8474635818368406,-0.1702321425639548,0.1703401915713155,-0.041566237979685575,1,left
27.031,0.5358067452313636,1.0586324619028826,-0.2538223866774976,0.8976901865365601,4.0724104730020105,-1.8454213640402448,-0.1704920975738085,0.17160097006269834,-0.0463888431758019,1,left
27.108,0.5366150557434414,1.058887706660941,-0.2542148790628489,0.8967809970819051,4.0731056155324294,-1.8434575061969485,-0.17079681295244026,0.1728707714715041,-0.05102884303971514,1,left
27.11,0.5373922849928507,1.05917235841611,-0.2546189585557733,0.8952334563585747,4.073616867997366,-1.8415794567487518,-0.1711453818586155,0.17414529866568626,-0.05549392755539854,1,left
27.111,0.5381380912050796,1.0594852989228003,-0.2550337886243607,0.8930315110248254,4.073946180090403,-1.8397936423230936,-0.17153656496540717,0.17542010552691542,-0.059792554043276804,1,left
27.112,0.5388524254829858,1.059825371308792,-0.25545843449692557,0.8901640340804435,4.074095070648306,-1.8381054086116722,-0.17196880063966327,0.17669062365576432,-0.06393381652907233,1,left
27.113000000000003,0.5395355244034241,1.060191388083007,-0.2558918721530436,0.8866248998391694,4.074064677805396,-1.8365189621127485,-0.17244021703186224,0.17795218848683836,-0.06792731448803968,1,left
27.114,0.5401879021191172,1.060582137423698,-0.2563329976524322,0.882413013643923,4.073855800431473,-1.8350373132217317,-0.1729486460090425,0.1792000653131582,-0.07178302222320225,1,left
27.166,0.5408103408217744,1.0609963893649463,-0.2567806375463068,0.8775322967546316,4.073468933311373,-1.8336622236034956,-0.17349163876095922,0.1804294764625702,-0.07551116200512294,1,left
27.168000000000003,0.5414038784449674,1.0614329033355772,-0.2572335610479335,0.8719916274936049,4.072904302210254,-1.8323941651876159,-0.17406648285270532,0.18163563128197915,-0.07912208513885444,1,left
27.169,0.54196979335243,1.0618904372502098,-0.25769049389054627,0.8658047400965232,4.072161907016237,-1.8312323005765931,-0.17467022055416664,0.18281376017211395,-0.08262616408478217,1,left
27.169,0.5425095864818023,1.0623677577544968,-0.25815013326558334,0.8589900823501561,4.0712415791034715,-1.830174492208843,-0.17529966838916303,0.1839591530747816,-0.0860336968342743,1,left
27.17,0.5430249615679886,1.06286365109295,-0.2586111629659976,0.85157063297959,4.070143054879462,-1.829217342824546,-0.17595143795290324,0.18506720191535694,-0.0893548234218629,1,left
27.247,0.5435178038240301,1.063376933752183,-0.2590722677206963,0.8435736820839712,4.06886606297102,-1.8283562654013574,-0.1766219581454518,0.18613344554558772,-0.0925994537430969,1,left
27.249000000000002,0.54399015717627,1.0639064621150711,-0.25953214599362895,0.8350305827105561,4.067410417663354,-1.8275855767584972,-0.17730749898675882,0.18715361523435525,-0.09577720546119761,1,left
27.249000000000002,0.5444442000237344,1.0644511410898496,-0.25998952114053897,0.8259764843582476,4.065776108745354,-1.8268986070952113,-0.1780041969758243,0.1881236791837793,-0.09889735053863631,1,left
27.25,0.5448822194411278,1.0650099322376572,-0.2604431511655209,0.816450056497033,4.063963380374576,-1.826287819662695,-0.1787080815911422,0.18903988532167554,-0.10196876848535791,1,left
27.250999999999998,0.5453065837339683,1.0655818618270008,-0.2608918372120148,0.8064932053225854,4.061972796004616,-1.825744938247869,-0.1794151023265688,0.18989880205109644,-0.10499990416841977,1,left
27.250999999999998,0.5457197133711037,1.066166028750831,-0.26133443071621715,0.796150784065954,4.059805289139884,-1.8252610819925617,-0.1801211558014471,0.19069735679100652,-0.10799872861078996,1,left
27.302,0.5461240505039178,1.0667616117594954,-0.2617698391043361,0.785470295719896,4.057462201463377,-1.8248269067919614,-0.18082211276173682,0.1914328722432254,-0.11097270215565133,1,left
27.303,0.5465220273311522,1.0673678753104638,-0.26219702996604505,0.7745015855765292,4.054945312136156,-1.8244327505903877,-0.18151384493334732,0.19210310032215155,-0.11392873987011978,1,left
27.304000000000002,0.5469160334718864,1.0679841735551794,-0.2626150336823672,0.7632965205131556,4.052256863189868,-1.8240687774102458,-0.18219225167001246,0.19270625342136433,-0.11687317902060387,1,left
27.305,0.5473083824701364,1.0686099522758565,-0.2630229445407109,0.7519086532232965,4.049399584519926,-1.8237251142547188,-0.1828532862485089,0.1932410321987316,-0.11981174818735435,1,left
27.305,0.5477012777178154,1.069244748699654,-0.2634199204660937,0.7403928710547972,4.046376719732851,-1.8233919769508673,-0.1834929816142598,0.19370664878797264,-0.12274953743869689,1,left
27.377,0.5480967784143701,1.0698881891160026,-0.2638051816246971,0.728805029572914,4.0431920529776395,-1.8230597834822575,-0.18410747543006165,0.19410284461792596,-0.12569096913240915,1,left
27.379,0.548496766504431,1.0705399842969145,-0.2641780082792642,0.7172015708732423,4.039849936732255,-1.8227192545831206,-0.18469303437014328,0.19442990251286485,-0.12863976917629105,1,left
27.38,0.5489029156464733,1.0711999229335352,-0.2645377383479912,0.7056391266115288,4.0363553205365434,-1.8223615015930668,-0.18524607765143986,0.19468865302049912,-0.13159893872697678,1,left
27.381,0.5493166631057543,1.0718678635492311,-0.26488376510010947,0.6941741057171974,4.032713780662459,-1.8219781015713812,-0.18576319980040484,0.19488047492753788,-0.13457072636962736,1,left
27.381999999999998,0.5497391851479151,1.0725437255016534,-0.26521553532298425,0.6828622667573775,4.0289315507119925,-1.8215611596699022,-0.18624119263643202,0.19500728971616976,-0.13755660099206785,1,left
27.383000000000003,0.55017137619866,1.0732274797078039,-0.2655325481582624,0.6717582753551757,4.0250155528259945,-1.8211033588334447,-0.18667706642196147,0.19507154934324475,-0.14055722587459027,1,left
27.44,0.5506138318348015,1.0739191396560979,-0.2658343546674195,0.6609152497113329,4.020973427894102,-1.8205979974036346,-0.18706807011207205,0.19507621651743096,-0.1435724346875834,1,left
27.443,0.5510668356201881,1.074618753129752,-0.2661205580944565,0.6503843035151025,4.0168135616013085,-1.8200390166166154,-0.18741171065341955,0.19502473685575325,-0.14660120991828432,1,left
27.444000000000003,0.5515303499175335,1.0753263948422196,-0.2663908147535655,0.6402141018634874,4.012545103784687,-1.8194210217473337,-0.18770577129231933,0.19492100278499674,-0.14964166408544405,1,left
27.445999999999998,0.5520040110338624,1.0760421599305152,-0.26664483544061485,0.6304504459292837,4.008177981314163,-1.8187393010875414,-0.18794832876458484,0.19476930982398724,-0.15269102465526663,1,left
27.447,0.5524871291289085,1.0767661580704777,-0.26688238722939783,0.6211358958830133,4.003722906265149,-1.8179898455298003,-0.18813776905542612,0.19457430693974906,-0.15574562484361668,1,left
27.483,0.5529786929785846,1.0774985078905348,-0.267103295470793,0.6123094352421516,3.9991913805121833,-1.817169369767251,-0.18827280131334323,0.194340943234771,-0.15880090321495402,1,left
27.485,0.5534773790837635,1.0782393313244807,-0.2673074457755123,0.6040061770806415,3.99459569697243,-1.8162753352641021,-0.1883524696060288,0.19407441265809489,-0.1618514142630448,1,left
27.51,0.5539815642370808,1.0789887474973907,-0.26749478577269475,0.5962571120720198,3.989948937486254,-1.8153059749946783,-0.1883761623937493,0.1937800974169329,-0.16489085085273386,1,left
27.516,0.5544893408218796,1.0797468655813398,-0.2676653264972754,0.5890888983408751,3.9852649673218856,-1.8142603199486684,-0.18834361968398206,0.19346351020389824,-0.16791207869331848,1,left
27.517,0.5549985345882701,1.0805137758471959,-0.26781914328620104,0.5825236930988498,3.9805584262909974,-1.813138227399999,-0.18825493777295027,0.1931302352563052,-0.17090718295240637,1,left
27.518,0.5555067249715129,1.0812895381918426,-0.2679563760343164,0.5765790261514437,3.9758447163740294,-1.811940410801742,-0.18811057133766182,0.1927858682897282,-0.17386752726930577,1,left
27.576999999999998,0.5560112680340242,1.0820741678729853,-0.26807722864460015,0.5712677159058274,3.9711399853147564,-1.8106684704952383,-0.18791133256307616,0.19243595536228747,-0.1767838255103852,1,left
27.579,0.5565093219345633,1.0828676187637452,-0.2681819675427303,0.5665978294877313,3.966461104852897,-1.8093249232081645,-0.18765838707118918,0.19208593083031594,-0.17964622641440184,1,left
27.581,0.5569978745667034,1.0836697648442217,-0.2682709191805386,0.5625726891195454,3.9618256418243116,-1.8079132276420506,-0.18735324657807204,0.19174105512309922,-0.1824444105709015,1,left
27.581999999999997,0.5574737727764684,1.0844803807640577,-0.26834446646789745,0.5591909263712732,3.957251820797603,-1.8064378041235511,-0.18699775831511478,0.19140635411721155,-0.1851676980929516,1,left
27.583000000000002,0.5579337524316099,1.085299122215741,-0.268403044046783,0.556446584678557,3.9527584773470323,-1.8049040474626605,-0.18659409128386376,0.19108656248098527,-0.18780516477402934,1,left
27.644000000000002,0.5583744685519649,1.0861255067770297,-0.2684471323368988,0.5543292687658748,3.948364999702996,-1.8033183326141715,-0.18614471939616442,0.1907860727667818,-0.19034576507329642,1,left
27.648000000000003,0.5587925247217035,1.0869588959093204,-0.2684772503646888,0.5528243373182016,3.9440912533729233,-1.8016880124760353,-0.18565240151962736,0.19050889096157286,-0.19277846127154633,1,left
27.649,0.5591845011069333,1.0877984788764563,-0.2684939474710151,0.5519131340305871,3.939957481527654,-1.8000214069373979,-0.1851201584307687,0.19025859861349848,-0.19509235869445843,1,left
27.654,0.5595469806490643,1.0886432594352884,-0.2684977940682144,0.5515732533825579,3.935984175746671,-1.7983277825096577,-0.1845512467018574,0.19003832147971123,-0.1972768467571393,1,left
27.656,0.5598765734275845,1.0894920461216726,-0.2684893717078233,0.5517788396741877,3.932191914952327,-1.7966173222710295,-0.18394912968396956,0.18985070437169663,-0.19932174431715036,1,left
27.656999999999996,0.5601699395942074,1.09034344667216,-0.26846926277473654,0.5525009186156983,3.9286011726975536,-1.7949010860076255,-0.18331744599449568,0.18969789138980506,-0.20121744554323184,1,left
27.711,0.5604238114527459,1.0911958666985018,-0.2684380401107262,0.5537077586955215,3.925232096011192,-1.7931909601377345,-0.18265997605383283,0.18958151046963195,-0.20295506124009075,1,left
27.714000000000002,0.5606350152442514,1.092047512412476,-0.26839625685449514,0.5553652553922591,3.922104263828844,-1.7914995963932203,-0.1819806070793077,0.18950266143215921,-0.20452655183569152,1,left
27.714000000000002,0.5608004931409096,1.0928963970470715,-0.2683444368173072,0.5574373289857547,3.91923643571733,-1.789840337891549,-0.18128329675734015,0.18946190722601572,-0.20592485035577454,1,left
27.715,0.5609173258688086,1.0937403505665293,-0.26828306573844246,0.5598863290355781,3.9166462989218704,-1.7882271315723692,-0.18057203597273977,0.1894592683785728,-0.20714397417166736,1,left
27.715999999999998,0.5609827562167672,1.0945770322637098,-0.26821258370311235,0.5626734424391945,3.9143502175491607,-1.7866744267546744,-0.17985081147682633,0.18949422083286144,-0.2081791231118489,1,left
27.778000000000002,0.5609942134737026,1.0954039458702833,-0.26813337887770167,0.5657591027030985,3.9123629880536113,-1.7851970607577357,-0.1791235696705594,0.18956569740647564,-0.20902676072255263,1,left
27.78,0.5609493386376755,1.0962184567641586,-0.26804578258387896,0.5691033956582388,3.910697610118294,-1.7838101341212147,-0.17839418238427807,0.18967209304966604,-0.209684676266861,1,left
27.781,0.5608460099996018,1.0970178106692616,-0.26795006555525325,0.5726664552601487,3.9093650850559434,-1.782528878806713,-0.17766641500544053,0.1898112739736059,-0.21015202649964268,1,left
27.79,0.5606823683414993,1.0977991529704627,-0.2678464349703301,0.5764088447069365,3.908374250823264,-1.7813685219165554,-0.1769438970281321,0.18998059067625508,-0.21042935706529356,1,left
27.791,0.5604568406542105,1.0985595476793641,-0.26773503169984314,0.5802919209744023,3.907731657283355,-1.780344145941865,-0.17623009512389548,0.1901768949585806,-0.21051860355297297,1,left
27.791999999999998,0.5601681612040393,1.0992959953675283,-0.2676159273271895,0.5842781826239497,3.9074414821152765,-1.779470545984805,-0.17552828898590264,0.19039656116267012,-0.21042307229268606,1,left
27.845,0.5598153889687458,1.1000054498473706,-0.2674891208142577,0.5883316018772956,3.907505486145365,-1.7787620856268171,-0.17484155028320286,0.19063551194040923,-0.21014740100235726,1,left
27.846999999999998,0.5593979208702751,1.1006848337371964,-0.2673545349922875,0.5924179434273936,3.9079230050420084,-1.7782325556277918,-0.17417272497710612,0.19088924878442057,-0.20969749936816545,1,left
27.85,0.5589155007872061,1.101331053280541,-0.2672120133141723,0.5965050732747361,3.908690973297829,-1.7778950410374736,-0.1735244190768493,0.19115288730527097,-0.20908046984158582,1,left
27.851999999999997,0.5583682246925695,1.1019410129910214,-0.2670613174864618,0.6005632594798064,3.909803976929768,-1.7777618007134328,-0.17289898771461704,0.19142119661658763,-0.20830451016326432,1,left
27.851999999999997,0.5577565421850583,1.1025116307596667,-0.26690212657383316,0.6045654623518579,3.911254330596221,-1.7778441597702264,-0.17229852720074712,0.1916886411926906,-0.20737880137604311,1,left
27.91,0.5570812544188118,1.103039853947501,-0.2667340379463852,0.6084876055625078,3.913032171230982,-1.7781524123654378,-0.1717248696075902,0.19194942301800533,-0.20631338634350851,1,left
27.912,0.5563435083853857,1.1035226769198556,-0.2665565702413017,0.6123088166129713,3.9151255579322726,-1.778695730992166,-0.17117957954297758,0.19219752239290294,-0.20511904253544747,1,left
27.913,0.5555447878589624,1.103957160479662,-0.26636916844220065,0.616011627979306,3.917520570412315,-1.7794820794056705,-0.17066395297667405,0.19242673674227895,-0.20380715058301282,1,left
27.928,0.5546869019566375,1.104340453217894,-0.2661712111010771,0.6195821354720544,3.920201402933064,-1.7805181280360511,-0.17017901808192099,0.19263071738290458,-0.20238955906085743,1,left
27.929000000000002,0.5537719726935075,1.104669813733465,-0.2659620195253951,0.6230101132060571,3.9231504535110386,-1.781809171975698,-0.1697255380079056,0.19280300463648017,-0.20087844674917502,1,left
27.93,0.5528024227472444,1.1049426318003686,-0.26574086852039336,0.6262890849748606,3.9263484101392936,-1.7833590532157129,-0.16930401537517786,0.19293706225461046,-0.19928618551276786,1,left
27.968000000000004,0.5517809640881043,1.105156446639109,-0.2655069981172059,0.6294163514995005,3.9297743383871966,-1.7851700913141144,-0.1689146982172894,0.19302631244370735,-0.19762520798091238,1,left
27.969,0.5507105875137482,1.105308961435036,-0.2652596257331811,0.6323929728408861,3.9334057761904417,-1.787243028072651,-0.168557587160853,0.1930641724558759,-0.19590788316457067,1,left
27.986,0.5495945523423673,1.105398054599328,-0.264997958451033,0.6352237060998531,3.9372188397005297,-1.7895769902567296,-0.1682324437602118,0.19304409313238508,-0.194146401262746,1,left
27.988000000000003,0.5484363745554306,1.1054217888035345,-0.26472120518162,0.6379169021283421,3.941188338987268,-1.7921694711369294,-0.1679387999840562,0.19295959944201935,-0.19235266789535008,1,left
27.988000000000003,0.5472398113703656,1.1053784181228272,-0.2644285882500554,0.6404843710508692,3.9452878965012608,-1.7950163288900547,-0.16767596892629733,0.1928043328805004,-0.1905382079540088,1,left
28.045,0.5460088412773103,1.105266393337752,-0.264119354114272,0.6429412297066159,3.949490058449146,-1.7981117988708806,-0.16744305692360079,0.1925720953961443,-0.18871407955660474,1,left
28.048000000000002,0.5447476401975937,1.1050843662918457,-0.2637927835232423,0.6453057408465351,3.953766391699317,-1.8014485175153754,-0.16723897732318738,0.19225689439514695,-0.18689079875487313,1,left
28.064,0.543460555076021,1.10483119452078,-0.2634482014322966,0.6475991477872836,3.9580875638538684,-1.8050175570442213,-0.1670624660834824,0.1918529884912744,-0.18507827548069625,1,left
28.066,0.5421520756537822,1.1045059465077418,-0.2630849863704317,0.6498455037666826,3.9624234094946487,-1.8088084711816699,-0.16691209925992204,0.19135493382263727,-0.1832857608079531,1,left
28.066999999999997,0.5408268044689997,1.1041079072187805,-0.26270257868762964,0.6520714924637808,3.966742991337597,-1.8128093527891211,-0.16678631226541366,0.19075763065589488,-0.18152180487187972,1,left
28.068,0.5394894249348635,1.10363658365231,-0.26230048735332145,0.6543062349651403,3.97101466793699,-1.8170069046101014,-0.1666834205996006,0.19005636963567116,-0.17979422372687504,1,left
28.112,0.5381446674065892,1.1030917103441473,-0.2618782951841401,0.6565810796400936,3.975206176673945,-1.8213865240273333,-0.16660164163937513,0.18924687682301294,-0.17811007285245242,1,left
28.114,0.5367972732689561,1.1024732546287568,-0.2614356624697977,0.6589293735139232,3.979284735530296,-1.825932402199288,-0.16653911718493494,0.18832535688011778,-0.1764756255884082,1,left
28.122,0.5354519572982964,1.10178142107407,-0.2609723291180446,0.6613862149091992,3.9832171642415184,-1.8306276376475774,-0.16649393663894754,0.18728853414289032,-0.17489635580870908,1,left
28.123,0.5341133688642429,1.101016654249918,-0.26048811560510643,0.6639881873618837,3.9869700248406583,-1.835454364307729,-0.16646416076678916,0.18613369151344938,-0.1733769246480936,1,left
28.124000000000002,0.5327860527810931,1.1001796391068255,-0.25998292307150567,0.6667730747914111,3.9905097812756063,-1.840393893581323,-0.16644784584904349,0.1848587070330911,-0.17192117087517736,1,left
28.178,0.5314744106051507,1.0992712985850217,-0.25945673282825055,0.6697795577662249,3.993802976134986,-1.8454268675526888,-0.1664430677545492,0.18346208779062137,-0.17053210390371631,1,left
28.18,0.5301826630273218,1.0982927884105758,-0.2589096054505241,0.6730468904581813,3.9968164195535336,-1.8505334162583502,-0.16644794530513718,0.18194300070659952,-0.169211898099247,1,left
28.201,0.528914814051003,1.0972454893479624,-0.258341679654441,0.6766145577417103,3.9995173837205957,-1.8556933095225223,-0.16646066246486346,0.18030129976386797,-0.16796188738668846,1,left
28.203000000000003,0.5276746177799411,1.0961309974283373,-0.25775317122492236,0.6805219123634774,4.001873797723862,-1.86088609635451,-0.1664794891916986,0.17853754904037183,-0.16678255983486084,1,left
28.203000000000003,0.526465548517104,1.0949511127005425,-0.2571443722495803,0.6848077940133664,4.003854438736341,-1.866091229714845,-0.16650280098676665,0.17665304025924444,-0.16567355235088274,1,left
28.204,0.5252907745262066,1.0937078268800053,-0.2565156508064399,0.6895101352470256,4.005429114163371,-1.8712881777960455,-0.1665290972298619,0.1746498031743054,-0.16463364575242023,1,left
28.243000000000002,0.5241531355198418,1.0924033101672503,-0.25586745114789095,0.6946655608946404,4.006568828007599,-1.8764565239744047,-0.16655701836781608,0.1725306075280544,-0.16366076041807132,1,left
28.244,0.5230551238453204,1.091039897619098,-0.25520029434157,0.7003089859358453,4.007245926395983,-1.8815760570538684,-0.16658536198238844,0.17029895607361012,-0.16275195259416586,1,left
28.26,0.5219988694829428,1.0896200756046324,-0.254514779238481,0.7064732144405808,4.007434220490222,-1.8866268526203867,-0.16661309774218575,0.16795906857098797,-0.16190341136856784,1,left
