time,gFx,gFy,gFz,ax,ay,az,wx,wy,wz,subject_number,foot
5.042,0.4228769423596229,1.2421708544439716,-0.2516839092814146,2.547621740878796,2.391443951324756,-0.7046212594838203,0.07637157330923834,-0.041842220240451984,-0.5287955256109242,4,left
5.042,0.4232353759738757,1.238586735016862,-0.2526866971448817,2.492279928286853,2.4241826818687384,-0.7229389900284511,0.0751312334580374,-0.03666757578923897,-0.5131041398295034,4,left
5.08,0.4236049536827535,1.234990937509713,-0.25369783605435586,2.4363203873869197,2.457259671183641,-0.7413053093622446,0.07390552441003878,-0.0315189921744968,-0.4973373661256874,4,left
5.081,0.42398705586582713,1.2313909457690504,-0.25471568745545187,2.37985828172129,2.490617311536579,-0.7596934724749705,0.07269591704139408,-0.026408840744514824,-0.4815265914210891,4,left
5.096,0.4243830004348162,1.2277940141884292,-0.2557386332081254,2.323007792537243,2.5241994405832324,-0.778077095545623,0.07150382394227187,-0.021348842828994106,-0.46570140245463065,4,left
5.0969999999999995,0.42479401256877963,1.224207173140375,-0.2567650769681542,2.2658818344515055,2.5579514455083854,-0.7964302260237034,0.0703305887001568,-0.01635004124192421,-0.4498895810237731,4,left
5.098,0.42522119562331345,1.2206372326163877,-0.2577934451417461,2.20859175978627,2.591820371548178,-0.8147274169458996,0.06917747548417458,-0.011422775786580226,-0.4341171034998341,4,left
5.166,0.42566550388653585,1.2170907839679745,-0.25882218764066933,2.1512470514946234,2.625755034216345,-0.832943803987108,0.06804565955139136,-0.006576663215844814,-0.4184081437817223,4,left
5.167000000000001,0.4261277177633807,1.2135741998145664,-0.25984977860747716,2.0939550047138438,2.65970613339611,-0.8510551814139485,0.06693621913231365,-0.0018205819878195915,-0.4027850790921056,4,left
5.167999999999999,0.42660842189383497,1.210093632316241,-0.2608747172473562,2.0368203970519905,2.693626366814655,-0.8690380718139212,0.06585012883348237,0.002837338036005407,-0.38726849858621654,4,left
5.167999999999999,0.4271079866459174,1.2066550101102964,-0.26189552890382317,1.9799451476456058,2.7274705410623663,-0.8868697857679663,0.06478825446986206,0.007389720887821652,-0.37187721532005097,4,left
5.169,0.42762655337942396,1.2032640342943977,-0.2629107665711738,1.9234279654120277,2.7611956791941794,-0.9045284700705869,0.06375134917014907,0.011829944729164673,-0.35662828237492483,4,left
5.239,0.4281640238027636,1.1999261738802476,-0.26391901307749477,1.8673639893874365,2.794761123165239,-0.9219931449261227,0.06274005063661202,0.01615213698581517,-0.3415370137252043,4,left
5.2410000000000005,0.4287200535990583,1.1966466610770585,-0.26491888407684144,1.8118444285913449,2.8281286269076853,-0.9392437317622061,0.061754879510308246,0.02035116437391453,-0.3266170100575718,4,left
5.2410000000000005,0.4292940503569499,1.1934304866043894,-0.2659090317566926,1.7569562113938777,2.8612624344249458,-0.9562610738308948,0.06079623883101456,0.024422617826523052,-0.3118801895401455,4,left
5.242000000000001,0.4298851757939387,1.1902823950850636,-0.2668881489776446,1.7027816518288628,2.8941293387095586,-0.9730269512374627,0.05986441457924544,0.028362792409064013,-0.297336823626138,4,left
5.242999999999999,0.43049235221403903,1.187206880501936,-0.26785497358238336,1.6493981357349778,2.92669871986418,-0.9895240910823094,0.05895957723919525,0.03216866269193274,-0.28299557861729174,4,left
5.242999999999999,0.4311142729418114,1.1842081817099674,-0.2688082927645996,1.5968778275780542,2.95894256237644,-1.0057361730312795,0.05808178423401493,0.035837854732523884,-0.2688635648649515,4,left
5.3,0.4317494161555671,1.1812902780218315,-0.26974694745801625,1.545287400821159,2.9908354524914693,-1.0216478313252528,0.0572309830362986,0.03936861619874279,-0.2549463961272485,4,left
5.3020000000000005,0.43239606128607666,1.1784568848398322,-0.27066983658456906,1.4946877992444512,3.022354557899231,-1.0372446556831971,0.056407014802727744,0.04275978575055449,-0.24124826089396034,4,left
5.3020000000000005,0.43305230707170794,1.1757114491682796,-0.27157592077648796,1.4451340391081147,3.0534795926882397,-1.0525131942154156,0.055609618456315416,0.0460107619366954,-0.22777200600195988,4,left
5.303,0.4337160905200376,1.1730571446961542,-0.27246422507514456,1.3966750593881252,3.084192769945776,-1.0674409599659893,0.054838435164830605,0.04912147116863148,-0.21451923161786793,4,left
5.303999999999999,0.4343852064639345,1.1704968660122679,-0.2733338402482206,1.3493536225182492,3.1144787433567314,-1.0820164400081373,0.054093013160697305,0.05209233408271095,-0.20149039619999531,4,left
5.331,0.4350573279649299,1.1680332215076312,-0.27418392270004077,1.3032062654084684,3.144324538581639,-1.0962291045184043,0.053372812860823717,0.054924229775756346,-0.1886849303894378,4,left
5.372000000000001,0.4357300280724223,1.1656685249692056,-0.275013693319677,1.2582633001572732,3.173719474914269,-1.1100694137887464,0.052677212268444004,0.05761845771339522,-0.176101359387682,4,left
5.374,0.4364008031020873,1.1634047866506882,-0.27582243576848053,1.214548864144592,3.2026550774706495,-1.1235288223848512,0.052005512652212926,0.06017669728472639,-0.1637374337158652,4,left
5.379,0.4370670969623637,1.1612437049962887,-0.27660949449609984,1.1720810193432887,3.2311249800227024,-1.1365997803525798,0.05135694450048325,0.06260096501145954,-0.15159026831889852,4,left
5.38,0.4377263257210342,1.1591866599849447,-0.2773742724212899,1.1308719007201715,3.2591248185609265,-1.1492757315122728,0.05073067377157747,0.06489356953085955,-0.13965648979393802,4,left
5.381,0.4383759017267131,1.157234708712344,-0.2781162280521343,1.0909279132352845,3.286652115529952,-1.161551108780909,0.0501258085749903,0.06705706502937535,-0.12793239060150516,4,left
5.439,0.4390132568975174,1.155388583578098,-0.278834871865826,1.052249975123365,3.3137061539830794,-1.173421325967688,0.04954140662382646,0.06909420480773876,-0.11641408745892255,4,left
5.44,0.4396358649872488,1.1536486932503225,-0.27952976185164197,1.0148338018537506,3.3402878396470648,-1.184882764599535,0.04897648388763225,0.07100789716487076,-0.1050976800042792,4,left
5.44,0.44024126268691816,1.152015126450186,-0.28020049816004466,0.9786702233401893,3.3663995481906523,-1.1959327538385716,0.04843002463445113,0.07280116497457849,-0.09397940579029686,4,left
5.441,0.44082706943859107,1.1504876585422783,-0.2808467168486319,0.9437455288040819,3.3920449556854146,-1.206569542045736,0.04790099261829138,0.07447710886529346,-0.08305578761505814,4,left
5.442,0.44139100596215347,1.1490657608732104,-0.2814680828472214,0.9100418365774423,3.4172288521004663,-1.2167922594950475,0.047388342927860226,0.07603887309976291,-0.07232376916769163,4,left
5.506,0.44193091170178594,1.1477486127361627,-0.2820642824379219,0.8775374859035694,3.441956941372054,-1.2266008725527822,0.04689103411599366,0.07748961339471815,-0.06178083610329789,4,left
5.507000000000001,0.4424447615656733,1.1465351157568517,-0.28263501565426896,0.8462074444540626,3.466235637134877,-1.2359961303051044,0.04640804045666017,0.0788324663792872,-0.051425121374221144,4,left
5.507999999999999,0.44293068239765937,1.1454239103546937,-0.28317998903441394,0.8160237232239761,3.4900718662050245,-1.2449795049341636,0.045938364302797165,0.08007052064563623,-0.041255494596580296,4,left
5.515,0.44338696955308954,1.1444133936991834,-0.28369890913853657,0.7869557925306855,3.5134728888987397,-1.2535531268238218,0.045481048506347044,0.08120678942215571,-0.03127163535877425,4,left
5.516,0.44381210370751634,1.1435017383875392,-0.2841914771025104,0.7589709965539997,3.5364461398620395,-1.261719714803198,0.04503518867589209,0.08224418502990717,-0.0214740900642481,4,left
5.517,0.44420476764179634,1.142686911078734,-0.28465738423203557,0.7320349656504013,3.5589990901796362,-1.2694825016763591,0.04459994471250822,0.0831854955180215,-0.011864311334399956,4,left
5.572,0.4445638623478881,1.1419666904830934,-0.28509630836241584,0.7061120247481751,3.58113913142486,-1.2768451554167033,0.044174550878484015,0.08403336400415695,-0.00244467868307542,4,left
5.574,0.4448885215266562,1.1413386843174482,-0.2855079105873511,0.6811655937187977,3.602873483202773,-1.2838116969342852,0.043758323839593764,0.08479027111513103,0.006781500510397833,4,left
5.575,0.44517812355145714,1.1408003451447626,-0.2858918321297135,0.6571585742815814,3.6242091262328295,-1.2903864156180944,0.0433506684564613,0.08545852068728742,0.01581001013519851,4,left
5.5760000000000005,0.4454323003433181,1.140348985455377,-0.28624769158407576,0.6340537193428664,3.6451527625208766,-1.296573783559228,0.042951081325052286,0.08604022872225657,0.024635764524547247,4,left
5.577000000000001,0.4456509431496093,1.1399817927019145,-0.28657508322221253,0.6118139830875913,3.6657108028615095,-1.302378369008864,0.04255915229587725,0.08653731540274404,0.0332528667661488,4,left
5.64,0.4458342054814976,1.1396958450234445,-0.286873577132251,0.590402851481368,3.6858893793357628,-1.3078047502287504,0.042174564547681384,0.08695149967640747,0.04165468384062732,4,left
5.642,0.44598250323769556,1.1394881281993556,-0.28714272163195287,0.5697846531052289,3.7056943766258197,-1.312857432451578,0.0417970939837365,0.08728429575101308,0.04983393550284367,4,left
5.642,0.446096511719439,1.1393555542747345,-0.28738204797686284,0.5499248502439068,3.7251314738878154,-1.317540771567367,0.04142660852655668,0.08753701100844005,0.05778279459799613,4,left
5.653,0.44617715946341063,1.1392949822323155,-0.28759107704471804,0.5307903101546839,3.7442061910022058,-1.321858907251053,0.04106306753760992,0.08771074521767172,0.06549299766339597,4,left
5.654,0.4462256196681089,1.1393032404955123,-0.2877693273606927,0.5123495564529539,3.7629239367632126,-1.3258157066256255,0.04070652138079441,0.08780639147375399,0.07295596424331621,4,left
5.655,0.4462433009419412,1.1393771493014722,-0.28791632354856567,0.49457300010838295,3.781290058718512,-1.3294147186861152,0.04035711108209018,0.08782464001081502,0.08016292133833278,4,left
5.707000000000001,0.4462318395282606,1.139513538828477,-0.28803160426320457,0.4774331473072442,3.7993098951412345,-1.3326591396879726,0.04001506802230885,0.08776598641946753,0.08710502820942499,4,left
5.71,0.4461930941907774,1.1397092595225506,-0.2881147291985433,0.46090477740440927,3.8169888302562627,-1.3355517899890572,0.0396807136153927,0.08763074541623504,0.09377349795685763,4,left
5.712000000000001,0.44612914252651115,1.1399611855614213,-0.2881652856382169,0.44496508194923756,3.834332354197833,-1.3380951029926986,0.039354458952649794,0.08741907062400192,0.1001597144539704,4,left
5.7139999999999995,0.44604227576908245,1.1402662161706953,-0.28818289521993135,0.429593758012594,3.851346128818412,-1.3402911266789945,0.03903680437251508,0.08713098033482541,0.10625534427519245,4,left
5.715,0.44593498980168633,1.1406212784957577,-0.2881672208993078,0.4147730537674092,3.8680360593217893,-1.342141537788334,0.03872833873691811,0.0867663886248119,0.11205244279434506,4,left
5.775,0.44580997177091675,1.1410233326060355,-0.28811797361363845,0.4004877699647253,3.884408368810692,-1.3436476678835363,0.038429737868421916,0.08632514024567496,0.1175435523638717,4,left
5.776,0.44567008275226766,1.1414693778426552,-0.2880349183883948,0.38672522760105416,3.9004696682209183,-1.3448105392649743,0.03814176142068973,0.08580704719244871,0.1227217897822379,4,left
5.777,0.4455183373320227,1.1419564599876315,-0.2879178799602463,0.373475215521138,3.916227011587451,-1.3456309080347415,0.03786524763649538,0.08521192537153438,0.12758092095844942,4,left
5.79,0.4453578808040547,1.1424816791608634,-0.28776674793387097,0.3607299282550688,3.9316879291127185,-1.3461093122822534,0.03760110580210728,0.08453963071810773,0.1321154220740306,4,left
5.791,0.44519196406593026,1.1430421984590151,-0.2875814812974283,0.3484838981862183,3.9468604350524035,-1.3462461245818433,0.03735030652676721,0.08379009453764387,0.13632052788275473,4,left
5.791,0.44502391604935365,1.1436352531793939,-0.2873621121159463,0.3367339220896049,3.9617530109161354,-1.3460416087905678,0.03711387026115526,0.08296335777292577,0.14019226907693005,4,left
5.832000000000001,0.44485711390730903,1.1442581602729205,-0.28710874830855515,0.3254789783343077,3.9763745697705573,-1.3454959818754793,0.036892854606995394,0.08205960379870625,0.14372750128639977,4,left
5.8420000000000005,0.44469495149835714,1.1449083276187784,-0.2868215754463684,0.3147201255403301,3.9907344160460307,-1.3446094825904826,0.03668834083176725,0.0810791894449465,0.14692392763718415,4,left
5.848,0.44454080657592165,1.1455832627076332,-0.2865008575589324,0.3044603708254077,4.00484221958795,-1.3433824491006703,0.03650141975372036,0.08002267412748698,0.1497801156468227,4,left
5.85,0.44439800691890446,1.1462805802775133,-0.286146937023499,0.2947045008458277,4.018708015680161,-1.3418154054054263,0.03633317702420394,0.07889084706376027,0.15229550859422497,4,left
5.85,0.4442697957700424,1.1469980084027358,-0.28576023364371006,0.2854588779576097,4.032342230144377,-1.339909152368487,0.036184677842218745,0.07768475254282468,0.15447043145326353,4,left
5.909,0.4441592972209236,1.14773339251415,-0.2853412430131265,0.27673120889298175,4.045755721606028,-1.3376648569165417,0.03605695131360671,0.07640571307924986,0.15630609187864386,4,left
5.9110000000000005,0.4440694823758679,1.148484696907763,-0.28489053428817496,0.26853029195115674,4.058959834285968,-1.3350841344847206,0.03595097498677327,0.0750553500290164,0.15780457745210258,4,left
5.9270000000000005,0.4440031372364491,1.149250003590766,-0.2844087475890654,0.2608657454097687,4.071966458288954,-1.3321691227538064,0.03586766027435244,0.07363560110584924,0.15896885079628473,4,left
5.928999999999999,0.4439628332659007,1.150027508700839,-0.2838965913233624,0.2537477194662935,4.084788094605601,-1.3289225464479557,0.03580783928693212,0.07214873434081288,0.15980274374365855,4,left
5.93,0.4439509014045665,1.1508155169342518,-0.28335483969315955,0.24718659651736036,4.097437918924527,-1.3253477734431274,0.035772253256125985,0.07059735810438136,0.16031095093264114,4,left
5.93,0.44396940995260453,1.151612434409391,-0.28278433054853963,0.24119268619588372,4.109929836370432,-1.3214488625213199,0.035761542493842204,0.0689844266353133,0.16049902263317467,4,left
5.973,0.44402014642312687,1.1524167604255222,-0.2821859637048498,0.23577591997703243,4.122278521263732,-1.3172306030188998,0.03577623776970684,0.06731324037381248,0.16037335642926637,4,left
5.974,0.44410460330313306,1.1532270787045487,-0.28156069984031,0.23094554726678818,4.13449943956162,-1.3126985464618057,0.035816753018137346,0.06558744057083304,0.15994118747879602,4,left
5.986000000000001,0.4442239676536044,1.1540420486920677,-0.2809095600138031,0.22670983327799216,4.146608853620382,-1.3078590301936088,0.03588337933967479,0.06381099795942707,0.15921057723867693,4,left
5.9879999999999995,0.4443791146220908,1.1548603972458362,-0.2802336256815017,0.22307575867833832,4.158623809314495,-1.3027191929843234,0.035976280288008776,0.0619881955416666,0.15819040051002425,4,left
5.989,0.4445706050792405,1.1556809107482429,-0.279534038996071,0.22004872164438583,4.170562105684667,-1.2972869827859121,0.036095488426518295,0.06012360604562026,0.15689033004456635,4,left
6.041,0.4447986875441611,1.1565024275424347,-0.27881200322136096,0.21763224619702765,4.182442247971884,-1.2915711576942914,0.03624090311378578,0.058222065445862524,0.15532081681636983,4,left
6.042999999999999,0.4450633043025712,1.1573238306060023,-0.2780687831819131,0.21582770652696104,4.194283386127594,-1.2855812827873205,0.03641228946403866,0.05628864440705235,0.15349306343083582,4,left
6.064,0.4453641012511201,1.1581440404306511,-0.27730570568880336,0.21463408033581285,4.206105241699908,-1.2793277263278935,0.036609278442126275,0.054328619043807494,0.15141898877340526,4,left
6.066,0.4457004407635565,1.1589620081102339,-0.276524159871356,0.21404774135921478,4.217928025934238,-1.2728216575543243,0.036831368068918804,0.0523474415117332,0.1491111831393199,4,left
6.067,0.4460714169785128,1.159776708627964,-0.2757255973403195,0.214062296089882,4.22977235181637,-1.266075046000429,0.03707792568548422,0.05035071028258931,0.14658285373318325,4,left
6.068,0.4464758732632318,1.1605871341632583,-0.27491153205996244,0.21466846685938937,4.241659142724602,-1.259100661020841,0.03734819115305813,0.04834413951119858,0.14384776058295465,4,left
6.106,0.44691242198305253,1.1613922868527176,-0.2740835396934008,0.2158540224125973,4.253609539596662,-1.2519120703887894,0.0376412808247097,0.04633352670604574,0.1409201429291949,4,left
6.108,0.44737946689366087,1.1621911702611674,-0.2732432561586147,0.2176037564290091,4.265644807394151,-1.2445236375013466,0.037956192165860485,0.0443247181110654,0.13781463613289438,4,left
6.122999999999999,0.4478752282393776,1.1629827793717666,-0.2723923752863798,0.21989951386601947,4.277786240725134,-1.2369505169824306,0.03829180897501053,0.0423235715581554,0.1345461791142827,4,left
6.126,0.4483977700738592,1.163766089759474,-0.27153264561550133,0.2227202639126381,4.290055066869224,-1.2292086479703312,0.038646907197275,0.04033591674553389,0.13112991231761248,4,left
6.127000000000001,0.4489450289070169,1.1645400468611589,-0.2706658663339431,0.22604221652170325,4.302472341764613,-1.2213147433370561,0.039020161353704244,0.03836751305970486,0.1275810663306406,4,left
6.167999999999999,0.4495148427559445,1.1653035559287952,-0.2697938822973718,0.22983897847783666,4.315058833025154,-1.2132862725090805,0.03941015171977274,0.036424005676434376,0.12391484197512805,4,left
6.171,0.45010497984239084,1.1660554730030246,-0.2689185780598613,0.23408174597221934,4.327834885547632,-1.2051414361357797,0.039815372585114424,0.034510881787885604,0.12014628392277045,4,left
6.199,0.4507131663578346,1.1667945972606626,-0.26804187089894516,0.23873953205769313,4.340820268387861,-1.1968991319066669,0.040234242036986965,0.032633429420731296,0.11629015057865535,4,left
6.2010000000000005,0.45133711287406253,1.167519665141526,-0.2671657028447485,0.2437794262654151,4.354034005241263,-1.1885789114771637,0.04066511357316371,0.030796700651464917,0.11236078249448758,4,left
6.2010000000000005,0.4519745391360247,1.1682293465844489,-0.2662920317291913,0.2491668800773056,4.3674941950591455,-1.1802009287250375,0.04110628951896686,0.029005479708245387,0.10837197137774761,4,left
6.202000000000001,0.45262319719517036,1.1689222435373268,-0.2654228213086185,0.25486600984375674,4.381217831497357,-1.1717858796411769,0.041556035874534554,0.0272642554616185,0.10433683295155399,4,left
6.239,0.45328089312970515,1.1695968907631125,-0.2645600306391163,0.2608399108431232,4.395220627729795,-1.1633549340763347,0.042012598063985294,0.025577197477785737,0.1002676878249112,4,left
6.24,0.4539455078396937,1.1702517588648333,-0.2637056030741142,0.2670509799712434,4.409516849263276,-1.1549296594180056,0.042474217190565745,0.023948135013487026,0.09617595349011733,4,left
6.26,0.45461501744632254,1.170885259340343,-0.26286145537920136,0.2734612466560901,4.424119155226175,-1.1465319361896764,0.04293914664019883,0.022380538701185403,0.09207204868704807,4,left
6.261,0.4552875136256797,1.1714957513245146,-0.26202946739776506,0.2800327120146331,4.439038448171113,-1.1381838655482774,0.04340566897008547,0.02087750488750038,0.08796531043960006,4,left
6.2620000000000005,0.4559612239151815,1.172081549556943,-0.26121147248717935,0.2867276958543468,4.454283732711077,-1.129907668737616,0.04387211285462684,0.019441742673246436,0.08386392440296571,4,left
6.308,0.45663453184722347,1.1726409331403187,-0.26040924874151306,0.2935091890457463,4.469861984700819,-1.1217255789653597,0.044336869517359837,0.0180755637831522,0.07977487013598315,4,left
6.309,0.4573059966817818,1.173172154788834,-0.2596245108967029,0.3003412050548646,4.485778035181045,-1.113659726908736,0.04479840788672384,0.016780875437711226,0.0757038834547968,4,left
6.332000000000001,0.45797437228923366,1.1736734503278536,-0.2588589027037259,0.3071891223483172,4.502034474695397,-1.1057320214640256,0.04525528790435601,0.015559176355616955,0.0716554374820737,4,left
6.337000000000001,0.45863862433791136,1.1741430481632866,-0.2581139894735269,0.3140200114722842,4.518631582010483,-1.0979640271533817,0.04570617175819153,0.014411555935890132,0.06763274303044621,4,left
6.337999999999999,0.45929794474650126,1.1745791784496389,-0.25739125058616197,0.3208029444038683,4.535567277819557,-1.0903768399047848,0.04614983302660059,0.01333869659046918,0.06363776836909216,4,left
6.34,0.4599517626521787,1.1749800818212042,-0.25669207199402855,0.32750928595624823,4.552837100917466,-1.082990964382588,0.04658516387338254,0.01234087901764662,0.059671278075005205,4,left
6.372999999999999,0.46059975170401624,1.175344017755688,-0.2560177390091305,0.3341129674933777,4.570434203111328,-1.0758261970040357,0.04701118064118631,0.011417989897782003,0.055732890240342024,4,left
6.395,0.4612418338681213,1.1756692729104576,-0.2553694299227436,0.3405907431507979,4.588349360078178,-1.0689015177382446,0.04742702830633146,0.010569531321177794,0.051821151068289995,4,left
6.397,0.4618781798877822,1.1759541700863492,-0.2547482111307023,0.3469224286526311,4.606570997084194,-1.0622349919137657,0.04783198414255487,0.009794631429977304,0.04793362612899863,4,left
6.398,0.46250920636562515,1.176197078662351,-0.2541550342183479,0.3530911227554851,4.625085229426907,-1.0558436822220714,0.04822546074408541,0.00909205612119294,0.044067007718609,4,left
6.398,0.463135569582347,1.1763964272622947,-0.2535907350312423,0.359083410900439,4.643875917463333,-1.0497435708361096,0.04860700849634156,0.008460222109294977,0.04021723670938836,4,left
6.44,0.46375815652055324,1.1765507189361728,-0.25305603440119706,0.36488954846688504,4.662924735145522,-1.0439494912588099,0.04897631765545697,0.007897212184184797,0.036379634997430625,4,left
6.442,0.4643780738098404,1.1766585479133815,-0.2525515398563756,0.3705036170849779,4.682211249289549,-1.0384750689682027,0.04933322025115346,0.00740079377993449,0.032549043360319656,4,left
6.473,0.46499663556153925,1.1767186152771307,-0.2520777474663611,0.37592364541995293,4.701713006120778,-1.0333326697861236,0.04967769197409955,0.006968441690526303,0.028719960831321185,4,left
6.475,0.46561535127497156,1.1767297402954977,-0.2516350435557986,0.3811516887479857,4.721405623873024,-1.0285333560257406,0.0500098540718194,0.0065973652233960595,0.024886683792672126,4,left
6.475,0.46623591466920855,1.1766908655968975,-0.2512237070583545,0.3861938668752093,4.741262894241278,-1.0240868525033646,0.05032997501877055,0.006284539588450739,0.021043443117426848,4,left
6.476,0.46686019311192234,1.1766010569721201,-0.2508439135457614,0.39106036285789303,4.761256897722395,-1.0200015256283397,0.05063847134638857,0.006026740879390875,0.01718453584709819,4,left
6.507000000000001,0.4674902159055031,1.1764595007566248,-0.25049574120334794,0.3957653846986847,4.781358136775396,-1.0162843780244109,0.05093590681379839,0.005820583790370206,0.013304446725068874,4,left
6.532,0.46812815953806947,1.1762655020195802,-0.2501791781757384,0.4003270909866577,4.801535687956879,-1.0129410594627013,0.05122298930492141,0.005662561425165687,0.009397956072970455,4,left
6.534,0.46877632949070575,1.1760184850216617,-0.24989413056499674,0.40476748117489453,4.821757370637713,-1.0099758930951934,0.051500565218535944,0.00554908687308265,0.005460232709523838,4,left
6.534,0.46943713957577543,1.1757179956379022,-0.24964043080353773,0.4091122518484851,4.8419899255849455,-1.007391914068397,0.05176961138161504,0.00547653609864752,0.0014869123349826757,4,left
6.535,0.470113089738892,1.1753637051045236,-0.24941784635417966,0.41339062078185346,4.862199194435123,-1.00519091662807,0.05203122466297003,0.005441291120743783,-0.0025258369606806067,4,left
6.5729999999999995,0.4708067424443357,1.1749554148184358,-0.24922608839586088,0.417635120137547,4.882350293343267,-1.0033735067968301,0.05228660952293491,0.005439782115680579,-0.006581259851337658,4,left
6.574,0.4715206972646841,1.1744930620915968,-0.24906481988938392,0.42188135935476156,4.902407778156043,-1.0019391594533738,0.05253706367606879,0.0054685274200950585,-0.010681967932066015,4,left
6.611000000000001,0.47225756345035846,1.1739767265919214,-0.24893366257069732,0.426167757829251,4.922335800715531,-1.0008862796130067,0.05278396197995443,0.005524171016238746,-0.014829902135633203,4,left
6.612,0.4730199307047801,1.1734066368928395,-0.2488322027206635,0.43053524739689025,4.942098256351399,-1.0002122679042644,0.05302873881363476,0.005603517384650424,-0.019026302777693946,4,left
6.6129999999999995,0.4738103386041585,1.1727831764212622,-0.24875999572506907,0.4350269446331748,4.961658922619028,-0.9999135902374958,0.05327286957405764,0.005703563607473902,-0.023271685915551284,4,left
6.6129999999999995,0.47463124510086047,1.17210688816137,-0.24871656951791288,0.43968779315339324,4.980981589677458,-0.9999858515276876,0.05351785212810408,0.005821528566817605,-0.027565824263155365,4,left
6.64,0.4754849946522155,1.1713784775386415,-0.24870142707283466,0.4445641769601358,5.000030184384062,-1.000423872661412,0.053765188848553906,0.0059548791215604776,-0.0319077313474626,4,left
6.669,0.47637378666356345,1.1705988129891465,-0.2487140481393925,0.44970350770460743,5.018768892819806,-1.001221768609585,0.05401636948575223,0.006101353216158794,-0.036295648387577026,4,left
6.671,0.47729964494271887,1.1697689239104139,-0.24875389041461576,0.4551537909324484,5.037162285677747,-1.0023730245302276,0.05427285491752693,0.006258979913999549,-0.04072703382054542,4,left
6.672000000000001,0.4782643887879219,1.1688899959776684,-0.24882039033190664,0.4609631779394093,5.055175445727942,-1.0038705666868066,0.05453606177807092,0.006426096355678603,-0.04519855548627562,4,left
6.672000000000001,0.4792696062677832,1.1679633641602145,-0.24891296364523688,0.46717950965401245,5.072774091576702,-1.0057068258359345,0.05480734797192712,0.006601361598294773,-0.049706085482472115,4,left
6.707000000000001,0.4803166301663162,1.1669905040633763,-0.24903100598482486,0.473849856761479,5.089924692217638,-1.0078737917977818,0.05508799910629592,0.006783767070256819,-0.05424469769207776,4,left
6.747000000000001,0.4814065169063269,1.1659730222792466,-0.24917389356789393,0.48102005823149974,5.106594570062348,-1.0103630588878127,0.05537921592362375,0.006972642977199797,-0.05880866797047299,4,left
6.749,0.4825400285826797,1.164912646293525,-0.24934098426358697,0.48873426174811835,5.12275199206637,-1.0131658629565972,0.055682102841976944,0.007167659816014669,-0.06339147703378853,4,left
6.75,0.4837176181266735,1.1638112143232746,-0.2495316192007006,0.49703447409072615,5.138366248894419,-1.0162731120901896,0.055997657675944765,0.007368824590694263,-0.06798581641096003,4,left
6.75,0.4849394176097188,1.1626706653051495,-0.24974512503010202,0.5059601321931803,5.153407722032507,-1.0196754137065867,0.05632676254822883,0.007576472109738297,-0.07258359840035773,4,left
6.751,0.48620522979167136,1.1614930291279577,-0.24998081682138018,0.5155477029330356,5.16784793878813,-1.02336310010258,0.056670175967322836,0.007791252181556492,-0.07717597129306121,4,left
6.773,0.48751452319490607,1.1602804171110317,-0.2502380014406763,0.5258303148867164,5.181659615181242,-1.027326253278423,0.05702852604902944,0.008014113353601495,-0.08175334081393039,4,left
6.805,0.48886643100538935,1.1590350126292934,-0.25051598118083723,0.5368374228514616,5.194816686930917,-1.0315547292079632,0.05740230487349683,0.00824628345389078,-0.08630539816884977,4,left
6.806,0.49025975380038606,1.1577590616872167,-0.2508140574166152,0.5485945066004704,5.207294329591677,-1.0360381816936792,0.05779186396621265,0.008489246981105298,-0.09082115486781907,4,left
6.807,0.49169296574912924,1.156454863226001,-0.25113153411182954,0.5611228074978678,5.219068970410502,-1.0407660861401609,0.05819741083794871,0.008744719359258914,-0.09528898490083652,4,left
6.808,0.4931642238259705,1.1551247590187652,-0.2514677210742786,0.5744391078011971,5.230118295317466,-1.0457277636877187,0.058619006419638686,0.009014618095986663,-0.09969667568917513,4,left
6.831,0.494671379647168,1.1537711230297152,-0.2518219368888,0.5885555562822794,5.240421253617173,-1.0509124060411543,0.05905656317318513,0.009301030896324091,-0.10403148970439549,4,left
6.885,0.49621199373993097,1.1523963498976562,-0.25219351141377855,0.6034795416412773,5.249958061427345,-1.0563091011361188,0.05950984371426849,0.0096061807710936,-0.10828023817745121,4,left
6.888,0.49778335242224675,1.1510028418171254,-0.2525817876454334,0.6192136139920432,5.258710204065001,-1.0619068596787669,0.0599784599122939,0.009932388249953707,-0.1124293673609345,4,left
6.888999999999999,0.49938248774991056,1.149592993024522,-0.25298612276642973,0.6357554544593208,5.266660437409792,-1.06769464257358,0.06046187263749634,0.010282031266046873,-0.11646505677042268,4,left
6.89,0.501006200744798,1.1481691717629603,-0.25340588834616745,0.6530978927102951,5.2737927880799536,-1.0736613891443052,0.06095939260593116,0.010657504122001277,-0.12037332771601673,4,left
6.891,0.5026510874069087,1.1467337006300438,-0.25384046982748715,0.6712289711433843,5.2800925512946195,-1.0797960455009004,0.06147018292292918,0.011061177416727252,-0.12414015986784908,4,left
6.907,0.5043135664544479,1.1452888367347929,-0.2542892654656068,0.6901320524760246,5.285546283566881,-1.086087591411161,0.061993263775829505,0.011495360342891746,-0.12775161416603897,4,left
6.943,0.505989907716566,1.1438367528300832,-0.25475168476146604,0.709785966223584,5.290141786480783,-1.0925250634824053,0.0625275194571876,0.011962265919704089,-0.131193961405859,4,left
6.945,0.5076762603492545,1.1423795201395606,-0.25522714628535764,0.730165189915772,5.293868079115541,-1.099097573005861,0.06307170774988577,0.012463979256102582,-0.13445381639549828,4,left
6.945,0.5093686802648068,1.1409190934254558,-0.2557150747480594,0.7512400615326812,5.296715359040364,-1.1057943178010625,0.06362447167564615,0.013002428845593935,-0.13751827769676733,4,left
6.946000000000001,0.5110631563942404,1.1394572988048532,-0.25621489723910734,0.7729770199967211,5.298674953113291,-1.112604587944767,0.06418435359204545,0.013579360918895623,-0.1403750727332931,4,left
6.973,0.5127556356690095,1.137995824711871,-0.25672603863979776,0.7953388715290992,5.299739259153805,-1.1195177653856754,0.0647498115409943,0.014196317004652105,-0.14301270692366835,4,left
7.021,0.5144420468393758,1.1365362162154362,-0.25724791630886784,0.8182850810313969,5.299901678921055,-1.126523317457142,0.0653192375625302,0.014854614997924846,-0.1454206133027551,4,left
7.023,0.5161183233904604,1.1350798727024696,-0.2577799342379417,0.8417720884046109,5.299156542473874,-1.1336107843062457,0.06589097739942051,0.015555333790714795,-0.1475892971377077,4,left
7.024,0.5177804258696536,1.133628048787687,-0.2583214769575866,0.8657536498698172,5.29749902391566,-1.1407697602590567,0.066463350729077,0.0162993007296383,-0.14951046967815,4,left
7.025,0.5194243639387316,1.1321818581990386,-0.25887190353409123,0.8901812043562776,5.294925048524554,-1.147989869142203,0.06703467100098329,0.017087080573184702,-0.15117716637761436,4,left
7.026,0.5210462184434295,1.1307422802508715,-0.259430542054684,0.9150042644096099,5.291431191991168,-1.1552607335856164,0.06760326424621567,0.017918964866656572,-0.15258384687870358,4,left
7.04,0.5226421637333399,1.1293101683688749,-0.2599966850185333,0.9401708280002705,5.287014576105365,-1.1625719383542574,0.06816748661324779,0.01879496129344376,-0.15372647577210516,4,left
7.081,0.524208490353562,1.1278862600237933,-0.2605695859506743,0.9656278021018595,5.281672771616032,-1.1699129880589054,0.06872574059043532,0.019714782930980473,-0.15460258396833787,4,left
7.082000000000001,0.525741628117073,1.126471187381619,-0.2611484573597928,0.9913214259400183,5.275403721934982,-1.1772732609251089,0.06927648991208847,0.020677837463850476,-0.15521131067343896,4,left
7.082999999999999,0.5272381694931366,1.1250654880224107,-0.2617324699824551,1.017197685074501,5.268205696521924,-1.1846419626278715,0.06981827312141727,0.02168321665700834,-0.15555342589492502,4,left
7.084,0.5286948931127714,1.1236696151944254,-0.26232075308066355,1.043202713114547,5.260077275593263,-1.1920080854649953,0.07034971572111932,0.022729686842887866,-0.15563133328817993,4,left
7.107,0.5301087868334581,1.1222839471342456,-0.26291239531730537,1.069283180838228,5.251017364844996,-1.1993603768131997,0.07086954081874797,0.02381568142666919,-0.1554490530885397,4,left
7.1579999999999995,0.5314770693765442,1.1209087950741852,-0.2635064456568844,1.0953866725592993,5.241025238813156,-1.206687318292225,0.07137657819758328,0.024939296163720013,-0.15501218493770105,4,left
7.16,0.5327972095533706,1.1195444098683305,-0.26410191412039463,1.1214620477045931,5.230100609417584,-1.2139771149393654,0.07186977178619765,0.02609828751266594,-0.15432785052774148,4,left
7.1610000000000005,0.5340669426446042,1.1181909875757292,-0.2646977728470507,1.1474597823459374,5.218243711421843,-1.2212176919657443,0.07234818552348467,0.02729007411728088,-0.15340461604941552,4,left
7.162000000000001,0.5352842839652884,1.1168486746331412,-0.2652929582936297,1.1733322836537072,5.205455393792369,-1.2283966958489605,0.07281100762060566,0.028511741420420546,-0.1522523944434875,4,left
7.162000000000001,0.5364475395047069,1.1155175734718838,-0.26588637533897513,1.1990341720159796,5.191737208684315,-1.2355014973332343,0.07325755324894549,0.029760049384366636,-0.1508823276939644,4,left
7.167000000000001,0.5375553131591208,1.1141977495661337,-0.26647690368884397,1.2245225287655441,5.177091494723567,-1.242519195377907,0.07368726582151248,0.031031443147261736,-0.1493066506054661,4,left
7.226,0.5386065102885597,1.1128892405694686,-0.2670634064474975,1.2497571092336066,5.161521453998795,-1.2494366219115736,0.07409971728426522,0.03232206618479344,-0.14753853967361838,4,left
7.228,0.5396003382815042,1.1115920668394592,-0.26764473991239857,1.2747005212039302,5.145031222724123,-1.2562403474122323,0.0744946079573124,0.03362777547067034,-0.14559195211934078,4,left
7.229,0.5405363057794925,1.1103062405798747,-0.2682197627470083,1.2993183688405452,5.127625935530369,-1.2629166873335764,0.07487176625312188,0.0349441586197255,-0.14348146024603264,4,left
7.23,0.541414222227103,1.1090317702157109,-0.26878734289584383,1.3235793621614442,5.109311783340111,-1.2694517093972781,0.07523114821585444,0.036266553879947205,-0.14122208643780085,4,left
7.23,0.5422341979133879,1.107768659308491,-0.2693463623788904,1.3474553920238046,5.090096065196062,-1.2758312421648978,0.07557283661312605,0.037590074330007106,-0.13882914420508013,4,left
7.285,0.5429966423589143,1.1065169033889075,-0.2698957215743316,1.370921570055181,5.069987236493673,-1.2820408872732962,0.0758970393581511,0.03890963732239595,-0.13631808914994037,4,left
7.287999999999999,0.5437022579525804,1.105276489326618,-0.27043434419406015,1.3939562324386832,5.048994959319597,-1.288066040908183,0.07620408717404718,0.04021999959049071,-0.13370438139595292,4,left
7.289,0.5443520273540675,1.104047399270789,-0.27096118289938675,1.416540908073416,5.02713016018869,-1.2938919302809884,0.07649443048640793,0.041515798092433644,-0.13100335973433033,4,left
7.289,0.5449471956283425,1.102829618072549,-0.27147522503042437,1.4386602560206385,5.004405093902824,-1.299503665699834,0.07676863551956706,0.04279159646240646,-0.12823012747554544,4,left
7.29,0.5454892492120721,1.1016231421754166,-0.27197549831554907,1.4603019802437285,4.980833406010387,-1.304886303498159,0.07702737944438288,0.04404193627387613,-0.12539944997727437,4,left
7.307,0.5459798933978208,1.100427988769541,-0.27246107671963155,1.4814567280343798,4.95643018674921,-1.310024914892981,0.0772714441957437,0.045261391120581536,-0.12252566378673622,4,left
7.329,0.5464210288582145,1.0992442050693483,-0.27293108628683127,1.502117974762003,4.931212013419149,-1.314904658653346,0.07750170845040395,0.04644462085499278,-0.11962259731722687,4,left
7.361000000000001,0.5468147268123584,1.0980718780255845,-0.2733847104644008,1.5222818954373873,4.9051969806185385,-1.319510857238476,0.07771913738326139,0.047586423989881776,-0.11670350299654608,4,left
7.3629999999999995,0.5471632024160639,1.096911144449249,-0.27382119448189324,1.5419472231513776,4.878404718274457,-1.3238290764203435,0.0779247700895521,0.048681787471839634,-0.11378100074726472,4,left
7.3629999999999995,0.5474687864175346,1.0957622009789798,-0.27423984867098194,1.5611150944479149,4.850856397394398,-1.327845208404659,0.07811970488708457,0.049725933724052755,-0.11086703212602605,4,left
7.364,0.547733895358754,1.0946253131640014,-0.27464005078338355,1.579788881543454,4.82257472397445,-1.3315455583917817,0.07830508309655602,0.05071436502940816,-0.10797282346131952,4,left
7.421,0.5479610006137681,1.0935008231097352,-0.27502124738740474,1.5979740106886418,4.793583923752481,-1.3349169340418003,0.07848207209709938,0.05164290534746585,-0.10510885577841884,4,left
7.422999999999999,0.5481525965662422,1.0923891553337586,-0.2753829543961774,1.6156777652278589,4.763909723613773,-1.3379467360720791,0.07865184825503943,0.05250773963608896,-0.10228483985093471,4,left
7.4239999999999995,0.5483111682844309,1.0912908205645646,-0.27572475674599284,1.6329090722150679,4.733579335362768,-1.340623046794458,0.07881557998583719,0.05330545066269296,-0.0995096956674629,4,left
7.425,0.5484391591872738,1.090206417188501,-0.27604630722472623,1.649678272746915,4.702621443556452,-1.3429347131669631,0.07897441111242436,0.054033053042355034,-0.0967915359408989,4,left
7.425,0.5485389393809271,1.0891366300565684,-0.2763473244867902,1.6659968769115214,4.671066195971801,-1.3448714221689924,0.07912944482757606,0.05468802383041518,-0.09413765301713761,4,left
7.44,0.5486127754774857,1.0880822265938705,-0.2766275904037961,1.681877303945791,4.6389451953695415,-1.346423767728122,0.07928172867033896,0.0552683287720603,-0.09155450832828539,4,left
7.5,0.548662802729695,1.0870440505811503,-0.27688694702786676,1.6973326077642994,4.6062914921719305,-1.3475833090871812,0.07943224082413133,0.05577244353613036,-0.08904772374740312,4,left
7.502999999999999,0.5486910001576359,1.0860230143268084,-0.2771252935009301,1.7123761879066721,4.573139577963993,-1.348342620617143,0.07958187785982586,0.05619936966508584,-0.08662207458309552,4,left
7.502999999999999,0.5486991690092331,1.0850200900002,-0.2773425832176553,1.727021485949097,4.539525379725996,-1.3486953330802682,0.07973144394326885,0.05654864519577248,-0.08428148419720556,4,left
7.504,0.5486889145698486,1.0840363007008713,-0.2775388214723617,1.7412816680245815,4.505486254391746,-1.3486361663868134,0.07988164149889028,0.05682034994020247,-0.08202902043650741,4,left
7.505,0.5486616312062894,1.083072711589645,-0.2777140637101225,1.7551692970962514,4.471060981767475,-1.3481609540874333,0.08003306330788669,0.0570151053970097,-0.0798668943666477,4,left
7.557,0.548618490657496,1.082130421229597,-0.2778684143711025,1.7686960040284558,4.4362897510395625,-1.3472666602021857,0.08018618601214224,0.05713406925382585,-0.07779646196189788,4,left
7.559,0.5485604338826023,1.0812105531753304,-0.27800202617473635,1.7818721695001996,4.401214134539765,-1.3459513891858381,0.0803413650023712,0.057178924450791466,-0.07581822923946138,4,left
7.56,0.5484881669405173,1.0803142477622003,-0.27811509959486785,1.7947066258034792,4.365877043993885,-1.3442143896280132,0.0804988306821381,0.057151862793536866,-0.07393186103021171,4,left
7.56,0.5484021610693476,1.0794426539938493,-0.2782078822997781,1.8072063821664688,4.330322667284005,-1.3420560519255595,0.08065868610100521,0.05705556318197038,-0.07213619353321483,4,left
7.561,0.5483026565238844,1.0785969214428324,-0.27828066841867555,1.819376374535558,4.294596385609174,-1.339477900099271,0.08082090592288882,0.05689316486318698,-0.07042925137007319,4,left
7.579,0.5481896694030759,1.0777781921075404,-0.2783337975369058,1.8312192416288795,4.258744672726753,-1.3364825785654093,0.08098533664416402,0.056668236728874256,-0.06880827093797078,4,left
7.638,0.5480630008586622,1.0769875920160215,-0.2783676532825121,1.842735131736633,4.222814980631312,-1.33307383589444,0.08115169794742697,0.05638474401754408,-0.06726973246199136,4,left
7.64,0.547922248419051,1.0762262219024723,-0.2783826612780937,1.8539215462223457,4.186855617513886,-1.3292565082677268,0.08131958510546758,0.05604701344158019,-0.06580940254610146,4,left
7.641,0.547766819484417,1.0754951459504583,-0.2783792862345303,1.8647732241984774,4.150915622357653,-1.3250365046621946,0.08148847240155956,0.05565969714664337,-0.06442238793985429,4,left
7.642,0.5475959472110113,1.0747953781668562,-0.27835802819835165,1.875282070314446,4.115044637798105,-1.3204207944391089,0.08165771756081686,0.055227735570659305,-0.06310320063667257,4,left
7.643,0.5474087088091519,1.074127867119426,-0.27831941825748907,1.8854371267606673,4.079292781127267,-1.3154173966848317,0.08182656720054036,0.054756319184748756,-0.06184583426186733,4,left
7.695,0.5472040459412868,1.0734934802852494,-0.27826401405723905,1.8952245911993704,4.043710512216382,-1.3100353692996547,0.08199416334469135,0.054250849014919514,-0.060643851520572424,4,left
7.6979999999999995,0.5469807868234559,1.072892988824049,-0.2781923953057359,1.9046278816824815,4.00834849518882,-1.3042847949367946,0.08215955111460906,0.05371689569309297,-0.05949048213723282,4,left
7.699,0.5467376696650211,1.0723270530489843,-0.27810515926241874,1.9136277466372695,3.973257447911923,-1.2981767610985506,0.08232168774529906,0.05316015670252668,-0.05837873053027478,4,left
7.7,0.5464733668776419,1.0717962087594866,-0.2780029160629193,1.9222024155403816,3.938487972167998,-1.2917233326158755,0.08247945303940447,0.05258641156599554,-0.057301492653931016,4,left
7.7010000000000005,0.5461865092127914,1.071300854819506,-0.27788628366032636,1.9303277865492858,3.9040903593081784,-1.2849375156294334,0.08263166129861294,0.0520014749934294,-0.05625168162545902,4,left
7.774,0.5458757090420711,1.07084124258558,-0.27775588221716985,1.9379776489768377,3.8701143699812413,-1.2778332128141159,0.08277707470816772,0.051411148680529956,-0.055222361181249555,4,left
7.776,0.5455395823417485,1.0704174677542384,-0.2776123279092268,1.945123936863217,3.836608991759975,-1.2704251701025722,0.08291441806854341,0.0508211734672466,-0.05420688445358402,4,left
7.777,0.5451767692541875,1.0700294649494717,-0.2774562261753272,1.9517370048905491,3.8036221852126983,-1.2627289156961077,0.0830423946124852,0.0502371838366564,-0.05319903371688523,4,left
7.778,0.5447859532664385,1.0696770051502393,-0.277288164466216,1.9577859149581598,3.7712006325175005,-1.2547606924196746,0.08315970244028961,0.04966466556765808,-0.052193155571510774,4,left
7.779,0.5443658791983952,1.0693596959662401,-0.27710870460221537,1.9632387246609517,3.739389499169362,-1.2465373842075247,0.0832650510255554,0.049108915970412344,-0.05118428632671805,4,left
7.78,0.543915370392309,1.0690769847271762,-0.27691837497536054,1.9680627741786474,3.7082322129440177,-1.2380764370205801,0.08335717739945353,0.04857500586178031,-0.05016826418744659,4,left
7.83,0.5434333456501473,1.0688281642640862,-0.2767176629757663,1.972224971008007,3.677770260735272,-1.229395774226525,0.08343486185907244,0.04806774289537433,-0.04914182694608247,4,left
7.832000000000001,0.5429188364390108,1.0686123810826023,-0.27650700810196577,1.9756920725536187,3.6480430031744775,-1.220513706419026,0.08349694317434243,0.047591636180676876,-0.048102694960308404,4,left
7.832000000000001,0.5423710046385845,1.0684286453648737,-0.2762867961585776,1.9784309665910411,3.619087506942757,-1.2114488356518198,0.08354233325813003,0.047150862254681805,-0.04704963931834421,4,left
7.832999999999999,0.541789160777379,1.0682758420138172,-0.27605735474169235,1.9804089496141934,3.5909383946885485,-1.2022199540627667,0.0835700310856951,0.04674923279447613,-0.04598253461400526,4,left
7.834,0.5411727824888233,1.068152741926208,-0.2758189499264386,1.9815940029917811,3.5636277126811464,-1.1928459370394873,0.08357913532861806,0.046390165044068364,-0.04490239489204513,4,left
7.909,0.5405215328250516,1.0680580128300674,-0.27557178379880554,1.9819550664300134,3.5371848174131304,-1.183345631963124,0.08356885498989958,0.04607665625375816,-0.04381139084536171,4,left
7.9110000000000005,0.5398352779160839,1.0679902292025154,-0.27531599232172826,1.9814623074708564,3.511636284310846,-1.1737377451601128,0.08353851750524163,0.04581126310556554,-0.04271284682445719,4,left
7.912000000000001,0.5391141032146822,1.0679478809601017,-0.27505164310889,1.9800873853273306,3.4870058427945154,-1.1640407305768905,0.0834875740965065,0.04559608651356047,-0.04161121708143509,4,left
7.912999999999999,0.5383583275656096,1.067929380858938,-0.27477873308933315,1.977803707780461,3.4633143408520417,-1.1542726828066439,0.083415602388953,0.04543276179345769,-0.04051204124204087,4,left
7.914,0.5375685147955535,1.0679330708514156,-0.274497186640766,1.974586680625851,3.4405797403491567,-1.1444512355030803,0.0833223065759696,0.04532245378241288,-0.03942187955701946,4,left
7.914,0.5367454829205124,1.0679572278793223,-0.27420685509463566,1.9704139494840445,3.418817142828591,-1.1345934654339545,0.08320751584067766,0.04526585586264089,-0.03834822931568599,4,left
7.968999999999999,0.5358903108764702,1.0680000696545626,-0.27390751832155463,1.9652656333875964,3.398038843374654,-1.1247158027670796,0.08307118198022426,0.04526319149403613,-0.037299424266631666,4,left
7.971,0.535004342217069,1.068059760972716,-0.2735988886733966,1.9591245486844024,3.378254406588954,-1.1148339491125265,0.08291337694509135,0.045314217290636435,-0.03628451872053392,4,left
7.972,0.5340891850654649,1.0681344211228638,-0.2732806172263584,1.951976421310387,3.3594707567627813,-1.1049628053619052,0.08273429059534798,0.04541822770799002,-0.03531315863863902,4,left
7.973,0.5331467079176649,1.068222132920805,-0.2729523020398961,1.9438100859655654,3.3416922762974828,-1.095116410848268,0.08253422876687595,0.04557406248551969,-0.03439544417686406,4,left
7.974,0.5321790316144899,1.068320953480244,-0.27261349778910543,1.934617671187731,3.3249209098090313,-1.0853078943549876,0.08231361170861079,0.045780118462455444,-0.03354178952333973,4,left
8.041,0.5311885187067813,1.0684289257536548,-0.272263725639806,1.9243947677608149,3.309156272561871,-1.0755494366644769,0.08207297293640485,0.04603436698145154,-0.032762784407162286,4,left
8.042,0.5301777620451015,1.0685440886766775,-0.2719024822467801,1.913140574320293,3.294395760910073,-1.0658522436578337,0.0818129585213871,0.046334377365860206,-0.032069059027955725,4,left
8.044,0.5291495739383218,1.0686644842662056,-0.2715292476982713,1.9008580119770377,3.2806346616697675,-1.05622652865638,0.0815343268152618,0.04667734655217081,-0.03147115269585018,4,left
8.045,0.5281069752403125,1.0687881627871259,-0.27114349316422515,1.8875538018161044,3.2678662581066606,-1.046681503016424,0.0812379485660404,0.04706013479895348,-0.030979386348493124,4,left
8.046,0.5270531817764326,1.0689131888912209,-0.2707446887666093,1.873238502792467,3.256081931587863,-1.037225374565148,0.08092480714856773,0.047479306996845924,-0.03060373995611181,4,left
8.047,0.525991585886369,1.0690376500566778,-0.27033231138745684,1.8579265096750281,3.245271258993803,-1.0278653537838598,0.08059599822180985,0.04793117838976884,-0.030353737345403146,4,left
8.081,0.5249257331167635,1.0691596663826333,-0.26990585207672246,1.841636011565932,3.235422107573799,-1.0186076676987128,0.08025272789574175,0.0484118631207383,-0.030238341817488898,4,left
8.105,0.5238592957930392,1.0692774005629784,-0.26946482318857595,1.8243889125786943,3.2265207313139372,-1.009457581391753,0.07989630871970384,0.0489173244126785,-0.030265865091349223,4,left
8.106,0.522796045340225,1.069389067762827,-0.2690087654247846,1.806210717784677,3.218551873331427,-1.0004194268912618,0.07952815323342124,0.04944342584973276,-0.030443890478472874,4,left
8.107000000000001,0.5217398245221007,1.0694929456836073,-0.2685372546715676,1.7871303889677221,3.211498875595326,-0.9914966389523268,0.07914976513606674,0.04998598332421147,-0.030779209817932918,4,left
8.107999999999999,0.5206945198112218,1.0695873851937332,-0.2680499083586265,1.7671801749340321,3.205343793705007,-0.9826917971138697,0.07876272832779505,0.050540816758501715,-0.03127777257371117,4,left
8.168,0.5196640332256821,1.0696708217521342,-0.26754639104729605,1.7463954195928557,3.2000675140176744,-0.974006673572847,0.07836869416329285,0.0511038004139497,-0.031944644963767595,4,left
8.171,0.5186522527882189,1.0697417875013024,-0.2670264189990419,1.7248143490226433,3.1956498719156556,-0.9654422866774964,0.07796936717170967,0.05167091089614712,-0.03278397752355852,4,left
8.172,0.5176630213565229,1.0697989234627068,-0.26648976365377947,1.7024778376770038,3.19206977099757,-0.9569989599855903,0.07756648934404085,0.05223827250135925,-0.033798980466137926,4,left
8.182,0.5167001041560054,1.0698409910560154,-0.2659362541550681,1.6794291536708392,3.189305303178169,-0.9486763868627458,0.07716182304911434,0.05280219984595479,-0.03499190664554177,4,left
8.183,0.5157671554897393,1.0698668822978048,-0.26536577910369746,1.655713683084746,3.187333869684126,-0.9404737005961928,0.07675713284853812,0.05335923777881584,-0.03636404159383414,4,left
8.184,0.5148676851064726,1.0698756282355177,-0.2647782876173759,1.6313786333903706,3.1861323030384603,-0.9323895498344099,0.07635416688820532,0.05390619857424246,-0.03791569930463796,4,left
8.242,0.51400502480025,1.0698664052126796,-0.2641737896822408,1.6064727169311785,3.185676990643781,-0.9244221783367386,0.0759546387701992,0.054440196401488505,-0.039646221993115634,4,left
8.244,0.5131822959352418,1.0698385385546536,-0.26355235580117753,1.5810458168920445,3.185944001504045,-0.9165695065294539,0.07556021057823255,0.05495867901510327,-0.04155398250177803,4,left
8.245,0.5124023786681396,1.0697915034073786,-0.26291411605517084,1.555148639023099,3.186909218141892,-0.9088292115384558,0.07517247730022449,0.055459456346131225,-0.04363638879774125,4,left
8.245,0.5116678836313366,1.0697249227746535,-0.26225925881007683,1.52883235154783,3.1885484752556197,-0.9011988031957356,0.07479295262526221,0.05594072519574987,-0.04588989041073286,4,left
8.246,0.510981126730026,1.0696385631847551,-0.26158802937409315,1.5021482143281486,3.190837705393737,-0.8936756949555733,0.07442305602467356,0.05640108896659739,-0.04830998672799831,4,left
8.308,0.5103441075379795,1.0695323286889378,-0.26090072894903404,1.475147198249367,3.193753089707238,-0.8862572692358853,0.07406410104924117,0.05683957163355018,-0.050891237085089226,4,left
8.309,0.5097584915659058,1.0694062538767095,-0.2601977141997369,1.4478795969257545,3.197271208670228,-0.8789409364202891,0.073717284814728,0.057255625635459696,-0.05362727263220026,4,left
8.31,0.5092255964767066,1.0692604963782983,-0.25947939764905514,1.420394633551682,3.2013691859567186,-0.8717241865092481,0.07338367867019685,0.05764913363585752,-0.05651080997852882,4,left
8.318,0.5087463823137389,1.069095329139574,-0.2587462488935458,1.392740065643079,3.2060248202924106,-0.8646046327726498,0.07306422004809555,0.05802040415388713,-0.05953366662205931,4,left
8.318999999999999,0.5083214460262627,1.068911132638883,-0.25799879641333384,1.3649617923375892,3.2112167027929592,-0.8575800477828677,0.07275970549523939,0.05837016112270247,-0.06268677825322774,4,left
8.32,0.5079510207289709,1.0687083871154044,-0.2572376296692256,1.3371034740100025,3.216924318327167,-0.8506483935007623,0.0724707848844884,0.05869952771273588,-0.06596021842440217,4,left
8.373,0.5076349799695988,1.0684876648052386,-0.2564634012818693,1.309206177044099,3.2231281294086327,-0.843807847717756,0.07219795680808892,0.059010005261582094,-0.06934322180301727,4,left
8.374,0.5073728468510713,1.0682496221337638,-0.2556768292211885,1.2813080533715577,3.2298096414983695,-0.8370568285764933,0.0719415651543197,0.05930344843241012,-0.07282421262963193,4,left
8.376,0.5071638073221825,1.0679949917500722,-0.2548786989377899,1.2534440585741329,3.2369514492818134,-0.8303940178472474,0.0717017968684986,0.059582037442531106,-0.07639083959946404,4,left
8.377,0.5070067265501677,1.067724574176827,-0.2540698652290595,1.225645709338343,3.244537264062424,-0.8238183831096355,0.07147868089832134,0.059848247699289286,-0.08003001766076578,4,left
8.378,0.5069001673221663,1.0674392287047128,-0.25325125348786587,1.197940881522306,3.252551923490534,-0.8173291991384734,0.07127208830456727,0.06010481691977561,-0.08372797691193247,4,left
8.441,0.5068424098854514,1.0671398630524107,-0.2524238599806894,1.1703536521039892,3.2609813866466477,-0.8109260692701951,0.07108173342635955,0.06035470985280784,-0.08747031915541083,4,left
8.443999999999999,0.5068314731992873,1.0668274212371986,-0.2515887509505966,1.1429041893967422,3.2698127184992622,-0.8046089477917024,0.07090717582502691,0.060601080898044085,-0.09124208348845234,4,left
8.445,0.5068651379447586,1.0665028691811864,-0.25074706056572876,1.115608694801823,3.2790340667589337,-0.7983781641285685,0.07074782263889173,0.06084723501510114,-0.09502782276746442,4,left
8.456,0.5069409715970765,1.06616717816575,-0.2498999879603864,1.08847939704482,3.2886346322222115,-0.7922344489721739,0.07060293107312537,0.061096587217498464,-0.09881169232629901,4,left
8.458,0.5070563554118863,1.0658213070985303,-0.2490487936901461,1.061524597158892,3.298604632050343,-0.7861789614191473,0.07047161094989886,0.06135262080511576,-0.10257755137961942,4,left
8.507,0.507208512772515,1.0654661848075695,-0.2481947957776781,1.0347487594325815,3.30893525405834,-0.7802133147014075,0.07035282751514739,0.061618844567492725,-0.10630907644844152,4,left
8.509,0.5073945382874195,1.0651026931413183,-0.24733936533557227,1.008152641972484,3.319618599440805,-0.7743395972840839,0.07024540503936008,0.06189874948871409,-0.10998988490604952,4,left
8.51,0.5076114270632526,1.064731651297304,-0.24648392165500507,0.9817334620994902,3.330647612012244,-0.7685603869101215,0.07014803192912164,0.06219576566131553,-0.11360366610489034,4,left
8.517999999999999,0.5078561035591852,1.0643538018412864,-0.24562992661334934,0.9554850946201436,3.3420159932111906,-0.7628787566129152,0.07005926786752771,0.06251322000452185,-0.1171343179747124,4,left
8.519,0.5081254495356516,1.063969798973206,-0.24477887826344133,0.9293983025831134,3.3537181027687524,-0.7572982725198496,0.06997755308211029,0.06285429538675547,-0.12056608709073038,4,left
8.52,0.5084163308696418,1.0635801994755967,-0.24393230353176829,0.9034610003167798,3.3657488450760584,-0.7518229834584167,0.0699012194853851,0.0632219921564072,-0.12388370897789515,4,left
8.573,0.5087256232482881,1.0631854565298497,-0.24309175003916436,0.8776585479039541,3.3781035413001894,-0.7464574025181844,0.06982850330048262,0.06361909337218416,-0.1270725445056986,4,left
8.575,0.5090502369166315,1.0627859163962532,-0.2422587771613072,0.8519740750973817,3.3907777873244553,-0.7412064809765699,0.06975755888116386,0.06404813470181811,-0.130118709266581,4,left
8.576,0.5093871407983824,1.0623818178598388,-0.24143494659636414,0.8263888320396315,3.4037672976039683,-0.7360755751380001,0.0696864736098136,0.06451137937731533,-0.13300919470073588,4,left
8.592,0.5097333863953317,1.061973294257737,-0.24062181284026354,0.8008825642039371,3.4170677356854267,-0.7310704064623691,0.06961328385383452,0.06501079827241395,-0.13573198076865975,4,left
8.594,0.5100861317906793,1.061560377801675,-0.23982091395586036,0.7754339071862576,3.430674535471421,-0.7261970149413531,0.06953599194835566,0.06554805502448154,-0.13827614001549451,4,left
8.594,0.5104426658834523,1.0611430058585032,-0.23903376287144987,0.7500207923285537,3.4445827233368598,-0.7214617052462342,0.06945258401377682,0.06612449572815994,-0.14063193204739036,4,left
8.641,0.5108004328633019,1.060721028802641,-0.2382618393183247,0.7246208513421302,3.458786754559,-0.7168709849796727,0.06936104812975855,0.0667411420171258,-0.14279088595756295,4,left
8.642000000000001,0.5111570569023886,1.060294218839561,-0.2375065824668999,0.6992118110395164,3.4732803741676492,-0.7124314945275563,0.06925939222786437,0.06739868595541974,-0.14474586741583373,4,left
8.65,0.5115103668058238,1.059862278899866,-0.23676938418121138,0.6737718745889072,3.488056506206146,-0.7081499285279019,0.06914566122443565,0.06809748555493242,-0.1464911279582779,4,left
8.651,0.5118584198104074,1.0594248506630275,-0.23605158251792702,0.6482800887167902,3.5031071716572497,-0.7040329502701225,0.06901795320216172,0.06883756044679233,-0.1480223354951172,4,left
8.652000000000001,0.5121995232775924,1.0589815211052747,-0.23535445492944324,0.6227166970020472,3.518423433930939,-0.7000871024097778,0.06887443459285539,0.06961858768121398,-0.14933658586571172,4,left
8.708,0.5125322531344413,1.0585318274303295,-0.23467921084666274,0.5970634794768451,3.533995370430423,-0.6963187185170079,0.06871335426921148,0.07043989796785352,-0.15043239537320852,4,left
8.71,0.5128554684607768,1.0580752606229982,-0.23402698380479625,0.5713040786773727,3.549812069094975,-0.6927338388446934,0.06853305631544862,0.07130047313389659,-0.15130967412212243,4,left
8.729,0.5131683221248658,1.057611268199379,-0.23339882376829585,0.5454243118017492,3.5658616489855697,-0.6893381315923063,0.06833199117011307,0.07219894583558661,-0.1519696799211323,4,left
8.731,0.513470267437535,1.0571392570212297,-0.23279569054235338,0.519412466781419,3.5821313017608816,-0.6861368194500127,0.06810872491084931,0.0731336023006501,-0.15241495257312368,4,left
8.732000000000001,0.5137610604968375,1.0566585971307854,-0.23221844898163418,0.49325957685605576,3.598607346286872,-0.6831346103348588,0.06786194661500561,0.0741023884080729,-0.15264922875752807,4,left
8.732999999999999,0.5140407577404426,1.0561686274097557,-0.231667866321657,0.4669596664630141,3.6152752860231687,-0.6803356308721203,0.0675904739378648,0.07510291912314698,-0.1526773391446331,4,left
8.773,0.5143097086592037,1.0556686634413688,-0.23114461158611269,0.44050996303063394,3.632119861430776,-0.6777433615347503,0.0672932573020713,0.07613249119964043,-0.15250509186776767,4,left
8.776,0.5145685447476114,1.0551580068115176,-0.2306492565832202,0.41391107246588116,3.649125094327552,-0.675360573001155,0.06696938322316343,0.07718809903076504,-0.15213914785353427,4,left
8.787,0.5148181669982096,1.05463595338214,-0.23018227774369712,0.38716711768958306,3.6662743241920093,-0.6731892639852601,0.06661807716464437,0.07826645356098232,-0.15158689213479923,4,left
8.788,0.5150597343619843,1.0541017976640332,-0.22974405855465646,0.36028583885057447,3.6835502393008697,-0.6712306025345369,0.06623870607942188,0.0793640042252677,-0.15085630279580728,4,left
8.789,0.5152946539156463,1.0535548328220015,-0.2293348931555153,0.333278651910594,3.700934909841911,-0.6694848757969282,0.06583078064694149,0.08047696394210073,-0.1499558180567192,4,left
8.831,0.5155245709852625,1.0529943493928684,-0.22895499162182967,0.3061606612141091,3.718409832508279,-0.6679514549274809,0.0653939571088556,0.08160133733905602,-0.14889420289616492,4,left
8.833,0.5157513562396052,1.0524196368490428,-0.2286044866489323,0.2789506227341122,3.7359559937165603,-0.6666287801368385,0.06492803846177068,0.08273295265360024,-0.1476804187101348,4,left
8.866,0.515977087878706,1.0518299896554892,-0.22828344085344318,0.25167085734365774,3.7535539538127187,-0.6655143676348885,0.06443297468541079,0.08386749789823217,-0.14632350067184557,4,left
8.867,0.5162040293269458,1.0512247165530109,-0.22799185420462917,0.22434711813996935,3.771183949651523,-0.664604837330197,0.0639088617491877,0.08500056161828554,-0.14483244625491987,4,left
8.868,0.5164346041802801,1.050603151249798,-0.22772967165681407,0.19700842254335413,3.788826007756383,-0.6638959576093988,0.06335593920737007,0.08612767773525067,-0.14321611610637017,4,left
8.869,0.5166713697938803,1.0499646637022702,-0.22749679111587257,0.1696868634930865,3.8064600576522016,-0.6633827022972982,0.06277458613459884,0.08724437279273592,-0.1414831469733603,4,left
8.908,0.5169169897556128,1.0493086719018083,-0.2272930713926348,0.14241741046218687,3.8240660375783984,-0.6630593161230329,0.06216531509250227,0.08834621332107971,-0.13964187597880245,4,left
8.908999999999999,0.5171742047703772,1.0486346541713993,-0.22711833946916873,0.11523770453276934,3.841623989495374,-0.662919387221442,0.06152876389501672,0.08942885160841553,-0.13770027571565677,4,left
8.924,0.5174458015853701,1.047942161686957,-0.22697239661212248,0.08818784817357032,3.8591141429121283,-0.6629559264233494,0.060865685127415387,0.09048806920011522,-0.1356658998302823,4,left
8.925,0.5177345800584694,1.0472308305639164,-0.2268550232567766,0.06131018964140074,3.8765169875855685,-0.6631614533338214,0.06017693369587045,0.09151981804478736,-0.13354583836760858,4,left
8.926,0.5180433186996187,1.0465003927294525,-0.22676598276965088,0.03464910149415758,3.8938133354872124,-0.6635280889691736,0.0594634531406252,0.09252025936338841,-0.13134668115525566,4,left
8.972999999999999,0.5183747390028343,1.0457506849807265,-0.22670502421104574,0.008250750531554066,3.9109843741592973,-0.6640476535799957,0.05872626169074456,0.09348580034242311,-0.12907448693102466,4,left
8.975,0.5187314690034294,1.0449816558390104,-0.22667188421054504,-0.017837147429110245,3.9280117166897885,-0.6647117662287002,0.057966438793371114,0.09441312872764664,-0.12673475649037216,4,left
9.002,0.5191160068477475,1.0441933699117643,-0.2266662880627681,-0.04356559670604595,3.9448774552619867,-0.6655119415465454,0.05718511240940052,0.09529924535051724,-0.12433240916063892,4,left
9.003,0.5195306855360606,1.0433860096096736,-0.2266879501485617,-0.0688846214262314,3.9615642235075574,-0.6664396802395461,0.0563834471267951,0.09614149452783674,-0.12187176245289101,4,left
9.004,0.519977640074616,1.0425598743420228,-0.22673657381088985,-0.09374359839989439,3.9780552697836815,-0.6674865519723344,0.05556263311539829,0.09693759193387776,-0.1193565147158265,4,left
9.005,0.5204587779480189,1.0417153776126629,-0.22681185086943012,-0.11809162341489235,3.994334541458872,-0.668644270364251,0.05472387598611576,0.09768564893914074,-0.11678973036276556,4,left
9.041,0.5209757533489757,1.0408530425953622,-0.22691346102618215,-0.14187790928661873,4.01038677840037,-0.6699047598651473,0.053868387638973184,0.09838419207362613,-0.11417382710187698,4,left
9.061,0.5215299452630892,1.0399734967429066,-0.22704107146276015,-0.165052210702473,4.026197610890709,-0.6712602139905993,0.05299737816280312,0.099032176608508,-0.1115105647403322,4,left
9.062999999999999,0.5221224393539418,1.039077465830807,-0.22719433692855606,-0.1875652660021146,4.041753654743082,-0.6727031445237652,0.05211204880196506,0.09962899387980485,-0.10880103544916242,4,left
9.064,0.5227540135586134,1.0381657676601797,-0.22737290055745052,-0.20936924127267412,4.057042596289689,-0.6742264220691145,0.05121358594259096,0.10017447243767814,-0.10604565583104979,4,left
9.065,0.523425127356677,1.0372393055524205,-0.22757639552911926,-0.23041816129298628,4.0720532617875085,-0.6758233090194675,0.05030315599237427,0.10066887339534983,-0.10324416172810714,4,left
9.107000000000001,0.5241359148197353,1.0362990617691603,-0.22780444752094964,-0.25066831675536144,4.086775668242535,-0.6774874858708284,0.04938190098671785,0.10111288047552826,-0.1003956070214673,4,left
9.109,0.5248861816768248,1.0353460909785022,-0.22805667771770546,-0.2700786436888127,4.101201054602593,-0.6792130712771917,0.04845093479517985,0.10150758512804085,-0.09749836735946858,4,left
9.14,0.5256754064882789,1.0343815137717363,-0.22833270603331066,-0.28861107419136167,4.115321893464494,-0.6809946360595924,0.04751133987621137,0.10185446686894811,-0.09455014918426823,4,left
9.142000000000001,0.5265027455866826,1.0334065100868126,-0.22863215421372135,-0.3062308569516224,4.12913188504758,-0.682827212044526,0.046564164557728896,0.10215536891147439,-0.09154800422737165,4,left
9.142999999999999,0.5273670411321023,1.0324223123569167,-0.22895464860094009,-0.32290684367063066,4.142625937749503,-0.684706297912575,0.04561042077136529,0.10241246935538717,-0.08848835015991895,4,left
9.144,0.5282668316817544,1.0314301982533662,-0.22929982244269878,-0.33861173617746704,4.155800141024022,-0.686627864963545,0.04465108206399169,0.1026282485995613,-0.08536699912467573,4,left
9.167,0.5292003648952033,1.0304314828086332,-0.22966731764993792,-0.35332229034451046,4.1686517348949215,-0.6885883649792545,0.04368708165217729,0.10280545386357862,-0.08217919645499337,4,left
9.197000000000001,0.5301656122963162,1.029427509346565,-0.23005678585554218,-0.3670194752722853,4.181179077854551,-0.6905847410597284,0.04271931034313884,0.10294706148284331,-0.07891967130736291,4,left
9.198,0.5311602863808568,1.0284196384208542,-0.23046788865192544,-0.3796885875259862,4.19338161346981,-0.6926144415833656,0.04174861427699466,0.10305623726436676,-0.07558269980080921,4,left
9.199,0.5321818604804559,1.0274092344788621,-0.2309002970643283,-0.39131932046590123,4.205259835732491,-0.6946754372967069,0.040775792638293465,0.10313629507418928,-0.07216218021797878,4,left
9.2,0.5332275914851412,1.0263976509147008,-0.23135369048069623,-0.4019057889181178,4.2168152530740075,-0.696766241362649,0.039801595739835764,0.10319065397235933,-0.06865171887936365,4,left
9.241,0.5342945450769031,1.0253862146121724,-0.23182775521090626,-0.4114465104643072,4.228050350383896,-0.6988859313116254,0.038826724017062456,0.1032227943164668,-0.06504472484215346,4,left
9.243,0.5353796228308914,1.0243762108292729,-0.23232218267357177,-0.4199443464900397,4.2389685473270236,-0.7010341702484107,0.03785182833601359,0.10323621314947472,-0.06133451203469426,4,left
9.275,0.5364795903711693,1.023368868911205,-0.2328366670853317,-0.42740640716344386,4.24957415067378,-0.703211223782873,0.03687751177437866,0.1032343789982157,-0.05751440826478291,4,left
9.277000000000001,0.5375911056638216,1.0223653492207017,-0.23337090248286463,-0.4338439234776779,4.259872298936335,-0.7054179700374986,0.03590433289069508,0.10322068621131998,-0.05357787081681399,4,left
9.277999999999999,0.5387107466288966,1.021366731753176,-0.23392457892417073,-0.4392720876240612,4.269868898646668,-0.7076559016765589,0.034932810423712136,0.1031984094824208,-0.04951860753114107,4,left
9.279,0.5398350376226173,1.0203740068709666,-0.23449737779704397,-0.4437098619530749,4.279570552035664,-0.709927119798194,0.033963429281164165,0.10317066017313761,-0.04533070061474929,4,left
9.305,0.5409604747675232,1.019388068368406,-0.2350889662722539,-0.4471797567138254,4.288984475211488,-0.7122343197671795,0.03299664763121355,0.10314034658846971,-0.04100872951869797,4,left
9.33,0.5420835503550252,1.018409708846382,-0.23569899103968836,-0.44970757701777525,4.298118404537519,-0.7145807691733673,0.032032904955815296,0.10311013981904212,-0.036547890130744706,4,left
9.336,0.5432007766227606,1.017439617245427,-0.23632707157545185,-0.4513221396130956,4.3069804881330835,-0.7169702781604104,0.031072630984483898,0.10308244572030895,-0.03194410898774186,4,left
9.338,0.5443087092462502,1.0164783783361644,-0.23697279329843005,-0.45205495990983535,4.315579160195624,-0.719407162309964,0.030116255355177424,0.1030593826825453,-0.027194151188312306,4,left
9.339,0.5454039709004758,1.0155264739633525,-0.23763570100991768,-0.45193991009298246,4.323922997882189,-0.721896198153359,0.029164217646252263,0.10304276405724246,-0.02229571918196638,4,left
9.374,0.5464832751937891,1.01458428584644,-0.23831529294441944,-0.451012852302914,4.332020564478795,-0.724442571292466,0.028216977305692323,0.10303408372742692,-0.017247538673407954,4,left
9.376,0.5475434511505849,1.0136520996855982,-0.23901101564720906,-0.44931125675069533,4.339880248528103,-0.7270518170441176,0.0272750231215873,0.10303450368753785,-0.012049428817364705,4,left
9.412,0.5485814682315179,1.01273011016778,-0.23972225975899866,-0.446873817921682,4.3475101118003385,-0.72972975349172,0.026338882089814514,0.1030448431790966,-0.0067023555654621,4,left
9.414,0.5495944616626133,1.0118184262953709,-0.240448356632711,-0.44374007873012417,4.354917755776474,-0.732482406858737,0.025409127630285317,0.10306556934874182,-0.001208467906326106,4,left
9.415,0.5505797576974906,1.0109170764418012,-0.24118857558792003,-0.4399500666135477,4.362110210555958,-0.735315929375807,0.024486387014849738,0.10309678968192726,0.0044288833574853,4,left
9.415,0.5515348984085334,1.0100260127080662,-0.24194212158442058,-0.4355439425024856,4.369093847042443,-0.7382365108508911,0.02357134766866744,0.10313824684554858,0.010205145164751102,4,left
9.44,0.5524576655284142,1.009145114343094,-0.24270813314338113,-0.43056166336865437,4.3758743128999855,-0.7412502869700417,0.022664761895036897,0.1031893167838736,0.016114581237062872,4,left
9.472000000000001,0.5533461026208537,1.0082741901063486,-0.24348568043831642,-0.42504265929012214,4.382456492928626,-0.7443632483631697,0.021767449719562574,0.1032490106610439,0.022150311307282206,4,left
9.474,0.5541985347477696,1.0074129795968967,-0.24427376367570267,-0.4190255257329099,4.38884449435059,-0.7475811534628863,0.020880299921028998,0.10331598066322001,0.028304369878533686,4,left
9.475,0.5550135851389092,1.0065611537936991,-0.2450713121719112,-0.4125477314986669,4.395041656863291,-0.7509094463983295,0.020004269734505906,0.10338852910188004,0.03456778205136417,4,left
9.475,0.5557901888671307,1.0057183152390856,-0.24587718474262127,-0.4056453434445094,4.401050585398785,-0.754353180286486,0.019140383904767,0.10346462001730708,0.040930653054733944,4,left
9.507,0.556527603601454,1.0048839984236206,-0.24669017199066462,-0.3983527706438016,4.4068732003313515,-0.7579169463108844,0.018289733597969527,0.10354189268160365,0.047382268962257314,4,left
9.55,0.5572254171199169,1.0040576710834463,-0.24750900081004318,-0.39070253155065854,4.412510798115394,-0.7616048091047122,0.01745347536721365,0.10361767681515402,0.053911207354434935,4,left
9.552,0.5578835510530944,1.00323873723793,-0.2483323410833181,-0.38272504683439956,4.417964117094251,-0.7654202488288795,0.01663283016715017,0.10368900980103198,0.060505456319655836,4,left
9.552999999999999,0.5585022607253098,1.0024265426567267,-0.24915881424822162,-0.3744484593710783,4.423233406515358,-0.7693661102594175,0.01582908232423301,0.10375265670842149,0.06715253817149049,4,left
9.554,0.5590821317413079,1.0016203827798014,-0.24998700307277386,-0.36589848415091647,4.428318499192643,-0.773444559831593,0.015043578338933505,0.10380513420639706,0.07383963304635462,4,left
9.554,0.5596240747904943,1.0008195116561776,-0.2508154616424529,-0.3570982945829677,4.433218889772924,-0.7776570529302074,0.014277725426599356,0.10384273917911348,0.08055369875947248,4,left
9.574,0.5601293202889547,1.0000231492658374,-0.2516427247123405,-0.3480684538455348,4.437933821209609,-0.782004314475427,0.013532989758267236,0.10386158236692046,0.08728158548181238,4,left
9.607999999999999,0.5605994128653295,0.9992304859572234,-0.25246731648373244,-0.3388268967706394,4.44246238077005,-0.7864863348530899,0.012810894393111345,0.10385762708760209,0.09401014501444399,4,left
9.61,0.5610362031280222,0.9984406860555695,-0.2532877596372901,-0.3293889588907535,4.446803602590974,-0.7911023806653268,0.012113016860009531,0.10382673292737049,0.10072633454597239,4,left
9.61,0.5614418333468073,0.9976528941128159,-0.2541025851971215,-0.31976743818493236,4.450956567484636,-0.7958510168467058,0.0114409861441617,0.10376470373883885,0.10741731411072077,4,left
9.611,0.561818715529178,0.9968662455924323,-0.2549103431109228,-0.30997266967040527,4.4549204874216395,-0.8007301353332175,0.010796478471866952,0.10366733828890237,0.11407053576289448,4,left
9.641,0.562169502980372,0.9960798814516378,-0.2557096131816462,-0.3000125979419682,4.458694765262598,-0.8057369866781813,0.01018121108502793,0.10353048134702804,0.12067382181390199,4,left
9.687999999999999,0.5624970577082417,0.9952929650118854,-0.25649901598173896,-0.2898928416833331,4.462279025974446,-0.8108682131810437,0.009596933438406655,0.10335007354950154,0.12721543029035157,4,left
9.69,0.5628044154259083,0.9945046998316326,-0.2572772231744668,-0.27961674913094126,4.465673118713439,-0.8161198833017969,0.009045415814498388,0.10312219933324274,0.1336841076845436,4,left
9.691,0.5630947486109805,0.9937143481068854,-0.2580429664988477,-0.2691854444616403,4.468877089785674,-0.8214875273753958,0.008528435910546684,0.10284313272011902,0.14006913101869778,4,left
9.692,0.5633713275647526,0.9929212494211118,-0.2587950449849103,-0.25859786620356157,4.471891127576797,-0.8269661747609484,0.008047764191502839,0.10250938080696477,0.14636034208954962,4,left
9.707,0.5636374797271598,0.9921248394539262,-0.25953233049351243,-0.24785080441108465,4.474715485948761,-0.8325503931609901,0.007605148603957618,0.10211772485244533,0.15254817604777637,4,left
9.708,0.56389654779436,0.9913246681085257,-0.2602537718792772,-0.2369389534999314,4.477350402333179,-0.8382343319268534,0.007202298888207289,0.10166525891667695,0.15862368518493217,4,left
9.744,0.564151847128203,0.9905204165328465,-0.2609583979908242,-0.22585500327998395,4.479796032157041,-0.8440117717666556,0.006840870526850774,0.10114942604542364,0.16457855808833866,4,left
9.746,0.5644066228801838,0.9897119124897457,-0.2616453196430118,-0.21458978508095244,4.482052415829226,-0.8498761826725341,0.0065224483589978064,0.10056805196426344,0.1704051342443986,4,left
9.747,0.5646640074171367,0.9888991434744933,-0.2623137306838072,-0.2031324797099355,4.484119484783521,-0.8558207908036781,0.006248530041020796,0.09991937608056065,0.17609641448403296,4,left
9.747,0.564926978870513,0.988082267028262,-0.262962908311265,-0.1914708876712706,4.485997107114299,-0.8618386540763996,0.00602050980803159,0.09920207928961255,0.181646068227995,4,left
9.773,0.5651983217431258,0.987261617911639,-0.2635922128712149,-0.1795917576194375,4.487685169498026,-0.8679227441657558,0.005839663142126338,0.09841530791377055,0.18704843880300207,4,left
9.822000000000001,0.5654805904468049,0.9864377121010371,-0.264201087425452,-0.16748116253258932,4.489183686752653,-0.8740660292696998,0.005707132801830622,0.09755869327052441,0.192298547785684,4,left
9.824,0.5657760764223242,0.9856112478317868,-0.2647890573642107,-0.15512490732621328,4.490492925772473,-0.8802615506335537,0.005623916388236011,0.09663236665059136,0.19739209874033495,4,left
9.824,0.5660867792197299,0.9847831040336829,-0.2653557302601468,-0.1425089505703132,4.491613530001459,-0.8865024887920836,0.005590855442000898,0.09563696957404491,0.20232548027143263,4,left
9.825,0.5664143817321958,0.9839543365075711,-0.26590079607311906,-0.12961982653134616,4.492546633724673,-0.8927822195286393,0.0056086259816925344,0.0945736590814543,0.2070957680128606,4,left
9.826,0.5667602296968001,0.9831261722534487,-0.26642402776099505,-0.1164450595269229,4.493293960070748,-0.8990943609043679,0.005677730364373641,0.09344410773661573,0.21170072504427326,4,left
9.883,0.5671253155349268,0.9823000025205929,-0.2669252823315803,-0.10297356763287267,4.493857900505271,-0.9054328120636568,0.005798490379195574,0.09225049809744966,0.21613880035563232,4,left
9.885,0.5675102666047159,0.9814773751770152,-0.2674045022965817,-0.0891960546925088,4.494241575622916,-0.9117917841119694,0.005971041538392357,0.09099551155578563,0.22040912521635728,4,left
9.887,0.5679153380330433,0.9806599867666095,-0.267861717324642,-0.07510538743569298,4.494448878295071,-0.9181658240647553,0.00619532855993183,0.08968231152675624,0.22451150743610734,4,left
9.888,0.5683404103750836,0.979849674322626,-0.2682970457923141,-0.060696949782651353,4.4944845018110025,-0.9245498343370389,0.006471102042171122,0.08831452098437728,0.22844642352994188,4,left
9.889,0.5687849921769083,0.9790484068405548,-0.2687106960241489,-0.04596896377784547,4.49435395652892,-0.9309390910604827,0.00679791633053171,0.08689619443765775,0.23221500866250896,4,left
9.906,0.5692482270939966,0.9782582763010405,-0.26910296716693066,-0.030922769227082647,4.494063577673961,-0.9373292636976341,0.007175128573956156,0.08543178493112866,0.23581904355734395,4,left
9.962,0.5697289048526727,0.9774814881805667,-0.26947424967909644,-0.015563058841939575,4.493620525337782,-0.9437164369522467,0.007601898964733497,0.083926107535004,0.23926093631832282,4,left
9.965,0.5702254752856505,0.9767203513642849,-0.2698250253467753,0.0001019316765625114,4.49303277685518,-0.9500971351574481,0.00807719214766112,0.08238430122544163,0.2425436964631562,4,left
9.966000000000001,0.5707360649180776,0.9759772672290403,-0.27015586669072267,0.01606027873739286,4.492309111607636,-0.9564683490185599,0.008599779760237071,0.08081179029396568,0.24567089936344075,4,left
9.967,0.5712584959471284,0.9752547175057757,-0.27046743565849446,0.032296271661052776,4.491459088557052,-0.9628275638796397,0.009168244021765878,0.07921424505470026,0.24864664089650668,4,left
9.968,0.5717903077806499,0.9745552504479957,-0.2707604815509503,0.048790360415423846,4.490493017269219,-0.9691727874088943,0.009780982264981697,0.0775975408566871,0.25147548300894806,4,left
10.017999999999999,0.5723287814540254,0.9738814649271642,-0.2710358381768414,0.06551915191469897,4.489421923439936,-0.9755025738903633,0.010436212331228,0.07596771458209246,0.25416239082187686,4,left
10.02,0.5728709669980182,0.9732359925805006,-0.27129442025973144,0.08245545611522027,4.4882575096826045,-0.98181604301696,0.011131978798639825,0.07433091829985086,0.2567126615348791,4,left
10.021,0.5734137131210721,0.9726214788516475,-0.27153721907726,0.09956838243044636,4.487012111879011,-0.9881128923538278,0.011866160039721022,0.07269337001580177,0.2591318451782132,4,left
10.022,0.5739536979135436,0.9720405640206788,-0.2717652971918682,0.11682348633271651,4.485698650908771,-0.9943934033118451,0.012636476110194602,0.07106130151465029,0.26142565722098077,4,left
10.023,0.5744874592487598,0.9714958650077089,-0.27197978206462786,0.1341829646335209,4.484330578360619,-1.0006584404286003,0.01344049749050685,0.06944090343694166,0.2635998831850511,4,left
10.04,0.5750114240388283,0.9709899583569295,-0.27218185839308995,0.15160589559916826,4.482921812738302,-1.0069094434228907,0.014275654798408161,0.06783826847362945,0.2656602761263571,4,left
10.081,0.5755219360077852,0.9705253646420989,-0.27237275911670733,0.16904851876174642,4.481486661512379,-1.013148411304742,0.015139249765615252,0.06625933489173892,0.26761244912680493,4,left
10.084,0.5760152819486677,0.9701045345272298,-0.2725537551552345,0.18646455058296138,4.4800397255303315,-1.0193778780069125,0.016028467868588178,0.06470983334405277,0.26946176565190977,4,left
10.097000000000001,0.5764877166399176,0.96972983672096,-0.27272614410535245,0.2038055344639344,4.478595784387471,-1.0256008793350284,0.016940392906612527,0.06319523917640474,0.27121322991672997,4,left
10.1,0.576935486816139,0.9694035479351518,-0.2728912382943755,0.22102122489148632,4.477169662522325,-1.0318209112174779,0.017872023620606043,0.061720731040879696,0.27287137833260616,4,left
10.1,0.5773548547554516,0.969127844738381,-0.27305035268465744,0.23806000519215498,4.475776076564987,-1.0380418792432682,0.01882029222233846,0.0602911555116669,0.2744401734558652,4,left
10.154,0.5777421220255101,0.9689047970692983,-0.27320479306815443,0.2548693354715703,4.474429467130048,-1.044268039327549,0.019782084456063064,0.05891099658249627,0.2759229036270127,4,left
10.156,0.5780936537192004,0.9687363631796487,-0.27335584485844633,0.27139622210831965,4.473143823039396,-1.0505039290772253,0.020754260636945347,0.057584348588803055,0.277322092633579,4,left
10.156,0.5784059032795305,0.9686243857920002,-0.2735047627128439,0.28758769700522874,4.47193250886214,-1.0567542893926594,0.02173367698360334,0.056314891651861015,0.27863942308710826,4,left
10.157,0.5786754378972601,0.9685705892471563,-0.27365276119660414,0.3033912963322533,4.4708081051898265,-1.0630239765502265,0.02271720633329983,0.05510586973940421,0.2798756760481885,4,left
10.157,0.5788989644283462,0.9685765773934469,-0.27380100663782053,0.31875553125183903,4.469782268420697,-1.0693178662862928,0.023701757201237992,0.0539600719913772,0.2810306887907585,4,left
10.224,0.5790733557314921,0.9686438318742608,-0.2739506101989504,0.3336303446958361,4.468865615055315,-1.075640752365937,0.024684290424797185,0.05287981785234209,0.2821033319657172,4,left
10.226,0.5791956772683273,0.9687737103461486,-0.27410262206210934,0.34796755043840133,4.4680676322677,-1.081997242859067,0.025661833129090563,0.05186694618966013,0.2830915066091398,4,left
10.227,0.5792632137738385,0.9689674441807947,-0.2742580265418559,0.36172125358406443,4.467396611645819,-1.088391658623859,0.026631490195974297,0.05092280821760918,0.28399216071772365,4,left
10.228,0.5792734956747452,0.9692261353707955,-0.2744177378847371,0.3748482531865091,4.466859600289808,-1.094827939207102,0.027590453814589484,0.05004826369209653,0.28480132448343587,4,left
10.229,0.5792243245592177,0.9695507525085877,-0.27458259644302685,0.38730842774807334,4.466462364729758,-1.1013095599892337,0.02853601188325855,0.049243679663405406,0.28551416297538684,4,left
10.302,0.579113796651845,0.9699421258108105,-0.27475336495517383,0.3990651034358117,4.46620936572332,-1.107839461998082,0.02946555584078063,0.048508931252023435,0.28612504536040323,4,left
10.304,0.5789403234118141,0.9704009412834654,-0.27493072496957527,0.41008540217617,4.466103742888237,-1.1144199939548005,0.030376588163926372,0.04784340426810359,0.2866276300327621,4,left
10.304,0.5787026489443167,0.9709277342255557,-0.27511527378656825,0.4203405623568976,4.4661473073162155,-1.121052864798168,0.031266729595867016,0.047245999852514486,0.28701496398991366,4,left
10.305,0.5783998642974588,0.9715228823273524,-0.2753075224130115,0.42980622242711514,4.466340539697511,-1.1277391043427423,0.03213372616738549,0.046715141676746244,0.28727959244476897,4,left
10.306,0.5780314186507686,0.9721865987519961,-0.275507895005635,0.4384626601200439,4.466682592103466,-1.134479030317325,0.032975456092391935,0.04624878641892847,0.2874136733277578,4,left
10.306,0.5775971271585382,0.9729189258502676,-0.2757167301652893,0.4462949844049696,4.467171292686169,-1.141272221093809,0.03378993659947885,0.04584443805361903,0.2874090926685879,4,left
10.332,0.5770971753298323,0.9737197302285914,-0.27593428405094483,0.4532932797084507,4.467803153172278,-1.1481174940074557,0.03457533072567492,0.04549916616958543,0.2872575792539825,4,left
10.360999999999999,0.5765321207474446,0.9745886990138377,-0.2761607345990925,0.4594527024296069,4.468573379151994,-1.1550128892879616,0.03532995407875691,0.045209628350192294,0.2869508182943523,4,left
10.362,0.5759028941261248,0.9755253355547555,-0.27639618584127423,0.46477352977196756,4.469475883164576,-1.1619556596208291,0.0360522815704555,0.044972096615226984,0.2864805640993712,4,left
10.363,0.5752108012953947,0.9765289529995358,-0.27664067215028565,0.4692611609358022,4.470503301045297,-1.168942265599343,0.03674095412280759,0.04478248792316442,0.28583875176200246,4,left
10.363,0.5744575248192227,0.9775986675201377,-0.2768941633742114,0.4729260708316117,4.471647014314531,-1.1759683785308315,0.037394785318964646,0.044636398702041634,0.28501760768317974,4,left
10.437999999999999,0.5736451213691915,0.9787333958240054,-0.27715657175463393,0.47578371668752845,4.472897185557836,-1.1830288942268274,0.03801276781539964,0.0445291432223132,0.28400975793439365,4,left
10.44,0.5727760116491452,0.9799318602218563,-0.27742776049972656,0.47785439860933326,4.474242815429586,-1.1901179623373421,0.03859407905466392,0.04445579534628928,0.28280833195287075,4,left
10.440999999999999,0.5718529624716246,0.9811926006150227,-0.2777075530760492,0.47916307787622614,4.475671824437292,-1.197229033222591,0.03913808566347118,0.04441123303393413,0.2814070582290335,4,left
10.442,0.5708790626281838,0.9825139904169095,-0.27799574225548107,0.4797391616613948,4.477171152807748,-1.2043549197350234,0.0396443460750576,0.04439018513986231,0.27980034947987786,4,left
10.443,0.569857694683779,0.9838942538193447,-0.2782920985112898,0.4796162655909588,4.478726866260615,-1.2114878687176036,0.04011261119235718,0.04438728031537304,0.27798337630342324,4,left
10.444,0.5687925042729296,0.9853314833431622,-0.2785963777160769,0.4788319626829215,4.480324258212575,-1.2186196381474632,0.04054282305511319,0.0443970979102324,0.2759521291978238,4,left
10.497,0.5676873674083185,0.9868236576765299,-0.2789083279246731,0.4774275219243065,4.4819479448973825,-1.2257415781657457,0.04093511146686483,0.04441422042916291,0.27370346926765643,4,left
10.499,0.566546355524996,0.9883686600612404,-0.279227694899237,0.475447636103352,4.483581954414852,-1.2328447148826398,0.04128978846936678,0.04443328643059929,0.2712351684300115,4,left
10.5,0.5653736980304584,0.9899642972544771,-0.2795542262158493,0.4729401365144942,4.485209813815001,-1.2399198348312634,0.04160734051396183,0.04444904238449864,0.2685459402050157,4,left
10.501,0.5641737426665149,0.9916083186620652,-0.27988767399093345,0.4699556913587278,4.486814639690841,-1.2469575672284299,0.041888418217246745,0.04445639237682162,0.2656354619021759,4,left
10.501,0.5629509143426689,0.9932984348432957,-0.2802277963720999,0.46654748545365543,4.488379236386137,-1.2539484619158734,0.04213382370871266,0.04445044521349717,0.26250438862234826,4,left
10.575,0.5617096730745232,0.9950323344879151,-0.28057435799234304,0.46277088029408836,4.489886203463457,-1.2608830621435154,0.04234449587674387,0.04442655883617024,0.25915435972066353,4,left
10.577,0.5604544715612172,0.9968076991880467,-0.28092712956404864,0.4586830542960663,4.491318052710508,-1.2677519720718502,0.04252149429642455,0.04438038201580872,0.25558799921838476,4,left
10.578,0.5591897130833207,0.9986222156028284,-0.2812858867291822,0.4543426232146248,4.492657334689211,-1.2745459190135104,0.04266598288338092,0.04430789327889711,0.2518089121498191,4,left
10.579,0.5579197107350212,1.0004735848215272,-0.28165040829229143,0.4498092407245832,4.493886774831838,-1.2812558104339162,0.04277921405690667,0.04420543703220476,0.247821678331001,4,left
10.58,0.5566486491835414,1.0023595290108283,-0.2820204740729083,0.4451431791527373,4.494989419088248,-1.2878727857307182,0.04286251372654027,0.044069756807467525,0.24363184415158123,4,left
10.58,0.5553805499714617,1.0042777957545248,-0.28239586272371087,0.4404048905734352,4.495948788801996,-1.2943882627503722,0.04291726715829677,0.043898025233827014,0.23924591255766134,4,left
10.633,0.5541192409741342,1.0062261605992548,-0.2827763498475248,0.43565455025308664,4.496749042732184,-1.3007939788058727,0.04294490572990445,0.04368786976353283,0.2346713314112043,4,left
10.635,0.552868330258531,1.0082024281624349,-0.2831617066251229,0.4309515897102752,4.497375140551887,-1.3070820259675116,0.04294689458731812,0.043437392851587535,0.2299164804767651,4,left
10.636,0.5516311843761106,1.0102044320141912,-0.2835516990809902,0.4263542336522432,4.497812999351216,-1.3132448810978465,0.0429247212116917,0.04314518561464252,0.2249906572200318,4,left
10.637,0.5504109110064045,1.0122300336009575,-0.28394608810489286,0.4219190571895034,4.498049635651823,-1.3192754319660729,0.04287988490050141,0.042810334578859674,0.21990406148388275,4,left
10.638,0.5492103458308093,1.014277120592766,-0.28434463026112206,0.41770057444896364,4.498073289024877,-1.3251670007685354,0.04281388716572818,0.042432421518709455,0.2146677789626831,4,left
10.708,0.5480320436053903,1.0163436049890502,-0.28474707920628295,0.4137508627119408,4.497873526206318,-1.3309133656821623,0.04272822306282795,0.04201151679170036,0.20929376298803778,4,left
10.710999999999999,0.5468782735046113,1.0184274211115503,-0.28515318741493956,0.410119222716964,4.497441325579818,-1.3365087805798428,0.04262437348483705,0.04154816718266815,0.20379481342977618,4,left
10.712,0.5457510186619279,1.0205265234253444,-0.28556270800776395,0.4068518751153602,4.4967691420274996,-1.3419479929246592,0.04250379846739014,0.04104337960932762,0.19818455112163705,4,left
10.713,0.5446519793953757,1.02263888409474,-0.2859753966059126,0.4039916930683816,4.49585095214782,-1.3472262598594682,0.04236793151468657,0.04049860170554014,0.19247738652959176,4,left
10.714,0.5435825792234716,1.024762490262597,-0.2863910131241712,0.4015779709755417,4.494682279839357,-1.3523393625078934,0.0422181748147365,0.03991569970522604,0.18668848166429425,4,left
10.716,0.5425439728282629,1.0268953410581065,-0.2868093233414437,0.3996462295192292,4.493260202504588,-1.3572836185957324,0.04205589498293453,0.03929693373916773,0.1808337038675719,4,left
10.770999999999999,0.5415370555433423,1.0290354442040412,-0.28723010007959565,0.3982280578858453,4.491583339320529,-1.3620558938300353,0.041882418849697484,0.0386449306045472,0.1749295697562952,4,left
10.773,0.5405624743369037,1.0311808119155277,-0.2876531238650965,0.39735099428525467,4.48965182489332,-1.3666536126220428,0.04169902892883204,0.03796265405160177,0.16899317803180633,4,left
10.774000000000001,0.5396206404680136,1.0333294555624515,-0.2880781829646126,0.39703844418333795,4.487467272113149,-1.3710747679626896,0.04150695842100604,0.03725337260404765,0.16304213062803297,4,left
10.774000000000001,0.5387117441493675,1.0354793783594745,-0.28850507270357206,0.3973096332030889,4.485032726311693,-1.3753179291008846,0.041307385727634156,0.03652062491447472,0.15709444209634849,4,left
10.775,0.5378357715456349,1.0376285656550681,-0.2889335941040448,0.3981795913909756,4.482352610952578,-1.3793822455248739,0.04110142850665768,0.03576818267440843,0.15116843731299287,4,left
10.831,0.5369925240379562,1.0397749733484152,-0.28936355206534925,0.39965916725527756,4.4794326645845715,-1.3832674465234824,0.04089013746169358,0.03500001120690129,0.14528263810897982,4,left
10.833,0.5361816391411286,1.0419165156779038,-0.2897947533493683,0.40175507127940996,4.476279868963839,-1.3869738362012098,0.04067449034404254,0.03422022806428811,0.13945564034789928,4,left
10.834000000000001,0.5354026122139032,1.044051053529418,-0.29022700447284255,0.40446994891275856,4.472902368337588,-1.3905022839588514,0.04045538680704763,0.03343306006192678,0.1337059834912393,4,left
10.847000000000001,0.5346548181651724,1.046176384073354,-0.2906601094185262,0.4078024830432893,4.469309379880725,-1.393854210450812,0.04023364459225939,0.03264279907045787,0.12805201417681486,4,left
10.849,0.5339375325733198,1.0482902324355705,-0.29109386700801565,0.41174752595795994,4.465511095276472,-1.3970315690297577,0.040009997239352654,0.03185375679895549,0.12251174459716604,4,left
10.849,0.5332499519505082,1.0503902460305576,-0.2915280678393536,0.41629626075775716,4.461518573271363,-1.4000368226892437,0.0397850933544034,0.031070219216632968,0.11710270688375561,4,left
10.909,0.5325912131509004,1.0524739919549575,-0.29196249078407577,0.42143639199108857,4.4573436222347596,-1.4028729165169427,0.03955949744396973,0.03029640218150949,0.11184180627945564,4,left
10.911,0.5319604120238279,1.0545389575737782,-0.29239689909737815,0.4271523649022565,4.452998670313214,-1.405543245675079,0.03933369232510864,0.029536410368002954,0.10674517681503633,4,left
10.912,0.5313566214543894,1.056582554231899,-0.29283103626606216,0.4334256124886089,4.4484966199697675,-1.4080516189266719,0.03910808311876327,0.02879420106187431,0.10182804227284799,4,left
10.913,0.5307789090211572,1.0586021238930718,-0.2932646218306525,0.4402348297665138,4.443850684497423,-1.4104022177232198,0.03888300281079626,0.028073553380097333,0.09710458372732374,4,left
10.914000000000001,0.5302263545649352,1.0605949484589867,-0.2936973474875111,0.447556274420855,4.439074206312763,-1.4125995508755822,0.038658719270704904,0.02737804260731742,0.09258781494564451,4,left
10.975,0.5296980679038499,1.0625582615513494,-0.2941288737303366,0.4553640902399516,4.434180461524738,-1.4146484048823216,0.03843544345273283,0.026711018619593633,0.08828946841289859,4,left
10.977,0.5291932067646982,1.0644892625418012,-0.29455882719380044,0.4636306444176653,4.429182462434867,-1.4165537900886422,0.0382133384125486,0.026075587023785683,0.08421989567276376,4,left
10.978,0.5287109948306974,1.0663851324331517,-0.29498679880955025,0.4723268668266754,4.4240927735146265,-1.418320882904074,0.03799252886420939,0.02547459198341324,0.08038798474918918,4,left
10.985,0.52825073967354,1.0682430508587637,-0.29541234280829426,0.48142258234754476,4.4189233525155505,-1.4199549642511724,0.03777311116691362,0.02491060031820539,0.07680109574812173,4,left
10.985999999999999,0.5278118501013793,1.0700602132262271,-0.295834976368156,0.4908868326355459,4.413685421387096,-1.4214613544666181,0.0375551637225956,0.02438588680704203,0.07346501481283407,4,left
10.985999999999999,0.5273938520583138,1.0718338470831914,-0.29625417941978693,0.5006881863546198,4.408389367894809,-1.4228453455670333,0.037338757752949404,0.02390242073921688,0.07038392647358443,4,left
11.040999999999999,0.5269964019986522,1.0735612270843478,-0.2966693940571589,0.5107950369052892,4.4030446782468715,-1.4241121331245445,0.037123968270579955,0.02346185399230967,0.06756040469165278,4,left
11.044,0.5266192969003786,1.0752396883424788,-0.2970800232672702,0.5211758863413283,4.397659901144555,-1.425266750743535,0.036910884781975635,0.023065511334922,0.06499542336401853,4,left
11.045,0.5262624805553043,1.0768666383861822,-0.29748542915712667,0.5317996145040368,4.392242643564314,-1.4263140093829059,0.03669962110610802,0.022714383885901475,0.06268838731428769,4,left
11.046,0.525926046165398,1.0784395683837638,-0.29788493135313754,0.5426357327657826,4.386799597887658,-1.427258442406906,0.03649032384636214,0.02240912642854887,0.06063718453760043,4,left
11.047,0.5256102354151599,1.0799560645523245,-0.2982778065179534,0.5536546209203129,4.381336597398882,-1.4281042564169237,0.0362831793535941,0.02215005880037511,0.05883825979092641,4,left
11.083,0.5253154340536209,1.0814138205772983,-0.29866328977166123,0.56482774368619,4.375858692670045,-1.4288552876165193,0.036078419287414655,0.021937171054852517,0.057286708304485276,4,left
11.107000000000001,0.5250421638418723,1.0828106515786236,-0.29904057838779063,0.5761278421022865,4.3703702388641945,-1.429514963378107,0.03587632512130706,0.02177013152128734,0.05597638643500913,4,left
11.107999999999999,0.5247910708404412,1.0841445099814173,-0.2994088377380195,0.5875290962828372,4.36487498647609,-1.4300862687629894,0.03567723205259704,0.02164829659807354,0.054900035024490985,4,left
11.120999999999999,0.5245629106199676,1.0854135034570531,-0.29976720900377163,0.5990072581384474,4.3593761725086955,-1.4305717178966149,0.035481532652047516,0.021570721473542127,0.05404941205847984,4,left
11.122,0.5243585319452481,1.0866159143401304,-0.3001148175891811,0.6105397538578553,4.3538766115720104,-1.4309733301842449,0.03528968032588759,0.021536171831666912,0.05341543198227274,4,left
11.122,0.5241788615001516,1.0877502181625207,-0.3004507809717459,0.6221057558561237,4.348378787070095,-1.431292611521093,0.03510219245004947,0.021543137501426387,0.05298830803904429,4,left
11.167,0.5240248927032943,1.088815097177924,-0.30077421537551424,0.6336862222600066,4.3428849435503984,-1.4315305414128694,0.0349196529590709,0.021589849406065176,0.05275769306572906,4,left
11.169,0.5238976800885228,1.089809446038997,-0.30108424169599124,0.6452638990581381,4.337397182924276,-1.4316875682941947,0.034742714226377314,0.021674300829504212,0.05271281532352357,4,left
11.18,0.5237983368650596,1.0907323716352402,-0.3013799915730107,0.6568232794822189,4.3319175675526225,-1.4317636159268619,0.034572098170311885,0.021794273406856565,0.05284260799324226,4,left
11.181,0.5237280307157115,1.0915831921751529,-0.3016606139471251,0.6683505221884503,4.326448229166216,-1.4317581021607597,0.03440859657454154,0.021947367907002174,0.053135832106755626,4,left
11.182,0.5236879744780367,1.0923614385630782,-0.30192528163472154,0.679833342413911,4.320991475346562,-1.4316699684619851,0.03425307059027869,0.02213103970910866,0.053581192800027586,4,left
11.242,0.5236794117186775,1.0930668578611684,-0.3021731974978403,0.6912608972855567,4.315549881268719,-1.431497717013504,0.03410644922750983,0.02234263838333332,0.054167448202118954,4,left
11.244000000000002,0.5237035988853115,1.0936994177778425,-0.30240360029328434,0.7026236814185746,4.310126357342071,-1.431239452877889,0.03396972635396167,0.02257944990087975,0.054883509246020444,4,left
11.245,0.5237617853490454,1.0942593117361294,-0.30261577024571407,0.7139134392785166,4.30472418899405,-1.4308929302176978,0.03384395556029171,0.02283873950691643,0.05571852811596422,4,left
11.258,0.5238551916419392,1.094746964539552,-0.302809033981044,0.7251230954135952,4.299347047957961,-1.4304556024056274,0.03373024244868754,0.023117793765323916,0.05666197375798352,4,left
11.26,0.5239849856856938,1.0951630386289464,-0.30298276839538224,0.7362467025897665,4.293998975049335,-1.4299246760236966,0.03362973438259319,0.02341396108759316,0.05770369461015442,4,left
11.261,0.5241522570080945,1.095508440582067,-0.3031364032949431,0.7472794067513975,4.288684335562196,-1.4292971688751506,0.03354360824122281,0.02372469040264453,0.058833970541521334,4,left
11.308,0.5243579893035862,1.095784327205313,-0.3032694228363527,0.7582174221819836,4.283407754151198,-1.42856997275596,0.033473056946634765,0.024047567640871896,0.06004355680366909,4,left
11.309000000000001,0.5246030317974968,1.0959921105077064,-0.3033813658657697,0.7690580002525608,4.27817404638775,-1.4277399228547387,0.03341927533915275,0.0243803497876384,0.06132372209886896,4,left
11.317,0.5248880698570244,1.0961334609412225,-0.30347182532812245,0.7797993701243514,4.272988169292595,-1.4268038758788295,0.033383445631318225,0.024720996408863827,0.062666281608408,4,left
11.318,0.5252135953503354,1.096210308410347,-0.30354044698025695,0.7904406379563393,4.267855204311639,-1.4257587964093579,0.0333667225105111,0.02506769860684953,0.06406362518735927,4,left
11.319,0.5255798772989015,1.096224840690687,-0.30358692761125716,0.8009816459001382,4.262780370297571,-1.42460184631737,0.03337021808168018,0.025418905248879256,0.0655087411058798,4,left
11.374,0.5259869333542836,1.0961794990760398,-0.30361101289241865,0.8114228003486544,4.2577690552242125,-1.4233304694782078,0.03339498712906628,0.02577334607353729,0.06699523628194373,4,left
11.376,0.5264345027505272,1.0960769712923215,-0.30361249495789583,0.8217648773780641,4.252826857315024,-1.4219424658674724,0.033442013335517,0.026130051147692183,0.06851735426426606,4,left
11.394,0.5269220216255122,1.0959201819858704,-0.30359120987262483,0.8320088085769666,4.24795963184968,-1.4204360526697952,0.033512196934151584,0.0264883662556749,0.07006999188515305,4,left
11.395999999999999,0.5274486016325916,1.095712281338794,-0.30354703520434384,0.8421554478199734,4.24317354301408,-1.418809912002519,0.03360634395861879,0.02684796392258894,0.07164871481115273,4,left
11.397,0.5280130124418096,1.095456632433044,-0.3034798879367956,0.8522053190154452,4.2384751207796025,-1.4170632252502988,0.0337251570604579,0.02720884969471054,0.07324977167657616,4,left
11.398,0.5286136682925541,1.095156797887871,-0.3033897229628963,0.8621583453750374,4.233871322364317,-1.4151956941432653,0.03386922780902043,0.027571363209123723,0.07487010629496874,4,left
11.44,0.5292486184816061,1.0948165261681548,-0.30327653236849456,0.872013563343599,4.229369595662459,-1.4132075493959655,0.03403903041066546,0.02793617370196007,0.07650736757102995,4,left
11.442,0.5299155416883764,1.094439737838156,-0.30314034558464786,0.8817688289917746,4.224977938128817,-1.4110995489567597,0.03423491682214728,0.02830426981561564,0.07815991696476302,4,left
11.455,0.530611744311075,1.094030511891278,-0.3029812302729054,0.8914205272645461,4.2207049424383225,-1.4088729686019097,0.03445711325206147,0.028676943781096295,0.07982683335966571,4,left
11.457,0.5313341632385361,1.093593072150234,-0.302799293692326,0.9009632918875019,4.216559822408052,-1.4065295869233487,0.03470571803696805,0.029055770567857898,0.08150791457544329,4,left
11.458,0.5320793733983076,1.0931317736597406,-0.3025946843741918,0.9103897395513529,4.212552416829185,-1.404071665679043,0.03498070085807995,0.029442583480492352,0.08320367361944145,4,left
11.505999999999998,0.5328436000116886,1.0926510890075054,-0.30236759407393665,0.9196902218193275,4.208693172323768,-1.4015019265550164,0.03528190325292248,0.029839448174387766,0.084915327134191,4,left
11.508,0.5336227350364839,1.0921555945635735,-0.30211826001663433,0.928852602031531,4.2049931091155806,-1.3988235266285205,0.03560904038800297,0.03024863656974569,0.0866447741353474,4,left
11.530999999999999,0.5344123569930521,1.091649956626089,-0.3018469673557961,0.9378620668955915,4.2014637749051245,-1.3960400355869151,0.03596170407941042,0.030672601256387422,0.08839456428068004,4,left
11.533,0.535207753346181,1.0911389172895152,-0.3015540515766996,0.9467009800369797,4.19811719073883,-1.3931554169910922,0.03633936703286733,0.031113950431964917,0.09016785557142581,4,left
11.534,0.5360039449195899,1.0906272795086942,-0.30123990043101034,0.9553487804339668,4.194965790422335,-1.3901740144942405,0.03674138814198904,0.031575423032264405,0.09196836163355773,4,left
11.534,0.5367957123270582,1.0901198905316105,-0.30090495502200515,0.9637819263392475,4.19202235373836,-1.3871005430715013,0.03716701844030304,0.0320598631985945,0.09380028894044558,4,left
11.573,0.5375776248110987,1.0896216228794386,-0.30054970984997653,0.97197388527198,4.189299933522889,-1.383940084714941,0.037615407167499296,0.032570192941890314,0.09566826445726885,4,left
11.574000000000002,0.5383440718816326,1.0891373525565062,-0.3001747118551359,0.979895171501049,4.186811776748947,-1.3806980872420611,0.03808560754560543,0.033109382148633654,0.0975772540688063,4,left
11.589,0.5390892976410003,1.0886719350990994,-0.29978055865973063,0.9875134329050713,4.184571239820581,-1.3773803644180576,0.03857658210412386,0.03368041558749461,0.0995324719384525,4,left
11.591,0.5398074369834459,1.088230180788975,-0.2993678962183578,0.9947935882977411,4.182591697974165,-1.373993095902862,0.03908720752838647,0.03428625686108474,0.10153928082760084,4,left
11.592,0.5404925524860089,1.0878168302901101,-0.29893741593734047,1.0016980138142662,4.180886447322749,-1.3705428256563557,0.03961627906782321,0.03492980941055625,0.10360308352380691,4,left
11.640999999999998,0.5411386709668226,1.08743653141549,-0.29848985118773147,1.0081867735104322,4.179468595746535,-1.3670364566526316,0.04016251471764136,0.03561387521176741,0.10572920624087111,4,left
11.642999999999999,0.5417398191234637,1.0870938173608098,-0.29802597312053913,1.0142178875773358,4.178350937555676,-1.3634812391601825,0.04072455970560103,0.036341112757444914,0.10792277614039515,4,left
11.668,0.5422900580223855,1.0867930867378597,-0.2975465857355121,1.0197476328393498,4.177545808637655,-1.3598847505950367,0.0413009919923658,0.03711399645077627,0.11018859583912205,4,left
11.67,0.542783516390391,1.0865385858393637,-0.29705252019472606,1.0247308712354792,4.177064923674132,-1.3562548665185832,0.04189032930244394,0.03793477899652287,0.11253101726361822,4,left
11.671,0.5432144227498489,1.0863343935137708,-0.29654462840624995,1.0291214001378128,4.176919202944082,-1.3525997236377798,0.042491037810787564,0.038805457377435564,0.11495381698609287,4,left
11.672,0.5435771365112474,1.0861844088275028,-0.29602377594132817,1.0328723167460112,4.177118599075475,-1.3489276761368414,0.043101542300468476,0.039727742395911814,0.11746007636572361,4,left
11.707,0.5438661782362991,1.0860923414814698,-0.2954908344259779,1.0359363907394097,4.177671931517586,-1.3452472463345566,0.043720237497677714,0.04070303161196987,0.1200520707354674,4,left
11.709000000000001,0.5440762593988618,1.086061704779769,-0.2949466736757703,1.0382664428661936,4.178586731842878,-1.3415670700585733,0.04434550036418908,0.041732385551579765,0.12273117081625573,4,left
11.727,0.5442023119816197,1.086095810809165,-0.2943921539431395,1.0398157287794896,4.179869100702249,-1.3378958368418463,0.044975703260404204,0.042816507136617596,0.1254977576357508,4,left
11.729000000000001,0.5442395180975224,1.0861977673949328,-0.2938281186254403,1.040538326257146,4.181523578265066,-1.334242225223198,0.04560922796598094,0.04395572433068284,0.12835115117077409,4,left
11.729000000000001,0.544183339629189,1.0863704763615112,-0.29325538763657644,1.0403895211319796,4.183553032721128,-1.3306148338727097,0.04624448051762643,0.045149976012858126,0.13128955282920896,4,left
11.775,0.5440295477571553,1.0866166326105793,-0.2926747514626686,1.039326185697082,4.185958572947608,-1.3270221095064356,0.04687990661259447,0.04639880113725214,0.13431000242795085,4,left
11.777000000000001,0.5437742521428296,1.086938723500414,-0.292086965780741,1.0373071449083469,4.188739489920254,-1.3234722723112307,0.04751400694653528,0.047701331318412137,0.13740835129666662,4,left
11.805,0.5434139292767423,1.087339027956768,-0.29149274641517325,1.0342935284569688,4.191893228418164,-1.3199732393207695,0.04814535164329472,0.049056287028454444,0.14057925367788865,4,left
11.806,0.5429454491390062,1.0878196147169248,-0.2908927643429272,1.030249108067938,4.195415387616182,-1.3165325467350206,0.048772593145316484,0.0504619775463125,0.14381617805368033,4,left
11.808,0.5423660991914991,1.0883823392385872,-0.29028764053419576,1.0251406191965575,4.199299746278253,-1.3131572735575445,0.04939447733068188,0.05191630468247042,0.14711143898356596,4,left
11.808,0.5416736050107646,1.089028839122696,-0.28967794067174424,1.0189380660181169,4.203538306834633,-1.3098539697199807,0.050009852921286374,0.05341677008161138,0.15045624913398126,4,left
11.83,0.5408661473191108,1.0897605282643574,-0.2890641701089616,1.011615008876937,4.208121354058434,-1.3066285910683988,0.050617679446201366,0.054960485580763684,0.15384079041617044,4,left
11.863,0.5399423754124898,1.0905785902918628,-0.28844676965547916,1.0031488338512102,4.213037526634793,-1.3034864421556533,0.05121703411167056,0.05654418592518238,0.1572543027855011,4,left
11.865,0.538901416868303,1.0914839721687153,-0.28782611278980497,0.9935210043609521,4.218273901348509,-1.3004321269892352,0.051807117849301185,0.05816424335075575,0.16068518933886936,4,left
11.866,0.5377428831816204,1.092477378966587,-0.2872025046431847,0.9827172947979793,4.223816089903301,-1.2974695077253657,0.05238726069436635,0.05981668401239827,0.16412113559960217,4,left
11.867,0.5364668710938543,1.0935592706757364,-0.2865761827802597,0.970728005723365,4.229648348117568,-1.2946016712846815,0.0529569266266031,0.06149720669191143,0.1675492387184391,4,left
11.905,0.5350739599574327,1.0947298615372965,-0.28594731961889047,0.9575481580235616,4.23575369589645,-1.291830903786941,0.05351571802610819,0.06320120440867283,0.17095614098925616,4,left
11.907,0.5335652062921764,1.0959891214232538,-0.28531602616894297,0.9431776595413194,4.242114043958059,-1.2891586725617405,0.0540633798591781,0.0649237894019275,0.17432816348099928,4,left
11.940999999999999,0.5319421374550183,1.0973367772710592,-0.2846823566288356,0.9276214355432043,4.248710321946548,-1.2865856154143254,0.05459980364100164,0.06665982167511382,0.17765143811229692,4,left
11.940999999999999,0.5302067461182521,1.0987723126277609,-0.2840463136227147,0.9108895165330406,4.2555226039114755,-1.2841115369040312,0.055125031151233406,0.06840394113060215,0.1809120377106846,4,left
11.942,0.5283614851715958,1.1002949665514332,-0.2834078543672249,0.8929970807888821,4.262530229556517,-1.2817354115338755,0.05563925770529081,0.07015060325513071,0.18409610294250076,4,left
11.942,0.5264092601761678,1.1019037359059936,-0.28276689796732063,0.873964451236756,4.269711921487254,-1.279455394009638,0.056142834486090025,0.07189411824928146,0.1871899633139759,4,left
11.972999999999999,0.524353416046043,1.1035973834241466,-0.28212333321200644,0.8538170471417392,4.277045901357982,-1.2772688376495034,0.05663626927529566,0.07362869345715123,0.1901802485075257,4,left
12.0,0.5221977165654644,1.105374450300888,-0.2814770258593006,0.8325852922146841,4.28451001159605,-1.2751723234099595,0.05712022508873636,0.07534847898959075,0.19305398725337122,4,left
12.002,0.5199463180985491,1.1072332708727137,-0.28082782516392585,0.8103044828111267,4.2920818490703665,-1.2731617016610934,0.057595516523452836,0.07704761640877197,0.19579869271520434,4,left
12.002,0.5176037404066448,1.1091719878789628,-0.28017557031264034,0.7870146224089885,4.299738909787928,-1.2712321457064915,0.05806310381316924,0.07872028991611496,0.19840243477194466,4,left
12.003,0.5151748368597546,1.1111885678041076,-0.2795200973880027,0.7627602293966732,4.307458736669304,-1.269378213171289,0.058524084664814936,0.08036077865976,0.20085390060568697,4,left
12.04,0.5126647645329662,1.1132808163727417,-0.2788612467550951,0.737590123118683,4.3152190627667055,-1.2675939117149926,0.05897968397244373,0.08196350831479732,0.20314244547286078,4,left
12.040999999999999,0.5100789533931538,1.1154463945199127,-0.2781988702240688,0.7115571900811207,4.322997946691334,-1.2658727675759385,0.05943124148113107,0.08352310055230477,0.20525813506792892,4,left
12.081,0.5074230736862627,1.1176828349371515,-0.2775328373520961,0.6847181305757053,4.330773899729589,-1.2642078966941142,0.05988019743067003,0.08503441984639767,0.20719178004739353,4,left
12.082,0.5047030012796788,1.1199875587535106,-0.2768630406112324,0.6571331856501045,4.3385260046703875,-1.2625920784072076,0.06032807622939379,0.08649261752613373,0.20893496291464797,4,left
12.083,0.5019247812191,1.1223578915735608,-0.2761893994858507,0.628865844349923,4.3462340263658925,-1.2610178317149214,0.06077646842502705,0.0878931730457441,0.21048005787489935,4,left
12.083,0.4990945898700967,1.124791078161581,-0.2755118636804989,0.5999825312682198,4.353878514299807,-1.2594774940484905,0.06122701163786492,0.0892319324000252,0.21182024517361375,4,left
12.107000000000001,0.4962186960779519,1.1272842952603492,-0.2748304155728187,0.5705522750005113,4.36144089869664,-1.2579633021911385,0.06168137134290979,0.0905051435857418,0.21294952193403033,4,left
12.137,0.4933034219203134,1.1298346621322737,-0.2741450719709996,0.5406463591733592,4.368903583675577,-1.2564674743500328,0.06214122216626332,0.09170948903555948,0.2138627110060836,4,left
12.138,0.49035510371354235,1.132439248432493,-0.2734558852009287,0.5103379585595461,4.376250040729845,-1.254982291484571,0.06260822996516482,0.09284211493743136,0.2145554684550096,4,left
12.139000000000001,0.4873800538889706,1.1350950790986287,-0.27276294354720254,0.47970176273545956,4.383464901885383,-1.2535001751991652,0.06308403475219901,0.09390065707843628,0.21502428992102615,4,left
12.14,0.4843845242521652,1.137799136189377,-0.2720663710967629,0.4488135890017898,4.390534048143709,-1.2520137594286662,0.06357023450236582,0.09488326231780533,0.21526651617177683,4,left
12.168,0.48137467114219445,1.1405483580067424,-0.27136632710646685,0.4177499854408229,4.39744468903613,-1.2505159540404192,0.06406836989418135,0.0957886044940965,0.21528033827495555,4,left
12.17,0.478356523095502,1.1433396361772656,-0.27066300513222213,0.38658782436142003,4.404185431531685,-1.2489999996232932,0.06457991002354815,0.09661589387083751,0.2150648027115276,4,left
12.205,0.4753359515882109,1.146169811448766,-0.26995663225359556,0.35540388609960444,4.410746338022709,-1.2474595133385034,0.06510623910674211,0.09736487976397001,0.21461981655786938,4,left
12.206,0.47231864527547857,1.149035668862491,-0.269247468709899,0.3242744330856835,4.417118973407843,-1.245888525827906,0.06564864418243818,0.09803584634904411,0.21394615269649872,4,left
12.207,0.4693100880291794,1.1519339328716232,-0.2685358081016023,0.29327477470057256,4.423296441189955,-1.244281509264088,0.06620830385022834,0.09862960198212449,0.21304545468494698,4,left
12.207,0.4663155410307094,1.1548612628779902,-0.26782197812217334,0.2624788265040375,4.42927340799644,-1.2426333970699297,0.06678627813709916,0.09914746286552364,0.21192024035692536,4,left
12.242,0.4633400291483251,1.157814249462229,-0.2671063417045577,0.2319586729259261,4.435046115011803,-1.2409395966334176,0.06738349961336611,0.0995912321655756,0.2105739029210922,4,left
12.286,0.4603883317290534,1.160789411351273,-0.26638929846179893,0.2017841455719431,4.440612374302412,-1.2391959967868118,0.06800076584962743,0.09996317541312184,0.20901070863026722,4,left
12.288,0.45746497759293925,1.1637831930007425,-0.2656712862729569,0.17202242623599137,4.44597154852222,-1.2373989713757259,0.0686387332310146,0.10026599255359034,0.2072357905171057,4,left
12.288,0.45457424351532244,1.1667919625983723,-0.2649527828172156,0.1427376785357668,4.451124513648033,-1.235545379547657,0.06929791200825816,0.1005027869060355,0.20525513734513295,4,left
12.289000000000001,0.45172015527777776,1.169812010313622,-0.26423430686295457,0.11399071068956473,4.456073606118749,-1.2336325634574201,0.06997866226685406,0.10067703153927327,0.20307557580665253,4,left
12.29,0.44890649062398424,1.1728395466682857,-0.2635164191930259,0.08583867433012403,4.460822558044702,-1.231658344918753,0.07068119038884527,0.10079253374206786,0.20070474334376584,4,left
12.308,0.44613678385688127,1.175870700839412,-0.2627997231180356,0.058334805913092626,4.465376425369586,-1.229621023042692,0.0714055456886237,0.10085339809511773,0.1981510496228206,4,left
12.329,0.4434143321829874,1.1789015183998188,-0.26208486452261415,0.0315282156188407,4.469741512649938,-1.2275193743916615,0.07215161709651284,0.10086398834817359,0.19542362587044082,4,left
12.345,0.44074220427351357,1.1819279576088846,-0.26137253135341587,0.005463725659336824,4.473925295926133,-1.225352656257377,0.0729191298996587,0.1008288881167143,0.19253226202047344,4,left
12.345999999999998,0.4381232516814952,1.1849458833941042,-0.26066345249569667,-0.019818241756739328,4.477936343941378,-1.2231206131590069,0.07370764271556267,0.10075286028005334,0.18948733218690592,4,left
12.347000000000001,0.4355601234355636,1.1879510588972528,-0.2599583960797506,-0.04428172717051995,4.481784237619349,-1.2208234864104979,0.07451654513353077,0.10064080478513665,0.18629970976086704,4,left
12.372,0.4330552834134526,1.1909391354332548,-0.25925816730058854,-0.06789524916365991,4.485479487201138,-1.2184620258805425,0.0753450566037525,0.10049771446156877,0.18298067386466332,4,left
12.402999999999999,0.4306110295057638,1.1939056421408012,-0.2585636057848587,-0.09063177666019322,4.489033445524599,-1.216037501763011,0.07619222700940499,0.10032862855188013,0.17954180846005335,4,left
12.405,0.42822951341435295,1.1968459763495667,-0.2578755824233338,-0.11246866416895408,4.492458215419236,-1.2135517134502427,0.07705693909735739,0.10013858383841263,0.17599489462399845,4,left
12.419,0.4259127600067099,1.199755395371895,-0.2571949954601996,-0.13338755442874664,4.4957665496988195,-1.2110069933266554,0.07793791280045256,0.09993256348420065,0.17235179624421987,4,left
12.42,0.42366268535078505,1.2026290104215431,-0.2565227655933996,-0.15337425023858128,4.498971742913036,-1.2084062045975934,0.07883371146413931,0.09971544441235013,0.1686243401733827,4,left
12.439,0.42148111291729434,1.2054617833555736,-0.25585982992925727,-0.17241855558435795,4.502087513340861,-1.205752732954338,0.07974275000579095,0.09949194528582347,0.16482419345342617,4,left
12.440999999999999,0.41936978781905515,1.208248526703148,-0.2552071347624049,-0.1905140855113798,4.505127871671954,-1.2030504719507567,0.08066330504371079,0.09926657783697315,0.16096274109517827,4,left
12.48,0.4173303892241113,1.2109839071867423,-0.2545656272648328,-0.20765804398585108,4.508106971634354,-1.2003038019278325,0.08159352702424919,0.09904360360865368,0.15705096702425542,4,left
12.482000000000001,0.4153645412767813,1.2136624527865099,-0.25393624630809614,-0.22385096918937447,4.511038939014235,-1.1975175623612377,0.08253145435998167,0.09882699693125671,0.1530993392310282,4,left
12.482999999999999,0.41347382303952707,1.21627856327001,-0.2533199128167367,-0.2390964460541529,4.513937677651205,-1.19469701757731,0.08347502955331021,0.09862041418278152,0.14911769949742604,4,left
12.484000000000002,0.41165977806520393,1.2188265239975409,-0.2527175201551798,-0.2534007867768939,4.516816652906451,-1.1918478157678611,0.08442211712814283,0.09842716879283256,0.14511515894374488,4,left
12.507,0.40992392411965534,1.221300522778502,-0.2521299249898058,-0.26677268373469576,4.519688656969887,-1.1889759409725953,0.0853705229223103,0.09825021064374014,0.14110000252007468,4,left
12.557,0.4082677633245792,1.2236946695431528,-0.2515579389151398,-0.2792228458165755,4.522565567099311,-1.1860876574023158,0.08631801414338341,0.09809210807329767,0.13707960661219226,4,left
12.559000000000001,0.40669279274479214,1.2260030184956414,-0.2510023210347232,-0.2907636329687421,4.525458112468195,-1.183189446153499,0.08726233974057519,0.09795503113237711,0.13306037288638664,4,left
12.56,0.4052005153051243,1.228219592242464,-0.2504637716351806,-0.3014087003534638,4.528375663381307,-1.180287936338413,0.08820125086907196,0.09784073564644358,0.12904767967470784,4,left
12.56,0.4037924508569626,1.2303384072552264,-0.24994292698073725,-0.31117265709345243,4.5313260510331315,-1.1773898340865985,0.08913252114132891,0.09775054851877324,0.12504585144995128,4,left
12.561,0.402470147106773,1.2323534999981627,-0.24944035505019405,-0.32007074078393616,4.534315421400422,-1.1745018521960384,0.09005396597258956,0.09768535559498275,0.12105814725830318,4,left
12.58,0.4012351897825843,1.2342589531203403,-0.24895655176404125,-0.32811850797084613,4.537348124419983,-1.1716306415618902,0.09096346009605702,0.09764559384854338,0.11708676927074298,4,left
12.614,0.4000892108991188,1.2360489212752048,-0.24849193708883166,-0.3353315406511666,4.540426638650611,-1.168782724563842,0.09185895255493942,0.097631249207021,0.1131328923211742,4,left
12.615,0.39903389387737315,1.2377176564516583,-0.2480468506953139,-0.3417251688210448,4.5435515314277986,-1.1659644304038104,0.09273847893341142,0.09764186044932578,0.10919671461884123,4,left
12.616,0.3980709749546841,1.239259533104938,-0.24762154752059118,-0.34731420921705136,4.546721454035303,-1.1631818324686025,0.09360017100821076,0.09767652867668149,0.10527752876560345,4,left
12.616,0.3972022411265411,1.2406690735843828,-0.247216194030151,-0.35211272100478197,4.549933168994713,-1.1604406882065395,0.09444226438712207,0.09773393089433256,0.10137381077507508,4,left
12.64,0.3964295249675073,1.2419409743318073,-0.2468308659033721,-0.35613378026678816,4.553181602212746,-1.1577463827528647,0.0952631048884497,0.09781233575343166,0.09748332402681059,4,left
12.694,0.3957546961969578,1.2430701333308118,-0.24646554763233228,-0.3593892757507094,4.556459910303046,-1.1551038779531635,0.09606115422516656,0.09790962007155822,0.09360323560031093,4,left
12.697000000000001,0.39517964945352224,1.244051679376893,-0.24612013437723315,-0.36188972772500966,4.55975955582244,-1.1525176680198361,0.09683499520681553,0.09802328603461692,0.08973024254700256,4,left
12.698,0.39470628794667734,1.244881003644664,-0.24579443618894573,-0.36364413068733015,4.5630703875232665,-1.1499917423110593,0.09758333646206609,0.0981504802022156,0.08586070415129259,4,left
12.699000000000002,0.3943365036541429,1.2455537932609027,-0.24548818418172677,-0.3646598200570727,4.5663807251465665,-1.1475295553075127,0.09830501663484031,0.09828801594267389,0.08199077512296174,4,left
12.7,0.3940721562027515,1.2460660647287243,-0.24520103767308293,-0.3649423633375924,4.569677448804093,-1.145134003828435,0.09899900801919741,0.09843240051739116,0.07811653592482229,4,left
12.754000000000001,0.3939150536185556,1.246414192945874,-0.2449325914009148,-0.3644954779181074,4.572946092806938,-1.1428074116182552,0.09966441962031114,0.09857986730269575,0.07423411871054132,4,left
12.755999999999998,0.3938669379402525,1.2465949311780395,-0.24468238269167017,-0.3633209784668936,4.576170942231855,-1.1405515210990098,0.1003004996103867,0.09872641313497006,0.07033982844716571,4,left
12.757,0.3939294772113647,1.2466054194343335,-0.2444498990138862,-0.36141875292010345,4.579335127265016,-1.1383674909301378,0.10090663699697121,0.09886784020413987,0.06643025823915852,4,left
12.758,0.3941042629330152,1.2464431824550937,-0.24423458639987441,-0.3587867601575762,4.58242070825721,-1.1362558969954435,0.10148236204422469,0.09899980105764565,0.06250239641265523,4,left
12.759,0.3943928095133781,1.2461061221898688,-0.2440358590072087,-0.3554210416713293,4.585408745991067,-1.1342167347734382,0.10202734483385349,0.09911784479757897,0.058553722108571106,4,left
