time,gFx,gFy,gFz,ax,ay,az,wx,wy,wz,subject_number,foot
17.537,0.5340844110409978,1.0078702773109163,-0.25826226899406174,0.6224422256418911,2.4228692598750734,-1.4698814364904036,-0.10268402647856693,0.16651774524861368,-0.026441270991345283,1,left
17.539,0.5349758659670305,1.0078701712043552,-0.25850130341145344,0.6209613888229675,2.409718763392232,-1.4656583422626293,-0.10194182138086938,0.16602126538968132,-0.023259180277050377,1,left
17.539,0.5358573913499848,1.0078687481004893,-0.25874104976977824,0.6198400911630397,2.396530291712065,-1.4613079635350206,-0.10121003633470335,0.16556268081215442,-0.019961014489424802,1,left
17.54,0.5367257556414691,1.0078645776679442,-0.2589811988859765,0.6190351650976541,2.383335013760406,-1.4568512592646823,-0.10049168080898176,0.16514261131085914,-0.016545513676372955,1,left
17.541,0.5375779308799257,1.00785616912164,-0.2592214114381215,0.6185034853725394,2.370163844570053,-1.4523097718675517,-0.09978963563270567,0.16476109102829523,-0.013012691358279533,1,left
17.563,0.5384111152648523,1.007841983930894,-0.25946131341421663,0.6182023435004821,2.3570472514409153,-1.4477054806448266,-0.09910663112553322,0.16441757255933814,-0.009363844977710195,1,left
17.595,0.5392227548427011,1.0078204486944695,-0.25970049176610094,0.6180898090244877,2.3440150818978336,-1.4430606533640828,-0.0984452276767905,0.1641109370529777,-0.005601546370852421,1,left
17.597,0.5400105634623278,1.0077899678282118,-0.25993849009168474,0.6181250778707527,2.3310964177974545,-1.438397699580654,-0.09780779877091347,0.16383951030999594,-0.0017296122505504573,1,left
17.598,0.5407725400234181,1.007748935916334,-0.2601748043663357,0.6182688079045465,2.3183194573022106,-1.433739027125526,-0.09719651646127851,0.1636010847853915,0.0022469452207837526,1,left
17.598,0.5415069824158892,1.0076957497789694,-0.26040887900488846,0.6184834415830526,2.305711424644868,-1.4291069020213651,-0.09661333931401123,0.16339294695344267,0.006321987246632632,1,left
17.63,0.5422124980905683,1.0076288203847414,-0.26064010364097934,0.6187335149578771,2.293298505655938,-1.4245233120234326,-0.09606000287865853,0.16321190868156704,0.010488335279942917,1,left
17.673,0.5428880114408643,1.0075465847750629,-0.26086781098377665,0.6189859511592959,2.281105804040713,-1.4200098342972853,-0.09553801273281316,0.16305434082524525,0.014737873971731923,1,left
17.674,0.5435327681322623,1.0074475182831868,-0.261091276138325,0.6192103358717593,2.269157311734275,-1.4155875079203273,-0.09504863998108432,0.1629162077925524,0.01906166742917082,1,left
17.675,0.5441463364470221,1.0073301474655347,-0.2613097178435293,0.6193791729330382,2.257475888322277,-1.4112767117193274,-0.09459291878869709,0.16279310279206277,0.02345008467286275,1,left
17.675,0.5447286057292159,1.0071930642124929,-0.2615223020362325,0.6194681193103645,2.246083247501864,-1.407097047641076,-0.09417164536331765,0.16268028401415086,0.027892929430502412,1,left
17.676,0.5452797821662961,1.0070349414058315,-0.2617281479588035,0.6194561988998684,2.234999950127167,-1.4030672297271232,-0.09378537794208489,0.16257271200079854,0.03237957068963492,1,left
17.695,0.5458003823635151,1.0068545500394503,-0.26192633671694804,0.6193259925713394,2.2242454032686374,-1.399204978971766,-0.09343443760589494,0.16246508830575124,0.0368990725862258,1,left
17.73,0.5462912251819666,1.0066507765953587,-0.26211592166361347,0.6190637980125114,2.213837863910517,-1.3955269247800994,-0.0931189099066184,0.16235189547695655,0.041440323200319484,1,left
17.730999999999998,0.546753422091157,1.0064226380703376,-0.26229593935664264,0.6186597507781216,2.203794445463942,-1.3920485139862893,-0.09283864740411918,0.16222743845237242,0.04599216105874773,1,left
17.732,0.5471883662539155,1.0061692920941616,-0.26246541985183314,0.6181079000973271,2.194131125721803,-1.3887839281497842,-0.09259327335701256,0.16208588759734008,0.05054349632558738,1,left
17.732,0.547597720554613,1.0058900418319068,-0.2626233960659118,0.6174062371594662,2.184862755934996,-1.3857460097246541,-0.09238218689284983,0.1619213236878741,0.055083422650375705,1,left
17.762999999999998,0.5479834040625304,1.0055843376255815,-0.262768912843349,0.616556677242239,2.176003072371938,-1.3829461990259073,-0.09220456990186858,0.16172778506801636,0.0596013166548759,1,left
17.81,0.5483475756657229,1.0052517775894303,-0.2629010363665029,0.6155650001681744,2.1675647140341945,-1.3803944866965134,-0.09205939575158097,0.16149931707224122,0.06408692385853972,1,left
17.812,0.5486926143003477,1.0048921086078928,-0.263018864177597,0.6144407550706473,2.1595592514357236,-1.3780993879505332,-0.09194543983194262,0.1612300236518612,0.06853043096732758,1,left
17.813,0.5490210966756114,1.0045052286904979,-0.2631215358200805,0.6131971339544754,2.1519972301208896,-1.376067943297417,-0.0918612918947162,0.16091412075006584,0.07292252522159288,1,left
17.814,0.5493357737363324,1.0040911909985009,-0.26320824379013485,0.6118508158432485,2.144888230377253,-1.3743057476253868,-0.09180537009692706,0.16054599028792774,0.07725444252277022,1,left
17.815,0.549639546208666,1.0036502089486123,-0.26327824417041046,0.6104217819473897,2.138240942632075,-1.3728170075078499,-0.09177593662850286,0.1601202332445949,0.08151800662744611,1,left
17.829,0.5499354388037695,1.003182661611883,-0.263330866326391,0.6089331026776186,2.1320632541020603,-1.3716046240649402,-0.09177111483416912,0.1596317206937531,0.08570566112828555,1,left
17.868,0.5502265726505695,1.0026890992411186,-0.2633655213338904,0.6074106986886746,2.1263623362621606,-1.3706702946860758,-0.09178890779356273,0.15907564234049024,0.08981049491699146,1,left
17.87,0.5505161358476359,1.0021702490380484,-0.26338170900715485,0.6058830794188983,2.1211447220674406,-1.3700146245325375,-0.09182721835349619,0.1584475524815293,0.0938262612553203,1,left
17.87,0.5508073521853775,1.0016270209016622,-0.26337902342747493,0.6043810629643562,2.1164163710108426,-1.369637240653586,-0.09188387056828043,0.15774341339872702,0.09774739055916057,1,left
17.871,0.5511034480956591,1.0010605125742102,-0.2633571569330764,0.6029374804745907,2.1121827297550397,-1.369536905374285,-0.0919566322837085,0.15695963625210013,0.1015689974654001,1,left
17.897000000000002,0.551407617932124,1.0004720136095049,-0.26331590265695787,0.6015868669760936,2.1084487967111114,-1.3697116280016661,-0.09204323820369549,0.15609311964023664,0.10528688358797618,1,left
17.947,0.5517229878226987,0.999863007718192,-0.26325515577825725,0.6003651393282143,2.1052191941994622,-1.3701587746450283,-0.09214141256817657,0.15514128596382734,0.10889753785358297,1,left
17.949,0.5520525784538604,0.9992351731388214,-0.2631749136564487,0.5993092614255883,2.1024982487890056,-1.3708751761162257,-0.09224889084090335,0.1541021152289563,0.11239813593924781,1,left
17.95,0.5523992672694192,0.9985903807394415,-0.2630752750041477,0.598456896643283,2.1002900798038953,-1.3718572339104402,-0.09236344029180443,0.15297417502859115,0.11578653967132857,1,left
17.951,0.55276575087188,0.9979306896501433,-0.2629564382984797,0.5978460475029466,2.0985986956426825,-1.3731010240873671,-0.09248287962860129,0.15175664494159982,0.11906129687719846,1,left
17.952,0.5531545087415659,0.9972583404092014,-0.262818699721319,0.5975146824472826,2.0974280958269933,-1.3746023979667605,-0.09260509782684916,0.15044933401937297,0.12222164199060176,1,left
17.967,0.5535677693480171,0.9965757458329452,-0.26266245094644214,0.5975003494461865,2.0967823735856377,-1.3763570769209001,-0.09272807221827394,0.1490526908260358,0.1252674975367837,1,left
18.004,0.5540074793667037,0.9958854800025607,-0.26248817702233457,0.5978397766514153,2.0966658119332595,-1.3783607377614409,-0.09284988584766787,0.14756780594028956,0.12819947652619618,1,left
18.005,0.5544752763882459,0.995190265807596,-0.26229645450951744,0.5985684633303155,2.0970829673382183,-1.3806090867301333,-0.0929687440854449,0.14599640692250682,0.13101888570687203,1,left
18.006,0.554972465323496,0.9944929613876475,-0.26208794996978596,0.5997202697331652,2.0980387371172355,-1.3830979228239384,-0.09308299041672885,0.14434084578734743,0.1337277293303081,1,left
18.007,0.555499998593887,0.9937965457366424,-0.26186341886566056,0.6013270175625455,2.0995384078299466,-1.3858231926970552,-0.09319112120863066,0.14260407908832282,0.13632871255450257,1,left
18.029,0.5560584601975904,0.9931041038403123,-0.2616237048846648,0.6034181098111487,2.101587682889047,-1.3887810389599031,-0.09329179919113244,0.1407896407573859,0.13882524331254464,1,left
18.084,0.5566480539438738,0.9924188118553766,-0.261369739623627,0.606020173854054,2.104192688957252,-1.3919678426720639,-0.09338386545321359,0.13890160780548771,0.1412214317697645,1,left
18.087,0.5572685964223663,0.991743922729029,-0.2611025424916202,0.6091567306461998,2.107359962712369,-1.3953802605444643,-0.09346634986824147,0.1369445590399332,0.14352208688144383,1,left
18.088,0.5579195153083671,0.9910827523633857,-0.2608232206933096,0.6128478956855322,2.1110964222263955,-1.399015257825669,-0.09353847989481155,0.13492352749994427,0.14573270914987754,1,left
18.089000000000002,0.5585998532501099,0.9904386662367447,-0.2605329692175345,0.6171101192885751,2.1154093286195015,-1.4028701381699444,-0.09359968765116047,0.13284394835309749,0.14785947746416966,1,left
18.09,0.5593082770012918,0.9898150663656964,-0.26023307080279534,0.6219559718418898,2.12030624223804,-1.4069425714632733,-0.09364961512720169,0.1307116045777987,0.1499092271980361,1,left
18.142,0.560043090981496,0.9892153785264197,-0.2599248958649805,0.6273939762524503,2.1257949749964924,-1.4112306199500448,-0.09368811743225063,0.12853257217408215,0.15188941744846693,1,left
18.145,0.5608022543604879,0.98864303970697,-0.2596099023706125,0.6334284876898886,2.131883538777418,-1.415732762410336,-0.09371526403241709,0.12631316562477174,0.15380808661746037,1,left
18.146,0.561583401079008,0.9881014857960886,-0.25928963563848284,0.6400596198938557,2.138580088900948,-1.4204479155855305,-0.09373133793894996,0.12405988389003758,0.15567379647412016,1,left
18.147000000000002,0.5623838626835005,0.9875941394287868,-0.2589657280820401,0.647283217074537,2.145892861342893,-1.4253754517793278,-0.0937368327675228,0.12177935736061718,0.15749556538520856,1,left
18.148,0.563200694218105,0.9871243976141468,-0.25863989893338224,0.6550908706829635,2.153830102716427,-1.4305152118331208,-0.0937324475617087,0.11947829633869433,0.1592827916295339,1,left
18.163,0.5640307034557674,0.9866956183639565,-0.2583139538811509,0.6634699807738837,2.162399992635598,-1.435867513163708,-0.09371907930056958,0.1171634414714931,0.16104516748393818,1,left
18.222,0.5648704832815595,0.9863111054467686,-0.25798978425931496,0.6724038619325482,2.171610558414843,-1.4414331528232345,-0.09369781305832835,0.1148415163036559,0.16279258435909286,1,left
18.224,0.5657164462693385,0.9859740909370279,-0.25766936516157135,0.6818718937878084,2.181469582127336,-1.4472134055961239,-0.09366990981077161,0.11251918197057797,0.16453502903575043,1,left
18.226,0.5665648599775378,0.9856877160337278,-0.2573547518828272,0.6918497161355679,2.1919845000467992,-1.4532100171483824,-0.09363679189120615,0.11020299407138444,0.16628247112328554,1,left
18.227,0.5674118815843335,0.9854550110069664,-0.25704807435607113,0.7023094686214428,2.2031622941264106,-1.4594251922072967,-0.0936000261130665,0.10789936198682536,0.16804474244606488,1,left
18.227999999999998,0.5682535909923011,0.985278874994433,-0.25675152951260516,0.7132200745492187,2.215009373306078,-1.4658615775603503,-0.09356130460198546,0.10561451131525901,0.16983141011391858,1,left
18.28,0.569086021992873,0.9851620561430579,-0.25646737163551386,0.7245475668667924,2.2275314395536796,-1.4725222391055393,-0.09352242339442099,0.10335445032652095,0.17165164561674773,1,left
18.282,0.5699051912583091,0.9851071325549301,-0.25619790085337857,0.7362554498713363,2.2407333340238202,-1.47941063091822,-0.09348525887917937,0.10112494103797462,0.17351409192544254,1,left
18.282,0.5707071249618394,0.9851164945322559,-0.25594544996097834,0.7483050831309412,2.254618864796277,-1.4865305525499335,-0.09345174230019854,0.09893147476455788,0.17542673065983913,1,left
18.283,0.5714878829368235,0.9851923285796107,-0.25571236977553047,0.7606560706845044,2.2691906233541204,-1.493886090039124,-0.09342383282663264,0.09677925114775254,0.17739675283340578,1,left
18.284000000000002,0.5722435805515893,0.9853366036031693,-0.255501013338989,0.7732666430940455,2.284449796487402,-1.5014815373820123,-0.09340348986118788,0.09467315927853086,0.17943043769695072,1,left
18.357,0.5729704088412378,0.9855510597505911,-0.25531371947299264,0.7860940274386237,2.3003959769770286,-1.5093212975767025,-0.09339264508990694,0.09261775987407408,0.18153304307455514,1,left
18.359,0.5736646537051464,0.9858372002004882,-0.2551527963078336,0.7990948045058474,2.3170269766071003,-1.5174097653624263,-0.0933931745229307,0.0906172681684588,0.1837087086607025,1,left
18.36,0.5743227149341956,0.9861962859745402,-0.2550205053064894,0.8122252533323806,2.3343386491454923,-1.5257511974665778,-0.09340687084946864,0.08867553792194585,0.18596037315963163,1,left
18.361,0.5749411255318153,0.9866293336680726,-0.2549190460906516,0.8254416832838917,2.3523247334663893,-1.5343495781031669,-0.09343541683128397,0.08679604774198343,0.18828970689628213,1,left
18.362000000000002,0.5755165714793614,0.9871371158600099,-0.2548505422108902,0.8387007538269676,2.3709767244584796,-1.5432084855367656,-0.09348036070047548,0.08498189130886208,0.19069706206951276,1,left
18.363,0.5760459118398866,0.9877201638120526,-0.2548170278798431,0.8519597820767281,2.390283774806897,-1.5523309620522447,-0.09354309428593226,0.08323577269945814,0.19318144227738446,1,left
18.417,0.5765261988667876,0.9883787719563008,-0.2548204355357464,0.8651770381656975,2.410232628206958,-1.561719387741068,-0.09362483415499842,0.08156000719211606,0.19574049193272425,1,left
18.419,0.576954697681694,0.9891130036677459,-0.25486258398744316,0.878312028372814,2.4308075838231566,-1.5713753582186054,-0.09372660579908168,0.07995652708043802,0.19837050545728438,1,left
18.42,0.5773289051667753,0.9899226979095551,-0.2549451668981569,0.891325765455867,2.4519904906082624,-1.5812995668327388,-0.09384923081417053,0.07842689112357107,0.20106645569457826,1,left
18.421,0.5776465678157661,0.9908074764025094,-0.2550697414379606,0.9041810247384705,2.473760767938336,-1.5914916927258813,-0.09399331701087307,0.07697229580498355,0.20382204079266875,1,left
18.422,0.5779056982049724,0.9917667509066841,-0.25523771700872583,0.9168425840068563,2.4960954478207724,-1.6019502965583483,-0.09415925140505355,0.07559358702772893,0.20662974899740302,1,left
18.486,0.5781045895632014,0.9927997301534879,-0.25545034412006135,0.9292774457670162,2.518969235134714,-1.6126727252567343,-0.09434719606973291,0.07429127169484628,0.20948094113700463,1,left
18.488,0.5782418279658065,0.9939054261167881,-0.2557087038421476,0.9414550413043418,2.5423545845257403,-1.623655026350634,-0.09455708681054646,0.07306552912879156,0.21236595049989596,1,left
18.489,0.5783163020194911,0.9950826595833266,-0.25601369856329786,0.9533474164829401,2.566221793778842,-1.6348918720167536,-0.0947886344561898,0.07191622262132956,0.21527419850445673,1,left
18.49,0.5783272101496396,0.9963300652221343,-0.2563660447550623,0.9649293993202858,2.590539113735332,-1.64637649286121,-0.09504132824178038,0.07084291184861727,0.21819432214553594,1,left
18.491,0.578274065501316,0.9976460965901863,-0.25676626813799924,0.9761787493721307,2.615272874820811,-1.6581006214715528,-0.09531444058891896,0.06984486713258688,0.22111430786151084,1,left
18.492,0.5781566983109326,0.9990290317739862,-0.25721470131547636,0.9870762886368025,2.6403876299163116,-1.6700544457723276,-0.09560703276050246,0.06892108628379788,0.22402162780687054,1,left
18.563,0.5779752556976155,1.0004769804970703,-0.2577114837677112,0.9976060120622494,2.665846311624218,-1.6822265722264766,-0.09591796118622228,0.06807031431047625,0.22690337676212535,1,left
18.565,0.5777301990154088,1.0019878933882467,-0.2582565640697137,1.0077551728134349,2.6916103989544484,-1.694603998939528,-0.0962458844502213,0.0672910659945881,0.22974640841785993,1,left
18.566,0.5774222989869661,1.0035595738347476,-0.258849704227078,1.0175143359163166,2.7176400870937143,-1.7071720990009294,-0.09658927100557613,0.06658165121850432,0.23253746853295387,1,left
18.567,0.5770526288549407,1.0051896925085464,-0.2594904859569758,1.0268773959410877,2.743894457193765,-1.7199146157345908,-0.09694640770159992,0.0659402028880924,0.23526332163081967,1,left
18.567999999999998,0.5766225558697992,1.006875803841627,-0.2601783184040464,1.0358415580717664,2.7703316490051932,-1.7328136739380877,-0.09731540918873248,0.06536470733620645,0.23791086873349626,1,left
18.567999999999998,0.5761337316229563,1.0086153625445065,-0.26091244639568917,1.0444072839556027,2.7969090424562584,-1.7458498125276052,-0.09769422822753251,0.06485303715901823,0.24046725513826772,1,left
18.62,0.57558808171014,1.0104057382399816,-0.26169195861746075,1.0525782041067668,2.823583452552895,-1.7590020423200126,-0.0980806669070487,0.06440298647575661,0.24291996807738886,1,left
18.622,0.5749877945081597,1.0122442280728101,-0.2625157960669093,1.0603610002757324,2.850311336764034,-1.7722479285642556,-0.09847238878407492,0.0640123085467953,0.2452569242911781,1,left
18.623,0.5743353079663577,1.0141280687744318,-0.2633827617550888,1.0677652650898224,2.8770490082363946,-1.785563693431791,-0.09886693200707077,0.06367875536820156,0.2474665476578801,1,left
18.624000000000002,0.573633293350368,1.0160544494832522,-0.26429153225266133,1.0748033485835158,2.903752845515069,-1.7989243317082555,-0.09926172358259558,0.06340011829041642,0.2495378372275359,1,left
18.624000000000002,0.5728846358075971,1.0180205256325292,-0.2652406708714137,1.0814901988372243,2.9303794917964234,-1.8123037346277138,-0.09965409499436778,0.06317426839189642,0.2514604261201715,1,left
18.695999999999998,0.5720924124236806,1.0200234337143026,-0.26622864166019433,1.0878431996243714,2.9568860409699753,-1.8256748198490247,-0.10004129933282069,0.0629991956557222,0.2532246316348456,1,left
18.698,0.5712598684723529,1.0220603066052416,-0.2672538231614482,1.0938820055667762,2.9832302100558485,-1.839009667272871,-0.10042052999898061,0.06287304656795617,0.2548214967115713,1,left
18.699,0.570390392086541,1.024128289094755,-0.2683145210637001,1.0996283748175923,3.009370498114209,-1.8522796607378293,-0.10078894099423821,0.06279416007369379,0.25624282277429544,1,left
18.699,0.5694874872645642,1.0262245532922054,-0.26940897935818847,1.1051059992900936,3.03526633170274,-1.8654556356338357,-0.10114366875969741,0.06276110187754065,0.25748119407261333,1,left
18.7,0.5685547452045983,1.0283463135187716,-0.27053539002331084,1.1103403324496997,3.060878196957738,-1.8785080324712875,-0.10148185534165424,0.06277269701158186,0.2585299942025628,1,left
18.701,0.5675958141442453,1.0304908401206827,-0.2716919014235498,1.1153584143425648,3.0861677585737697,-1.8914070563447938,-0.1018006723229302,0.06282806047919574,0.259383416500002,1,left
18.757,0.5666143679749709,1.0326554716594964,-0.2728766255844201,1.1201886919506738,3.111097966916974,-1.9041228415379976,-0.10209734477263589,0.06292662571939003,0.26003647056269646,1,left
18.759,0.5656140739018707,1.034837625126088,-0.27408764442368944,1.1248608305414685,3.135633156111818,-1.916625618638801,-0.10236917464791623,0.0630681706517199,0.2604849866290883,1,left
18.76,0.5645985593463887,1.0370348039940511,-0.2753230149662136,1.1294055111654513,3.1597391365909706,-1.928885879265124,-0.1026135633875367,0.0632528409340562,0.2607256187051838,1,left
18.761,0.5635713782758057,1.0392446039888477,-0.2765807735782886,1.1338542118387887,3.1833832844035075,-1.9408745330107788,-0.10282803356943584,0.06348116969242021,0.2607558470871041,1,left
18.762,0.5625359773745541,1.0414647164207291,-0.27785893935806927,1.138238972368703,3.206534627970011,-1.9525630530971654,-0.10301024951128734,0.06375409275221783,0.26057398099131296,1,left
18.831,0.5614956628887647,1.0436929289865795,-0.279155517022709,1.1425921432930304,3.229163932321114,-1.9639236094845574,-0.10315803672346945,0.06407295864309995,0.26017916182625617,1,left
18.833,0.5604535692178928,1.0459271242259347,-0.2804684998299656,1.1469461190803776,3.2512437808485797,-1.9749291892803043,-0.10326940017853316,0.06443953308678463,0.2595713673187156,1,left
18.834,0.5594126301212301,1.0481652761557216,-0.28179587308046977,1.151333055603542,3.272748654635373,-1.9855537044774645,-0.10334254139160139,0.06485599792007431,0.2587514165298902,1,left
18.835,0.5583755529347242,1.050405445772968,-0.2831356185105702,1.1557845718987707,3.2936550094296626,-1.9957720870564508,-0.10337587431211923,0.06532494445398801,0.2577209757600701,1,left
18.836,0.5573447959284713,1.0526457761295462,-0.2844857195326919,1.1603314367220305,3.3139413500129837,-2.0055603716200996,-0.10336804002727139,0.06584936127006616,0.25648256534015906,1,left
18.837,0.5563225490679048,1.0548844876544758,-0.2858441670134093,1.1650032429065234,3.3335883001454176,-2.0148957664257723,-0.103317920271654,0.06643261642032137,0.2550395672922661,1,left
18.894000000000002,0.5553107186560522,1.0571198742785364,-0.2872089652348831,1.1698280770132192,3.352578663450609,-2.0237567149266362,-0.10322464970957453,0.06707843382381698,0.2533962337638465,1,left
18.896,0.5543109162967641,1.0593503006657081,-0.2885781378203833,1.1748321942594173,3.370897469035936,-2.0321229506273197,-0.10308762690565834,0.06779086334045697,0.2515576960004299,1,left
18.897000000000002,0.553324452325823,1.0615742005812059,-0.2899497335538235,1.1800397062177304,3.388531997207051,-2.0399755473635577,-0.102906523863711,0.06857424394993701,0.24952997337851993,1,left
18.898,0.5523523334130378,1.0637900762294978,-0.29132183208782764,1.1854722842909762,3.4054717834524353,-2.0472969658643754,-0.10268129400421283,0.06943316024182321,0.2473199812681648,1,left
18.898,0.5513952635965844,1.065996498298812,-0.2926925495318702,1.1911488797906036,3.421708600714072,-2.0540710968818017,-0.10241217843369045,0.07037239382302579,0.2449355351414177,1,left
18.964000000000002,0.5504536478282297,1.0681921064275854,-0.29406004389141566,1.1970854625212863,3.437236421654768,-2.0602833016434734,-0.10209971034963511,0.07139687202697599,0.24238534759085426,1,left
18.965,0.5495275973727198,1.0703756098102075,-0.2954225203441666,1.203294782606403,3.4520513651204885,-2.065920451481242,-0.10174471746767846,0.07251161573956653,0.23967901576586795,1,left
18.967,0.5486169370610879,1.0725457876013855,-0.29677823640843914,1.2097861618628403,3.466151632377329,-2.070970969098018,-0.10134832242519697,0.07372168706959772,0.23682699822553321,1,left
18.972,0.5477212150409955,1.074701488572537,-0.29812550710079333,1.2165653195598978,3.479537437359406,-2.0754248731280933,-0.10091194115293946,0.07503213698752165,0.23384058103500147,1,left
18.973,0.5468397158315298,1.0768416291910965,-0.2994627101166991,1.2236342350595595,3.4922109328819007,-2.079273825571841,-0.10043727920537016,0.0764479528779917,0.23073183308932027,1,left
18.973,0.5459714771981081,1.078965189233456,-0.3007882909583807,1.2309910491508282,3.504176133765886,-2.0825111793211244,-0.09992632599884815,0.07797400566346845,0.2275135506063592,1,left
18.991,0.545115310974246,1.0810712043862774,-0.30210076785443013,1.2386300060701843,3.515438837752672,-2.085132021894476,-0.09938134683203527,0.07961499563706642,0.22419919065492164,1,left
19.03,0.5442698275515852,1.0831587558900462,-0.3033987362346927,1.246541437707905,3.526006544873553,-2.087133212472797,-0.09880487252136277,0.0813753958545989,0.2208027935419823,1,left
19.032,0.5434334632203445,1.0852269578426823,-0.30468087242887826,1.254711790613145,3.5358883755611368,-2.0885134110767463,-0.09819968653464582,0.08325939240519344,0.21733889399925124,1,left
19.032,0.5426045090852134,1.0872749430245574,-0.30594593621831195,1.2631236959183267,3.5450949875765807,-2.0892730996986644,-0.0975688096250021,0.08527082230238124,0.21382242155813905,1,left
19.033,0.541781140256009,1.08930184800384,-0.30719277193205147,1.2717560822641727,3.5536384913105366,-2.0894145954607852,-0.0969154820887835,0.08741311165155934,0.21026859121681815,1,left
19.111,0.5409614443274932,1.0913067981431062,-0.3084203079083626,1.2805843315530345,3.5615323609698035,-2.0889420560259735,-0.09624314382398819,0.08968921771063132,0.20669278588516973,1,left
19.112000000000002,0.540143448500811,1.0932888930776987,-0.30962755426233146,1.2895804751485787,3.5687913365018042,-2.0878614772103266,-0.09555541232099693,0.09210157755815113,0.2031104317193264,1,left
19.113,0.5393251449509533,1.095247193150833,-0.3108135989708718,1.2987134235053264,3.5754313116156933,-2.0861806815106276,-0.09485605863722418,0.09465206445854613,0.19953686678434635,1,left
19.113,0.5385045142165044,1.0971807072627733,-0.3119776023570959,1.3079492191809412,3.5814692072151835,-2.083909295058498,-0.09414898136266997,0.09734195211153249,0.1959872031095652,1,left
19.113,0.5376795465192291,1.0990883827292008,-0.31311879017585487,1.317251305394896,3.58692283221432,-2.0810587107864733,-0.09343817859012016,0.10017188672251298,0.19247618235232639,1,left
19.114,0.5368482610889774,1.1009690978355802,-0.31423644562282593,1.3265808069327392,3.5918107331970353,-2.077642036824082,-0.09272771798228256,0.10314186648042219,0.18901802641560703,1,left
19.165,0.5360087237798903,1.102821657605891,-0.3153299006499677,1.3358968228748145,3.5961520332569337,-2.07367402994357,-0.09202170516955785,0.10625122739858692,0.18562628639875003,1,left
19.166,0.5351590634770049,1.104644792958518,-0.3163985270091598,1.345156731176073,3.599966260033009,-2.0691710140471122,-0.09132425084117263,0.10949863413102269,0.18231369455893806,1,left
19.166,0.5342974879368232,1.1064371631222985,-0.31744172748901944,1.3543165051236945,3.6032731629553756,-2.064150783685735,-0.09063943706615898,0.11288207476357288,0.17909202367401136,1,left
19.166,0.5334222996783496,1.1081973610397204,-0.31845892778453677,1.3633310416991828,3.6060925197135267,-2.058632492598571,-0.0899712836934375,0.11639885927554841,0.1759719576804895,1,left
19.166,0.5325319123658695,1.1099239214332792,-0.3194495693300634,1.3721545014445502,3.608443932560138,-2.052636527368498,-0.08932371585404049,0.12004562175450549,0.17296297717369974,1,left
19.244,0.5316248679220298,1.1116153311783223,-0.3204131033057596,1.3807406572974201,3.6103466180720254,-2.0461843668333817,-0.08870053332050476,0.12381832648146852,0.1700732622886058,1,left
19.246,0.5306998544124858,1.113270041597677,-0.32134898590921085,1.3890432460173916,3.6118191994066025,-2.0392984288711435,-0.0881053820243178,0.12771227793973058,0.16730961396352473,1,left
19.246,0.5297557245168717,1.1148864822277125,-0.3222566748300231,1.3970163136909661,3.612879513100872,-2.032001906720168,-0.0875417277800313,0.13172213476487193,0.16467739374662685,1,left
19.247,0.5287915141345519,1.1164630754700713,-0.3231356266796113,1.4046145489361492,3.613544439448664,-2.0243185964505925,-0.08701283222243791,0.1358419276930304,0.16218048219671244,1,left
19.248,0.5278064604479551,1.1179982514560383,-0.3239852949827322,1.4117936014608248,3.613829760058204,-2.0162727165621077,-0.08652173100417856,0.14006508179583546,0.15982125622901566,1,left
19.249000000000002,0.5268000187182287,1.1194904625560207,-0.32480512833093367,1.4185103867212103,3.6137500431095644,-2.0078887218468053,-0.08607121437484323,0.1443844437066039,0.1576005862951797,1,left
19.304000000000002,0.5257718771404322,1.1209381972076817,-0.3255945684232528,1.4247233795781094,3.6133185561001215,-1.9991911166213345,-0.08566381029274694,0.14879231464804976,0.1555178544265779,1,left
19.305999999999997,0.5247219690367924,1.1223399929313187,-0.3263530478644337,1.4303929008061467,3.6125472057937267,-1.9902042741403476,-0.08530177012542176,0.15328048921257034,0.15357099307538669,1,left
19.307000000000002,0.523650481684186,1.123694448508296,-0.3270799877683505,1.4354813993511788,3.61144650515957,-1.9809522672934827,-0.08498705682353368,0.15784029829937088,0.15175654271691782,1,left
19.307000000000002,0.5225578614022546,1.1250002354542656,-0.3277747955333706,1.4399537315040358,3.610025567213984,-1.9714587126114644,-0.08472133535780677,0.1624626537534575,0.1500697250819485,1,left
19.308,0.5214448148570685,1.126256109195379,-0.3284368635151143,1.443777436848503,3.6082921253590987,-1.961746627803727,-0.08450596525484645,0.16713809283400707,0.14850452962465907,1,left
19.379,0.5203123065005576,1.1274609205942585,-0.3290655694605586,1.4469230088978797,3.6062525778774557,-1.9518383022395578,-0.08434199516573251,0.17185682177104697,0.14705381226543968,1,left
19.381,0.5191615519664754,1.1286136285134856,-0.3296602794301839,1.4493641551823933,3.6039120507340825,-1.941755178941851,-0.08423015945574974,0.1766087582980125,0.14570940624445422,1,left
19.383,0.5179940075133136,1.129713313963478,-0.3302203535892577,1.4510780397977119,3.6012744708885074,-1.931517746194029,-0.08417087681463979,0.18138357317359166,0.14446224508145017,1,left
19.384,0.5168113561091482,1.130759195907839,-0.3307451545280379,1.4520455031730377,3.598342644266449,-1.9211454373280277,-0.08416425086144978,0.18617073077830404,0.1433024973527661,1,left
19.385,0.5156154911344123,1.1317506477606,-0.33123405671649847,1.4522512569655361,3.5951183360466943,-1.9106565381029468,-0.08421007259092643,0.1909595292309185,0.14221971157247754,1,left
19.386,0.5144084990125554,1.1326872123418164,-0.3316864551101461,1.451684053372738,3.591602352898169,-1.900068101730874,-0.0843078242794591,0.1957391411170924,0.14120296690113304,1,left
19.442,0.5131926425473726,1.1335686122858417,-0.3321017713535736,1.4503368266863597,3.587794627351991,-1.8893958725968634,-0.08445668436168027,0.20049865620540844,0.1402410238615263,1,left
19.444000000000003,0.5119703468050132,1.1343947532824676,-0.3324794569835749,1.4482068016398546,3.583694304782273,-1.878654221334811,-0.0846555330174093,0.20522712678240085,0.13932247006577878,1,left
19.445,0.5107441882172034,1.1351657194693108,-0.3328189940263206,1.4452955612837168,3.579299833629596,-1.8678560948179663,-0.08490295861994261,0.20991361489967428,0.1384358574424942,1,left
19.445,0.5095168856048526,1.1358817629225701,-0.3331198942701002,1.4416090689364112,3.5746090593392412,-1.8570129837252967,-0.08519726542526729,0.21454724008257364,0.1375698282775108,1,left
19.445999999999998,0.5082912907958604,1.1365432906503623,-0.3333816988003612,1.4371576425309383,3.5696193219690238,-1.846134908506418,-0.08553648280622081,0.21911722636188627,0.13671322826647175,1,left
19.483,0.507070377448778,1.1371508522616565,-0.33360397893839067,1.4319558840180224,3.5643275561267376,-1.8352304225544214,-0.08591837615368642,0.22361294818118446,0.13585520585699573,1,left
19.484,0.505857228213511,1.1377051303751817,-0.33378633895469073,1.4260225713967467,3.558730389824872,-1.8243066292076313,-0.08634045946589544,0.22802397511629177,0.13498529775799428,1,left
19.51,0.5046550206522561,1.138206934211069,-0.33392842008418017,1.419380523468401,3.5528242377064285,-1.8133692080852863,-0.08680000962680634,0.23234011541997762,0.1340935006136523,1,left
19.517,0.5034670117470613,1.1386571953800586,-0.33402990485695777,1.4120564448800277,3.546605385227758,-1.8024224473779966,-0.08729408237064834,0.2365514584065646,0.13317032897273068,1,left
19.518,0.5022965206223131,1.1390569648376552,-0.33409052105381926,1.4040807544732274,3.5400700624227803,-1.7914692807224764,-0.0878195299098129,0.24064841569984352,0.13220686034955076,1,left
19.518,0.5011469093601959,1.1394074108091992,-0.33411004521251364,1.3954873974791222,3.5332145072859733,-1.7805113286818057,-0.08837302016734912,0.24462176138353897,0.13119476937127947,1,left
19.579,0.5000215618699257,1.1397098177030915,-0.3340883057712069,1.3863136418654483,3.526035020441916,-1.7695489464549068,-0.0889510575353979,0.24846267110222184,0.1301263536717775,1,left
19.58,0.4989238607235309,1.1399655855577187,-0.3340251857459038,1.3765998596303286,3.518528015296773,-1.7585812819215842,-0.0895500051010092,0.25216276015128297,0.12899455352642608,1,left
19.581,0.49785716202589225,1.140176229300072,-0.33392062473454426,1.3663892941079574,3.510690069270902,-1.7476063495087355,-0.09016610831690156,0.2557141205781095,0.12779296602388854,1,left
19.582,0.49682476861273633,1.1403433772535876,-0.3337746200823452,1.3557278140773157,3.5025179803061235,-1.7366211239840574,-0.0907955200802728,0.2591093572893292,0.12651585399478946,1,left
19.583,0.49582990187099074,1.1404687686329942,-0.33358722713826466,1.3446636549066584,3.494008830293372,-1.7256216553664436,-0.09143432701413351,0.2623416230670889,0.12515815023357305,1,left
19.645,0.4948756723377889,1.1405542499669132,-0.333358558622953,1.33324714636066,3.485160055568948,-1.7146032025909292,-0.09207857643482291,0.26540465223543575,0.12371545835889203,1,left
19.647000000000002,0.49396504927801055,1.1406017703656985,-0.3330887831546743,1.3215304260437521,3.475969524180376,-1.7035603793804508,-0.09272430331670434,0.2682927926277182,0.12218405210726857,1,left
19.648,0.493100829770296,1.140613375381126,-0.33277812298287807,1.3095671371200535,3.466435619530064,-1.692487303604585,-0.09336755673776478,0.2710010355951625,0.12056087440493288,1,left
19.656,0.49228560819356104,1.1405911991731943,-0.33242685109247566,1.2974121092812725,3.4565573300958348,-1.6813777435774384,-0.09400442560072002,0.27352504395776356,0.11884353675321357,1,left
19.658,0.4915217471047139,1.1405374549462546,-0.33203528806271837,1.2851210225306575,3.4463343450917043,-1.6702252586564785,-0.09463106359935097,0.27586117780924513,0.11703031902786573,1,left
19.658,0.4908113503312225,1.1404544238954388,-0.33160379919647415,1.272750053783183,3.4357671557629326,-1.6590233336240756,-0.09524371344642725,0.2780065177123084,0.11512016977689371,1,left
19.712,0.4901562388368636,1.140344442952955,-0.33113279235043264,1.2603555068521748,3.4248571607255873,-1.6477655065077856,-0.09583873040132979,0.27995888411253733,0.11311270723499506,1,left
19.714000000000002,0.48955792969500017,1.1402098915678756,-0.3306227167081207,1.2479934272996749,3.413606771417815,-1.6364454890272453,-0.0964126051475521,0.2817168514058311,0.11100822134683191,1,left
19.715,0.4890176184367315,1.140053177871378,-0.3300740625957404,1.235719204131792,3.4020195124278865,-1.6250572785953734,-0.09696198603286557,0.2832797554911526,0.1088076769764599,1,left
19.715999999999998,0.48853616513262427,1.1398767248382335,-0.3294873623298356,1.223587159816044,3.390100112764234,-1.613595261061445,-0.09748370053682127,0.2846476943696885,0.10651271814490226,1,left
19.717,0.4881140846865658,1.1396829571246085,-0.32886319194730107,1.2116501296886981,3.3778545863640352,-1.6020543039063224,-0.09797477559078444,0.28582152178447645,0.10412567270101844,1,left
19.778,0.4877515418609044,1.1394742890064393,-0.3282021735449589,1.1999590338082051,3.365290300888307,-1.5904298401342185,-0.09843245624692123,0.2868028339951218,0.1016495566144454,1,left
19.78,0.4874483513896388,1.1392531135104147,-0.3275049779197981,1.1885624486960111,3.3524160331229296,-1.5787179436508243,-0.0988542223187659,0.2875939497591342,0.09908807728034531,1,left
19.781,0.4872039830332864,1.1390217926629589,-0.3267723272382135,1.1775061888985876,3.339242008755314,-1.5669153971916572,-0.09923780284322682,0.28819788355029924,0.09644563558763808,1,left
19.791,0.48701757072981783,1.1387826487609634,-0.32600499750479606,1.1668329062988132,3.3257799251121307,-1.5550197537235617,-0.09958118834008424,0.2886183120214159,0.09372732670336799,1,left
19.793,0.4868879245619893,1.13853795657341,-0.32520382064348446,1.156581713048015,3.3120429577696187,-1.543029392416177,-0.09988264087536998,0.288859533836829,0.09093893939832133,1,left
19.794,0.4868135444152308,1.138289936364073,-0.32436968608024636,1.1467878358692636,3.298045754906463,-1.5309435712076978,-0.10014070196083348,0.2889264236154029,0.08808695290110947,1,left
19.842,0.4867926348067763,1.1380407475586016,-0.32350354180426366,1.13748231141316,3.2838044247173537,-1.518762478601954,-0.10035419836824237,0.28882438183241116,0.08517852875990763,1,left
19.843,0.48682312105475734,1.1377924827036558,-0.32260639494749377,1.128691729920599,3.269336519865351,-1.5064872866657564,-0.10052224596306851,0.28855928314405527,0.08222149435316795,1,left
19.85,0.486902667430386,1.1375471610855687,-0.3216793119475913,1.1204380300779873,3.2546610205399036,-1.4941202059931438,-0.10064425163606382,0.288137424982073,0.0792243155281164,1,left
19.851,0.487028698012528,1.137306721169835,-0.32072341831980283,1.1127383452762478,3.2397983163224584,-1.4816645425001536,-0.1007199133644437,0.28756547715706027,0.0761960573534893,1,left
19.851,0.4871984206628682,1.1370730110940928,-0.31973989796835695,1.1056048997628936,3.2247701866679366,-1.4691247546051627,-0.1007492184017413,0.2868504325080365,0.0731463328560093,1,left
19.913,0.4874088541409473,1.1368477767935907,-0.31872999190138046,1.0990449509497264,3.209599779584465,-1.45650650723504,-0.1007324395570653,0.28599955808782856,0.07008524000507259,1,left
19.915,0.4876568580300849,1.1366326478189943,-0.31769499621525454,1.0930607729023758,3.1943115879680453,-1.443816717922356,-0.10067012946493702,0.2850203456095754,0.0670232876196242,1,left
19.916,0.4879391647112493,1.1364291214169533,-0.31663625921916577,1.0876496772774256,3.178931423173547,-1.431063591433394,-0.10056311271373511,0.28392045945488803,0.06397131109868993,1,left
19.929000000000002,0.4882524121659653,1.136238545833919,-0.31555517755871215,1.082804070309042,3.163486385212588,-1.4182566415375246,-0.10041247573365945,0.2827076809681673,0.06094037864944949,1,left
19.930999999999997,0.4885931762616765,1.1360621039047871,-0.31445319123895327,1.0785115462178796,3.1480048270151677,-1.4054066999854675,-0.10021955440441979,0.2813898485250544,0.05794168827714023,1,left
19.932000000000002,0.4889580014551861,1.1359007978514757,-0.31333177752984376,1.0747550186205992,3.1325163064753156,-1.3925259135071009,-0.09998591937987981,0.2799747934754791,0.05498645567585002,1,left
19.977,0.4893434292605995,1.1357554360427133,-0.31219244377203903,1.0715128920512482,3.117051517922314,-1.3796277299217514,-0.09971335915405814,0.278470273088707,0.05208579362526665,1,left
19.979,0.4897460242094416,1.13562662234557,-0.3110367191155379,1.068759275176026,3.101642196737471,-1.3667268741713554,-0.0994038609300132,0.2768839033237909,0.04925058441916996,1,left
19.988,0.49016239745509754,1.1355147485876433,-0.3098661453220507,1.0664642363281591,3.0863209945777883,-1.353839314578428,-0.09905958937371538,0.27522309519094385,0.04649134736303609,1,left
19.99,0.4905892285718123,1.1354199904729905,-0.3086822669298781,1.064594101459777,3.0711213247464375,-1.3409822193483034,-0.09868286333655485,0.2734949974839284,0.04381810310281585,1,left
19.991,0.4910232862210122,1.1353423070547601,-0.30748662118113046,1.063111793791598,3.056077178166261,-1.328173903203208,-0.09827613070452523,0.27170644675315786,0.041240236806485975,1,left
20.006,0.49146144816882825,1.1352814436760754,-0.306280728060715,1.0619772108864844,3.0412229129146784,-1.3154337636586941,-0.09784194171247243,0.269863924061646,0.03876636383268583,1,left
20.043,0.49190072089146986,1.1352369382037375,-0.3050660806709745,1.0611476284732329,3.0265930247822586,-1.302782205774337,-0.09738292116931113,0.2679735176634106,0.036404202598681684,1,left
20.065,0.4923382588861616,1.1352081302765853,-0.3038441360993618,1.060578116791996,3.012221908819612,-1.2902405538336639,-0.09690173992828033,0.2660408909576212,0.03416045818019738,1,left
20.067,0.4927713837695503,1.135194173096767,-0.30261630694334735,1.0602219587898045,2.998143619335849,-1.2778309487855564,-0.0964010857843349,0.26407125545772275,0.03204071817481437,1,left
20.067999999999998,0.49319760319836503,1.1351940471273763,-0.3013839536442842,1.0600310658964283,2.984391631308991,-1.2655762309583432,-0.0958836341151793,0.26206934873421106,0.030049361795101693,1,left
20.067999999999998,0.4936146295656636,1.1352065750255373,-0.30014837768866026,1.0599563904795717,2.970998604183193,-1.2534998081038708,-0.09535201900324068,0.2600394173426889,0.02818948402738475,1,left
20.11,0.4940203983031454,1.1352304371761086,-0.2989108155811161,1.059948333849908,2.9579961511065442,-1.2416255097480553,-0.09480880582204752,0.2579852047544469,0.026462837306529124,1,left
20.111,0.49441308541296486,1.135264187245453,-0.29767243334781956,1.0599571469943903,2.9454146213053014,-1.2299774303430075,-0.09425646602420734,0.2559099443009962,0.024869792543368015,1,left
20.125,0.4947911235257472,1.1353062673054095,-0.2964343212709837,1.0599333202762966,2.933282905869899,-1.2185797645597598,-0.09369735443171814,0.25381635709086997,0.02340932020255361,1,left
20.125999999999998,0.49515321550314867,1.1353550223157263,-0.29519748865145384,1.0598279592809736,2.921628274650756,-1.2074566372177813,-0.09313368911702413,0.2517066546375796,0.022078991345790958,1,left
20.127,0.4954983447242997,1.1354087140140323,-0.2939628586438831,1.0595931456881214,2.9104762470300467,-1.1966319290371255,-0.0925675339750369,0.24958254555185783,0.020874998128613854,1,left
20.177,0.4958257817471675,1.1354655344311166,-0.29273126349683115,1.059182283038167,2.8998504952990762,-1.186129099592106,-0.09200078412025707,0.24744524543763213,0.019792193070152807,1,left
20.178,0.49613508757704894,1.135523619301508,-0.29150344074341217,1.0585504275317585,2.8897727762297296,-1.1759710105418684,-0.09143515420918412,0.24529548934475812,0.018824146584803265,1,left
20.203,0.4964261139275966,1.1355810616666115,-0.2902800309999043,1.0576546040475232,2.880262884970524,-1.1661797532498255,-0.09087216972711318,0.24313354651605087,0.01796322256941953,1,left
20.205,0.4966990006734643,1.1356359260577653,-0.28906157800067844,1.0564541075162546,2.87133862685867,-1.1567764838691077,-0.09031316121531822,0.2409592373663265,0.01720067175717618,1,left
20.206,0.4969541705062373,1.1356862637482383,-0.28784853127475474,1.0549107897053962,2.863015805367991,-1.147781267107793,-0.08975926126202395,0.2387719526067527,0.01652674132380192,1,left
20.206,0.4971923208615712,1.1357301295700608,-0.28664125154884673,1.0529893309894574,2.8553082255396576,-1.1392129287675417,-0.08921140381811063,0.23657067430698162,0.015930796964949454,1,left
20.243,0.4974144133775611,1.135765600708064,-0.28544001872015057,1.0506574945168305,2.848227710866842,-1.1310889165159927,-0.08867032525269382,0.234353998620396,0.01540145240416398,1,left
20.245,0.49762166129693175,1.135790797589991,-0.28424504205675444,1.0478863563035044,2.841784128601149,-1.1234251675854319,-0.088136566709549,0.23212015996486793,0.014926702550747049,1,left
20.261,0.49781551543767943,1.1358039059946625,-0.28305647188489075,1.0446505027835098,2.8359854170587613,-1.1162359820480463,-0.08761047758783194,0.2298670565721762,0.014494058794281593,1,left
20.262,0.4979976496816017,1.1358031978570913,-0.28187441138722236,1.0409281902768868,2.8308376115639984,-1.1095339026656417,-0.08709222010439463,0.22759227744942784,0.014090685978665078,1,left
20.262999999999998,0.4981699470189149,1.1357870474787088,-0.2806989269305895,1.0367014661125116,2.826344871174179,-1.103329606536316,-0.08658177486425594,0.225293131124885,0.013703539832118455,1,left
20.31,0.498334486694678,1.1357539412895523,-0.27953005618187415,1.0319562540739242,2.82250951138952,-1.0976318161082392,-0.08607894725794585,0.22296667711877952,0.013319501796546302,1,left
20.311,0.4984935320748806,1.1357024819989388,-0.2783678146279746,1.0266824064887778,2.819332046998973,-1.092447235298462,-0.0855833744445403,0.22060976139532038,0.012925507181255801,1,left
20.340999999999998,0.49864951808285096,1.1356313897187282,-0.2772122018188642,1.0208737238822823,2.8168112467153703,-1.0877805130018152,-0.0850945327610997,0.21821905664051391,0.012508663591066484,1,left
20.343,0.4988050370639484,1.1355395025841537,-0.2760632083655972,1.014527942336413,2.8149441998665807,-1.083634234357359,-0.08461174561685389,0.21579110716296238,0.012056358444696724,1,left
20.343,0.4989628226108416,1.1354257784174868,-0.27492082403794177,1.0076466885397213,2.813726395133545,-1.080008939757494,-0.08413419218796701,0.21332237703657803,0.011556355476474522,1,left
20.344,0.49912573144637634,1.1352892979022124,-0.27378504662758224,1.000235402992729,2.8131518108434674,-1.076903171217371,-0.0836609173504655,0.21080929956177588,0.01099688035067781,1,left
20.378,0.4992967235395162,1.1351292686219425,-0.27265589069326,0.9923032342407443,2.8132130139059517,-1.074313543878886,-0.08319084317918306,0.20824832660074052,0.010366695485075943,1,left
20.398,0.499478840469983,1.1349450287966694,-0.2715333952283447,0.9838629113394881,2.8139012601214786,-1.0722348371043444,-0.08272278214304561,0.20563597720469906,0.009655164121369684,1,left
20.399,0.4996751819161905,1.1347360502640789,-0.2704176297687388,0.974930603845746,2.815206586627016,-1.0706600977667347,-0.08225545201728357,0.20296888543014507,0.008852303647424741,1,left
20.4,0.4998888801318718,1.1345019411610278,-0.2693086989403084,0.9655257746151383,2.817117891947379,-1.0695807501658974,-0.08178749248561983,0.20024384732062436,0.007948828288657112,1,left
20.401,0.5001230723836231,1.1342424487099192,-0.2682067455482833,0.9556710234721117,2.8196230075863338,-1.0689867102788968,-0.08131748327749366,0.19745786695042383,0.006936181881653817,1,left
20.442999999999998,0.5003808714064694,1.1339574620151964,-0.26711195225198603,0.9453919158072247,2.822708769795207,-1.068866503875205,-0.08084396345499387,0.19460820128212808,0.005806562515575288,1,left
20.445,0.5006653339842037,1.1336470145125814,-0.26602454188491936,0.9347167912740154,2.826361098363343,-1.0692073884216717,-0.08036545133617859,0.19169240350971972,0.0045529414225557955,1,left
20.475,0.5009794279239488,1.133311285570638,-0.26494477652377213,0.9236765506368991,2.830565085173124,-1.069995478746783,-0.07988046466944757,0.1887083646388466,0.003169077902048747,1,left
20.477,0.5013259980236265,1.1329506006185197,-0.2638729554195186,0.9123044204205778,2.8353050929843175,-1.0712158764590423,-0.07938754088176923,0.18565435316719592,0.0016495310470105112,1,left
20.477999999999998,0.5017077319610009,1.1325654291938922,-0.2628094119213208,0.9006356953303623,2.8405648644582113,-1.0728528031204265,-0.07888525724033887,0.18252905264423608,-1.0331276471418282e-05,1,left
20.479,0.5021271271173277,1.132156380522831,-0.2617545095783603,0.8887074584747735,2.846327641246722,-1.0748897369178918,-0.07837225059265282,0.1793315966109171,-0.0018143253600205395,1,left
20.51,0.5025864591478826,1.1317241965870601,-0.26070863768076685,0.8765582797359006,2.8525762920389046,-1.0773095512809037,-0.07784723623875454,0.17606160025610862,-0.0037654453785621765,1,left
20.534000000000002,0.5030877528439359,1.1312697429559553,-0.2596722065717529,0.8642278931992469,2.8592934467770763,-1.0800946515608931,-0.07730902560058858,0.17271918828996172,-0.005865857075367013,1,left
20.535,0.5036327556614287,1.130793997863673,-0.25864564311734495,0.851756854869113,2.8664616333219155,-1.0832271045934394,-0.07675654256409065,0.16930501876037216,-0.00811689109189319,1,left
20.535999999999998,0.5042229141811055,1.1302980400833085,-0.25762938674056757,0.8391861815798779,2.8740634137815797,-1.086688757261333,-0.07618883853357909,0.16582030236060585,-0.010519035989148183,1,left
20.535999999999998,0.5048593536429073,1.1297830361058419,-0.25662388636227956,0.826556971816509,2.8820815190610163,-1.0904613425125596,-0.07560510635519126,0.1622668161939305,-0.01307193120939813,1,left
20.576,0.5055428605953625,1.1292502270522087,-0.2556295984370251,0.8139100106951811,2.8904989794135516,-1.0945265725924218,-0.07500469331883174,0.15864691061937355,-0.01577436030841343,1,left
20.578000000000003,0.5062738687221616,1.1287009157214953,-0.25464698609383674,0.80128536462699,2.8992992458875104,-1.0988662195234722,-0.07438711339529208,0.15496350814404375,-0.018624244707941467,1,left
20.612,0.5070524481230362,1.1281364541860799,-0.253676519230228,0.7887219735180532,2.9084662960561203,-1.1034621831309088,-0.07375205877018041,0.15122009394199037,-0.021618638072853903,1,left
20.615,0.5078782985944152,1.1275582322891662,-0.2527186753032662,0.7762572488936141,2.917984720149644,-1.108296548179839,-0.0730994106834879,0.1474206979209044,-0.024753721336913562,1,left
20.615,0.5087507474394515,1.1269676672220046,-0.2517739405666547,0.7639266872956982,2.927839788622961,-1.1133516344738361,-0.07242924954608092,0.1435698684617023,-0.028024798514524697,1,left
20.616,0.5096687519165152,1.126366194123168,-0.25084281158037486,0.7517635088384144,2.9380175049224233,-1.1186100450328589,-0.07174186416967632,0.13967263863394067,-0.031426294082159925,1,left
20.643,0.5106309058864377,1.1257552574900895,-0.24992579687323482,0.7397983280473017,2.948504646538906,-1.1240547161918764,-0.07103775970437913,0.13573448691038847,-0.034951753876208594,1,left
20.671,0.5116354498429342,1.1251363031641024,-0.2490234186352582,0.728058860023914,2.959288795737378,-1.129668971048159,-0.07031766374313135,0.1317612950820153,-0.03859385210029625,1,left
20.675,0.5126802834483424,1.1245107706786908,-0.2481362142985889,0.716569663648402,2.9703583610255255,-1.1354365758223703,-0.0695825301897546,0.12775930536441657,-0.04234440645784032,1,left
20.676,0.513762979974716,1.123880085805481,-0.24726473788603034,0.7053519249611857,2.9817025914648836,-1.1413417973863045,-0.06883354074316035,0.12373507730590924,-0.04619440260460645,1,left
20.677,0.5148808025168603,1.1232456531518982,-0.2464095610720161,0.6944232849239116,2.993311586619885,-1.1473694596230188,-0.06807210400925721,0.1196954441411158,-0.05013402908477652,1,left
20.712,0.5160307222591773,1.12260884851241,-0.2455712739471939,0.6837977147021423,3.0051763042499644,-1.1535049968731368,-0.06729985229248948,0.11564746793802375,-0.05415272412646015,1,left
20.714000000000002,0.5172094392451287,1.1219710102846003,-0.24475048541822356,0.6734854397077513,3.0172885666066174,-1.1597345037791489,-0.06651863610539054,0.11159839304657782,-0.058239235331571264,1,left
20.749000000000002,0.5184134059265995,1.1213334290143486,-0.24394782304245022,0.6634929123538809,3.029641065211774,-1.1660447813730648,-0.0657305164101803,0.10755559764505611,-0.06238169268091757,1,left
20.750999999999998,0.5196388534296611,1.1206973345221578,-0.24316393206545295,0.6538228321271672,3.042227362380314,-1.172423379098517,-0.06493775458729724,0.10352654343222181,-0.06656769487135132,1,left
20.752,0.5208818202500001,1.1200638807973284,-0.2423994735481611,0.6444742095356172,3.0550418850934378,-1.1788586319689434,-0.06414280009504085,0.09951872400342177,-0.07078440861911044,1,left
20.753,0.5221381829688558,1.119434129236328,-0.2416551215746671,0.6354424693541075,3.068079905354266,-1.1853396917916332,-0.06334827573410531,0.09553961327350241,-0.07501867999726122,1,left
20.778000000000002,0.523403688313695,1.118809030878166,-0.24093155952584547,0.6267195897277229,3.0813375026337404,-1.1918565516596995,-0.06255696040278554,0.09159661576760939,-0.07925715656062385,1,left
20.807,0.5246739855273493,1.1181894084640598,-0.24022947537671985,0.6182942755738868,3.094811506518193,-1.1984000633040441,-0.061771769256617315,0.0876970201428418,-0.08348641932630363,1,left
20.809,0.5259446579099761,1.1175759393257363,-0.23954955600691208,0.6101521650255665,3.1084994183755827,-1.2049619466701043,-0.0609957312604437,0.08384795646951863,-0.08769312403595254,1,left
20.81,0.5272112526862534,1.1169691399924104,-0.2388924805662698,0.6022760663797425,3.1223993097653593,-1.2115347902395877,-0.060231964268159285,0.08005635729468928,-0.09186415039842262,1,left
20.81,0.5284693087842213,1.1163693531137726,-0.23825891296181248,0.5946462221792798,3.13650969454652,-1.2181120401179926,-0.0594836479856733,0.07632892233248066,-0.09598675619854495,1,left
20.843000000000004,0.529714382479116,1.1157767371483476,-0.23764949356901507,0.5872405978940446,3.1508293724100516,-1.224687976408258,-0.05875399529192214,0.07267208657794486,-0.10004873211557509,1,left
20.886,0.5309420711663668,1.115191259271213,-0.2370648303790821,0.5800351941743138,3.165357242950447,-1.2312576762900151,-0.058046222320341734,0.06909199167946116,-0.10403855392129176,1,left
20.886999999999997,0.5321480357631341,1.1146126918689245,-0.23650548991253068,0.5730043818748873,3.180092091022528,-1.2378169638134344,-0.0573635177226184,0.0655944604422219,-0.10794552952552708,1,left
20.888,0.5333280222578229,1.1140406127749602,-0.23597198823496918,0.5661212561551524,3.195032348584083,-1.2443623469666134,-0.05670901183859599,0.06218497429497415,-0.11175993743863608,1,left
20.888,0.5344778827739165,1.1134744091946778,-0.23546478231725193,0.5593580004507767,3.2101758459645513,-1.2508909433855304,-0.05608574670646473,0.058868653512783205,-0.11547315235073013,1,left
20.889,0.5355935964164333,1.112913285091687,-0.23498426191851166,0.5526862480520177,3.2255195698000545,-1.257400396525619,-0.055496647613391376,0.055650240038061044,-0.11907775460516672,1,left
20.910999999999998,0.5366712901599158,1.1123562716168596,-0.23453074215272576,0.5460774320852477,3.241059440576171,-1.2638887836639194,-0.054944496465562674,0.05253408283098753,-0.12256762228375034,1,left
20.944000000000003,0.5377072599308921,1.1118022399862049,-0.23410445682229505,0.539503120204775,3.2567901149813507,-1.2703545162906222,-0.05443190702266553,0.04952412572995966,-0.1259380056987156,1,left
20.945999999999998,0.538697991778138,1.111249916086774,-0.23370555244432284,0.532935333482514,3.272704814052603,-1.2767962332579905,-0.05396130199511749,0.04662389781283256,-0.12918558430183363,1,left
20.947,0.5396401827734127,1.1106978960364426,-0.2333340827500594,0.5263468501905569,3.288795177624153,-1.2832126882609602,-0.05353489200246707,0.043836506250008865,-0.13230850602065763,1,left
20.947,0.5405307611858142,1.1101446619558022,-0.23299000337299947,0.5197114962429452,3.3050511462893852,-1.2896026355571564,-0.05315465641996795,0.04116463164891095,-0.1353064089523622,1,left
20.976999999999997,0.5413669054837068,1.1095885972775144,-0.2326731664564523,0.5130044246580464,3.32146087247528,-1.2959647191303798,-0.05282232628280885,0.03861052593055431,-0.1381804249491814,1,left
20.984,0.5421460617226485,1.1090280010169429,-0.2323833150391162,0.5062023858077989,3.3380106618407055,-1.3022973692051625,-0.05253936967385063,0.03617601285282758,-0.1409331639161143,1,left
21.023000000000003,0.5428659588853977,1.1084611006480345,-0.23212007738855653,0.4992839891488078,3.3546849455112744,-1.3085987076864085,-0.05230698016321168,0.03386249133628514,-0.14356867724511005,1,left
21.024,0.5435246218880788,1.1078860635722716,-0.23188296186578394,0.4922299565349925,3.371466283275573,-1.3148664628016715,-0.052126068708446736,0.03167094163446698,-0.14609239935369708,1,left
21.025,0.5441203822529507,1.1073010074669123,-0.23167135313565,0.4850233668407298,3.3883353973399175,-1.3210978928960337,-0.05199725908108441,0.02960193395124305,-0.1485110677486768,1,left
21.026,0.5446518866118132,1.1067040099006864,-0.2314845104149102,0.47764989036577365,3.4052712339874875,-1.3272897189883484,-0.051920886586696094,0.027655638407823927,-0.1508326237633066,1,left
21.043000000000003,0.5451181030327097,1.1060931176227309,-0.23132156813842597,0.47009800922963896,3.422251046434952,-1.3334380650834974,-0.051896999730466874,0.025831834887959357,-0.15306609693531928,1,left
21.081,0.5455183248297385,1.1054663560949474,-0.23118153916981612,0.4623592187053671,3.439250489928262,-1.339538404894104,-0.051925364567265826,0.024129921656493424,-0.15522147525280602,1,left
21.083000000000002,0.5458521714630414,1.1048217400748848,-0.2310633205095085,0.45442820569945575,3.456243722371157,-1.3455855139661308,-0.05200547158982371,0.022548922390933552,-0.15730956243492628,1,left
21.083000000000002,0.5461195865102063,1.1041572860737296,-0.2309657013138283,0.4463030028474345,3.473203507833093,-1.3515734268166828,-0.05213654488605656,0.021087492056357463,-0.15934182403538527,1,left
21.084,0.5463208331107713,1.1034710272760575,-0.23088737300830312,0.43798511771134746,3.490101322405281,-1.3574953992540821,-0.05231755293682367,0.01974392289082678,-0.16133022645864234,1,left
21.11,0.5464564874224147,1.1027610311019107,-0.23082694133012735,0.42947963561617075,3.5069074616750346,-1.363343877222244,-0.05254722021595881,0.018516152192842427,-0.16328707433987028,1,left
21.16,0.5465274305909713,1.10202541875226,-0.23078293997961427,0.4207952926189665,3.523591148416268,-1.3691104755879169,-0.052824038964157265,0.017401773178699762,-0.16522485037827736,1,left
21.162,0.5465348397038768,1.1012623847846932,-0.23075384510387253,0.4119445144918422,3.5401206409226145,-1.374785971841535,-0.053146280904768826,0.01639804941530925,-0.16715605941566639,1,left
21.162,0.5464801781606822,1.1004702140627782,-0.23073808953625138,0.4029434198577496,3.556463347517967,-1.3803603193855902,-0.053512008974532725,0.015501932913390167,-0.1690930779539472,1,left
21.163,0.5463651858181795,1.099647294292203,-0.23073407597899342,0.3938117883658899,3.5725859564243043,-1.385822683545678,-0.0539190893557932,0.014710085886919714,-0.17104801140674264,1,left
21.164,0.5461918689977464,1.0987921243268206,-0.2307401889700205,0.3845729954052072,3.5884545883373953,-1.3911615018867227,-0.054365204192113555,0.014018906188066848,-0.17303256214339058,1,left
21.22,0.5459624897104971,1.0979033200036843,-0.23075480608239432,0.3752539142502061,3.6040349740029853,-1.3963645689605904,-0.05484786527408205,0.013424556424118888,-0.17505791062047893,1,left
21.221999999999998,0.5456795526716165,1.0969796192644385,-0.2307763090127803,0.36588478701744587,3.6192926529705094,-1.4014191430226581,-0.05536442881077283,0.012922996757754174,-0.17713461052237334,1,left
21.223000000000003,0.545345788944726,1.0960198872790867,-0.23080309501458027,0.3564990676235757,3.634193182658064,-1.4063120683131694,-0.05591211130718798,0.012510021389272936,-0.1792724980690986,1,left
21.224,0.5449641363639637,1.095023121678386,-0.23083358877181612,0.34713324100800524,3.648702343224273,-1.4110299043589825,-0.05648800654906159,0.012181298719070258,-0.18148061549741548,1,left
21.225,0.5445377176621268,1.0939884579593677,-0.23086625436610506,0.3378266218107168,3.662786327379015,-1.4155590558907272,-0.057089103699847835,0.01193241508524496,-0.18376714862323593,1,left
21.244,0.5440698167883824,1.0929151751717014,-0.230899606655554,0.32862113376527474,3.6764119108110327,-1.419885900821599,-0.057712306531524406,0.011758921453210853,-0.18613937790447663,1,left
21.296999999999997,0.5435638532621944,1.091802702142816,-0.23093222145700107,0.3195610700831493,3.6895466029889623,-1.4239969159058,-0.058354453841019775,0.011656381501511975,-0.18860364154305967,1,left
21.299,0.5430233543382097,1.0906506244351943,-0.23096274416425452,0.3106928353334032,3.702158781030504,-1.4278788002842986,-0.05901234112086537,0.011620419029991091,-0.19116530867577358,1,left
21.3,0.5424519249574055,1.089458691765373,-0.2309898965647841,0.302064670118122,3.714217813314613,-1.4315185974170337,-0.0596827435360167,0.011646763134958913,-0.1938287611931712,1,left
21.301,0.5418532156380869,1.0882268252233536,-0.23101248178915615,0.2937263602866373,3.7256941817221234,-1.434903816062316,-0.060362440185039536,0.011731290538243152,-0.19659738350578598,1,left
21.301,0.5412308886081805,1.0869551235304349,-0.23102938755206975,0.2857289319899014,3.7365596091767936,-1.4380225508012747,-0.06104823938865256,0.011870065021074199,-0.19947355956270596,1,left
21.355999999999998,0.5405885825650133,1.085643867643744,-0.23103958793498433,0.27812433303149053,3.7467871948865894,-1.440863602068112,-0.06173700435195618,0.01205937409968815,-0.2024586756189488,1,left
21.358,0.539929876477432,1.0842935231765802,-0.2310421439360316,0.27096510028262094,3.7563515560260705,-1.4434165942621675,-0.06242567832817428,0.012295763125300157,-0.20555312674464363,1,left
21.359,0.539258252946501,1.0829047402617866,-0.2310362029886003,0.2643040123952647,3.765228971554935,-1.4456720882853697,-0.06311130863028301,0.01257606694565272,-0.2087563255730695,1,left
21.36,0.5385770619090067,1.0814783506493386,-0.2310209976837014,0.25819372680089825,3.773397522420582,-1.447621683626063,-0.06379106923026312,0.012897439183400874,-0.21206671269164185,1,left
21.36,0.5378894857528427,1.0800153621200146,-0.23099584404815005,0.2526864002313806,3.7808372238360093,-1.4492581063311623,-0.0644622819125637,0.013257379064533252,-0.21548176856485562,1,left
21.377,0.5371985069087569,1.0785169506478804,-0.230960139842532,0.24783329244571745,3.7875301479240755,-1.4505752814069557,-0.0651224360336727,0.013653755338062566,-0.2189980268836014,1,left
21.435,0.5365068786366199,1.0769844509002235,-0.23091336330709514,0.2436843537084663,3.793460536279992,-1.451568389581816,-0.06576920701457041,0.014084826138989495,-0.2226110890633987,1,left
21.436999999999998,0.5358170993191379,1.0754193455725822,-0.23085507262382382,0.24028779968046138,3.7986149013785133,-1.4522339094677286,-0.06640047373442785,0.014549253263684161,-0.22631563951873765,1,left
21.438000000000002,0.5351313903540308,1.0738232539632444,-0.2307849062017048,0.23768968289899778,3.80298211410787,-1.4525696477049512,-0.06701433495227054,0.015046109709906278,-0.23010546143666222,1,left
21.439,0.5344516777536767,1.0721979202751215,-0.23070258374162603,0.23593347309029328,3.8065534737979165,-1.4525747605333843,-0.06760912480839308,0.015574880023133909,-0.23397345294517838,1,left
21.439,0.5337795777888411,1.070545202258568,-0.23060790787727042,0.23505965549554297,3.8093227580201154,-1.452249769373097,-0.06818342739745419,0.01613545337041961,-0.23791164370911552,1,left
21.485,0.533116387227281,1.0688670607183677,-0.23050076610167372,0.23510535087958723,3.811286251077021,-1.4515965714471952,-0.06873609030580333,0.01672810932208561,-0.2419112122110897,1,left
21.487,0.5324630785127901,1.0671655500939372,-0.2303811327246,0.2361039578299655,3.8124427510090464,-1.450618445619081,-0.06926623684172277,0.017353496289990326,-0.24596250434560454,1,left
21.500999999999998,0.5318202995044474,1.065442810020628,-0.23024907066981232,0.23808481771792475,3.8127935554956705,-1.449320053523175,-0.06977327659620314,0.018012602553595186,-0.25005505416017476,1,left
21.503,0.5311883766772926,1.0637010576441994,-0.2301047329455047,0.24107290456557637,3.8123424288720615,-1.44770743646724,-0.0702569140588304,0.01870671993865506,-0.25417760753481533,1,left
21.504,0.5305673206005538,1.0619425804662228,-0.22994836365545143,0.24508854543211028,3.811095555802785,-1.4457880093035234,-0.07071715515718166,0.019437400824651275,-0.2583181500358898,1,left
21.561,0.5299568330314449,1.0601697295479386,-0.22978029849680526,0.2501471788047811,3.809061488998057,-1.4435705528650227,-0.07115431163976633,0.02020641018792063,-0.26246394140549073,1,left
21.564,0.5293563155622432,1.0583849129066552,-0.229600964775543,0.2562591566132705,3.806251096509603,-1.4410652061622764,-0.07156900320360755,0.021015674820527647,-0.26660155974270144,1,left
21.565,0.5287648801287232,1.0565905888935911,-0.22941088102689777,0.2634295921229865,3.802677510817893,-1.4382834588151918,-0.07196215725655822,0.021867231015403856,-0.27071695729726925,1,left
21.566,0.5281813618743249,1.0547892592310262,-0.2292106563345675,0.271658254095852,3.7983560800741585,-1.4352381437935606,-0.07233500622310655,0.02276317081518066,-0.2747955281513855,1,left
21.568,0.5276043348673758,1.0529834611394342,-0.22900098935650254,0.28093950704830184,3.7933043213933524,-1.431943430294124,-0.07268908233943884,0.023705586492784342,-0.27882218742902415,1,left
21.639,0.5270321309393851,1.051175757708308,-0.22878266689850313,0.2912622964999878,3.787541875613094,-1.4284148157563872,-0.07302620991900229,0.02469651320492015,-0.2827814617342128,1,left
21.642,0.5264628616144293,1.0493687256856927,-0.22855656176818503,0.30261017641907,3.7810904620694132,-1.4246691145339057,-0.07334849509033346,0.025737870503468502,-0.28665759021654286,1,left
21.643,0.5258944429128214,1.0475649403232594,-0.22832362968064446,0.31496137521422335,3.7739738310916557,-1.4207244399273413,-0.07365831301847503,0.026831404488644694,-0.2904346348312307,1,left
21.644000000000002,0.5253246226732822,1.045766957533218,-0.2280849050823689,0.3282888979681448,3.7662177105587658,-1.416600177185571,-0.07395829262468896,0.027978632981625878,-0.29409659787944076,1,left
21.645,0.5247510098277839,1.0439772940026417,-0.22784149582980687,0.34256066502530486,3.7578497404126145,-1.41231694670167,-0.07425129881569854,0.029180795500780198,-0.2976275453957494,1,left
21.646,0.5241711047752846,1.0421984060239156,-0.22759457673512185,0.35773968839123477,3.7488993876640024,-1.4078965575306714,-0.0745404122274756,0.03043880875709876,-0.30101173581587704,1,left
21.697,0.5235823297579537,1.0404326678909106,-0.2273453820788844,0.3737842871888556,3.7393978363579774,-1.4033619514446705,-0.07482890648512744,0.031753227790871336,-0.30423375383889206,1,left
21.699,0.5229820581668314,1.0386823508645386,-0.22709519723273722,0.3906483426956843,3.7293778502700494,-1.3987371376039657,-0.07512022299396554,0.033124212740744445,-0.3072786492639137,1,left
21.7,0.5223676420536866,1.0369496037179562,-0.22684534951711122,0.40828159308591827,3.718873607940231,-1.3940471178467484,-0.07541794334799443,0.0345515011748758,-0.31013207943050014,1,left
21.701,0.5217364375986207,1.0352364356236445,-0.2265971983876094,0.42662996792339086,3.7079205100176913,-1.3893178025843587,-0.07572575957015942,0.036034385803208786,-0.31278045182069447,1,left
21.701,0.5210858286619962,1.0335447018228494,-0.22635212505032248,0.44563596179163845,3.6965549593122304,-1.3845759172753414,-0.07604744246986783,0.03757169732846799,-0.31521106222977274,1,left
21.775,0.5204132487410262,1.0318760922952688,-0.22611152164181744,0.46523904313903053,3.684814116072006,-1.3798488993836275,-0.07638680833214902,0.03916179225522173,-0.31741222506261074,1,left
21.778000000000002,0.5197162016735328,1.0302321234994887,-0.2258767801387058,0.48537608846008423,3.6727356348299622,-1.375164785604178,-0.07674768402474706,0.04080254558736799,-0.31937339438274903,1,left
21.778000000000002,0.5189922814011335,1.0286141331126686,-0.2256492811934525,0.5059818286254761,3.660357391284826,-1.3705520890716814,-0.07713387053831161,0.042491348406139516,-0.3210852754910293,1,left
21.779,0.5182391910735615,1.0270232775679924,-0.2254303831174311,0.526989297485464,3.647717205556869,-1.3660396663356567,-0.07754910501652215,0.04422511031412384,-0.32253992689671307,1,left
21.78,0.5174547616683797,1.025460532124489,-0.22522141118243758,0.5483302786120525,3.6348525648517414,-1.3616565741226714,-0.07799702161230428,0.0460002666355993,-0.32373085182635897,1,left
21.78,0.5166369701385027,1.0239266932329605,-0.2250236472975391,0.5699357482581379,3.621800349032242,-1.3574319165511222,-0.07848111200903846,0.047812790092015396,-0.32465307712451075,1,left
21.833000000000002,0.5157839570238566,1.022422383018926,-0.2248383200377298,0.5917363112970333,3.608596566837847,-1.3533946845161173,-0.07900468675867597,0.04965820654193729,-0.3253032166832973,1,left
21.834,0.5148940434907215,1.020948055708292,-0.22466659498578703,0.613662625809313,3.5952761129913875,-1.3495735896945076,-0.0795708384778556,0.05153161429874235,-0.3256795172578982,1,left
21.835,0.5139657477973095,1.0195040057938647,-0.2245095653552698,0.6356458130911399,3.581872553380956,-1.3459968958203534,-0.08018240774357217,0.05342770640239316,-0.325781885821152,1,left
21.835,0.5129978011691873,1.0180903776775416,-0.2243682428567169,0.6576178518504621,3.5684179400131635,-1.3426922502412801,-0.08084195241914685,0.05534079514555524,-0.3256118983304151,1,left
21.837,0.5119891629383854,1.0167071763252802,-0.2242435487291108,0.679511956464292,3.5549426543827374,-1.3396865189665794,-0.08155172091717132,0.05726483834496354,-0.32517278991872633,1,left
21.912,0.5109390344826253,1.0153542782375293,-0.22413630481417973,0.7012629393826981,3.5414752778436016,-1.3370056275266515,-0.08231362960320462,0.0591934671576861,-0.3244694265149648,1,left
21.914,0.5098468711708074,1.0140314420911398,-0.22404722462533866,0.7228075577515353,3.528042488392284,-1.334674408566275,-0.08312924437579136,0.06112001541346974,-0.32350825789325116,1,left
21.915,0.5087123915727856,1.012738318805987,-0.22397690463852754,0.7440848443181762,3.5146689837332388,-1.332716456318447,-0.08399976642484434,0.06303755046868151,-0.3222972521503412,1,left
21.916,0.5075355836566459,1.0114744612086306,-0.2239258163893405,0.7650364226825932,3.5013774305874574,-1.3311539879511483,-0.08492602214742688,0.0649389055271253,-0.3208458118070044,1,left
21.916999999999998,0.5063167081129213,1.010239333658329,-0.22389430015234968,0.7856068069555501,3.488188440205827,-1.3300077117803795,-0.08590845708433882,0.06681671307177357,-0.319164672718634,1,left
21.918000000000003,0.5050562990507257,1.0090323219912363,-0.22388256088047365,0.8057436855547422,3.4751205696379377,-1.3292967023002302,-0.08694713353265503,0.06866343850920799,-0.31726578876161204,1,left
21.97,0.5037551622881334,1.0078527440663645,-0.2238906668197938,0.8253981872179778,3.462190346252617,-1.3290382817635118,-0.08804173137373958,0.0704714128272833,-0.3151622062512542,1,left
21.971999999999998,0.5024143714675121,1.0066998611989157,-0.22391855098273986,0.8445251243399465,3.449412309308367,-1.3292479076546517,-0.08919155177220416,0.07223286336769326,-0.3128679310565126,1,left
21.973000000000003,0.5010352622742792,1.0055728907951826,-0.22396601545087919,0.8630832070870698,3.4367990603175924,-1.3299390651794443,-0.09039552360985237,0.07393994235724785,-0.31039778959400033,1,left
21.973000000000003,0.4996194251400641,1.0044710201326894,-0.22403273808876237,0.8810352233943605,3.4243613160035293,-1.3311231641158998,-0.09165221259507335,0.07558475325458616,-0.30776728410861726,1,left
21.974,0.49816869689590765,1.0033934202649217,-0.22411828070626044,0.8983481829481818,3.4121079614784673,-1.3328094401061787,-0.09295983281385048,0.07715937558813395,-0.3049924435259795,1,left
21.99,0.4966851517594596,1.002339258245388,-0.22422209742504787,0.9149934250579849,3.400046103981306,-1.3350048623962307,-0.09431626013300265,0.07865588996710586,-0.3020896730989898,1,left
22.045,0.4951710917995423,1.0013077060788986,-0.2243435422403745,0.9309466909185583,3.3881811291016564,-1.3377140531472502,-0.09571904666881409,0.08006640550614513,-0.29907560714689635,1,left
22.046999999999997,0.4936290367490002,1.0002979458739005,-0.22448187541297265,0.9461881609125046,3.3765167620725403,-1.3409392251514007,-0.09716543573196637,0.08138309134502021,-0.2959669681083047,1,left
22.048000000000002,0.49206171277424504,0.9993091719553495,-0.2246362691787689,0.9607024574507409,3.3650551360599836,-1.3446801430788151,-0.09865237701552884,0.0825982129384261,-0.2927804331916004,1,left
22.049,0.4904720396758246,0.99834059156838,-0.22480581386358386,0.9744786138810235,3.3537968679493666,-1.348934110022649,-0.10017654199050897,0.0837041732317196,-0.28953250882945325,1,left
22.049,0.488863116262498,0.9973914260548636,-0.2249895254801225,0.9875100113634514,3.3427411402185134,-1.3536959779570974,-0.10173433953868304,0.08469355862749628,-0.2862394130137118,1,left
22.108,0.4872382041613344,0.9964609142645168,-0.22518635556851316,0.9997942883315193,3.33188578535362,-1.358958177995683,-0.10332193198040215,0.08555918915333613,-0.2829169660127912,1,left
22.111,0.4856007105112786,0.9955483194019324,-0.22539520366365853,1.0113332287456942,3.321227369295901,-1.3647107659716478,-0.10493525188532206,0.08629417135100977,-0.27958049074031005,1,left
22.112,0.483954169708027,0.9946529394008256,-0.22561493210723807,1.0221326339484649,3.3107612739807717,-1.3709414822532713,-0.10657002018195955,0.08689195191281308,-0.2762447244696208,1,left
22.113000000000003,0.4823022240027247,0.9937741198115313,-0.22584438207517335,1.0322021802593824,3.3004817825803885,-1.3776358283914656,-0.10822176595420517,0.08734637058463318,-0.2729237431627735,1,left
22.113000000000003,0.48064860254617325,0.9929112678558711,-0.22608238934853622,1.0415552628559759,3.290382171029695,-1.3847771635653487,-0.10988584807261406,0.08765171172443333,-0.2696308988001831,1,left
22.179000000000002,0.47899709845526967,0.9920638667986027,-0.22632779880639683,1.050208826054996,3.2804548073507345,-1.39234682213906,-0.11155747862932891,0.08780275429743258,-0.2663787690942585,1,left
22.180999999999997,0.4773515436464271,0.9912314903480678,-0.22657947728348726,1.05818318003684,3.270691259003131,-1.4003242525649127,-0.11323174802785832,0.0877948200053471,-0.26317911784650405,1,left
22.182,0.4757157814121188,0.990413816860659,-0.2268363247854122,1.0655018040400672,3.2610824082317262,-1.4086871776533596,-0.11490365152779847,0.08762381914532386,-0.2600428636306874,1,left
22.186,0.4740936368780669,0.9896106428453895,-0.2270972841592439,1.0721911360509073,3.2516185753828206,-1.417411776231473,-0.11656811709577786,0.08728629389506476,-0.2569800550617788,1,left
22.186999999999998,0.47248888561918756,0.9888218950368732,-0.22736134937103125,1.0782803489487747,3.2422896500535736,-1.42647288564316,-0.11822003450601964,0.08677945890253863,-0.2539998519491013,1,left
22.188000000000002,0.47090522090993964,0.9880476403204796,-0.2276275725629191,1.083801112757212,3.23308522940258,-1.4358442216972207,-0.1198542856381908,0.08610123914964585,-0.25111051211790336,1,left
22.245,0.4693462202118203,0.9872880930012021,-0.22789507001611825,1.0887873420903924,3.2239947619835627,-1.4454986075435765,-0.12146577569597858,0.08525030502961001,-0.24831938334216064,1,left
22.247,0.46781531153234657,0.9865436191387763,-0.22816302707403283,1.0932749275738756,3.2150076949275337,-1.455408200110747,-0.12304946465832386,0.08422610439037986,-0.2456328990044866,1,left
22.248,0.4663157404155129,0.9858147378292641,-0.2284307020653631,1.097301450326398,3.2061136228361056,-1.465544705586752,-0.1246003980933558,0.08302889075580527,-0.24305657561956656,1,left
22.248,0.46485053846937313,0.9851021194678325,-0.22869742934645998,1.1009058791454427,3.197302437715459,-1.4758795805532525,-0.12611373679414106,0.08165974610205443,-0.24059501077393847,1,left
22.249000000000002,0.4634224942471446,0.9844065812727967,-0.22896262173505164,1.1041282504336865,3.188564479538298,-1.486384218255163,-0.12758478516988392,0.08012059616446479,-0.2382518808351506,1,left
22.311999999999998,0.4620341270214892,0.983729080573792,-0.22922577272698524,1.1070093313944258,3.179890685731516,-1.4970301201756842,-0.1290090185079543,0.07841421678955413,-0.23602993826336516,1,left
22.314,0.46068766375568543,0.9830707064056254,-0.22948645886024852,1.109590267797535,3.171272735372494,-1.5077890532985747,-0.13038210917420992,0.0765442307394777,-0.23393100849108941,1,left
22.314,0.4593850195253684,0.9824326699166728,-0.22974434244561098,1.1119122180467864,3.1627031824799245,-1.5186331935573865,-0.13169995176634974,0.07451509484638562,-0.23195598635976625,1,left
22.323,0.45812778180491287,0.9818162941834434,-0.22999917469883435,1.1140159748480132,3.154175574182469,-1.5295352558543878,-0.13295868722438095,0.07233207751178557,-0.2301048321068453,1,left
22.324,0.45691719921570595,0.9812230041020199,-0.23025079910812385,1.1159415750020591,3.14568455206379,-1.5404686108208994,-0.13415472586919294,0.07000122665547621,-0.22837656698966952,1,left
22.325,0.45575417527316586,0.9806543168700933,-0.2304991547336617,1.1177278981401764,3.137225936365838,-1.5514073885094983,-0.13528476917536303,0.06752932876779447,-0.2267692690946809,1,left
22.377,0.45463926735189325,0.9801118332570052,-0.23074427916008236,1.1194122587569266,3.1287967929416975,-1.5623265698646316,-0.1363458297876691,0.06492386070782297,-0.2252800707120682,1,left
22.378,0.4535726906416264,0.9795972296449827,-0.23098631094198682,1.121030002418539,3.1203954827231133,-1.5732020680412018,-0.13733524912589487,0.062192936439415356,-0.22390515911814549,1,left
22.379,0.452554326349508,0.9791122507531642,-0.23122549147528218,1.1226141206483728,3.1120216933977716,-1.584010802320095,-0.13825071208703496,0.05934525034685841,-0.22263978214628083,1,left
22.38,0.4515837330784338,0.97865870288681,-0.23146216628724064,1.1241948953667356,3.103676453061632,-1.5947307666901773,-0.13909025866917718,0.056390017822829264,-0.22147825922469536,1,left
22.381,0.45066016051915847,0.9782384474656614,-0.23169678578780853,1.125799577605197,3.095362126051135,-1.6053410939498538,-0.1398522926002869,0.0533369134741316,-0.22041399874011045,1,left
22.445999999999998,0.44978256514111686,0.977853394565525,-0.23192990553699508,1.1274521034238016,3.0870823927960163,-1.6158221155348278,-0.14053558725784224,0.05019600754550833,-0.21943952365003283,1,left
22.449,0.44894962798028343,0.9775054962091253,-0.23216218605712025,1.1291728525331797,3.0788422183658057,-1.6261554172021924,-0.1411392892594929,0.04697770136433997,-0.21854650790890945,1,left
22.45,0.44815977479909963,0.9771967389789176,-0.23239439216663244,1.1309784569560872,3.070647815948891,-1.6363238907337914,-0.14166292001025266,0.04369266240593806,-0.2177258256315164,1,left
22.458000000000002,0.4474111988982316,0.9769291352077546,-0.232627391709511,1.1328816652305695,3.0625066099374068,-1.646311781788304,-0.14210637531427117,0.04035175922255122,-0.21696761370010478,1,left
22.459,0.4467018866792282,0.9767047118565813,-0.2328621534317574,1.1348912639735023,3.0544272003419017,-1.6561047338772892,-0.14246992302833836,0.03696599631983492,-0.21626134757374335,1,left
22.461,0.446029645813983,0.9765254964334238,-0.23309974372929648,1.137012054865113,3.046419328038027,-1.6656898279360468,-0.14275419864995545,0.033546449102394724,-0.2155959293789671,1,left
22.484,0.44539213567110975,0.9763934998265893,-0.23334132209162228,1.1392448812822087,3.038493838853512,-1.6750556161055794,-0.1429601986963539,0.030104199053527368,-0.21495978705484914,1,left
22.509,0.44478689934715204,0.9763106965021389,-0.23358813519136348,1.1415866968822057,3.0306626438477076,-1.6841921478705917,-0.1430892717668372,0.02665026927048074,-0.21434098363193108,1,left
22.516,0.44421139626619877,0.9762790029630969,-0.23384150965689285,1.1440306703662961,3.022938673792351,-1.693090987168668,-0.14314310724242588,0.023195560486901662,-0.21372733614093986,1,left
22.517,0.443663034159134,0.9763002555195165,-0.2341028436310717,1.1465663241170503,3.0153358270434403,-1.701745219932556,-0.14312372159592976,0.019750788115696968,-0.2131065432798165,1,left
22.518,0.4431391994544304,0.976376188301333,-0.23437359724535578,1.1491797063447893,3.0078689102665908,-1.7101494519608307,-0.14303344226225698,0.01632642163829744,-0.21246631981628467,1,left
22.581,0.44263728548567166,0.9765084122738541,-0.23465528209346925,1.1518535968265313,3.0005535696900747,-1.7182997969216667,-0.1428748890016997,0.012932628111607874,-0.21179453502954582,1,left
22.583000000000002,0.4421547182431395,0.9766983959302109,-0.2349494497364974,1.154567746436794,2.9934062071046124,-1.7261938539625388,-0.1426509527055811,0.00957922111865829,-0.2110793531683233,1,left
22.583000000000002,0.44168897969926313,0.9769474483092182,-0.23525767930252248,1.1572991507337547,2.986443872909682,-1.733830674213933,-0.14236477162378383,0.006275615687496294,-0.2103093751150023,1,left
22.594,0.44123762904795255,0.9772567049073267,-0.2355815643508415,1.1600223578004285,2.9796841304262642,-1.741210715658442,-0.14201970503522532,0.003030789218411694,-0.2094737808927413,1,left
22.596,0.4407983223654156,0.9776271168451394,-0.23592269925716158,1.162709809705618,2.973144889780582,-1.748335786186302,-0.14161930450995294,-0.00014675182555825788,-0.20856247165484276,1,left
22.596999999999998,0.4403688311260458,0.9780594433969046,-0.23628266537083742,1.165332213286375,2.9668442147272076,-1.7552089749377013,-0.1411672831353207,-0.003249000062910248,-0.20756620775756726,1,left
22.643,0.4399470598513637,0.9785542478141447,-0.23666301715420954,1.1678589294626114,2.9608001118228153,-1.7618345722410258,-0.1406674832029645,-0.006268470966841015,-0.206476738385194,1,left
22.645,0.4395310631258462,0.9791118962282077,-0.23706526854333906,1.1702583666953579,2.955030314506067,-1.7682179785514842,-0.14012384272870929,-0.009198222865005368,-0.20528691932810927,1,left
22.656,0.43911906221957303,0.9797325592351317,-0.23749087983221576,1.172498367799009,2.9495520714962282,-1.774365602697829,-0.1395403610122527,-0.01203187339773095,-0.20399081745774003,1,left
22.656999999999996,0.43870946145480766,0.9804162156323161,-0.2379412453461817,1.1745465857958948,2.944381943265466,-1.7802847495714107,-0.13892106361302417,-0.01476361240777191,-0.20258380110072924,1,left
22.656999999999996,0.43830086427017356,0.9811626577657273,-0.23841768202284214,1.1763708480994568,2.9395356076274735,-1.7859834974856006,-0.1382699676230227,-0.017388211082962252,-0.2010626148888711,1,left
22.712,0.43789208880528296,0.9819714979860513,-0.23892141885755747,1.1779395090279503,2.935027677009594,-1.7914705663661965,-0.13759104841143957,-0.019901027110507497,-0.19942543718767256,1,left
22.714000000000002,0.4374821827462813,0.9828421757081276,-0.23945358703866446,1.1792217906433742,2.930871533850822,-1.796755179647169,-0.13688820872165142,-0.02229800566370904,-0.19767191867944112,1,left
22.730999999999998,0.43707043696442804,0.9837739645528796,-0.24001521049292557,1.180188111905993,2.9270791927213646,-1.8018469236979193,-0.13616525047166403,-0.024575676153834245,-0.19580320152850494,1,left
22.733,0.43665639711811793,0.9847659791554716,-0.2406071965725923,1.180810406137779,2.923661195608026,-1.8067556076551712,-0.13542584931488852,-0.026731144741872725,-0.19382191902919196,1,left
22.733,0.4362398722928208,0.985817181484689,-0.2412303268577791,1.1810624267456795,2.9206265425955755,-1.8114911249677221,-0.13467353195923887,-0.028762082617057195,-0.19173217573153206,1,left
22.734,0.4358209402474169,0.9869263867639343,-0.24188524840691764,1.1809200409170242,2.917982656318848,-1.816063317759709,-0.13391165624362672,-0.030666710109062585,-0.1895395081073007,1,left
22.776999999999997,0.4353999494665992,0.9880922691645397,-0.2425724659706436,1.1803615105646819,2.915735375063628,-1.820481846277814,-0.1331433939766045,-0.03244377700233114,-0.18725082615860442,1,left
22.778000000000002,0.4349775183862474,0.9893133674713972,-0.24329233564373107,1.179367759557125,2.913888967691435,-1.8247560664377775,-0.13237171655217178,-0.03409253996400576,-0.1848743369827252,1,left
22.791,0.4345545319507975,0.9905880910725261,-0.24404506038081697,1.1779226265088178,2.9124461652684834,-1.8288949177346696,-0.13159938336345528,-0.03561273829847591,-0.1824194516465503,1,left
22.791999999999998,0.43413213548454904,0.9919147268363252,-0.24483068776951497,1.1760131023886238,2.9114082071162715,-1.8329068223625509,-0.13082893302923093,-0.03700456893929128,-0.1798966763837383,1,left
22.793000000000003,0.433711725860929,0.993291447509976,-0.2456491103014468,1.1736295501890333,2.9107748995502405,-1.8367995953002219,-0.13006267740790234,-0.038268661039083864,-0.17731748874457925,1,left
22.845,0.433294940045954,0.9947163220737206,-0.2465000681630993,1.1707658998869475,2.910544683833743,-1.8405803643607912,-0.12930269821761167,-0.03940605018410709,-0.17469420013278217,1,left
22.846999999999998,0.4328836411240928,0.9961873278349451,-0.24738315432238767,1.1674198096703972,2.910714708719499,-1.8442554988643498,-0.1285508458096374,-0.04041815214205305,-0.1720398081551766,1,left
22.868000000000002,0.4324799019264261,0.9977023628893292,-0.2482978212885275,1.16359278665925,2.911280904108103,-1.8478305459307638,-0.12780873949203175,-0.04130673601966285,-0.16936784335455604,1,left
22.87,0.4320859868692337,0.9992592569945083,-0.24924338871651092,1.1592902644056418,2.9122380544354565,-1.851310173997785,-0.12707776896298859,-0.04207389670304585,-0.16669221398338174,1,left
22.87,0.43170433383344786,1.00085578025127,-0.25021905163761093,1.1545216369704152,2.9135798718712,-1.8546981238605902,-0.126359096745378,-0.04272202633538784,-0.1640270515761428,1,left
22.871,0.4313375386095061,1.0024896510597647,-0.2512238899992263,1.1493002511059747,2.915299071206749,-1.8579971693619484,-0.125653661774894,-0.04325378430301063,-0.16138656102187887,1,left
22.91,0.4309883429315005,1.00415854507128,-0.25225688011654884,1.1436433603866998,2.9173874511281435,-1.8612090930403207,-0.12496218438587516,-0.04367206503167329,-0.1587848797695722,1,left
22.910999999999998,0.430659624406155,1.0058601056070955,-0.25331690769882687,1.1375720464112202,2.919835988134191,-1.864334683808692,-0.12428517287735392,-0.04397996306974382,-0.15623594963905485,1,left
22.927,0.43035438572566287,1.0075919553417414,-0.25440278156386675,1.131111110915068,2.922634947797295,-1.8673737619709159,-0.12362293173115683,-0.04418073524967945,-0.15375340262198467,1,left
22.929000000000002,0.43007574201000487,1.0093517089988062,-0.2555132472776479,1.124288940481261,2.9257740144778865,-1.8703252332447238,-0.12297557149237792,-0.04427775989400798,-0.1513504608974648,1,left
22.929000000000002,0.4298269064429864,1.0111369864225064,-0.2566470001584363,1.1171373450625055,2.929242435180034,-1.8731871693995623,-0.12234302031357151,-0.04427449315960749,-0.1490398509584309,1,left
22.967,0.42961117428137613,1.0129454250898609,-0.2578026972255744,1.1096913727319677,2.933029165975534,-1.8759569086330468,-0.12172503718050322,-0.04417442307830456,-0.14683373126220964,1,left
22.968000000000004,0.4294319049347485,1.0147746915819988,-0.25897896789590696,1.1019891038903529,2.937123005564531,-1.8786311665146016,-0.1211212268669519,-0.04398102268766718,-0.14474363194964,1,left
23.006,0.4292925018696153,1.0166224922303635,-0.2601744234171972,1.0940714274279848,2.9415127050586216,-1.8812061506014064,-0.12053105668254856,-0.04369770411011032,-0.1427804046945017,1,left
23.006999999999998,0.4291963903057578,1.0184865833181584,-0.26138766506827804,1.0859818002970352,2.946187053305271,-1.883677675871662,-0.11995387506122866,-0.0433277749736243,-0.14095418122820505,1,left
23.008000000000003,0.4291469927859568,1.0203647808750544,-0.2626172911249809,1.0777659918899285,2.9511349468439114,-1.8860412802514352,-0.1193889319644626,-0.0428743977161651,-0.1392743398553649,1,left
23.008000000000003,0.4291477026690112,1.0222549697923025,-0.2638619025810539,1.0694718148755342,2.9563454576405284,-1.8882923398792506,-0.11883540083781412,-0.0423405517767153,-0.13774947926464204,1,left
23.043000000000003,0.4292018555495534,1.0241551119253798,-0.26512010765151256,1.0611488437257048,2.9618079084648157,-1.8904261838431053,-0.11829240146155776,-0.04172899844923298,-0.13638739814608306,1,left
23.066,0.42931269872495925,1.0260632528476283,-0.26639052515161676,1.0528481213424923,2.967511959543928,-1.8924382081262658,-0.11775902281691843,-0.041042248101223845,-0.13519507863209487,1,left
23.068,0.4294833590349803,1.0279775268769131,-0.26767178689058213,1.0446218534353533,2.9734477052419335,-1.8943239877814342,-0.11723434530678865,-0.04028252959622795,-0.13417867203880443,1,left
23.068,0.429716809490337,1.0298961600192709,-0.2689625392071727,1.0365230895978308,2.979605775974233,-1.8960793849176174,-0.1167174620546563,-0.03945176221065357,-0.1333434860984268,1,left
23.069000000000003,0.4300158351498128,1.0318174705699452,-0.27026144373949107,1.0286053896910319,2.985977438964783,-1.8977006492764286,-0.11620749920721411,-0.038551530981328186,-0.13269397305017314,1,left
23.109,0.43038299892906434,1.033739867234381,-0.2715671775629175,1.020922474483674,2.992554693056759,-1.8991845089814494,-0.11570363520027035,-0.03758306675250353,-0.13223371787991767,1,left
23.111,0.43082060830904767,1.0356618448593715,-0.2728784329784368,1.0135278601148658,2.9993303556717694,-1.900528250496977,-0.11520511895732005,-0.03654723187311791,-0.13196542617608054,1,left
23.141,0.4313306838898512,1.037581978194836,-0.27419391736013293,1.0064744762885425,3.0062981416154826,-1.9017297876393449,-0.11471128700764835,-0.03544451192300707,-0.1318909113878062,1,left
23.143,0.4319149303947859,1.0394989142939297,-0.2755123534331483,0.9998142681776024,3.0134527337485406,-1.9027877196450875,-0.1142215795133514,-0.03427501356740891,-0.13201108147548535,1,left
23.143,0.4325747104271873,1.041411364095613,-0.276832480183312,0.9935977820166169,3.020789845542219,-1.9037013782997931,-0.11373555516050778,-0.033038468768266854,-0.1323259251130979,1,left
23.144000000000002,0.43331102125467974,1.0433180936438888,-0.2781530544133838,0.9878737348522161,3.028306275338041,-1.9044708642217028,-0.11325290480474688,-0.03173424592786305,-0.13283449784277673,1,left
23.177,0.43412447508267554,1.0452179154425372,-0.2794728528129807,0.982688571367679,3.035999951127149,-1.9050970728467125,-0.11277346372536232,-0.030361368733019554,-0.13353490871608603,1,left
23.201,0.43501528350549956,1.0471096804710354,-0.28079067434260213,0.9780860155125445,3.0438699631223662,-1.9055817115867455,-0.11229722237823944,-0.028918543275012407,-0.13442430782352865,1,left
23.203000000000003,0.4359832469536646,1.0489922712393627,-0.28210534277533,0.974106629164298,3.0519165817110525,-1.9059273106375099,-0.11182433559214948,-0.027404193534158523,-0.13549887506006086,1,left
23.203000000000003,0.4370277498520771,1.0508645960352891,-0.28341570932228977,0.9707873912917814,3.060141261754815,-1.9061372304508595,-0.11135513013544303,-0.02581650443108256,-0.13675381127178854,1,left
23.204,0.43814776170732195,1.0527255843458967,-0.28472065529170687,0.9681613087368561,3.068546637328375,-1.9062156686225837,-0.11089011049085737,-0.024153470358950782,-0.13818333457754453,1,left
23.243000000000002,0.43934184352101713,1.0545741832895716,-0.28601909468682085,0.9662570652378082,3.077136510675731,-1.9061676679415855,-0.11042996262252261,-0.022412946416898033,-0.1397806855899598,1,left
23.244,0.4406081583126231,1.0564093547577873,-0.2873099766116288,0.9650987111432655,3.085915836989582,-1.9059991262628062,-0.10997555557290174,-0.020592700258517577,-0.14153814433077383,1,left
23.28,0.44194448474914055,1.0582300728935279,-0.2885922874102597,0.964705394322323,3.0948907053345702,-1.9057168081644238,-0.10952794082396311,-0.018690463718006003,-0.14344705996093757,1,left
23.281999999999996,0.4433482337755994,1.0600353215489113,-0.28986505260433937,0.9650911328862917,3.104068315935091,-1.9053283574892184,-0.10908834942093308,-0.016703984113601404,-0.14549789348373127,1,left
23.283,0.44481646883628545,1.0618240914415709,-0.29112733879369423,0.9662646312708661,3.1134569543430577,-1.90484230851968,-0.10865818691969992,-0.014631075483566097,-0.14768027323137195,1,left
23.284000000000002,0.44634593030950276,1.0635953767869006,-0.29237825566255776,0.9682291417470602,3.123065963164979,-1.904268092786119,-0.10823902631252157,-0.012469670400457182,-0.14998306265418368,1,left
23.31,0.44793306441245667,1.0653481711288209,-0.29361695808789207,0.9709823729141184,3.132905711864881,-1.9036160392567307,-0.10783259913869114,-0.01021787322625739,-0.15239443976968073,1,left
23.338,0.44957405626438185,1.0670814620079567,-0.2948426481020936,0.9745164457986158,3.142987564866131,-1.9028973670082465,-0.10744078494350877,-0.007874015302069519,-0.15490198766426444,1,left
23.34,0.45126486614914224,1.068794224195499,-0.2960545762250766,0.9788178976688587,3.1533238480124712,-1.9021241702255591,-0.1070655991986044,-0.005436711417345371,-0.1574927950966421,1,left
23.34,0.45300126766149174,1.0704854114797155,-0.2972520416234443,0.9838677335724759,3.163927813416549,-1.9013093955284628,-0.10670917982252055,-0.0029049153223385947,-0.16015356527012625,1,left
23.340999999999998,0.4547788864600339,1.072153947253847,-0.29843439070035654,0.989641525684499,3.1748136024433182,-1.900466811697489,-0.1063737724733368,-0.000277971246041897,-0.16287073023790355,1,left
23.377,0.4565932385247362,1.0737987143474363,-0.2996010139362386,0.9961095609412873,3.185996205168325,-1.899610972240721,-0.1060617147419393,0.0024443408606477277,-0.16563056904137072,1,left
23.379,0.45843976700052375,1.0754185446502649,-0.300751340968757,1.0032370381323508,3.1974914121171087,-1.8987571719094782,-0.10577541929678737,0.005261767273111319,-0.16841932882622687,1,left
23.416,0.460313876897665,1.0770122091292609,-0.30188483399404714,1.0109843160100602,3.20931575268467,-1.8979213986407448,-0.10551735598786374,0.00817354979163494,-0.17122334881694354,1,left
23.418000000000003,0.46221096713630344,1.0785784089266872,-0.30300097966805084,1.0193072135933485,3.2214864160428927,-1.8971202820341158,-0.105290032914115,0.011178402311172146,-0.17402918697209394,1,left
23.419,0.46412645974959765,1.080115768278122,-0.30409927983550344,1.0281573631488357,3.234021152879281,-1.896371038804924,-0.10509597648475216,0.014274494147559307,-0.176823748216022,1,left
23.419,0.46605582644160837,1.0816228298297053,-0.3051792415395837,1.0374826151227878,3.246938157866303,-1.8956914150409823,-0.10493771055164335,0.017459438821609125,-0.17959441147362212,1,left
23.443,0.4679946129621175,1.0830980526306537,-0.3062403668144842,1.0472274900922012,3.260255933777832,-1.8950996237953928,-0.10481773471610781,0.020730286567128282,-0.18232915180792195,1,left
23.474,0.46993846186512916,1.0845398128178911,-0.30728214276196825,1.0573336653715208,3.2739931394924264,-1.8946142743501,-0.10473850188752731,0.024083519264811636,-0.18501665488721433,1,left
23.476,0.4718831342216384,1.0859464068245275,-0.30830403237660475,1.0677404797832684,3.288168424858868,-1.8942542882640065,-0.10470239516368482,0.027515047342756886,-0.18764642256741798,1,left
23.476999999999997,0.47382453078763087,1.0873160567988875,-0.3093054664997559,1.0783854442316478,3.3028002546659545,-1.894038798540777,-0.10471170427272351,0.03102020889211209,-0.19020886875357013,1,left
23.476999999999997,0.47575871296299715,1.0886469178565936,-0.31028583713614344,1.0892047527719981,3.317906723162214,-1.893987030667257,-0.10476860216409005,0.034593771823112,-0.19269540390187126,1,left
23.483,0.4776819236487056,1.0899370868119531,-0.3112444921887092,1.1001337910968365,3.3335053624612763,-1.8941181665826627,-0.10487512253181154,0.038229940158860304,-0.19509850597477785,1,left
23.511999999999997,0.4795906078978357,1.0911846120684117,-0.3121807315051716,1.111107636761196,3.349612952745144,-1.8944511948413658,-0.10503313885772371,0.04192236529254784,-0.19741177621020745,1,left
23.544,0.48148143306588126,1.09238750433425,-0.3130938039737566,1.1220615437619053,3.3662453447016625,-1.8950047516307857,-0.10524434520985275,0.04566416254461288,-0.19962997905347174,1,left
23.545,0.4833513079939912,1.0935437478037415,-0.31398290527148187,1.1329314069584848,3.383417301507039,-1.8957969577707108,-0.10551023883543313,0.049447933084650994,-0.20174906614907584,1,left
23.546,0.48519740066134087,1.0946513114917995,-0.3148471758667123,1.143654206994343,3.401142362037381,-1.8968452576566597,-0.10583210454901913,0.0532657912286672,-0.20376618439901717,1,left
23.546999999999997,0.48701715371453647,1.0957081605548258,-0.3156856990653063,1.1541684392496072,3.4194327238678617,-1.898166266574809,-0.10621100091234992,0.057109397109265235,-0.2056796680794187,1,left
23.576999999999998,0.4888082973098391,1.0967122675922811,-0.3164974991668474,1.1644145297670785,3.4382991445984694,-1.8997756310470497,-0.1066477481830348,0.060969994650797124,-0.20748901493439895,1,left
23.621,0.4905688588696408,1.0976616240127905,-0.31728154001435865,1.1743352389535358,3.4577508607191456,-1.9016879039054124,-0.10714291797373542,0.06483845466334888,-0.20919484603502317,1,left
23.622,0.49229716963642745,1.0985542515487998,-0.3180367243024097,1.1838760509248973,3.4777955225623036,-1.9039164334122218,-0.1076968245486524,0.06870532270411342,-0.21079884928687606,1,left
23.622,0.4939918681116602,1.0993882139810345,-0.31876189397547106,1.1929855426355584,3.498439141887248,-1.9064732639359372,-0.10830951772762783,0.07256087092190977,-0.21230370738533855,1,left
23.623,0.49565190048921487,1.100161629205232,-0.3194558320027948,1.2016157249682968,3.5196860474728067,-1.9093690448619338,-0.1089807774463499,0.07639515232151715,-0.2137130126658714,1,left
23.623,0.49727651811032203,1.1008726820095784,-0.3201172658709744,1.2097223499230574,3.541538845266067,-1.9126129452499572,-0.1097101100646528,0.08019805545164721,-0.2150311722121577,1,left
23.643,0.4988652719259452,1.1015196382272283,-0.32074487325289003,1.2172651815750781,3.5639983817426555,-1.9162125732477335,-0.1104967464954344,0.08395935803201458,-0.21626330575601224,1,left
23.679000000000002,0.5004180040672923,1.1021008609253276,-0.32133729024680463,1.2242082304344601,3.5870637103056247,-1.9201739001027636,-0.11133964218442492,0.087668778932261,-0.2174151373849457,1,left
23.68,0.5019348368491744,1.1026148284548603,-0.3218931220292548,1.230519951230383,3.610732060785722,-1.9245011887816337,-0.11223747894761746,0.0913160284139294,-0.21849288122982016,1,left
23.68,0.503416159799314,1.1030601525291293,-0.32241095479225995,1.2361734041415535,3.634998812107565,-1.9291969272071998,-0.11318866864892184,0.09489085671238454,-0.2195031213493588,1,left
23.680999999999997,0.5048626156622061,1.103435593279755,-0.32288936716756983,1.2411463794664686,3.6598574684150273,-1.9342617664475648,-0.1141913586022832,0.09838310136599351,-0.22045268709409543,1,left
23.709,0.5062750865240169,1.1037400687924355,-0.32332693970338017,1.2454214855937713,3.685299640086134,-1.9396944658044728,-0.11524343840539847,0.10178273429472108,-0.22134852715103515,1,left
23.756999999999998,0.5076546808650002,1.1039726588140106,-0.3237222622698883,1.248986199894411,3.711315033112986,-1.9454918496525904,-0.11634254783698803,0.10507990988405813,-0.2221975866095503,1,left
23.759,0.5090027216150143,1.104132604698005,-0.3240739407063288,1.2518328820238733,3.737891451459167,-1.9516487824948539,-0.11748608566397065,0.10826501461642811,-0.22300669068977846,1,left
23.76,0.5103207345285458,1.104219308434392,-0.3243806044535583,1.2539587492522515,3.765014815873507,-1.9581581670874573,-0.11867121959066815,0.11132871750758161,-0.22378243751628255,1,left
23.761,0.51161043570475,1.1042323325153143,-0.3246409160119729,1.255365813674588,3.7926692005972398,-1.9650109675863128,-0.11989489779654448,0.11426201989165881,-0.22453110162051446,1,left
23.761999999999997,0.5128737173601109,1.1041714010470005,-0.32485358185238894,1.256060781679059,3.820836887684818,-1.9721962577108043,-0.1211538624130445,0.11705630341513558,-0.2252585492753289,1,left
23.776,0.5141126319106942,1.104036401735087,-0.32501736376908896,1.2560549180532872,3.8494984355176527,-1.97970129187719,-0.12244466508184522,0.11970337578886961,-0.22597016610415258,1,left
23.816,0.5153293749294878,1.1038273879374303,-0.32513108962775944,1.2553638806519452,3.8786327534718477,-1.9875115943811144,-0.12376368462118013,0.12219551423006045,-0.22667079704036566,1,left
23.816999999999997,0.5165262671386041,1.1035445803666653,-0.3251936629454503,1.254007533443516,3.908217174927876,-1.9956110611157005,-0.12510714678085985,0.12452550660665276,-0.2273646985218744,1,left
23.818,0.517705735067818,1.103188368943614,-0.3252040713603088,1.2520097436264588,3.9382275293807445,-2.00398207206494,-0.12647114595177086,0.12668669031889135,-0.2280555022201969,1,left
23.819000000000003,0.5188702899600482,1.1027593155083852,-0.32516139423626733,1.2493981648600694,3.9686382227994073,-2.0126056170404447,-0.12785166848883822,0.12867298899297241,-0.2287461885492496,1,left
23.842,0.5200225047205613,1.1022581575451742,-0.32506480948026983,1.2462040067566662,3.9994223351600504,-2.021461437724402,-0.12924461719157618,0.13047894708387162,-0.2294390676133906,1,left
23.895,0.5211649889019927,1.1016858125099505,-0.32491359951548976,1.2424617904733022,4.030551738671893,-2.0305281869662144,-0.130645836601341,0.13209976246134536,-0.2301357658398776,1,left
23.896,0.5223003618353408,1.1010433820063217,-0.32470715630598657,1.2382090900309894,4.061997235391246,-2.0397836030024954,-0.13205113894505213,0.13353131699589998,-0.2308372175152908,1,left
23.897,0.5234312240445695,1.1003321550020788,-0.32444498529666893,1.2334862584817612,4.093728709262796,-2.049204692174145,-0.13345633048875175,0.1347702050583068,-0.23154366063256346,1,left
23.898000000000003,0.5245601270731598,1.0995536095701754,-0.3241267081552569,1.2283361377521385,4.125715285944982,-2.0587679115642854,-0.13485723776092726,0.13581375969701084,-0.23225463585504966,1,left
23.898000000000003,0.5256895419477335,1.0987094129853596,-0.3237520642807681,1.2228037512802974,4.157925495460321,-2.0684493451319232,-0.13624973292417034,0.13666007617713855,-0.23296898700554786,1,left
23.954,0.5268218267782006,1.0978014200671284,-0.32332091111405964,1.2169359792693588,4.190327435502559,-2.0782248707245286,-0.13762975775510866,0.13730803264435823,-0.23368486188673437,1,left
23.956,0.5279591943043331,1.096831669497431,-0.32283322333158637,1.2107812175888082,4.222888933719023,-2.0880703171878183,-0.1389933460347582,0.1377573077308917,-0.23439971296480783,1,left
23.956999999999997,0.529103680268757,1.0958023777815962,-0.3222890910346592,1.2043890230701157,4.255577705468598,-2.097961610652977,-0.14033664441162622,0.13800839455263333,-0.23511029788662635,1,left
23.958000000000002,0.530257113301845,1.0947159307027752,-0.3216887170993773,1.197809748862295,4.288361502358955,-2.1078749087659707,-0.14165593197805063,0.13806260975560605,-0.23581267995223532,1,left
23.958000000000002,0.5314210868596614,1.0935748724294432,-0.32103241398135673,1.191094172591684,4.321208248064473,-2.1177867219396584,-0.14294763887905632,0.1379220958215373,-0.2365022287046283,1,left
23.976,0.5325969337933912,1.0923818927214637,-0.3203206004227636,1.1842931184124421,4.354086160081854,-2.127674021278042,-0.1442083641941091,0.13758981528964773,-0.23717362075862083,1,left
23.99,0.5337857041496142,1.0911398128805874,-0.31955379854134913,1.1774570731130969,4.386963857278098,-2.1375143331379283,-0.14543489319016084,0.13706953635736066,-0.23782084091878325,1,left
24.03,0.5349881467461053,1.0898515711927643,-0.3187326316208626,1.170635796259955,4.419810453325104,-2.147285820356417,-0.1466242139654583,0.13636580976995966,-0.23843718359639193,1,left
24.031,0.5362046950686986,1.0885202085354644,-0.3178578226294236,1.16387792435795,4.452595636115296,-2.156967350172574,-0.14777353348772992,0.13548393699824735,-0.23901525452731506,1,left
24.031,0.5374354579931752,1.0871488545117853,-0.3169301932217755,1.1572305690093971,4.485289733252655,-2.1665385488715083,-0.14888029300183245,0.13442992978541976,-0.23954697290318772,1,left
24.031999999999996,0.5386802155288585,1.0857407141039612,-0.31595066288159135,1.1507389096902458,4.517863763732951,-2.175979843370707,-0.14994218263965423,0.13321046155733887,-0.240023574580694,1,left
24.089000000000002,0.5399384193537818,1.084299054679085,-0.31492024793827417,1.144445784959026,4.550289476024347,-2.1852724909273187,-0.1509571548090379,0.1318328119341652,-0.24043561802825683,1,left
24.090999999999998,0.5412091976494638,1.082827193233078,-0.3138400603389403,1.1383912916657557,4.582539372934845,-2.1943985998711892,-0.15192343579684983,0.13030480605434433,-0.24077299532679727,1,left
24.092,0.5424913636110444,1.0813284838440194,-0.3127113061740927,1.1326124049239452,4.614586723750244,-2.2033411452271623,-0.15283953516669463,0.12863475030812888,-0.24102495051323722,1,left
24.092,0.5437834269796926,1.0798063053179563,-0.3115352840132183,1.1271426284139667,4.646405564028316,-2.2120839821306446,-0.153704252793538,0.1268313658733558,-0.24118010750513766,1,left
24.093000000000004,0.5450836081683662,1.0782640489348132,-0.3103133831223891,1.122011679195918,4.677970683496901,-2.2206118582196064,-0.15451668352286166,0.12490372133242882,-0.24122650981682092,1,left
24.11,0.5463898549307765,1.0767051060659527,-0.3090470816284334,1.1172452098200936,4.709257603595813,-2.2289104252568195,-0.15527621946694375,0.12286116526619457,-0.241151673641844,1,left
24.169,0.5476998617487956,1.075132855286233,-0.30773794462939813,1.1128645731333324,4.740242548324891,-2.2369662500982455,-0.15598254994473315,0.12071325917973827,-0.24094265493190986,1,left
24.171999999999997,0.5490110920706625,1.0735506484625572,-0.30638762210247106,1.1088866369851076,4.770902413250085,-2.2447668251531474,-0.15663565906882637,0.11846971085184149,-0.2405861305082194,1,left
24.173000000000002,0.5503208033309037,1.0719617952545424,-0.3049978463170912,1.105323654233622,4.801214736328396,-2.2523005784505625,-0.1572358209847986,0.1161403083256276,-0.24006849279072814,1,left
24.173000000000002,0.5516260744128293,1.0703695457217075,-0.30357042844273063,1.1021831902049282,4.831157672068991,-2.259556883371578,-0.1577835927725931,0.11373485509267815,-0.2393759571089457,1,left
24.174,0.5529238348758796,1.0687770712938018,-0.302107254128894,1.0994681076266382,4.860709969183304,-2.266526068010831,-0.15827980502208003,0.1112631072087726,-0.2384946802122476,1,left
24.228,0.554210894992874,1.0671874448186844,-0.3006102779334684,1.097176607058225,4.889850950771376,-2.2731994237986797,-0.1587255500921861,0.10873471289301322,-0.2374108889424503,1,left
24.229,0.5554839756678391,1.0656036204591222,-0.29908151656818,1.0953023178894534,4.9185604945309205,-2.279569212429474,-0.15912216806612206,0.1061591548498055,-0.23611101848134214,1,left
24.230999999999998,0.5567397375977204,1.0640284140622676,-0.2975230410325023,1.093834433339883,4.946819009608029,-2.285628669815384,-0.15947123045194014,0.10354569548176072,-0.23458185907558973,1,left
24.230999999999998,0.5579748093008733,1.062464484558162,-0.2959369677828929,1.092757884533399,4.974607407573717,-2.2913720061095306,-0.15977452174793608,0.1009033253310735,-0.23281070867095352,1,left
24.232,0.5591858137314716,1.0609143169911288,-0.29432544911635056,1.0920535515046288,5.001907066399917,-2.2967944013227526,-0.1600340190316792,0.09824071520172203,-0.23078552803214933,1,left
24.305999999999997,0.5603693932482813,1.0593802078398467,-0.29269066296615964,1.0916985097852836,5.0286997863284615,-2.301891995863599,-0.1602518697155594,0.09556617231388823,-0.22849509557220618,1,left
24.307,0.5615222328157392,1.057864253204431,-0.2910348023077075,1.0916663100179196,5.054967735177158,-2.306661874461109,-0.16043036765892243,0.09288760070548267,-0.22592915961940435,1,left
24.308000000000003,0.5626410815051138,1.0563683402316504,-0.2893600643583052,1.0919272871958836,5.0806933797803975,-2.3111020414100323,-0.16057192800018602,0.09021246610747759,-0.22307858484287565,1,left
24.309,0.5637227726237358,1.0548941419421407,-0.28766863979104806,1.0924488969789972,5.105859401105517,-2.3152113855962018,-0.1606790611825813,0.08754776556717885,-0.21993548869415605,1,left
24.309,0.5647642430258816,1.0534431154240045,-0.28596270225340314,1.093196078065072,5.130448592106066,-2.3189896346929815,-0.16075434652879722,0.08490000202310607,-0.21649336475521894,1,left
24.31,0.5657625521675901,1.052016503119193,-0.28424439847122923,1.0941316398659053,5.154443738842847,-2.32243729851764,-0.16080040550684452,0.08227516390835025,-0.21274719174395088,1,left
24.363000000000003,0.5667149012427883,1.0506153367772557,-0.2825158391017325,1.095216671996731,5.177827488701345,-2.3255556020388166,-0.16081987474774836,0.07967870977643304,-0.20869352786576068,1,left
24.365,0.567618652477711,1.0492404436989045,-0.28077909036891063,1.0964109668500834,5.200582215167018,-2.328346409244335,-0.16081537903516327,0.07711555786752701,-0.20433058992866313,1,left
24.366,0.5684713484984266,1.0478924550107176,-0.279036166426806,1.0976734436151945,5.2226898917485185,-2.330812139477141,-0.16078950481672813,0.07459008042113949,-0.19965831577916743,1,left
24.366999999999997,0.5692707315733605,1.0465718156860724,-0.2772890223162306,1.0989625650148382,5.244131984506847,-2.33295567744672,-0.160744774970129,0.07210610247932021,-0.19467840813812046,1,left
24.366999999999997,0.5700147624292636,1.0452787958181926,-0.275539547302127,1.1002367433248728,5.264889367252979,-2.3347802776495534,-0.16068362537354197,0.0696669049866703,-0.18939435839207094,1,left
24.443,0.5707016383041342,1.0440135024501442,-0.27378955835598,1.1014547352022743,5.284942261193376,-2.3362894647054837,-0.16060838350025863,0.0672752321053585,-0.18381144975397523,1,left
24.445999999999998,0.5713298099509084,1.0427758912819116,-0.2720407936022872,1.1025760248099645,5.304270200566504,-2.337486932966375,-0.160521249074017,0.06493330272559122,-0.177936739683487,1,left
24.445999999999998,0.5718979973229572,1.0415657777562966,-0.270294905644514,1.1035611930026177,5.322852023819023,-2.3383764494700188,-0.16042427678486657,0.06264282616453513,-0.1717790215516618,1,left
24.447,0.5724052035503147,1.040382847173981,-0.2685534548187586,1.1043722689569437,5.340665886888112,-2.3389617627954356,-0.1603193610728567,0.060405021958292615,-0.16534876564269688,1,left
24.448,0.5728507266892078,1.0392266636089411,-0.2668179026020482,1.1049730612493185,5.357689294762598,-2.339246518444533,-0.16020822302430576,0.058220643209001374,-0.15865804012770826,1,left
24.449,0.5732341688489342,1.0380966776255969,-0.2650896055651844,1.1053294671073186,5.3738991494859585,-2.339234180656679,-0.16009239949288478,0.056090002152470314,-0.15172041362252564,1,left
24.483,0.5735554426238421,1.0369922331466583,-0.2633698103649342,1.1054097596156554,5.389271814297102,-2.33892796060085,-0.15997323459522741,0.054012996169243314,-0.1445508414839225,1,left
24.484,0.5738147749421908,1.0359125742006465,-0.26165965033947053,1.1051848528781565,5.403783193957795,-2.3383307509461715,-0.15985187369325934,0.05198913290480576,-0.13716553745473806,1,left
24.499000000000002,0.5740127083629969,1.0348568525440411,-0.25996014423606617,1.1046285451367563,5.417408831313257,-2.3374450668108326,-0.15972925987386902,0.05001755402633462,-0.12958183154766653,1,left
24.5,0.5741500997728933,1.033824137088765,-0.2582721973720024,1.103717739847661,5.4301240201300125,-2.336272993088498,-0.1596061327287751,0.04809705790984813,-0.12181801580268192,1,left
24.500999999999998,0.5742281165513391,1.032813425574489,-0.2565966051986559,1.1024326444631802,5.441903934012455,-2.334816138260518,-0.15948302892348137,0.046226122222833274,-0.11389318176413503,1,left
24.578000000000003,0.5742482304255807,1.0318236580944065,-0.2549340589012313,1.1007569454127641,5.452723769995999,-2.3330755953515063,-0.15936028387395046,0.044402927691210174,-0.10582705481206371,1,left
24.58,0.5742122092947737,1.0308537310944061,-0.2532851522924947,1.0986779555185342,5.462558903250281,-2.3310519116751642,-0.15923803401988135,0.04262538401600753,-0.09763982919266948,1,left
24.58,0.5741221074388703,1.0299025099581736,-0.2516503891099429,1.096186728825524,5.471385048122169,-2.32874506956651,-0.15911621948993201,0.0408911583227278,-0.08935200527212339,1,left
24.581,0.5739802545654233,1.0289688390582625,-0.25003019029397794,1.0932781390797393,5.479178421946611,-2.3261544797457607,-0.1589945871522602,0.039197706182095234,-0.08098422943974243,1,left
24.581999999999997,0.5737892434876304,1.0280515495981888,-0.24842490146608326,1.0899509203432272,5.485915910212309,-2.323278987968156,-0.15887269421668532,0.03754230507232673,-0.07255713778519363,1,left
24.581999999999997,0.5735519154269795,1.0271494663684366,-0.2468348009300184,1.0862076696277387,5.491575233265899,-2.3201168952895874,-0.158749912804757,0.035922089966067015,-0.06409120639629404,1,left
24.636999999999997,0.5732713422859991,1.0262614147459714,-0.24526010836372386,1.0820548125711182,5.496135116275799,-2.316665992917485,-0.15862543604289492,0.0343340906212892,-0.05560661208052179,1,left
24.638,0.5729508062941132,1.0253862293239966,-0.24370099438101472,1.077502535411256,5.499575464297953,-2.3129236127439774,-0.1584982860948843,0.03277527025952801,-0.04712310635640583,1,left
24.639,0.572593777829523,1.024522765057905,-0.2421575910124574,1.072564688965668,5.5018775400419,-2.3088866923520635,-0.1583673243000276,0.03124256550203634,-0.03865990383865016,1,left
24.64,0.5722038919168956,1.0236699107564011,-0.24063000268564413,1.067258670601762,5.503024136476536,-2.3045518502423894,-0.15823126344436775,0.02973292753850524,-0.030235585184016645,1,left
24.64,0.5717849234793281,1.022826603972655,-0.23911831691004345,1.061605287949817,5.502999736287579,-2.2999154668989874,-0.1580886821519939,0.028243364462381838,-0.0218680144591898,1,left
24.713,0.5713407611320547,1.0219918464515287,-0.23762261403279256,1.0556286056551873,5.501790654436235,-2.2949737696169557,-0.15793804132031752,0.026770984399489526,-0.013574270219669008,1,left
24.715,0.5708753792909833,1.0211647198541145,-0.23614297588951919,1.0493557753497151,5.499385163129657,-2.2897229206976237,-0.15777770240959443,0.025313038503392494,-0.00537058855882058,1,left
24.715999999999998,0.5703928085493083,1.020344401620851,-0.23467949336740887,1.0428168488261667,5.495773599203158,-2.2841591089978883,-0.15760594733383798,0.023866962583599508,0.002727684185851692,1,left
24.717,0.5698971044078072,1.0195301804390884,-0.2332322728184212,1.0360445743985793,5.490948453910621,-2.2782786448195074,-0.15742099976335638,0.02243041644015642,0.010706130809713383,1,left
24.717,0.5693923145420782,1.0187214704546534,-0.23180144125387114,1.029074176430562,5.484904445116216,-2.2720780581232614,-0.15722104772147094,0.021001320540314065,0.018551295503499036,1,left
24.718000000000004,0.568882444924584,1.0179178234037345,-0.23038715035348997,1.021943118101618,5.477638572438976,-2.2655541999677524,-0.1570042672148189,0.019577890024229303,0.026250709690980416,1,left
24.775,0.5683714251543096,1.0171189380984873,-0.22898957937798006,1.014690847906775,5.469150158321551,-2.2587043465115126,-0.1567688462780135,0.018158666167062784,0.033792912844683776,1,left
24.776999999999997,0.5678630732508567,1.0163246669809531,-0.22760893706247096,1.0073585310931585,5.459440881115839,-2.2515263034632156,-0.15651300860715925,0.016742545468690747,0.04116747014215227,1,left
24.778000000000002,0.5673610602183773,1.0155350196422381,-0.22624546258993694,0.9999887675184005,5.448514805605356,-2.2440185071919836,-0.15623503616290302,0.015328806498433465,0.04836498836483652,1,left
24.778000000000002,0.5668688750611698,1.0147501633099092,-0.22489942587999018,0.9926252968814143,5.436378411638161,-2.2361801184352763,-0.15593329050318167,0.013917134464978552,0.05537713063097458,1,left
24.779,0.5663897913360857,1.0139704204568407,-0.22357112760478207,0.9853126915669171,5.423040618415766,-2.228011105993888,-0.1556062328535859,0.012507643046153708,0.062196630181952546,1,left
24.846,0.5659268363043953,1.01319626390753,-0.22226089939266672,0.9780960370632759,5.408512802649246,-2.219512319474483,-0.1552524430393005,0.01110089229938181,0.06881730350862202,1,left
24.849,0.5654827633038729,1.0124283100274647,-0.22096910456620264,0.9710205999145933,5.392808810161142,-2.2106855509181913,-0.15487063744409957,0.009697901081956367,0.07523406319212637,1,left
24.85,0.5650600274788923,1.0116673106811298,-0.21969613956685083,0.9641314831861283,5.37594496089488,-2.2015335852918025,-0.15445968612021663,0.008300152801984347,0.08144293074463063,1,left
24.851,0.5646607647918767,1.0109141446070218,-0.21844243599157787,0.9574732694224137,5.357940047289967,-2.19206023981714,-0.1540186290979748,0.0069095940259152845,0.08744104957529054,1,left
24.851,0.5642867744153018,1.0101698087632751,-0.21720846298846203,0.951089651077843,5.338815325977926,-2.1822703921132742,-0.1535466918855227,0.00552862589294849,0.09322669806944849,1,left
24.851999999999997,0.5639395049876853,1.0094354101107474,-0.21599472976256215,0.9450230490044949,5.31859450261064,-2.1721699973097035,-0.1530433000562563,0.004160088528263532,0.0987993025099342,1,left
24.909000000000002,0.5636200453589717,1.0087121581740845,-0.21480178808819447,0.9393142226049442,5.297303708930055,-2.1617660952098254,-0.15250809266956625,0.0028072389409753064,0.10415944913531748,1,left
24.91,0.5633291201396278,1.008001358527738,-0.213630234808,0.9340018806987644,5.2749714699258785,-2.1510668102428987,-0.15194093418598434,0.0014737231134951119,0.1093088942392482,1,left
24.910999999999998,0.5630670898611602,1.0073044071560449,-0.2124807142532659,0.9291223051746521,5.251628658225297,-2.1400813478639003,-0.151341924621517,0.00016354311299218081,0.11425057070865123,1,left
24.912,0.5628339551910053,1.0066227854603262,-0.2113539204462263,0.9247089964788113,5.22730843355514,-2.128819990137717,-0.1507114078367079,-0.0011189797211464602,0.11898858848757135,1,left
24.912,0.5626293645613636,1.005958055493576,-0.21025059892776277,0.9207923447747567,5.202046166671514,-2.117294091579639,-0.15004997793968322,-0.002369244335927207,0.12352822594710197,1,left
24.978,0.5624526247853715,1.0053118548501672,-0.2091715481032599,0.9173993287064216,5.175879349340957,-2.105516075381983,-0.14935848379977662,-0.003582411411366603,0.12787590993594813,1,left
24.980999999999998,0.5623027146324505,1.0046858906221325,-0.20811762008106838,0.9145532451053827,5.1488474947806875,-2.0934994299368825,-0.1486380316692501,-0.004753446354059996,0.1320391836293838,1,left
24.982,0.562178301633534,1.0040819318318128,-0.2070897209967304,0.9122734741022365,5.120992034455264,-2.081258705545321,-0.14788998591110075,-0.005877163783828732,0.1360266620403484,1,left
24.988000000000003,0.5620777623601718,1.0035017996317257,-0.2060888106931829,0.9105752829968643,5.092356215512382,-2.0688095110982876,-0.1471159678309691,-0.006948273516920157,0.1398479752051886,1,left
24.989,0.5619992061365071,1.002947354590624,-0.20511590146543598,0.9094696702868849,5.062984999853913,-2.0561685099364704,-0.1463178526110822,-0.007961428049113371,0.14351369905602349,1,left
24.989,0.5619405018157069,1.0024204808310426,-0.20417205558559337,0.9089632502364978,5.032924963267544,-2.0433534130093856,-0.1454977643325729,-0.008911271535115771,0.1470352740240571,1,left
25.006,0.5618993069921907,1.0019230673898163,-0.20325838150564948,0.9090581782010791,5.002224192145946,-2.0303829668447264,-0.1446580690148751,-0.009792490226325577,0.150424911581926,1,left
25.043000000000003,0.5618730988329352,1.0014569875175434,-0.20237602877579355,0.9097521168695227,4.970932175915984,-2.017276934451538,-0.1438013654972067,-0.010599864267383567,0.15369548922835574,1,left
25.045,0.5618592055743393,1.0010240767199639,-0.2015261817225481,0.9110382434889444,4.93909969437446,-2.004056068384388,-0.1429304739384583,-0.011328320612665768,0.15686043469594751,1,left
25.046,0.5618548376679277,1.0006261104180567,-0.20071005193070796,0.9129052980830263,4.9067786997227385,-1.990742075808646,-0.14204842181400212,-0.011972986333175112,0.1599336005668974,1,left
25.046,0.5618571176695104,1.0002647821587178,-0.1999288696277612,0.9153376726837193,4.874022192788787,-1.977357575498706,-0.14115842747193882,-0.012529240701183948,0.1629291312089584,1,left
25.111,0.5618631082494645,0.9999416832177264,-0.19918387409659427,0.9183155416864086,4.840884090815045,-1.9639260465478683,-0.14026388141351173,-0.012992763949256216,0.16586132434801182,1,left
25.114,0.5618698380283117,0.9996582842864226,-0.19847630322405743,0.9218150335999583,4.80741908039386,-1.9504717682932966,-0.139368325429215,-0.013359581131525093,0.16874448899190433,1,left
25.115,0.5618743252792402,0.9994159198422848,-0.1978073823063847,0.9258084445533652,4.7736824470224,-1.9370197508064833,-0.13847542964166748,-0.013626100459228258,0.17159280039650657,1,left
25.125,0.5618735998878724,0.9992157756867184,-0.19717831230850566,0.9302644938336097,4.739729874856435,-1.9235956554523028,-0.13758896746162677,-0.013789146006892744,0.1744201521961664,1,left
25.125999999999998,0.561864724209812,0.9990588798753927,-0.19659025787176565,0.9351486215711337,4.70561721403672,-1.910225705294709,-0.13671278848141258,-0.013845984825541066,0.1772400059642721,1,left
25.127,0.561844813508274,0.9989460969732589,-0.19604433541774283,0.9404233278417564,4.671400215686045,-1.8969365852807596,-0.13585078946418006,-0.013794348675631342,0.1800652397565457,1,left
25.176,0.561811056488976,0.9988781254351226,-0.19554160165473197,0.9460485486357652,4.637134238178764,-1.8837553321694782,-0.13500688382900272,-0.013632450910078552,0.18290799950623932,1,left
25.177,0.5617607361862846,0.9988554979171546,-0.19508304268542376,0.951982057303153,4.602873933833097,-1.870709214179713,-0.13418497016591852,-0.013358999214028293,0.18577955842739105,1,left
25.182,0.5616912512201868,0.9988785842692804,-0.1946695638161914,0.9581798762834368,4.568672928258847,-1.8578256003355837,-0.1333889001809679,-0.012973204731115545,0.1886901882953035,1,left
