time,gFx,gFy,gFz,ax,ay,az,wx,wy,wz,subject_number,foot
29.947,0.48915077746977104,1.0680825828967444,-0.29588863097218937,0.8691997846587143,3.7323682431879424,-1.8041329814142264,-0.18158620997688393,-0.0068891853084901596,0.11285142888759597,2,left
29.948,0.4894630432297825,1.068296913939201,-0.29526872223544276,0.8674655763817544,3.7297649060069293,-1.7980303014299368,-0.1824668375346655,-0.007486109620298167,0.11335508523852368,2,left
29.982,0.489854673986253,1.0684954945685086,-0.29463026818702315,0.8663881783800986,3.726855357699197,-1.7917644477883885,-0.18332607759636754,-0.008049888409483313,0.11371929407697468,2,left
29.984,0.49032338795577357,1.0686788380765695,-0.29397410845938377,0.8659803414697097,3.7236464564804437,-1.7853356791346982,-0.1841626559415917,-0.00857497711842622,0.11394710357841221,2,left
29.985,0.4908665090028299,1.068847490888341,-0.29330114726431666,0.8662503073739088,3.7201464589209423,-1.7787454098134652,-0.18497553174689288,-0.009055594816619796,0.11404240181359372,2,left
29.985,0.491480987117552,1.0690020290655196,-0.29261235172302025,0.8672016678347828,3.716365017087536,-1.7719962521251797,-0.18576390294868825,-0.009485781008892677,0.11400987636778846,2,left
30.000999999999998,0.49216342181881645,1.069143053937869,-0.29190874985023224,0.868833269744813,3.7123131720434737,-1.7650920558054488,-0.18652720989070337,-0.00985945642096201,0.11385496431475013,2,left
30.038,0.49291008871675857,1.0692711860710122,-0.291191428115363,0.8711391700933598,3.7080033464164086,-1.7580379416816299,-0.18726513728093844,-0.010170488034618185,0.11358379260325464,2,left
30.04,0.4937169692803002,1.069387056841011,-0.29046152840686673,0.8741086422698908,3.703449336132371,-1.7508403272036563,-0.1879776144444523,-0.010412758257099813,0.11320310892605022,2,left
30.041,0.4945797836722561,1.0694912972883304,-0.289720244238193,0.8777262312093363,3.6986662967117145,-1.7435069428821584,-0.18866481375570973,-0.010580237254798178,0.1127202034328329,2,left
30.041999999999998,0.49549402626528566,1.0695845244328912,-0.2889688161068317,0.881971852612195,3.693670716910581,-1.7360468394092041,-0.18932714695649586,-0.010667056024868705,0.11214282219159606,2,left
30.079,0.49645500300960294,1.069667325675499,-0.28820852595837143,0.8868209325158004,3.688480374175963,-1.7284703854010743,-0.1899652589666234,-0.01066757696902878,0.11147907360409348,2,left
30.081,0.49745786940500114,1.0697402422322833,-0.2874406907252813,0.8922445857342637,3.6831142696930974,-1.7207892557260476,-0.19058001889329207,-0.010576459542707672,0.11073732867915856,2,left
30.116,0.49849766781175125,1.0698037526807573,-0.2866666549536264,0.8982098329304322,3.6775925426429645,-1.7130164103931311,-0.19117250812255718,-0.01038872000886471,0.10992611552428339,2,left
30.118000000000002,0.49956936321922085,1.0698582576655646,-0.285887782581725,0.9046798563337296,3.6719363636550093,-1.705166063979996,-0.19174400547500195,-0.010099785134645574,0.10905400811390986,2,left
30.119,0.5006678771059067,1.0699040666595594,-0.28510544796489196,0.9116142937032649,3.666167807559332,-1.6972536455502774,-0.19229596942738195,-0.009705539830604225,0.10812950933232039,2,left
30.119,0.5017881194448467,1.0699413873990586,-0.2843210262659169,0.9189695680565194,3.6603097061401817,-1.689295748871158,-0.19283001742144473,-0.009202368736847405,0.10716092848810761,2,left
30.146,0.5029250190909399,1.0699703183034013,-0.28353588334922025,0.9266992469402472,3.6543854826686855,-1.6813100724917385,-0.19334790237856195,-0.008587191784699388,0.10615625449348434,2,left
30.175,0.5040735527750118,1.0699908439608479,-0.2827513653306929,0.9347544229409244,3.6484189705904684,-1.6733153491035375,-0.19385148671424296,-0.007857493806338002,0.1051230276951669,2,left
30.176,0.5052287729358609,1.0700028335996055,-0.2819687879991513,0.9430841092139141,3.6424342181455223,-1.6653312637433273,-0.19434271424404176,-0.007011348289071613,0.1040682143398945,2,left
30.177,0.5063858347054893,1.0700060423054762,-0.2811894264215461,0.9516356475566965,3.63645527962101,-1.657378360648613,-0.19482358031595842,-0.006047435372285014,0.10299808684012,2,left
30.177,0.5075400223690281,1.0700001146373692,-0.2804145050563114,0.9603551281593965,3.6305059939756337,-1.6494779387915717,-0.19529610053455498,-0.004965054271645601,0.10191811210687217,2,left
30.212,0.5086867754863276,1.0699845903085767,-0.2796451885925036,0.9691878182143548,3.624609754635074,-1.64165193652777,-0.1957622787146415,-0.0037641305261804357,0.10083285083157593,2,left
30.254,0.5098217147028559,1.0699589116822956,-0.2788825735897344,0.9780785923040264,3.6187892799830093,-1.6339228064849072,-0.19622407488850765,-0.0024452185896377166,0.09974587129445148,2,left
30.255,0.510940667178694,1.0699224328165067,-0.2781276808745837,0.9869723551185781,3.6130663972528403,-1.6263133821996416,-0.19668337403143865,-0.0010095001624542842,0.09865968041988966,2,left
30.255,0.5120396915080513,1.0698744296683742,-0.2773814485566807,0.9958144494232768,3.607461849344857,-1.6188467376281153,-0.1971419560322456,0.0005412215441058684,0.0975756733777695,2,left
30.256,0.5131151019050457,1.069814110925286,-0.276644725471001,1.0045510464590193,3.6019951283688307,-1.6115460399672297,-0.19760146764779657,0.002204531494822973,0.09649410247631107,2,left
30.256999999999998,0.5141634911876065,1.0697406288061242,-0.27591826484435433,1.013129518372197,3.5966843365090986,-1.6044343960759508,-0.19806339737157203,0.003977416346661676,0.09541406610291518,2,left
30.28,0.5151817517900799,1.0696530891586653,-0.27520271803832486,1.0214987929658075,3.591546074060276,-1.5975346938825101,-0.19852905391409167,0.005856281704233419,0.09433351827955283,2,left
30.311999999999998,0.5161670940149353,1.0695505604170248,-0.27449862839091993,1.0296096914633601,3.5865953542783777,-1.5908694422747585,-0.19899954857514618,0.007836973081594279,0.0932492990574661,2,left
30.313000000000002,0.5171170611312256,1.0694320814346372,-0.27380642550758116,1.0374152501988607,3.5818455445794126,-1.5844606141441961,-0.19947578155559834,0.009914800569170495,0.0921571857860519,2,left
30.314,0.5180295413933393,1.06929666864495,-0.273126420730457,1.0448710269233792,3.5773083337311626,-1.5783294960820864,-0.19995843218361992,0.012084567127329847,0.09105196505755252,2,left
30.315,0.5189027771788917,1.0691433232299894,-0.2724588046791174,1.051935391759153,3.5729937244679952,-1.5724965460563158,-0.20044795289787365,0.014340600009056674,0.08992752415283854,2,left
30.346,0.5197353712679436,1.0689710389312141,-0.27180364756253195,1.0585698013147768,3.5689100489714862,-1.566981258928146,-0.20094456659189908,0.016676784059633087,0.08877695905615964,2,left
30.389,0.5205262901148603,1.0687788109463363,-0.27116090257556813,1.0647390520997722,3.565064000901438,-1.5618020388986993,-0.20144826676509944,0.019086595308447897,0.08759269490293337,2,left
30.391,0.5212748639274419,1.0685656462484077,-0.2705304123740888,1.0704115080813592,3.5614606755617357,-1.5569760776783437,-0.20195881992556586,0.021563134119191918,0.0863666145637125,2,left
30.391,0.5219807834711276,1.0683305756737003,-0.26991191844404305,1.0755592985193798,3.5581036118869127,-1.552519237470582,-0.2024757696896722,0.024099158696530062,0.08509019077782325,2,left
30.392,0.5226440937707844,1.068072667907244,-0.26930507291903616,1.08015848454381,3.554994833717445,-1.548445938398569,-0.20299844202321415,0.026687120598441548,0.08375461708919558,2,left
30.392,0.5232651851141572,1.0677910444773693,-0.2687094516870444,1.084189194101791,3.5521348900606897,-1.5447690506276952,-0.20352595122790912,0.02931920355594243,0.08235093416924978,2,left
30.413,0.5238447818177439,1.0674848933532495,-0.2681245667490397,1.087635724506306,3.549522895092437,-1.5414997931321417,-0.20405720651568068,0.03198736612530566,0.08087015015851512,2,left
30.448,0.5243839293091491,1.0671534785711079,-0.2675498760588131,1.090486610643133,3.547156569801623,-1.53864764399539,-0.2045909191457177,0.034683388266504134,0.07930335479568502,2,left
30.45,0.5248839801576857,1.066796145383823,-0.2669847908989898,1.092734656238913,3.5450322878186515,-1.536220268769714,-0.20512561012582037,0.03739892185542059,0.07764182733005698,2,left
30.451,0.5253465792150527,1.066412322604518,-0.26642868245343204,1.0943769262436733,3.5431451273313006,-1.5342234717869487,-0.20565961850888176,0.04012554503630211,0.07587713812526382,2,left
30.451,0.5257736472669643,1.0660015240380056,-0.2658808891963346,1.0954146997653111,3.541488929647518,-1.5326611719812469,-0.2061911104619802,0.04285481981516859,0.07400124342285437,2,left
30.48,0.5261673625075998,1.065563349990262,-0.26534072584572443,1.0958533847037262,3.5400563633355646,-1.5315354011929438,-0.20671808954947996,0.045578351384414,0.07200657194362695,2,left
30.498,0.526530139763589,1.0650974893561758,-0.2648074939639222,1.0957023972684934,3.538838990958881,-1.5308463190710624,-0.20723840881815755,0.048287847163023444,0.06988610156522157,2,left
30.499000000000002,0.5268646079107039,1.0646037226615044,-0.26428049373886997,1.0949750106219682,3.5378273344313227,-1.530592236734331,-0.20774978512574002,0.05097517404268423,0.0676334247532602,2,left
30.516,0.5271735858826513,1.0640819260948535,-0.2637590359882095,1.0936881760965085,3.5370109362404922,-1.5307696436314138,-0.2082498158903111,0.053632413240579636,0.06524280221336758,2,left
30.518,0.5274600572543419,1.063532076373846,-0.26324245343482566,1.0918623198664756,3.536378416719062,-1.5313732371717461,-0.20873599827144287,0.05625191267136904,0.06270920477317943,2,left
30.518,0.5277271431116419,1.062954256610041,-0.26273011080785535,1.0895211193083914,3.5359175305983754,-1.5323959595446242,-0.209205750664777,0.05882633688149953,0.06002834410604857,2,left
30.546999999999997,0.5279780730213471,1.062348663467378,-0.2622214137198945,1.086691264410251,3.535615227422892,-1.533829048140601,-0.20965643621213995,0.061348714642072165,0.05719669383505631,2,left
30.595,0.5282161541525797,1.0617156154003609,-0.26171581630216645,1.0834022082482833,3.5354577192593277,-1.5356621043870768,-0.2100853878874784,0.06381248432151883,0.05421150314990938,2,left
30.596,0.5284447387437281,1.0610555612424746,-0.2612128275465202,1.0796859081338854,3.535430557073425,-1.5378831829250708,-0.2104899346087718,0.06621153710771008,0.05107080494981998,2,left
30.596999999999998,0.5286671901267832,1.060369088376259,-0.2607120163829689,1.0755765576909015,3.5355187160024957,-1.5404789014519467,-0.210867427627871,0.06854025805625237,0.04777342031072434,2,left
30.598000000000003,0.5288868474920386,1.059656929900908,-0.26021301560935306,1.0711103098538601,3.535706689523257,-1.5434345712353315,-0.21121526634006743,0.07079356489005881,0.044318960955694806,2,left
30.599,0.5291069896196335,1.058919970318124,-0.25971552481113597,1.0663249907231436,3.5359785924200593,-1.546734347765504,-0.21153092288494846,0.07296694449115723,0.04070783090782222,2,left
30.653000000000002,0.5293307979612726,1.058159249299052,-0.2592193123804652,1.0612598039447918,3.5363182719850097,-1.5503613983192104,-0.21181196528777801,0.07505648706504849,0.03694122779141594,2,left
30.654,0.5295613196585158,1.0573759631779553,-0.2587242167139196,1.0559550248007636,3.5367094260286946,-1.5542980783572025,-0.21205607911428842,0.07705891788496862,0.03302114385737668,2,left
30.655,0.5298014312514682,1.056571463962409,-0.25823014669422967,1.0504516829274277,3.5371357258065106,-1.5585261059833968,-0.21226108772297786,0.07897162605400099,0.02895036676171843,2,left
30.655,0.5300538039028492,1.055747255850098,-0.2577370816372791,1.0447912328463935,3.5375809424397446,-1.5630267263898707,-0.21242497132369687,0.08079268887030981,0.024732480184791922,2,left
30.656,0.5303208709214787,1.0549049894814735,-0.2572450709524701,1.0390152120329654,3.538029076014454,-1.56778086311264,-0.21254588512052908,0.08252088990694355,0.020371864411112585,2,left
30.68,0.5306047982481243,1.054046454336148,-0.2567542337729914,1.033164886819103,3.5384644857686482,-1.5727692558600588,-0.21262217674753267,0.08415572939097489,0.015873696956475114,2,left
30.730999999999998,0.5309074583795818,1.0531735697150835,-0.2562647587524946,1.0272808870297938,3.5388720176292505,-1.5779725856487807,-0.21265240305677152,0.0856974263495472,0.011243953200200264,2,left
30.733,0.5312304079963304,1.0522883747216323,-0.2557769041442482,1.0214028305564367,3.5392371241137544,-1.583371588223617,-0.2126353461274676,0.08714691261685903,0.006489406600189153,2,left
30.733,0.5315748694464079,1.0513930176855109,-0.2552909982238264,1.0155689387655968,3.5395459728580203,-1.588947156497622,-0.21257002813304443,0.08850581916624148,0.0016176274369589267,2,left
30.734,0.5319417163041734,1.0504897455477047,-0.2548074400493908,1.0098156436895989,3.539785542193112,-1.5946804323916268,-0.21245572458155235,0.08977645538437003,-0.0033630213145151005,2,left
30.735,0.5323314633871082,1.0495808937061486,-0.2543267004347298,1.004177190626688,3.5399437030287735,-1.60055288858976,-0.21229197556597798,0.0909617817512357,-0.008443392039710127,2,left
30.791,0.532744261656172,1.0486688766196781,-0.2538493229042058,0.9986852450929007,3.5400092858091776,-1.6065464013592858,-0.21207859487887099,0.09206537611356781,-0.013613564896563493,2,left
30.793000000000003,0.5331798981902351,1.0477561791893812,-0.2533759243871149,0.9933685164278564,3.5399721311935988,-1.6126433159988187,-0.21181567696672862,0.0930913935859951,-0.01886286466826011,2,left
30.795,0.5336378010212586,1.0468453487940248,-0.25290719547473006,0.9882524092385988,3.539823125020975,-1.6188265062910443,-0.21150360172366778,0.09404452008335834,-0.024179882071372852,2,left
30.796,0.5341170482896562,1.0459389878846512,-0.2524439001470796,0.9833587118528764,3.5395542215488667,-1.6250794289974615,-0.2111430371237715,0.09492991948735344,-0.029552499534185504,2,left
30.796,0.5346163810409688,1.0450397470728594,-0.25198687495071953,0.9787053298353434,3.539158460863568,-1.6313861742446283,-0.21073493970308868,0.09575317456975282,-0.03496792158528922,2,left
30.818,0.5351342190271129,1.0441503185414658,-0.251537027659652,0.9743060701556093,3.538629984945353,-1.637731512387022,-0.21028055296079187,0.09652022239069616,-0.04041271061791515,2,left
30.868000000000002,0.5356686790973434,1.043273429348942,-0.2510953354504162,0.9701704782355494,3.537964054181846,-1.6441009375914002,-0.20978140385445943,0.09723728596395965,-0.045872829920945775,2,left
30.87,0.5362175960828932,1.0424118338293926,-0.25066284254043086,0.9663037282361123,3.5371570646273183,-1.6504807081985748,-0.20923929762174862,0.09791080458844675,-0.051333696440483106,2,left
30.871,0.5367785462832603,1.041568304040343,-0.2502406571211476,0.9627065665710073,3.536206566006389,-1.6568578838807937,-0.20865631109577837,0.09854736470383157,-0.05678024484893357,2,left
30.871,0.5373488735674606,1.040745617491129,-0.24982994739321981,0.959375308635398,3.535111280460211,-1.6632203596129997,-0.208034784564743,0.09915363215407062,-0.06219700290200996,2,left
30.872,0.5379257177002192,1.039946542199296,-0.2494319366150684,0.9563018885597896,3.5338711219459444,-1.669556896383803,-0.20737731216133987,0.09973628620122248,-0.06756817717705027,2,left
30.928,0.5385060440604346,1.0391738198271383,-0.24904789717098635,0.9534739607173526,3.5324872153768725,-1.6758571480994153,-0.20668673076189267,0.10030195545731888,-0.07287774842279861,2,left
30.93,0.539086673837205,1.038430147718254,-0.2486791436613697,0.9508750491595492,3.530961911864758,-1.6821116832502359,-0.2059661073754224,0.1008571558486903,-0.07810957608949619,2,left
30.930999999999997,0.5396643141067673,1.0377181602958745,-0.24832702498509168,0.9484847385597825,3.529298792492957,-1.68831199935491,-0.20521872495602128,0.10140823090321557,-0.08324751120736544,2,left
30.930999999999997,0.540235587503245,1.0370404100246915,-0.24799291537445978,0.9462789001933039,3.5275026515392276,-1.6944505286075304,-0.20444806647772173,0.10196129505643844,-0.0882755156413347,2,left
30.932,0.5407970611916486,1.0363993481987384,-0.24767820434296292,0.9442299490363949,3.5255794527920874,-1.7005206340370411,-0.20365779705802264,0.1025221809038979,-0.09317778508717109,2,left
30.945999999999998,0.5413452746670074,1.0357973060968158,-0.2473842855420799,0.9423071306643145,3.52353625653687,-1.7065165960425304,-0.20285174396910294,0.10309639109557239,-0.09793887383637637,2,left
31.006999999999998,0.541876765879922,1.0352364773257847,-0.24711254463541424,0.9404768377524657,3.521381116817628,-1.712433589311759,-0.20203387447098417,0.10368905515176087,-0.1025438205293078,2,left
31.009,0.5423880955078021,1.0347189022389267,-0.24686434646425168,0.9387029561748327,3.5191229489693754,-1.7182676501403502,-0.20120827145379125,0.10430489124831067,-0.10697827477808232,2,left
31.009,0.5428758697008007,1.0342464550989858,-0.24664102193610316,0.9369472400528986,3.516771368003312,-1.7240156341378783,-0.2003791068868043,0.10494817297285267,-0.11122862467290899,2,left
31.01,0.5433367619755928,1.0338208343032165,-0.24644385513729153,0.935169711902575,3.5143365013698413,-1.7296751641519876,-0.19955061309667535,0.10562270100657639,-0.11528212496001859,2,left
31.011,0.5437675349053436,1.0334435557202448,-0.24627407109424207,0.9333290782561162,3.511828784920381,-1.7352445679626558,-0.19872705202073426,0.10633177945024248,-0.11912702455372431,2,left
31.064,0.5441650620170101,1.0331159490467272,-0.2461328244443157,0.9313831479300995,3.5092587538311757,-1.7407228051435806,-0.1979126828037278,0.10707819608858617,-0.12275269001935651,2,left
31.066,0.5445263501048663,1.0328391569483477,-0.2460211891447143,0.9292892433164288,3.5066368373096086,-1.746109382642309,-0.19711172822991135,0.10786420565145334,-0.12614972053810525,2,left
31.068,0.5448485619990615,1.0326141365575812,-0.24594014925080185,0.9270046008438468,3.503973160606805,-1.7514042589092427,-0.1963283404144229,0.10869151543972251,-0.12931005088186795,2,left
31.069000000000003,0.5451290396204528,1.0324416627877948,-0.24589059068093655,0.9244867599636802,3.501277355333687,-1.7566077368398272,-0.19556656623331262,0.10956127347735599,-0.13222704041341155,2,left
31.070999999999998,0.5453653270225729,1.0323223329871476,-0.24587329379855227,0.9216939406572936,3.498558380569034,-1.7617203472226635,-0.19483031334819165,0.11047406025034999,-0.13489554628428407,2,left
31.144000000000002,0.5455551931084145,1.0322565725506896,-0.2458889266037295,0.9185854094675524,3.4958243609921076,-1.7667427269019096,-0.19412331793464815,0.11142988550921387,-0.13731197868983785,2,left
31.145,0.5456966536134522,1.032244640994305,-0.24593803826062707,0.9151218340589106,3.493082450352354,-1.7716754972598003,-0.19344911494579126,0.11242819124316639,-0.1394743365774563,2,left
31.146,0.5457879916848751,1.0322866377441,-0.24602105266423285,0.9112656263069686,3.490338726508578,-1.776519147227132,-0.19281101124223277,0.11346786127094664,-0.14138222317073146,2,left
31.147,0.5458277762371305,1.032382506896299,-0.24613826197160454,0.9069812739120694,3.4875981205258255,-1.7812739225134067,-0.19221206163802695,0.11454723743865387,-0.1430368412712124,2,left
31.147,0.5458148775061837,1.0325320405919862,-0.24628982042268957,0.9022356605274973,3.4848643802381156,-1.7859397213503483,-0.19165504783648024,0.11566414191122469,-0.1444409687169425,2,left
31.148000000000003,0.5457484796820223,1.032734881114124,-0.24647573902671666,0.8969983743086023,3.4821400679685506,-1.7905159968185067,-0.19114246019360942,0.1168159042698876,-0.14559891493578458,2,left
31.201,0.5456280907585513,1.032990522054428,-0.2466958816636422,0.8912420039796184,3.4794265902067174,-1.7950016660729142,-0.19067648222700773,0.11799939169783402,-0.1465164598416487,2,left
31.201999999999998,0.5454535496983408,1.0332983089310739,-0.24694996298604133,0.8849424187923607,3.4767242523948845,-1.7993950271232648,-0.1902589778081295,0.11921104096666559,-0.1472007760101815,2,left
31.203000000000003,0.5452250308108297,1.0336574396801956,-0.2472375483259697,0.8780790247755718,3.4740323269741493,-1.803693683810464,-0.18989148101236705,0.12044689171066253,-0.14766033451026256,2,left
31.204,0.5449430450637628,1.0340669656751402,-0.2475580556546292,0.8706349881062685,3.471349122401761,-1.807894479179719,-0.18957518862155934,0.1217026209062226,-0.147904794456127,2,left
31.204,0.5446084381519218,1.0345257942129247,-0.24791075953277997,0.8625974191541567,3.4686720454992885,-1.8119934371103077,-0.18931095524794067,0.12297357857854803,-0.14794487655696462,2,left
31.28,0.5442223855549884,1.035032693417196,-0.24829479693292164,0.8539575147750886,3.465997655056136,-1.8159857123054792,-0.18909929089970207,0.12425482485075436,-0.14779222231453729,2,left
31.281999999999996,0.5437863850932962,1.0355863001993748,-0.24870917481576585,0.8447106587515159,3.4633217096785947,-1.8198655500033056,-0.1889403605563132,0.1255411686045915,-0.1474592431503933,2,left
31.283,0.5433022473815018,1.0361851315155717,-0.24915277937167274,0.8348564811445209,3.4606392183429695,-1.8236262588733942,-0.18883398525286493,0.12682720804759604,-0.14695896590726687,2,left
31.284000000000002,0.5427720843700651,1.0368275985602933,-0.24962438671628007,0.8243988775828477,3.4579445049334026,-1.827260201715097,-0.18877964446571932,0.12810737326710017,-0.14630488121503524,2,left
31.285,0.5421982962121791,1.0375120224566836,-0.25012267440740116,0.8133459892500604,3.4552312952229385,-1.8307588074214889,-0.18877647994000687,0.12937597061664619,-0.14551079952654974,2,left
31.285,0.5415835569738066,1.038236649187495,-0.25064623285604537,0.8017101438566041,3.4524928296766015,-1.8341126056011574,-0.18882330116869725,0.1306272287547683,-0.144590717464583,2,left
31.338,0.5409307996148159,1.0389996623038287,-0.2511935761670148,0.7895077581250449,3.449722001960561,-1.8373112837409944,-0.18891859261901706,0.13185534625887713,-0.14355869542515576,2,left
31.34,0.5402431997840019,1.039799193719885,-0.2517631527283683,0.7767592047915038,3.446911519114054,-1.8403437647754126,-0.18906052272219154,0.13305454080439033,-0.14242874659284505,2,left
31.34,0.5395241572699926,1.0406333337469635,-0.25235335611046267,0.7634886516767365,3.4440540732873646,-1.8431982997100655,-0.18924695463720292,0.1342190998557304,-0.14121473733097406,2,left
31.340999999999998,0.5387772745695083,1.041500141353486,-0.25296253670387286,0.7497238829076405,3.441142511586123,-1.8458625681605305,-0.18947545885220632,0.13534343253093992,-0.13993029873683177,2,left
31.342,0.5380063331411783,1.0423976553809662,-0.2535890143578998,0.7354961098394639,3.4381699939250314,-1.848323781453108,-0.18974332778243294,0.13642212178893304,-0.1385887488414118,2,left
31.415,0.5372152681285263,1.043323906990988,-0.25423109181755577,0.7208397746753897,3.435130134847256,-1.8505687861512985,-0.19004759257634643,0.13744997580349821,-0.13720302476048746,2,left
31.416999999999998,0.5364081418364061,1.0442769329358346,-0.2548870681921467,0.705792347249812,3.4320171286285217,-1.8525841676581507,-0.19038504228912992,0.1384220776728568,-0.13578562427606686,2,left
31.418000000000003,0.5355891158190561,1.0452547890679271,-0.25555525163106757,0.6903941149345034,3.428825857657362,-1.8543563539015198,-0.1907522454876379,0.13933383312609934,-0.1343485566374855,2,left
31.419,0.5347624213357985,1.0462555638293691,-0.2562339707592394,0.6746879656256514,3.425551984082766,-1.8558717191086578,-0.19114557426182016,0.14018101616687015,-0.13290330243365606,2,left
31.419,0.5339323281157384,1.0472773915258016,-0.2569215847363699,0.6587191637686224,3.4221920247202844,-1.8571166876758995,-0.19156123042505557,0.14095981262341795,-0.13146078187219506,2,left
31.42,0.5331031116448643,1.0483184649344346,-0.2576164919243407,0.6425351191819004,3.4187434094815825,-1.8580778381791665,-0.1919952733581289,0.14166686152346106,-0.13003132981073498,2,left
31.475,0.5322790192839614,1.0493770466834682,-0.25831713718484006,0.6261851474687018,3.415204524963085,-1.8587420077736203,-0.19244364875257036,0.14229929414655965,-0.12862467529720875,2,left
31.476999999999997,0.531464235441382,1.0504514789418913,-0.25902201782837325,0.6097202190543127,3.4115747472966844,-1.8590963975960193,-0.19290221760631973,0.14285477044696698,-0.12724992373458807,2,left
31.476999999999997,0.5306628459578282,1.051540191154647,-0.25972968824622544,0.5931926929145176,3.4078544697361135,-1.859128679985852,-0.19336678499965265,0.1433315122525779,-0.1259155404312303,2,left
31.478,0.5298788019561003,1.0526417057293138,-0.26043876331595145,0.5766560320724629,3.404045129095301,-1.8588271079236218,-0.19383312827652655,0.1437283324858536,-0.12462933465674131,2,left
31.479,0.5291158836418279,1.0537546416067707,-0.2611479207401987,0.5601644998926307,3.400149232756442,-1.8581806256501816,-0.19429702437787907,0.1440446598455729,-0.12339844362489916,2,left
31.499000000000002,0.5283776647512867,1.054877715621142,-0.26185590253927543,0.543772837535978,3.3961703867190627,-1.85717897730511,-0.1947542762262941,0.14428055872568057,-0.12222931617001191,2,left
31.548000000000002,0.5276674784472585,1.0560097416786225,-0.2625615160071678,0.5275359233366288,3.3921133249561777,-1.8558128093129262,-0.19520073814638098,0.14443674433485507,-0.12112769607472883,2,left
31.55,0.5269883854728743,1.0571496280555295,-0.2632636345259321,0.5115084146586941,3.387983940274128,-1.854073763312522,-0.19563234032219082,0.14451459301770483,-0.1200986050457826,2,left
31.551,0.5263431452351205,1.0582963733343995,-0.26396119860620926,0.49574437242858305,3.3837893167478024,-1.8519545583458175,-0.19604511229516006,0.1445161477049098,-0.1191463253581781,2,left
31.552,0.5257341902205731,1.0594490615339205,-0.264653217380486,0.4802968687196323,3.379537763416908,-1.849449062114057,-0.19643520551697116,0.14444411805258514,-0.11827438230784361,2,left
31.553,0.5251636039140298,1.0606068568822058,-0.2653387706303097,0.46521757964092914,3.3752388473322057,-1.8465523514519664,-0.19679891499135144,0.14430187417065868,-0.11748552682772216,2,left
31.611,0.524633102334394,1.0617689985716705,-0.26601701131802,0.4505563692296584,3.370903421191587,-1.8432607624017614,-0.1971327000497068,0.14409343247302403,-0.11678171874180775,2,left
31.614,0.5241440194527986,1.0629347958176372,-0.26668716847894613,0.43636087244769306,3.366543639421327,-1.8395719305511247,-0.1974332042944925,0.1438234325488328,-0.11616411101255202,2,left
31.615,0.5236972969953841,1.0641036235333914,-0.26734855023244203,0.42267608589761324,3.362172959131937,-1.8354848229381597,-0.19769727472447426,0.1434971046143514,-0.1156330351225497,2,left
31.616,0.5232934791742848,1.0652749187838149,-0.2680005466493972,0.4095439757986761,3.357806127011596,-1.8309997639772284,-0.19792198002931144,0.14312022758042908,-0.11518798775473353,2,left
31.616999999999997,0.522932712605286,1.0664481779456918,-0.2686426322588405,0.3970031132780006,3.3534591557942717,-1.8261184584984496,-0.1981046279600837,0.14269907838879972,-0.1148276196236381,2,left
31.680999999999997,0.5226147512412538,1.0676229543615454,-0.26927436805022503,0.3850883442224824,3.349149293264654,-1.8208440141972482,-0.198242781540928,0.14224037425125877,-0.11454972859203882,2,left
31.686,0.5223389657643871,1.0687988562501918,-0.2698954029217897,0.3738304965676894,3.3448949849772274,-1.8151809644043275,-0.19833427380830868,0.14175120997060273,-0.11435125991946096,2,left
31.688000000000002,0.5221043566535045,1.069975544583218,-0.2705054745919901,0.3632561254734371,3.3407158308753404,-1.809135291315918,-0.19837722084285492,0.14123899197710227,-0.11422831577735161,2,left
31.688000000000002,0.5219095702271017,1.0711527304352322,-0.27110440997367224,0.3533872965919695,3.3366325358601987,-1.8027144495128105,-0.19837003299992198,0.14071136973319356,-0.11417617488444239,2,left
31.689,0.5217529173103022,1.0723301710675404,-0.2716921249387814,0.3442414088369948,3.3326668546711384,-1.7959273888137666,-0.1983114243234299,0.14017616461399607,-0.11418932240411334,2,left
31.69,0.5216323944913623,1.0735076639454566,-0.2722686233421941,0.33583106022457704,3.3288415319990805,-1.7887845741005963,-0.19820042014913686,0.13964129629232522,-0.11426149014472635,2,left
31.750999999999998,0.5215457080587481,1.0746850380751438,-0.272833995148455,0.328163961559344,3.3251802390666394,-1.7812979989693265,-0.19803636291219887,0.1391147069011055,-0.1143857072101192,2,left
31.753,0.5214903006896898,1.0758621423438284,-0.27338841352109683,0.321242901541095,3.3217075075974054,-1.773481190842621,-0.1978189161213158,0.13860428398550043,-0.11455436111644421,2,left
31.754,0.5214633807960196,1.0770388309536507,-0.27393213080123796,0.3150657647081979,3.318448661537003,-1.765349206584815,-0.1975480662996682,0.13811778425067472,-0.11475926869264082,2,left
31.755,0.5214619540635397,1.0782149465904882,-0.2744654733871957,0.30962560243584397,3.3154297465777183,-1.7569186184417276,-0.19722412255577115,0.1376627604288342,-0.11499175537214555,2,left
31.756,0.5214828562840061,1.0793903024030203,-0.2749888355758149,0.3049107566623943,3.312677457092382,-1.7482074902730136,-0.19684771349962382,0.13724649284980256,-0.11524274161476335,2,left
31.814,0.5215227864004341,1.080564663894262,-0.27550267243646026,0.3009050344847782,3.310219058161837,-1.7392353439948287,-0.19641978138132632,0.13687592630586357,-0.11550283589678886,2,left
31.816999999999997,0.5215783388622264,1.0817377316014103,-0.2760074917968225,0.29758792900409436,3.3080822969214614,-1.7300231160613777,-0.1959415734298873,0.13655761230324287,-0.11576243416939075,2,left
31.818,0.5216460346738906,1.0829091253224807,-0.2765038454570289,0.2949348802702411,3.3062952955310165,-1.7205931037640307,-0.19541463039114224,0.1362976566990479,-0.11601182578595973,2,left
31.825,0.5217223507853156,1.0840783706817725,-0.2769923198279207,0.292917571362431,3.3048864202750683,-1.7109689011596987,-0.19484077226355598,0.13610167272261542,-0.116241305899147,2,left
31.826,0.5218037477847314,1.0852448887613757,-0.27747352627539923,0.2915042556643586,3.3038841261625507,-1.701175324451178,-0.19422208123053927,0.1359747393803655,-0.11644129432831794,2,left
31.826999999999998,0.5218866961582462,1.0864079892467897,-0.27794809147940347,0.2906601097935305,3.3033167808385198,-1.6912383265526807,-0.1935608818033449,0.1359213652325379,-0.11660246068514384,2,left
31.881999999999998,0.521967701527726,1.0875668671905636,-0.27841664807922123,0.29034760521098885,3.3032124734074673,-1.6811849005063781,-0.19285971826635281,0.13594545747592185,-0.11671585448013337,2,left
31.884,0.5220433292742954,1.0887206032480818,-0.2788798258287143,0.290526893281365,3.3035988123678983,-1.6710429714919512,-0.19212132965660636,0.13605029616888265,-0.1167730370160667,2,left
31.885,0.5221102288508638,1.0898681670741541,-0.2793382434287633,0.2911562016903857,3.304502714337604,-1.6608412773086847,-0.19134862258721738,0.13623851338075066,-0.11676621080931966,2,left
31.885,0.522165157882633,1.0910084234361725,-0.2797925010962679,0.29219224187045306,3.3059501838495606,-1.650609237285959,-0.19054464218643025,0.13651207712010507,-0.11668834318237671,2,left
31.885,0.5222050059136416,1.0921401405570623,-0.28024317379585945,0.29359062699156935,3.3079660848566106,-1.6403768097517035,-0.18971254148466996,0.13687228008370708,-0.11653328177534028,2,left
31.948,0.5222268175413904,1.0932620003023221,-0.2806908049963336,0.2953062978603904,3.310573907769507,-1.6301743389814254,-0.18885554986540298,0.13731973348270035,-0.11629585932717153,2,left
31.951,0.5222278147409675,1.094372609945884,-0.2811359008259419,0.297293950082962,3.313795541587361,-1.6200323939781176,-0.18797694138079574,0.13785436630281706,-0.11597198447808184,2,left
31.951999999999998,0.5222054182624816,1.0954705151856798,-0.28157892450332284,0.2995084536319592,3.3176510638660917,-1.6099816022265592,-0.18708000353225368,0.13847543026658776,-0.11555871615636112,2,left
31.962,0.5221572679482551,1.096554213813501,-0.2820202909064354,0.3019052582102136,3.322158557984027,-1.6000524809357979,-0.18616800675437245,0.13918151060562542,-0.11505432057444887,2,left
31.963,0.5220812417051666,1.0976221692227106,-0.2824603611782778,0.304440781962889,3.3273339609165524,-1.5902752676730032,-0.1852441746753371,0.13997054262717348,-0.11445831062772689,2,left
31.964000000000002,0.521975472816769,1.0986728230120077,-0.28289943735054535,0.30707278361561424,3.333190940619605,-1.5806797529695251,-0.1843116553635305,0.14083983386584956,-0.11377146743583906,2,left
31.983,0.5218383652907709,1.0997046062688838,-0.2833377570515019,0.30976071873096034,3.3397408009705694,-1.5712951181387034,-0.1833734940885655,0.1417860912954846,-0.112995843377578,2,left
32.013000000000005,0.5216686069300394,1.100715949485881,-0.28377548848588585,0.3124660806046511,3.3469924127331616,-1.5621497807284077,-0.18243260830186306,0.14280545290048616,-0.11213474575428231,2,left
32.02,0.5214651798665642,1.101705291401572,-0.28421272606759707,0.315152726014661,3.35495216994383,-1.5532712485612086,-0.18149176535460784,0.14389352302049807,-0.11119270061610291,2,left
32.021,0.5212273684746666,1.1026710873350043,-0.2846494872598289,0.3177871858651183,3.36362397163528,-1.5446859824986774,-0.18055356310077983,0.14504541089065856,-0.11017539759293546,2,left
32.022,0.520954764674235,1.1036118177068908,-0.2850857112012913,0.32033896046676014,3.373009228488354,-1.5364192678180022,-0.17962041326309508,0.14625577142133542,-0.10908961844194255,2,left
32.080999999999996,0.5206472705015602,1.1045259974263255,-0.28552125956924707,0.3227807978658986,3.3831068918574405,-1.5284950936618547,-0.17869452735268126,0.14751884698858955,-0.10794315298571158,2,left
32.083,0.5203050977042032,1.105412186751508,-0.2859559199337758,0.32508895124018317,3.393913498750062,-1.520936039252848,-0.1777779049849389,0.14882850931476635,-0.1067447051956953,2,left
32.084,0.5199287642623885,1.1062690040223444,-0.28638941158721365,0.327243410049476,3.4054232241952618,-1.5137631651368375,-0.1768723245269695,0.15017830107312047,-0.10550379052085457,2,left
32.098,0.5195190880308673,1.1070951400062488,-0.28682139338796436,0.329228100815451,3.4176279347051164,-1.5069959084096392,-0.17597933606359095,0.15156147715849608,-0.10423062464206569,2,left
32.1,0.519077177905543,1.1078893724747565,-0.2872514726153425,0.33103105507600883,3.4305172410002824,-1.5006519829599019,-0.17510025667931126,0.1529710456278109,-0.10293600364886964,2,left
32.1,0.5186044231715727,1.108650578790281,-0.28767921359314624,0.33264454209269084,3.4440785513969367,-1.4947472885420439,-0.17423616802591754,0.1543998083750462,-0.10163117586983078,2,left
32.147,0.5181024821237467,1.1093777445628161,-0.2881041452100588,0.33406516343406895,3.4582971282820587,-1.489295833886604,-0.17338791600665232,0.155840401909736,-0.10032770676173074,2,left
32.149,0.5175732711053098,1.1100699678804902,-0.28852576728030394,0.3352939072782504,3.4731561495079872,-1.4843096777498883,-0.17255611215828895,0.15728533915557597,-0.09903734037605369,2,left
32.156,0.5170189540645764,1.1107264602961384,-0.28894355639751723,0.3363361615743165,3.4886367754627576,-1.4797988894540108,-0.17174113620197756,0.15872705341227045,-0.09777186219186339,2,left
32.157,0.5164419311571122,1.111346546272979,-0.28935697197816834,0.33720168592264255,3.5047182219766095,-1.4757715291630253,-0.1709431395136893,0.16015794493081262,-0.0965429674132389,2,left
32.157,0.5158448245356978,1.1119296622370813,-0.2897654628037602,0.337904542393267,3.5213778388887094,-1.4722336476493854,-0.17016204976897575,0.1615704293050823,-0.09536213758578693,2,left
32.216,0.5152304608072986,1.1124753562610015,-0.2901684743077206,0.3384629865790777,3.538591193006818,-1.469189304148995,-0.1693975772967197,0.16295698618967905,-0.09424052769588276,2,left
32.218,0.5146018510941315,1.1129832895564575,-0.2905654568791612,0.33889932212071594,3.5563321522268323,-1.4666405988213012,-0.16864922356315531,0.1643102071817997,-0.09318886519847283,2,left
32.236,0.5139621697775755,1.1134532400332464,-0.2909558748984038,0.33923972327806523,3.574572966800424,-1.4645877153656919,-0.1679162919533425,0.1656228424046885,-0.09221736154980659,2,left
32.238,0.513314732285457,1.1138851068345836,-0.29133921560333303,0.33951403034614047,3.59328434639729,-1.4630289714579177,-0.16719790087613537,0.16688784571887405,-0.09133563633852108,2,left
32.238,0.5126629717394058,1.1142789146486787,-0.291714997010036,0.33975552311488916,3.6124355363920917,-1.4619608784715221,-0.16649299919049415,0.1680984185650654,-0.09055265401207901,2,left
32.239000000000004,0.5120104141642023,1.1146348175485217,-0.29208277463214655,0.34000067779550497,3.63199439946428,-1.461378214061728,-0.165800383934681,0.16924805243647045,-0.08987667308806717,2,left
32.279,0.5113606520549422,1.1149531026666113,-0.29244214698558685,0.34028891131856154,3.6519275072553574,-1.4612741104683968,-0.16511872025816046,0.17033056994820175,-0.08931520720150357,2,left
32.281,0.5107173162394837,1.1152341937288277,-0.2927927598379722,0.3406623145665185,3.6722002440148698,-1.4616401596794313,-0.16444656330889543,0.17134016441734892,-0.08887499637007613,2,left
32.294000000000004,0.5100840461064768,1.1154786540940018,-0.2931343091760766,0.34116537480168563,3.6927769226039597,-1.4624665356436712,-0.16378238170405543,0.17227143783339793,-0.08856198624155871,2,left
32.295,0.5094644583518374,1.1156871888949154,-0.29346654295724195,0.34184468729056305,3.7136209129136746,-1.4637421335329612,-0.16312458207920996,0.17311943710964095,-0.0883813132297513,2,left
32.296,0.5088621144240606,1.1158606459616258,-0.293789261755342,0.34274865608237093,3.73469478257887,-1.4654547256070047,-0.16247153397174918,0.17387968852608868,-0.08833729370083077,2,left
32.348,0.5082804868899455,1.1160000152827336,-0.29410231839645656,0.3439271836831782,3.7559604489828264,-1.467591130998805,-0.1618215941613212,0.1745482302853281,-0.08843341551413597,2,left
32.35,0.5077229250961749,1.1161064267881826,-0.29440561668040277,0.34543134897734906,3.777379339952582,-1.4701373927129786,-0.16117312982118182,0.1751216431273297,-0.08867233072635416,2,left
32.371,0.507192620813391,1.1161811462309092,-0.29469910936256577,0.3473130725318941,3.7989125596590503,-1.4730789528933539,-0.16052454022089366,0.17559707898281093,-0.08905584898278018,2,left
32.372,0.5066925748711504,1.116225569052552,-0.29498279572159747,0.3496247686368845,3.8205210571231447,-1.4764008196546088,-0.15987427694960551,0.17597228757875466,-0.08958493151044387,2,left
32.373000000000005,0.5062255658377923,1.116241212377885,-0.29525671914365964,0.3524189838262272,3.8421657963254274,-1.480087722800691,-0.15922086274234287,0.176245640490408,-0.09025968567708799,2,left
32.374,0.5057941215034248,1.116229705467125,-0.29552096508732567,0.35574802186271515,3.8638079276262074,-1.4841242579769616,-0.15856290911818466,0.17641615137283337,-0.09107936002532982,2,left
32.412,0.5054004935475475,1.1161927789347021,-0.29577565960664237,0.3596635553246183,3.8854089594928416,-1.4884950191813089,-0.15789913310944456,0.17648349068203328,-0.09204233966116641,2,left
32.414,0.5050466355660913,1.116132253008898,-0.2960209684528439,0.36421622412823546,3.906930927933247,-1.4931847194341166,-0.1572283732907184,0.1764479936181427,-0.09314614190698972,2,left
32.431999999999995,0.5047341846336241,1.1160500252626404,-0.29625709668172473,0.36945522201588754,3.9283365600233484,-1.4981782994649804,-0.15654960519020186,0.17631066078386234,-0.09438741218475467,2,left
32.434,0.5044644466750432,1.115948058480053,-0.2964842886160413,0.3754278748555936,3.9495894281859383,-1.5034610249814353,-0.1558619560722211,0.17607315148115368,-0.09576192019066943,2,left
32.435,0.5042383859841174,1.1158283693353155,-0.29670282797539466,0.38217921966763657,3.970654092363944,-1.5090185743573914,-0.15516471894986325,0.1757377696903717,-0.09726455675292948,2,left
32.481,0.504056619252217,1.1156930182681148,-0.29691303802514113,0.38975159611027005,3.991496227500614,-1.5148371192862493,-0.1544573654777954,0.17530744284213498,-0.09888933234694601,2,left
32.484,0.5039194144567276,1.1155441005657527,-0.29711528164909423,0.3981842592133305,4.012082734534082,-1.5209034003223671,-0.15373955725934818,0.17478569352884196,-0.10062937856653217,2,left
32.497,0.5038266946583174,1.115383738418202,-0.29730996126835,0.40751301688784614,4.03238183422534,-1.5272047980902264,-0.1530111552179003,0.17417660426556655,-0.1024769535262449,2,left
32.507,0.5037780461212314,1.115214073633636,-0.2974975185525963,0.4177698932269106,4.052363144037662,-1.5337294003025943,-0.1522722268913472,0.17348477534338022,-0.1044234515878928,2,left
32.509,0.5037727297308456,1.1150372607317796,-0.2976784339184987,0.42898282007411065,4.071997739817352,-1.5404660645893231,-0.1515230516270741,0.172715275900051,-0.10645941762558302,2,left
32.51,0.5038096948392472,1.114855460200701,-0.2978532258355055,0.4411753630163383,4.091258206561093,-1.5474044771154785,-0.15076412369141903,0.1718735889207484,-0.1085745667025835,2,left
32.546,0.5038875951558992,1.1146708317005694,-0.29802244994062643,0.4543664900038009,4.11011868396328,-1.5545352069549985,-0.14999615333169977,0.1709655519526966,-0.11075781133554101,2,left
32.567,0.5040048066938577,1.114485526789017,-0.2981866979128358,0.46857038856077404,4.128554910895416,-1.5618497561301476,-0.14922006584224798,0.16999729591280519,-0.11299729924517266,2,left
32.569,0.5041594479516299,1.1143016804051344,-0.29834659599716173,0.48379633288206403,4.1465442697760935,-1.5693406049028589,-0.14843699867318597,0.16897518377820075,-0.11528046371940877,2,left
32.57,0.5043494025141518,1.1141214002460644,-0.29850280303581816,0.5000485982815562,4.164065829198472,-1.5770012512906493,-0.14764829660012913,0.16790574990989204,-0.1175940871629568,2,left
32.571,0.5045723441880332,1.1139467535037555,-0.298656007861426,0.5173264190600534,4.181100382242869,-1.5848262434345546,-0.14685550496603952,0.1667956402220077,-0.119924377233699,2,left
32.613,0.5048257646407442,1.1137797510259222,-0.29880692591187197,0.5356239868559387,4.1976304785571,-1.5928112037954336,-0.14606036100734782,0.1656515533218809,-0.12225705457157571,2,left
32.614000000000004,0.5051070031598007,1.1136223295501495,-0.29895629496291626,0.5549304883332655,4.213640449467252,-1.6009528447825723,-0.14526478327285364,0.1644801827140696,-0.12457745137591231,2,left
32.646,0.5054132776314382,1.113476332987002,-0.29910486994779983,0.5752301819534938,4.2291164257226255,-1.6092489757250135,-0.14447085913744004,0.16328816010359656,-0.1268706205375901,2,left
32.649,0.5057417155096025,1.1133434937009783,-0.29925341687927776,0.5965025132550948,4.244046346038704,-1.6176985009543299,-0.14368083040903987,0.16208199980154595,-0.12912145528268665,2,left
32.65,0.5060893836455184,1.1132254145571814,-0.2994027058873881,0.6187222671256495,4.25841995177523,-1.6263014083867036,-0.14289707702646978,0.160868044299241,-0.13131481918936622,2,left
32.650999999999996,0.5064533162227266,1.1131235523885927,-0.2995535033799555,0.6418597550303095,4.272228761515276,-1.635058747780775,-0.14212209884523697,0.1596524114250355,-0.13343568571545691,2,left
32.681,0.5068305404661423,1.1130392034914918,-0.29970656337781953,0.6658810356868764,4.285466020879269,-1.6439725980600062,-0.141358495507505,0.1584409441238783,-0.13546928507035172,2,left
32.704,0.5072181002179337,1.1129734916965226,-0.29986261820746096,0.6907481686229446,4.298126625731691,-1.6530460234700686,-0.14060894439190844,0.1572391642476571,-0.1374012555404395,2,left
32.705999999999996,0.5076130778117891,1.1129273594474893,-0.3000223688918853,0.7164195005767823,4.310207018506166,-1.662283018554047,-0.1398761766676574,0.15605223136241916,-0.13921779687162436,2,left
32.705999999999996,0.508012614774406,1.112901562128669,-0.30018647564542555,0.7428499848108764,4.321705057686965,-1.6716884419710734,-0.1391629516193925,0.15488490678224698,-0.14090582346738703,2,left
32.707,0.5084139317985676,1.1128966656606596,-0.3003555488306905,0.7699915327380453,4.332619861083439,-1.6812679391971506,-0.13847202966370584,0.15374152238542824,-0.1424531138174582,2,left
32.746,0.5088143483690173,1.1129130472194426,-0.30053014066755657,0.797793393905111,4.342951626532935,-1.6910278542108195,-0.13780614461945226,0.15262595352886202,-0.1438484515681649,2,left
32.747,0.5092113023922448,1.1129508988340477,-0.30071073792920716,0.8262025543383068,4.352701439067416,-1.7009751303809766,-0.13716797565297464,0.15154159554686347,-0.14508175479367583,2,left
32.782,0.5096023700473288,1.1130102335309167,-0.30089775577113814,0.855164139899422,4.361871076578053,-1.711117200838072,-0.1365601191047892,0.15049134368111594,-0.14614419198023995,2,left
32.784,0.5099852858305738,1.113090893613536,-0.3010915327088272,0.884621814660787,4.3704628230096505,-1.7214618685470149,-0.1359850604595808,0.14947757672987752,-0.1470282838131705,2,left
32.785,0.5103579625394088,1.1131925606248394,-0.3012923266232264,0.9145181703519354,4.378479292713792,-1.7320171761864869,-0.135445147046546,0.14850214522667557,-0.14772798905878037,2,left
32.785,0.510718510797994,1.113314766485914,-0.3015003115316128,0.9447951062818397,4.385923266959156,-1.7427912661343101,-0.1349425622534971,0.14756636522993427,-0.14823877226254584,2,left
32.814,0.5110652576473333,1.1134569051977645,-0.3017155747417555,0.9753941997747895,4.392797544855486,-1.7537922321354678,-0.13447930184194568,0.1466710185339699,-0.148557651554707,2,left
32.841,0.5113967636791997,1.113618244423437,-0.3019381140070912,1.0062570669640991,4.399104813996878,-1.7650279666067434,-0.1340571525971655,0.14581635962389106,-0.1486832258807775,2,left
32.843,0.5117118381737901,1.1137979363050403,-0.3021678344366068,1.0373257131227371,4.404847546503923,-1.7765060091040639,-0.13367767335779943,0.14500212931699202,-0.14861568158819963,2,left
32.843,0.5120095517391678,1.1139950270027617,-0.3024045450798132,1.068542870620109,4.410027921611095,-1.7882334006985847,-0.13334217846416194,0.1442275744343773,-0.14835677863323607,2,left
32.844,0.512289246078435,1.1142084646646142,-0.30264795528636185,1.0998523220371375,4.414647771112171,-1.8002165469703773,-0.1330517237252243,0.14349147186613517,-0.1479098170664055,2,left
32.881,0.5125505406945748,1.114437105822025,-0.30289767123048295,1.1311992066385592,4.41870854359929,-1.8124610907577883,-0.13280709503812407,0.14279215484875082,-0.14727958467353253,2,left
32.882,0.512793336508488,1.1146797205431351,-0.3031531933449721,1.1625303095390094,4.42221128572941,-1.82497179503509,-0.1326087997604337,0.14212753981830545,-0.1464722864296212,2,left
32.919000000000004,0.5130178163658309,1.11493499706484,-0.3034139155583773,1.1937943335272176,4.425156640234569,-1.8377524360093425,-0.13245706087483422,0.14149515318365247,-0.14549545602745645,2,left
32.921,0.5132244422531455,1.1152015469405467,-0.3036791269727131,1.2249421536382559,4.427544860687621,-1.8508057064716499,-0.132351813952239,0.14089215790860884,-0.14435784952299954,2,left
32.922,0.5134139490870823,1.1154779117622622,-0.3039480160885736,1.2559270545637324,4.429375843033518,-1.8641331294387644,-0.13229270687629152,0.14031537995129117,-0.1430693213869199,2,left
32.922,0.513587335273759,1.1157625722027116,-0.3042196772422422,1.2867049506192032,4.4306491735064935,-1.8777349820922726,-0.13227910210976512,0.13976133485903683,-0.14164068470934763,2,left
32.946999999999996,0.5137458504384518,1.1160539595601369,-0.3044931187180507,1.3172345861355748,4.431364190611393,-1.8916102298759778,-0.1323100809549684,0.13922625526783033,-0.14008355992927912,2,left
32.978,0.5138909807168395,1.1163504690381236,-0.30476727176713525,1.3474777108068983,4.43152005535289,-1.9057564703475476,-0.13238444907786268,0.13870612030544857,-0.13841021791786412,2,left
32.98,0.51402443233548,1.1166504729091533,-0.30504099954194286,1.3773992226741882,4.431115821954202,-1.920169886233865,-0.13250074276666526,0.13819668762167728,-0.1366334219636144,2,left
32.982,0.5141481149560266,1.116952331686639,-0.3053131054018288,1.4069672732763754,4.430150503245829,-1.9348452072877216,-0.13265723581643604,0.13769352819007813,-0.13476627146960343,2,left
32.983000000000004,0.5142641262832301,1.1172544028996543,-0.3055823410268307,1.4361533328598404,4.42862312889284,-1.9497756811341642,-0.13285194727947064,0.13719206354424918,-0.13282205031113317,2,left
32.997,0.514374738067563,1.1175550485869055,-0.3058474151885197,1.4649322155255167,4.426532799051457,-1.9649530550658563,-0.1330826504499895,0.13668760493297685,-0.13081408339760467,2,left
33.055,0.5144823821581125,1.1178526428962836,-0.3061070036601242,1.493282064807265,4.423878740902275,-1.980367573698203,-0.13334688335968675,0.13617539400722667,-0.1287556040948678,2,left
33.056999999999995,0.5145896351536007,1.1181455806106178,-0.3063597603450637,1.521184300310415,4.420660377989192,-1.9960079990185957,-0.13364196089514194,0.1356506448832829,-0.12665963356713744,2,left
33.056999999999995,0.5146992011239693,1.118432286918681,-0.3066043294018127,1.5486235264488826,4.416877419192884,-2.0118616572454524,-0.13396498855615885,0.1351085875548721,-0.12453887221017673,2,left
33.058,0.5148138926213003,1.118711228285445,-0.3068393576302875,1.5755874068075901,4.412529966619746,-2.027914511509655,-0.1343128778617243,0.13454451260374925,-0.12240560312756572,2,left
33.059,0.514936610277205,1.1189809237329889,-0.30706350599252263,1.6020665124420144,4.407618633664967,-2.044151253280123,-0.13468236344005843,0.13395381691299915,-0.12027160739028214,2,left
33.08,0.5150703210357548,1.1192399558273016,-0.3072754594428698,1.6280541551329508,4.402144660933898,-2.060555402648709,-0.1350700218927555,0.13333204964590792,-0.11814809043908082,2,left
33.115,0.5152180349090748,1.1194869812675976,-0.30747393497398284,1.6535462138783883,4.396110020780462,-2.077109410072768,-0.1354722925527768,0.13267495750800556,-0.11604561877763861,2,left
33.117,0.5153827801364255,1.1197207413746213,-0.307657688207596,1.6785409579803328,4.389517506757006,-2.0937947566428994,-0.13588550022642712,0.13197852855499617,-0.11397406631591053,2,left
33.117,0.5155675767098584,1.119940072541759,-0.30782551881015546,1.70303886734819,4.382370807344623,-2.110592052426444,-0.13630587992056453,0.13123903424568384,-0.11194256999909376,2,left
33.118,0.515775408372395,1.1201439162313473,-0.3079762748421165,1.7270424498812,4.374674564316329,-2.1274811330104657,-0.13672960334920586,0.13045306965976558,-0.1099594940454017,2,left
33.147,0.5160091933134846,1.1203313279006182,-0.30810885607815597,1.750556054737299,4.366434417932354,-2.14444115474944,-0.13715280668839844,0.12961759180549706,-0.10803240121551151,2,left
33.193000000000005,0.5162717537828676,1.1205014844402061,-0.30822221633781044,1.773585678397729,4.357657044492603,-2.1614506899091914,-0.13757161887081298,0.12872995591778563,-0.10616802901292584,2,left
33.194,0.516565784826385,1.1206536899746948,-0.30831536489327077,1.7961387593816167,4.348350193618216,-2.1784878232799776,-0.1379821898889576,0.12778794967146093,-0.10437226923836256,2,left
33.195,0.5168938225376196,1.1207873799312904,-0.30838736707900366,1.8182239585170121,4.338522730784139,-2.1955302514507276,-0.13838071889529727,0.12678982527812324,-0.10265015026416874,2,left
33.195,0.5172582125741468,1.120902123250946,-0.3084373443252936,1.8398509235701452,4.328184687295713,-2.212555385250581,-0.13876348204826136,0.12573432942739612,-0.10100582187913694,2,left
33.195,0.5176610798728222,1.1209976227158338,-0.3084644739280037,1.8610300381533043,4.317347317969907,-2.229540455307101,-0.13912686000496285,0.12462073087935774,-0.09944254246138719,2,left
33.213,0.5181043003237131,1.121073713528443,-0.30846798886159466,1.8817721553728617,4.306023165998913,-2.24646261971564,-0.13946736481089506,0.12344884522899041,-0.09796266788140355,2,left
33.253,0.5185894748334267,1.1211303603399507,-0.30844717784566755,1.90208831759039,4.294226133445803,-2.263299071243388,-0.13978166585320403,0.1222190562045612,-0.09656764133987857,2,left
33.254,0.519117906013883,1.1211676529203225,-0.3084013857922775,1.9219894655785645,4.281971553981872,-2.280027140666675,-0.14006661463226766,0.12093233294072063,-0.09525798355889549,2,left
33.255,0.5196905776793389,1.1211858006563407,-0.30833001472912414,1.9414861428615542,4.269276262317173,-2.296624393815512,-0.14031926827959385,0.11959024255410085,-0.0940332831809428,2,left
33.256,0.520308137296743,1.1211851260689318,-0.30823252526863437,1.9605882020096224,4.256158654088626,-2.313068721534631,-0.14053691187468342,0.11819495679028728,-0.09289218757205096,2,left
33.28,0.5209708815370829,1.1211660576417288,-0.30810843866548226,1.979304517746436,4.242638731807437,-2.329338422594803,-0.14071707965296937,0.11674925114401355,-0.09183239434505988,2,left
33.329,0.5216787452272091,1.1211291224629836,-0.30795733947785303,1.997642708819091,4.228738135117081,-2.3454122796666845,-0.14085757517402636,0.11525649525288631,-0.09085064383932386,2,left
33.33,0.5224312942597896,1.1210749392731596,-0.30777887880001314,2.0156088690014173,4.2144801550388395,-2.361269628415145,-0.14095649046301006,0.11372063420713899,-0.08994271280374151,2,left
33.33,0.5232277231167859,1.1210042122885764,-0.3075727779806436,2.033207307284346,4.199889732166087,-2.3768904197607785,-0.14101222404010125,0.11214616144057478,-0.08910341022148066,2,left
33.330999999999996,0.5240668572974111,1.1209177257839522,-0.3073388326965062,2.050440297306028,4.1849934387674494,-2.392255275354725,-0.1410234976125979,0.11053808507099268,-0.088326577587152,2,left
33.332,0.5249471601409352,1.120816339123569,-0.3070769171630503,2.067307836556784,4.1698194449242205,-2.4073455364561616,-0.1409893711289272,0.10890189018245867,-0.08760509671858882,2,left
33.389,0.525866742846247,1.1207009818113447,-0.30678698815309047,2.0838074183101347,4.154397469657848,-2.4221433071204186,-0.14090925596897874,0.1072434989174834,-0.08693090741439194,2,left
33.391,0.5268233765374368,1.1205726481434037,-0.3064690885228932,2.0999338235811664,4.13875871949901,-2.43663149389959,-0.14078292615729773,0.1055692290629802,-0.08629503590807128,2,left
33.391,0.5278145059458449,1.1204323911105554,-0.3061233501604707,2.115678942829674,4.122935817780369,-2.450793844976,-0.1406105274448589,0.10388575088687042,-0.08568763443680667,2,left
33.391999999999996,0.5288372650434519,1.1202813151638067,-0.30574999647839957,2.131031634707213,4.106962727103018,-2.4646149909287822,-0.1403925839113652,0.102200041312375,-0.08509803233755504,2,left
33.393,0.5298884954096676,1.120120567202548,-0.30534934460264035,2.1459776249805116,4.090874665975407,-2.478080487896279,-0.14013000162394149,0.10051933421424997,-0.0845147992215678,2,left
33.413000000000004,0.5309647682363233,1.119951324875261,-0.304921807312398,2.160499447272528,4.074708020021393,-2.4911768624668595,-0.13982406900390446,0.09885106592393449,-0.0839258206402341,2,left
33.467,0.5320624105618135,1.1197747815702246,-0.3044678946950872,2.174576428446828,4.058500248401007,-2.503891656208053,-0.13947645376185389,0.09720281557550046,-0.083318386406405,2,left
33.469,0.5331775355640286,1.119592128445241,-0.30398821540524973,2.1881847222901816,4.0422897858081,-2.516213467039593,-0.13908919637714573,0.09558224022704379,-0.08267929159714267,2,left
33.471,0.534306076007825,1.1194045346440455,-0.30348347729893177,2.2012973937359686,4.026115937634664,-2.5281319853979607,-0.13866470011257667,0.09399700497862355,-0.08199495015719302,2,left
33.472,0.5354438197669558,1.1192131267698031,-0.30295448712179224,2.2138845533297253,4.0100187608980065,-2.5396380244764796,-0.1382057175135159,0.09245470943732328,-0.08125152062751502,2,left
33.473,0.5365864465866816,1.1190189681925828,-0.30240214895638107,2.2259135402257075,3.994038920752776,-2.550723544566933,-0.13771533326595126,0.09096281391302746,-0.08043504281226845,2,left
33.498000000000005,0.5377295653147552,1.1188230386171722,-0.3018274612110861,2.2373491523003812,3.9782175149083705,-2.5613816716363793,-0.13719694324633613,0.08952856985801863,-0.07953158380261972,2,left
33.535,0.5388687505505042,1.1186262145648274,-0.3012315119796826,2.2481539224446427,3.9625958633347933,-2.571606710105976,-0.1366542296374999,0.08815895793421269,-0.07852739217046721,2,left
33.536,0.5399995775128434,1.1184292515854681,-0.30061547265514793,2.2582884386108155,3.947215265597037,-2.5813941492342756,-0.13609113209030052,0.08686063496874338,-0.07740905960879775,2,left
33.537,0.5411176542275661,1.118232768878586,-0.2999805897652331,2.267711701743049,3.932116733009569,-2.5907406615456137,-0.13551181510634638,0.0856398894778036,-0.07616368845495226,2,left
33.537,0.5422186506976612,1.1180372367547489,-0.2993281751128729,2.2763815137498855,3.917340705215372,-2.5996440912129595,-0.13492063210299302,0.08450260440014984,-0.07477906138859923,2,left
33.593,0.5432983252557211,1.117842967281483,-0.2986595944856953,2.2842548890096426,3.902926758983097,-2.6081034308791895,-0.13432208677601587,0.08345422523032246,-0.07324380836079204,2,left
33.595,0.5443525486360856,1.1176501084743822,-0.29797625537079847,2.2912884832684512,3.8889133156781286,-2.6161187865826623,-0.13372079228794195,0.08249973219298756,-0.07154756685549704,2,left
33.595,0.5453773263588317,1.1174586423143877,-0.29727959412569394,2.297439030048473,3.8753373568584704,-2.6236913313942356,-0.13312142886673944,0.08164361591071713,-0.06968113285914544,2,left
33.596,0.5463688199248324,1.1172683866703461,-0.2965710629776351,2.3026637719039025,3.8622341599685206,-2.630823248706797,-0.13252870084721866,0.0808898564654987,-0.06763659944093317,2,left
33.597,0.5473233673536616,1.11707900095336,-0.2958521172596791,2.3069208770311906,3.8496370631013628,-2.6375176658878994,-0.13194729449104353,0.0802419058427137,-0.06540747914454388,2,left
33.614000000000004,0.5482375036825893,1.1168899950537088,-0.29512420338643824,2.310169837445581,3.837577262394965,-2.643778578592293,-0.13138183758685457,0.0797026737487373,-0.06298880734009209,2,left
33.672,0.5491079818284458,1.1167007408861804,-0.2943887479578126,2.3123718481046414,3.8260836426254463,-2.6496107658006833,-0.13083686124856167,0.0792745168002668,-0.06037722537914236,2,left
33.674,0.5499317936898814,1.1165104858192918,-0.29364714804147213,2.313490166990927,3.815182640961275,-2.6550196956039605,-0.1303167640878253,0.07895923110003704,-0.05757104327910466,2,left
33.675,0.5507061909149847,1.1163183673711439,-0.29290076236619284,2.3134904561630307,3.804898143843828,-2.660011421750888,-0.12982577903610537,0.07875804823972918,-0.05457028173614092,2,left
33.676,0.5514287045600157,1.1161234286129387,-0.2921509030152633,2.3123411037812605,3.795251416961344,-2.6645924709760247,-0.12936794318404793,0.07867163478531412,-0.05137669320053096,2,left
33.676,0.5520971628150347,1.1159246336284339,-0.2913988273055139,2.3100135273712112,3.786261068186532,-2.6687697215265476,-0.12894707091371882,0.07870009528627764,-0.047993761812526764,2,left
33.73,0.5527097060462909,1.1157208823383304,-0.29064572985951864,2.3064824598858884,3.7779430428574803,-2.672550275321056,-0.12856673043308034,0.07884297882509084,-0.044426682112514694,2,left
33.731,0.5532647986811771,1.1155110242078017,-0.2898927352085455,2.301726221928924,3.7703106494518215,-2.675941329633278,-0.12823022372986997,0.07909928910950158,-0.04068231650339154,2,left
33.732,0.5537612378645805,1.1152938707020899,-0.2891408913989074,2.2957269821190414,3.76337461098752,-2.6789500553727033,-0.1279405699436801,0.07946749810772741,-0.03676913145544733,2,left
33.733000000000004,0.5541981590776028,1.1150682066835442,-0.28839116506949414,2.2884710014485745,3.757143133970965,-2.68158348551382,-0.127700492155153,0.07994556322695835,-0.032697112443522316,2,left
33.734,0.5545750388399947,1.114832801293315,-0.28764443843947524,2.279948852464629,3.7516219853752206,-2.683848412761097,-0.12751240756244636,0.08053094799501556,-0.02847765784045155,2,left
33.806999999999995,0.5548916943471853,1.1145864191973598,-0.2869015085668541,2.270155605476921,3.746814570851738,-2.6857512943554687,-0.12737842087083692,0.08122064600089683,-0.024123453164087174,2,left
33.808,0.5551482797463076,1.1143278331711464,-0.28616308904734544,2.259090978555882,3.742722011486337,-2.687298163027502,-0.12730032044431908,0.08201120751915819,-0.019648329370256023,2,left
33.809,0.5553452788852932,1.1140558388111004,-0.2854298140797673,2.246759450760635,3.7393432186383695,-2.6884945439367023,-0.12727957653782523,0.08289876822339144,-0.015067110971123947,2,left
33.81,0.5554834946604382,1.1137692719302719,-0.28470224467220767,2.2331703385686916,3.736674966849265,-2.689345377602433,-0.12731734091854746,0.08387907993078086,-0.010395460229092237,2,left
33.81,0.5555640353980771,1.1134670288543476,-0.28398087666795513,2.218337835475602,3.7347119648086995,-2.6898549488309045,-0.12741444735900226,0.08494754387243318,-0.0056497224770170485,2,left
33.811,0.5555882989001557,1.113148088725838,-0.28326614990481636,2.2022810147035634,3.7334469245506603,-2.6900268219697017,-0.12757141271502395,0.08609924700444978,-0.0008467755277050736,2,left
33.867,0.5555579547848774,1.1128115351131689,-0.2825584571795115,2.1850237948264373,3.7328706299636925,-2.6898637844604383,-0.12778843848564828,0.08732900158387356,0.003996115744168445,2,left
33.869,0.5554749259095959,1.112456573599181,-0.2818581516309615,2.166594867884764,3.7329720073395447,-2.689367803611314,-0.12806541287102902,0.08863138799127529,0.008861439364203819,2,left
33.87,0.5553413702719975,1.112082543771709,-0.28116555219988837,2.147027589737043,3.733738201463,-2.688540002827297,-0.12840191352716526,0.09000080045418556,0.013731570092100184,2,left
33.87,0.5551596651112298,1.1116889263276124,-0.28048094795515793,2.126359834038767,3.735154659170658,-2.6873806602784667,-0.12879721151387843,0.09143149480216631,0.018588895425674004,2,left
33.871,0.5549323939546601,1.1112753469341778,-0.2798046022685183,2.1046338142049312,3.7372052194697774,-2.685889227124945,-0.12925027709792164,0.09291763709361439,0.023415931501866875,2,left
33.945,0.5546623354372814,1.110841578378041,-0.2791367574260776,2.08189587957931,3.739872207773081,-2.6840643593384717,-0.12975978790800233,0.09445335224549142,0.028195427193336706,2,left
33.946,0.5543524514039159,1.1103875418897837,-0.2784776399227111,2.058196291646414,3.7431365324918024,-2.6819039593416174,-0.13032413962160766,0.09603277229589464,0.0329104558434042,2,left
33.946999999999996,0.5540058720782276,1.1099133076905676,-0.27782746649466616,2.0335889853813534,3.746977783790747,-2.6794052282025853,-0.13094145910056235,0.09765008409499468,0.037544495228821674,2,left
33.946999999999996,0.553625877488913,1.1094190947448936,-0.2771864508979005,2.008131320420121,3.7513743351773856,-2.676564731632517,-0.13160961968322193,0.09929957605236617,0.04208149748904489,2,left
33.948,0.5532158756939601,1.108905270355607,-0.2765548113525268,1.9818838253150048,3.7563034485326785,-2.6733784824606337,-0.13232625824350883,0.10097568344340539,0.04650595133549956,2,left
33.948,0.5527793787797679,1.1083723502983247,-0.27593277819812917,1.9549099361376432,3.7617413828339625,-2.669842040652642,-0.13308879372500226,0.1026730319030956,0.050802938279107146,2,left
34.005,0.5523199771738282,1.1078209996009567,-0.2753206009545309,1.9272757294792102,3.767663506624462,-2.6659506306062344,-0.13389444703457387,0.10438647896129774,0.054958183579064866,2,left
34.007,0.5518413122551042,1.1072520337718414,-0.27471855409435497,1.8990496491743338,3.774044414256117,-2.6616992730938813,-0.13474026227805105,0.10611115359927836,0.05895810204055719,2,left
34.008,0.5513470471305982,1.1066664202495953,-0.2741269412406879,1.8703022251760775,3.7808580459527357,-2.6570829252911747,-0.13562312934009318,0.10784249383233933,0.06278983867371214,2,left
34.009,0.550840835663729,1.1060652796746109,-0.27354609786145206,1.841105782508977,3.788077811752356,-2.652096620144076,-0.1365398078105885,0.10957628232346171,0.06644130422571022,2,left
34.009,0.5503262900535951,1.1054498864206885,-0.2729763927063448,1.811534138723876,3.795676719378534,-2.646735598511269,-0.13748695221864535,0.11130868002450989,0.06990120567804403,2,left
34.024,0.5498069473239552,1.1048216678739946,-0.2724182281813718,1.7816622891740004,3.8036275060726523,-2.6409954314477155,-0.138461138328611,0.11303625779957129,0.07315907220312207,2,left
34.080999999999996,0.5492862350908709,1.1041822021016452,-0.271872039703689,1.7515660799288684,3.8119027744100245,-2.634872132178295,-0.13945888988050237,0.11475602590943002,0.0762052777987113,2,left
34.083,0.54876743713313,1.103533213654455,-0.2713382940435207,1.7213218682412466,3.8204751321215715,-2.6283622577461316,-0.14047670495057438,0.1164654611941787,0.07903106222084125,2,left
34.084,0.5482536595837939,1.1028765673391707,-0.27081748681260404,1.6910061704815027,3.829317335943845,-2.6214630003190997,-0.1415110813258025,0.11816253174325472,0.0816285514367296,2,left
34.084,0.547747798721907,1.1022142599990767,-0.2703101394698705,1.6606952974530593,3.838402439521117,-2.6141722681369153,-0.14255854071439755,0.11984571846926635,0.08399077811482733,2,left
34.085,0.5472525112000578,1.1015484105559505,-0.2698167962879318,1.63046497710743,3.847703945122704,-2.606488756114238,-0.14361565192231146,0.12151403223666758,0.08611170230350572,2,left
34.14,0.5467701872694137,1.1008812486246138,-0.26933802162416365,1.6003899652031166,3.8571959576324546,-2.598412006284746,-0.14467905322322078,0.12316702475622167,0.08798623238967969,2,left
34.141999999999996,0.5463029273586485,1.1002151019684268,-0.2688743976934054,1.5705436453994606,3.866853336915436,-2.589942458577214,-0.1457454740692988,0.12480479193243504,0.08961024635093208,2,left
34.141999999999996,0.5458525222192283,1.0995523830363123,-0.26842652292705993,1.5409976213453045,3.876651843295219,-2.5810814926741723,-0.14681175606867333,0.126427969297363,0.09098061299580727,2,left
34.143,0.5454204367372891,1.0988955748112483,-0.2679950109352193,1.5118213055094025,3.8865682718564205,-2.5718314619820024,-0.1478748728826202,0.12803771986281204,0.0920952123604238,2,left
34.144,0.5450077974855347,1.098247216227777,-0.2675804900522609,1.4830815134361386,3.89658057305295,-2.5621957212431745,-0.14893194856391737,0.12963571495160878,0.09295295414417185,2,left
34.215,0.5446153842061175,1.0976098875431914,-0.2671836033842197,1.4548420742976014,3.9066679580835406,-2.5521786495996026,-0.14998027397819294,0.13122410842957372,0.09355379334700921,2,left
34.217,0.5442436256140764,1.0969861961440923,-0.2668050091503956,1.4271634657962877,3.916810988084166,-2.5417856704307926,-0.1510173211668246,0.13280550450961695,0.09389874277498719,2,left
34.218,0.5438925999026663,1.096378763110618,-0.26644538100913834,1.400102476591184,3.9269916467745287,-2.5310232684791925,-0.15204075563034064,0.1343829191603494,0.09398988236037602,2,left
34.219,0.5435620398965048,1.0957902105189359,-0.26610540809529637,1.3737118967087598,3.937193396522292,-2.519899004324002,-0.15304844654261315,0.13595973524147892,0.09383036514506848,2,left
34.22,0.5432513422285684,1.095223149229862,-0.2657857946478899,1.3480402358594823,3.9474012178541606,-2.5084215261735996,-0.1540384749425281,0.1375396520767491,0.0934244190099612,2,left
34.221,0.5429595797177562,1.0946801668699382,-0.2654872592417346,1.3231314699709784,3.957601632721058,-2.4966005789881045,-0.15500914001534408,0.1391266312344782,0.09277734185484134,2,left
34.277,0.542685516332884,1.0941638157364808,-0.265210533686835,1.2990248180385269,3.9677827130609704,-2.4844470110552397,-0.15595896361233164,0.14072484087426199,0.09189548716734254,2,left
34.279,0.5424276244143592,1.0936766003978833,-0.26495636164940967,1.2757545541137416,3.9779340779357977,-2.4719727780262786,-0.15688669312233133,0.14233860042563332,0.09078623771927433,2,left
34.28,0.5421841040154647,1.0932209648277953,-0.26472549702410797,1.2533498597930992,3.9880468825234594,-2.4591909437351,-0.15779130275085645,0.14397232628381504,0.08945796668138359,2,left
34.28,0.541952904363511,1.09279927890503,-0.26451870206249145,1.2318347198458541,3.9981138000867156,-2.446115676413149,-0.15867199323957576,0.14563047858077022,0.08791998652898081,2,left
34.281,0.5417317475504029,1.0924138239108006,-0.2643367452078377,1.2112278609051401,4.008128996307319,-2.4327622390275327,-0.15952819005927232,0.1473175089507313,0.08618248643926141,2,left
34.347,0.54151815455011,1.092066776467486,-0.2641803984868287,1.1915427326099286,4.018088095369069,-2.4191469731514044,-0.16035954010170037,0.14903780923081306,0.08425645870452632,2,left
34.348,0.5413094734046859,1.091760190625237,-0.2640504342500672,1.1727875309799476,4.0279881376647735,-2.405287276229661,-0.16116590688199847,0.15079566107584305,0.0821536143681052,2,left
34.349000000000004,0.5411029089777448,1.0914959784980744,-0.2639476211196443,1.1549652639643928,4.037827529155867,-2.3912015722016364,-0.16194736425563988,0.15259518648799256,0.07988628811321433,2,left
34.355,0.5408955533146454,1.0912758904334607,-0.2638727191325773,1.1380738591078998,4.047605982413292,-2.3769092754417103,-0.1627041886523078,0.15444029926615885,0.07746733239924149,2,left
34.356,0.5406844155762235,1.0911014958720193,-0.26382647415679067,1.1221063131208253,4.057324449059306,-2.3624307479681996,-0.1634368498290122,0.15633465738015784,0.07491000083944356,2,left
34.357,0.5404664506915328,1.0909741659469765,-0.2638096116755178,1.1070508823481706,4.066985041785765,-2.3477872498209407,-0.16414600013534847,0.1582816163313762,0.07222782096126971,2,left
34.413000000000004,0.5402385861816402,1.090895058601318,-0.26382283001479745,1.09289131170244,4.076590941345251,-2.333000882418617,-0.1648324622370008,0.16028418384402163,0.06943445722858334,2,left
34.414,0.5399977469815777,1.090865106684785,-0.26386679308656485,1.0796070988329909,4.086146282367289,-2.3180945246570643,-0.16549721515941596,0.16234497673949555,0.06654356653394862,2,left
34.415,0.5397408784993095,1.0908850093051963,-0.2639421227971572,1.067173791102424,4.095656013395683,-2.3030917615586057,-0.16614137846677945,0.16446618112892042,0.06356864910728413,2,left
34.415,0.5394649684989057,1.0909552266043971,-0.2640493914005335,1.055563314374825,4.105125729321872,-2.2880168053708183,-0.16676619445667482,0.1666495167593966,0.060522897283935916,2,left
34.416,0.539167068513376,1.0910759779692103,-0.2641891141429963,1.0447443328341388,4.11456147656685,-2.2728944090845435,-0.16737300842779126,0.16889620575519018,0.05741904442347257,2,left
34.481,0.5388443153365502,1.0912472435367415,-0.26436174248651334,1.0346826362903108,4.123969534842194,-2.257749772462754,-0.16796324729199955,0.17120694555753807,0.054269217651845926,2,left
34.484,0.5384939528984805,1.0914687687882,-0.2645676580784675,1.0253415461733153,4.133356185025454,-2.2426084408736724,-0.1685383969043437,0.17358188572416858,0.05108479912947788,2,left
34.485,0.53811335466107,1.0917400719380217,-0.264807167545327,1.0166823284953022,4.1427274758543815,-2.2274961973336143,-0.16909997839150676,0.17602060833611002,0.04787629936984545,2,left
34.492,0.5377000465207216,1.092060453663532,-0.2650804981099628,1.008664604985418,4.152088998975089,-2.212438948052761,-0.16964952362927546,0.1785221119823958,0.04465324412535185,2,left
34.493,0.5372517300148251,1.0924290086165918,-0.26538779393044104,1.001246758863801,4.161445676174306,-2.1974626015750713,-0.1701885501130502,0.1810847997173644,0.04142407574148498,2,left
34.494,0.5367663055200886,1.0928446381922432,-0.2657291129752393,0.9943863346418116,4.17080155983038,-2.182592941701375,-0.17071853578252702,0.1837064720103998,0.03819607065647369,2,left
34.548,0.5362418951633194,1.0933060641045849,-0.2661044242162853,0.9880404319041315,4.180159648852851,-2.167855495412157,-0.1712408945481464,0.1863843260457472,0.034975275285743186,2,left
34.55,0.5356768651719059,1.0938118423077356,-0.26651360488415626,0.9821660929982039,4.189521725744851,-2.153275398896343,-0.1717569530803701,0.18911496239260364,0.03176646196831569,2,left
34.55,0.5350698471804239,1.0943603766829177,-0.2669564374750205,0.9767206845403852,4.198888222291665,-2.1388772658424706,-0.17226792908711588,0.1918943994581441,0.028573105640458764,2,left
34.551,0.534419757653795,1.0949499318603737,-0.2674326062514929,0.9716622726673628,4.208258119509709,-2.1246850610992323,-0.1727749111398385,0.1947180957006998,0.02539738131327886,2,left
34.552,0.5337258144285998,1.095578644751777,-0.26794169321259564,0.9669499918700488,4.217628883797839,-2.1107219809599687,-0.17327884017985012,0.19758097902297456,0.022240182186124332,2,left
34.611999999999995,0.5329875496277939,1.096244534729512,-0.26848317375080194,0.9625444066432332,4.226996437724311,-2.097010340459889,-0.1737804930316202,0.20047748188339984,0.019101157989316546,2,left
34.613,0.5322048186823258,1.0969455126697978,-0.2690564123440675,0.958407864067778,4.236355160557721,-2.0835714681956574,-0.174280468358206,0.2034015801738963,0.015978773017337952,2,left
34.614000000000004,0.5313778055238004,1.0976793893210828,-0.26966065879882645,0.9545048348202635,4.2456979120107565,-2.0704256093610742,-0.17477917538553323,0.2063468344023799,0.012870383446094081,2,left
34.629,0.5305070239819378,1.098443883751617,-0.270295045790562,0.9508022407287454,4.2550160743050665,-2.057591837509876,-0.1752768255058365,0.20930643256343306,0.00977233348280967,2,left
34.633,0.5295933151762159,1.0992366327706873,-0.27095858847268345,0.9472697676593617,4.264299610243084,-2.0450879750954334,-0.17577342665593995,0.21227323438591417,0.006680068612132532,2,left
34.634,0.528637840606648,1.100055202027481,-0.27165018665097895,0.9438801608627594,4.2735371347438535,-2.0329305219955978,-0.17626878015320704,0.21523981641189407,0.0035882616770989287,2,left
34.677,0.5276420708845851,1.1008970989745024,-0.2723686296176629,0.9406094959317012,4.282715994265035,-2.0211345900090696,-0.17676247956578336,0.2181985171766664,0.0004909461161725028,2,left
34.678000000000004,0.5266077705191468,1.1017597869818296,-0.2731126032396385,0.9374374162423984,4.291822346664943,-2.009713840651669,-0.17725391129995505,0.22114148194428193,-0.002618347904946707,2,left
34.685,0.5255369799815917,1.1026406989493525,-0.2738806984277511,0.9343473300318437,4.300841235926518,-1.9986804242408125,-0.17774225678210387,0.22406070681604456,-0.005746456408803549,2,left
34.686,0.5244319972820407,1.1035372488443709,-0.27467142016985213,0.931326564366531,4.309756659527761,-1.9880449194436272,-0.17822649623644315,0.22694808236683958,-0.008900445254577836,2,left
34.686,0.5232953614248791,1.1044468409696582,-0.2754831969611873,0.9283664755549585,4.318551628513584,-1.9778162735702554,-0.178705414112461,0.22979543727604484,-0.012087478011362429,2,left
34.745,0.522129838557779,1.1053668781481496,-0.2763143910060484,0.9254625160994507,4.327208222709811,-1.9680017462574668,-0.17917760623349502,0.23259458257247784,-0.015314692709373861,2,left
34.746,0.5209384094659479,1.1062947702962747,-0.2771633095103365,0.9226142584397101,4.335707647142128,-1.9586068632040112,-0.17964148872034388,0.23533735695996902,-0.01858909096120383,2,left
34.746,0.5197242561140363,1.1072279443652076,-0.27802821700886793,0.9198253758277234,4.34403029773474,-1.9496353888509623,-0.18009530871229515,0.23801567341504845,-0.02191744085549533,2,left
34.763000000000005,0.5184907457843361,1.1081638560000324,-0.2789073483516435,0.9171035805867827,4.3521558423507924,-1.9410893246708352,-0.18053715689297378,0.24062156704034238,-0.025306193768353274,2,left
34.764,0.517241412824632,1.1091000025268667,-0.27979892172162035,0.9144605198508916,4.360063319613764,-1.9329689357152808,-0.1809649818376367,0.24314724385165326,-0.02876141452484134,2,left
34.765,0.5159799385788378,1.1100339362663285,-0.28070115096182385,0.9119116293339137,4.367731255365954,-1.9252728054818504,-0.18137660622145682,0.24558512968167817,-0.032288723477466995,2,left
34.811,0.5147101297470176,1.110963277339617,-0.28161225679852486,0.9094759483603592,4.375137793365802,-1.9179979169160069,-0.18176974494105222,0.24792791810820716,-0.035893248587838274,2,left
34.812,0.5134358951413873,1.1118857258610235,-0.28253047697853484,0.9071759042494763,4.382260831692892,-1.9111397541269022,-0.1821420251887282,0.25016861658931866,-0.03957958607875693,2,left
34.823,0.5121612207742295,1.1127990738161835,-0.2834540753817298,0.9050370768443263,4.389078153477504,-1.9046924175972575,-0.18249100845672117,0.252300590485185,-0.04335176899524699,2,left
34.824,0.510890143195798,1.1137012167760394,-0.2843813499464041,0.9030879512781211,4.395567543422112,-1.8986487474682792,-0.18281421424000288,0.2543176049333038,-0.0472132430212504,2,left
34.824,0.5096267210325748,1.1145901652596877,-0.2853106391711274,0.9013596620726523,4.401706887209922,-1.893000452640651,-0.18310914485092109,0.2562138646212824,-0.05116684814395185,2,left
34.879,0.5083750048391076,1.1154640553444097,-0.2862403270843584,0.8998857282728546,4.407474256226982,-1.8877382448332873,-0.1833733105629559,0.2579840515135591,-0.055214804285061043,2,left
34.881,0.5071390055579768,1.1163211580838415,-0.28716884673263576,0.8987017775374089,4.412847985059649,-1.8828519763827243,-0.1836042544967272,0.25962336057554813,-0.05935869949151481,2,left
34.900999999999996,0.5059226620234287,1.1171598873259152,-0.2880946823640578,0.8978452564144062,4.417806751709189,-1.8783307801672335,-0.1837995770139796,0.261127533515726,-0.06359948012950696,2,left
34.902,0.5047298081503933,1.1179788055531403,-0.28901637059609137,0.8973551247233539,4.422329667983216,-1.8741632104407773,-0.18395695957431626,0.26249289050517843,-0.06793744297730275,2,left
34.903,0.5035641406521977,1.118776627447209,-0.28993250092614276,0.8972715332816643,4.42639638278173,-1.8703373838695323,-0.18407418801456615,0.263716359590896,-0.07237222909914823,2,left
34.905,0.5024291880723495,1.1195522210403595,-0.2908417159152139,0.8976354852626469,4.429987197138791,-1.8668411193981305,-0.18414917514940254,0.26479550308609595,-0.07690281918846706,2,left
34.945,0.5013282816295347,1.1203046065371938,-0.2917427112983216,0.8984884822529475,4.433083186909384,-1.8636620737339786,-0.18417998255774481,0.2657285399801094,-0.0815275299608188,2,left
34.946,0.5002645281632793,1.1210329531509244,-0.292634236263301,0.8998721564349655,4.435666327615243,-1.8607878681724512,-0.1841648414533378,0.26651436365030867,-0.08624401128536559,2,left
34.959,0.49924078541504885,1.121736574486681,-0.29351509417327526,0.901827889964646,4.4377196173364934,-1.8582062035532405,-0.1841021725924912,0.2671525545470831,-0.09104924395025202,2,left
34.96,0.4982596398244707,1.1224149229866351,-0.2943841439561099,0.9043964219748927,4.439227196008614,-1.8559049620588524,-0.18399060517353943,0.26764338754442585,-0.09593953812551433,2,left
34.961,0.4973233869192553,1.1230675838214523,-0.2952403022166326,0.907617443705945,4.440174460635928,-1.8538722957617793,-0.18382899463115504,0.26798783330326986,-0.10091053271689925,2,left
35.0,0.4964340143592787,1.1236942685767521,-0.29608254594799743,0.9115291843243949,4.440548175099801,-1.8520967026816462,-0.1836164391962395,0.2681875527759163,-0.10595719586417197,2,left
35.0,0.49559318787710605,1.124294809146024,-0.29690991563753694,0.9161679938282313,4.440336571246613,-1.8505670922675586,-0.18335229512424786,0.2682448841978503,-0.11107382677779026,2,left
35.039,0.4948022406458867,1.1248691522489829,-0.2977215185940484,0.9215679315671471,4.4395294368325935,-1.8492728428622611,-0.18303619055275336,0.2681628223058888,-0.11625405900014894,2,left
35.04,0.4940621665865109,1.1254173548423279,-0.298516532366001,0.927760367110032,4.438118187250448,-1.8482038531469358,-0.1826680379811853,0.2679449897395657,-0.1214908651178698,2,left
35.041,0.4933736175695012,1.125939580421038,-0.29929420809395646,0.9347735980131185,4.436095921168137,-1.847350588823488,-0.1822480453719805,0.2675956006259253,-0.1267765629398214,2,left
35.042,0.4927369038640962,1.1264360959855002,-0.3000538736132494,0.9426324898906027,4.433457463502914,-1.846704125890037,-0.18177672585977037,0.26711941645785325,-0.1321028233213396,2,left
35.079,0.4921519971083901,1.1269072693709437,-0.3007949361866476,0.9513581454192488,4.43019940058883,-1.846256192148285,-0.18125490599273023,0.2665216949274764,-0.13746068064330078,2,left
35.080999999999996,0.4916185354551813,1.127353566619883,-0.3015168848689233,0.9609676072574269,4.426320111178598,-1.8459992081716166,-0.18068373231784296,0.2658081333690054,-0.14284054844527572,2,left
35.097,0.4911358310425824,1.1277755489251697,-0.30221929257060276,0.9714735968853014,4.421819794730904,-1.845926328224588,-0.18006467605933632,0.2649848090168204,-0.14823224354012846,2,left
35.098,0.49070288030376663,1.1281738682473514,-0.3029018177897787,0.982884289849241,4.416700497230617,-1.8460314810702736,-0.17939953570175463,0.26405811773246346,-0.1536250211094924,2,left
35.099000000000004,0.49031837772628883,1.1285492602674747,-0.3035642057541792,0.9952031282017924,4.410966134612888,-1.846309409798834,-0.1786904373825473,0.263034711842535,-0.15900762177824743,2,left
35.146,0.48998073350896376,1.1289025334291323,-0.3042062885941909,1.0084286720766817,4.404622513983577,-1.8467557085123596,-0.17793983296794738,0.2619214370868325,-0.16436833078346172,2,left
35.148,0.4896880952143904,1.129234553670747,-0.30482798429665625,1.0225544929773243,4.397677352895115,-1.8473668529800007,-0.17715049553027656,0.2607252684024064,-0.16969504908925084,2,left
35.175,0.48943837300890586,1.1295462255653455,-0.30542929440063477,1.0375691107659875,4.3901402963425475,-1.848140223098679,-0.17632551185136977,0.2594532441783756,-0.174975376244305,2,left
35.177,0.4892292676050514,1.1298384711527958,-0.30601030046774713,1.053455975410259,4.3820229283988485,-1.8490741162901687,-0.1754682716739077,0.25811239888758997,-0.18019670475351812,2,left
35.178000000000004,0.4890582998853322,1.1301122074943408,-0.3065711593050036,1.0701934942920726,4.373338770621082,-1.8501677516804675,-0.17458245360979077,0.2567096950687255,-0.18534632543383955,2,left
35.179,0.48892284129597335,1.1303683235304411,-0.30711209687244595,1.0877551059722637,4.364103256722936,-1.8514212650483246,-0.17367200774297056,0.2552519573512575,-0.1904115425596833,2,left
35.211999999999996,0.4888201440158756,1.1306076568490144,-0.30763340082140184,1.1061094010936623,4.354333675628166,-1.8528356945340925,-0.17274113500220623,0.25374581213840025,-0.19537979721436982,2,left
35.233000000000004,0.4887473697249669,1.1308309713611449,-0.3081354116795065,1.1252202907257103,4.344049079735177,-1.8544129571074417,-0.17179426335965223,0.25219763565819264,-0.20023879766349503,2,left
35.235,0.4887016160876325,1.1310389371122846,-0.30861851282928543,1.1450472222434795,4.333270157842113,-1.8561558157967724,-0.1708360208996984,0.2506135113326364,-0.2049766560088886,2,left
35.236,0.4886799408081071,1.1312321132938952,-0.3090831195573054,1.1655454427937393,4.322019072704425,-1.8580678376843882,-0.16987120590119828,0.24899919585193112,-0.20958202939961051,2,left
35.236,0.4886793836883979,1.1314109351238726,-0.30952966749354954,1.1866663096587209,4.310319263764432,-1.860153342560476,-0.168904754285135,0.24736009197540035,-0.21404426166923796,2,left
35.28,0.488696987263198,1.1315757048888906,-0.30995860072920367,1.2083576431094283,4.298195218436135,-1.8624173415719136,-0.1679417048979966,0.24570122542260686,-0.21835351988678628,2,left
35.282,0.48872981654535724,1.1317265871880384,-0.3103703598858777,1.2305641106447562,4.2856722204483715,-1.8648654641989417,-0.1669871629828595,0.24402722387605988,-0.22250092168979094,2,left
35.312,0.48877497841434697,1.131863608213355,-0.31076537047545566,1.2532276277936127,4.272776086593289,-1.8675038713357401,-0.16604626197731845,0.2423422973012273,-0.2264786517544751,2,left
35.313,0.4888296412011987,1.13198665868144,-0.31114403202351043,1.2762877643797197,4.259532900380737,-1.8703391528089555,-0.16512412373659652,0.2406502194889252,-0.23028006697460476,2,left
35.314,0.48889105494273194,1.1320954998757127,-0.31150670851679757,1.299682151610937,4.2459687466180185,-1.8733782088664437,-0.16422581764373273,0.23895431106383902,-0.23389978937425318,2,left
35.315,0.48895657257615077,1.1321897722806293,-0.3118537206472039,1.3233468878930479,4.232109451294324,-1.8766281166975576,-0.1633563197657269,0.23725742457572968,-0.2373337842991964,2,left
35.346,0.48902367211012876,1.1322690063552827,-0.31218534004437937,1.3472169398819371,4.2179803363500294,-1.8800959849062262,-0.16252047360176677,0.23556193249698537,-0.2405794206089283,2,left
35.37,0.48908997955309796,1.1323326348448712,-0.31250178529925293,1.371226534273896,4.203606001869589,-1.883788800149436,-0.1617229535825385,0.23386971874303913,-0.24363551041299364,2,left
35.371,0.48915329212021585,1.1323800057512978,-0.3128032192348126,1.3953095378631664,4.189010143796836,-1.8877132707820432,-0.16096823178826553,0.23218217400217633,-0.2465023273960942,2,left
35.372,0.4892116011218618,1.1324103950614826,-0.31308974677125107,1.4193998270478954,4.174215407280407,-1.8918756734793596,-0.16026054799354134,0.23050019516832926,-0.24918160370447417,2,left
35.372,0.4892631139122652,1.1324230186077686,-0.3133614128414427,1.4434316499946789,4.159243271317207,-1.8962817094373168,-0.15960388311922039,0.22882418951459485,-0.25167650572143874,2,left
35.412,0.4893062740747235,1.1324170426977131,-0.31361819993814827,1.467339984064348,4.144113960953031,-1.900936374957725,-0.15900193619927042,0.22715408445942215,-0.2539915891656801,2,left
35.413000000000004,0.4893397788065115,1.1323915933547284,-0.31386002508899097,1.4910608895815107,4.128846385518259,-1.9058438483490885,-0.15845810494310728,0.22548934356323383,-0.2561327338391896,2,left
35.448,0.489362592764275,1.1323457643424402,-0.3140867365652205,1.5145318601856557,4.1134581026090675,-1.9110073934753946,-0.15797546989976227,0.223828988904313,-0.2581070584349013,2,left
35.449,0.4893739582672579,1.1322786245062932,-0.3142981111711528,1.5376921698323562,4.097965307770722,-1.9164292799662594,-0.15755678207891763,0.22217162925164685,-0.25992281708402987,2,left
35.45,0.48937340197540374,1.1321892251259507,-0.3144938530589152,1.560483216512591,4.082382849839145,-1.9221107201025294,-0.15720445365539312,0.22051549247907082,-0.26158928177934054,2,left
35.45,0.48936073791087953,1.1320766079644675,-0.3146735946927513,1.5828488621255934,4.0667242713271925,-1.9280518220630838,-0.1569205512598871,0.21885846014811086,-0.26311661618680054,2,left
35.479,0.4893360666598303,1.1319398146375232,-0.3148369002379634,1.604735764780355,4.051001870394893,-1.9342515575738233,-0.15670679148291256,0.21719810270388687,-0.26451574498091945,2,left
35.497,0.48929977099721955,1.13177789777471,-0.3149832714274548,1.626093694112934,4.035226775818206,-1.9407077390386864,-0.15656453844217594,0.215531714658966,-0.2657982203606159,2,left
35.498000000000005,0.4892525086564586,1.1315899339595343,-0.31511215562711714,1.6468758170460975,4.019409023523733,-1.9474169995877904,-0.15649480338779567,0.213856349657009,-0.26697608602535944,2,left
35.516,0.48919520342826645,1.1313750371891047,-0.31522295511374226,1.6670389445758664,4.00355762610355,-1.9543747711240196,-0.15649824633280526,0.21216885544773842,-0.2680617388361861,2,left
35.516999999999996,0.4891290362218638,1.1311323701228313,-0.31531503591425847,1.6865437358549304,3.987680631848564,-1.9615752584120132,-0.15657517963686862,0.21046590898625997,-0.2690677894886224,2,left
35.518,0.4890554375990074,1.130861150785708,-0.31538773503548667,1.7053548590268408,3.9717851730683034,-1.9690114093548914,-0.15672557336384452,0.20874405219648037,-0.27000692550923994,2,left
35.545,0.48897608218295746,1.1305606552295526,-0.31544036659988645,1.7234411090258557,3.9558775059478406,-1.9766748842097488,-0.15694906217432505,0.2069997291198495,-0.27089178099006883,2,left
35.575,0.48889288369036654,1.1302302188340347,-0.31547222843769546,1.7407754827909943,3.939963047636772,-1.9845560305902215,-0.15724495359187615,0.20522932495772397,-0.2717348163767988,2,left
35.576,0.4888079880525208,1.1298692381319464,-0.3154826099082377,1.75733521247174,3.92404641817865,-1.9926438733809853,-0.1576122376777768,0.20342920703202264,-0.27254820966501564,2,left
35.576,0.4887237623220428,1.129477173384327,-0.3154708005970153,1.773101757069887,3.90813149297571,-2.000926126413814,-0.15804959836803043,0.20159576722495995,-0.2733437592980896,2,left
35.577,0.4886427790179476,1.129053551966863,-0.3154360994858542,1.7880607534575281,3.892221467590347,-2.0093892283316057,-0.15855542682693163,0.1997254652654299,-0.27413279886315634,2,left
35.611999999999995,0.4885677973589964,1.1285979729608808,-0.31537782447787344,1.8022019312441284,3.8763189325260683,-2.018018401155221,-0.15912783708331826,0.19781487238636175,-0.2749261236580469,2,left
35.654,0.48850174278439257,1.1281101127949495,-0.31529532195039783,1.815519002536051,3.8604259512065466,-2.0267977266680144,-0.1597646840348337,0.19586071512678813,-0.275733929042807,2,left
35.655,0.4884476850753591,1.1275897310459833,-0.3151879757831875,1.8280095412956245,3.844544132126193,-2.035710234097177,-0.16046358370756952,0.19385991904516772,-0.2765657598815975,2,left
35.656,0.48840881474448766,1.127036675682018,-0.3150552154724476,1.839674862862335,3.828674688917586,-2.0447379943164252,-0.16122193544335173,0.19180965184669155,-0.27743046932428045,2,left
35.657,0.48838841734684835,1.1264508879770623,-0.3148965232215706,1.8505199052168662,3.8128184887559846,-2.053862219283548,-0.16203694557732548,0.18970736526325016,-0.2783361845927055,2,left
35.658,0.48838984555684867,1.1258324079062987,-0.31471144001114315,1.860553105615146,3.7969760965065835,-2.0630633680408406,-0.16290565227846363,0.18755083518853252,-0.27929027802110695,2,left
35.679,0.48841648902030976,1.1251813803329653,-0.3144995705924452,1.8697862631033528,3.7811478251027015,-2.072321261477272,-0.16382495142342104,0.1853381998656502,-0.280299342651917,2,left
35.711999999999996,0.48847174209533567,1.124498061417353,-0.314260587309915,1.8782343798031187,3.7653338000096834,-2.0816152075082655,-0.16479162345150564,0.18306799606319152,-0.28136917219776253,2,left
35.713,0.48855896965403645,1.1237828243737364,-0.3139942327473624,1.8859154782474603,3.7495340406077515,-2.090924137022102,-0.16580236100762144,0.18073919308190728,-0.28250474492250305,2,left
35.714,0.4886814711396007,1.1230361639577577,-0.3137003212893289,1.892850394968566,3.7337485572866957,-2.100226748752494,-0.1668537968867355,0.17835122420666907,-0.28371021031948046,2,left
35.714,0.4888424431091516,1.1222586993585026,-0.31337873968977786,1.8990625519884983,3.7179774599861326,-2.1095016581648864,-0.1679425316305273,0.17590401509184492,-0.2849888770904061,2,left
35.745,0.48904494071463683,1.1214511752412684,-0.3130294467148127,1.9045777084039253,3.702221072508176,-2.1187275437977053,-0.16906516029003466,0.173398008694402,-0.28634320130341384,2,left
35.79,0.489291839050292,1.1206144606737096,-0.3126524719778114,1.9094236937116096,3.6864800483363416,-2.127883286146128,-0.17021829816167566,0.1708341865962772,-0.2877747742838533,2,left
35.791,0.48958579569603194,1.1197495458207263,-0.31224791422803266,1.9136301235432551,3.6707554862270455,-2.136948097139334,-0.1713986054754884,0.16821408657141743,-0.28928431017138406,2,left
35.791,0.4899292157092331,1.1188575365828535,-0.3118159394757486,1.9172280979340632,3.655049045247048,-2.1459016399084185,-0.17260281108876446,0.16553981571648482,-0.2908716331764587,2,left
35.792,0.4903242198663953,1.1179396475408911,-0.3113567793174505,1.9202498821389857,3.63936305921162,-2.1547241388712237,-0.17382773531327825,0.16281405745334307,-0.2925356646132946,2,left
35.793,0.4907726165991568,1.1169971936644723,-0.3108707297264048,1.9227285702707697,3.623700650180172,-2.16339648013249,-0.1750703120460248,0.1600400701497738,-0.2942744098109847,2,left
35.813,0.4912758780073644,1.1160315814015753,-0.31035815052141236,1.9246977333418602,3.6080658391756217,-2.171900302059397,-0.17632761033181504,0.15722167566622475,-0.29608494498028937,2,left
35.848,0.49183512037326127,1.115044299908836,-0.30981946565499435,1.9261910556480764,3.592463649610951,-2.1802180756437903,-0.17759685537915973,0.15436323729515472,-0.29796340421682765,2,left
35.849000000000004,0.4924510895623007,1.1140369131366044,-0.309255164273803,1.9272419647401258,3.5769001974159638,-2.1883331741239505,-0.1788754488490915,0.1514696278618964,-0.2999049675310056,2,left
35.85,0.4931241515599916,1.1130110532162267,-0.3086658023059083,1.927883258917853,3.5613827633478463,-2.1962299314762896,-0.18016098793993207,0.14854619020190676,-0.3019038521110845,2,left
35.85,0.4938542881348399,1.1119684152040752,-0.30805200425181606,1.9281467345276124,3.5459198457367878,-2.2038936898185466,-0.18145128263084587,0.14559869297014677,-0.30395330975972107,2,left
35.879,0.49464109723669464,1.1109107529436455,-0.3074144648772085,1.9280628175540337,3.530521193831882,-2.2113108368200503,-0.18274437060724882,0.1426332839972471,-0.30604563271075447,2,left
35.927,0.4954837973964031,1.1098398757474386,-0.3067539505810809,1.9276602100736668,3.5151978229727976,-2.21846883589146,-0.1840385296795207,0.13965644207325603,-0.3081721687124516,2,left
35.929,0.4963812352792106,1.1087576455904078,-0.30607130033035546,1.9269655656587674,3.4999620132362006,-2.2253562528422868,-0.18533228766668325,0.13667492729871322,-0.31032334552982893,2,left
35.929,0.49733189577394477,1.1076659743261337,-0.3053674261662526,1.9260032042966166,3.484827292782747,-2.2319627817772245,-0.18662442974875584,0.133695729994544,-0.3124887048720433,2,left
35.93,0.49833391451128006,1.106566820106843,-0.3046433133383779,1.9247948710495095,3.4698084063686885,-2.2382792713517285,-0.18791400329975255,0.13072601813713675,-0.3146569458217522,2,left
35.931,0.4993850931492547,1.1054621819253265,-0.3039000200885439,1.9233595393927232,3.4549212693437186,-2.24429775150337,-0.18920032025453595,0.12777308315945027,-0.31681597819747886,2,left
35.986,0.5004829178352588,1.1043540912842613,-0.30313867704039227,1.921713260637038,3.4401829087759537,-2.250011460158661,-0.19048295713698946,0.12484428373310026,-0.31895298691737123,2,left
35.988,0.5016245810600397,1.1032446005152918,-0.30236048612372074,1.9198690626017303,3.425611395488059,-2.255414868596904,-0.19176175291821407,0.12194698702089951,-0.3210545087868151,2,left
35.989000000000004,0.5028070069394079,1.1021357678984216,-0.3015667189723112,1.9178369001083355,3.411225770274255,-2.260503703527139,-0.19303680480390345,0.11908850714027147,-0.323106522702838,2,left
35.99,0.5040268798568889,1.1010296400761024,-0.30075871474304416,1.9156236555055663,3.3970459627118235,-2.2652749640206697,-0.1943084618343313,0.11627604143090563,-0.32509455325370107,2,left
35.991,0.5052806762031282,1.0999282323304886,-0.2999378772898616,1.9132331835518839,3.383092696536461,-2.269726932027757,-0.1955773158844957,0.11351660637416866,-0.3270037866590225,2,left
36.005,0.5065646985120932,1.0988335074017035,-0.2991056715679169,1.9106663955766432,3.3693873760660336,-2.273859175830816,-0.19684418950224553,0.11081697566397196,-0.3288191975476637,2,left
36.063,0.5078751108114725,1.0977473537095908,-0.298263619069719,1.9079213807902065,3.355951951330102,-2.27767254621752,-0.19811012018585145,0.10818362231292786,-0.33052568525369763,2,left
36.065,0.5092079738526513,1.0966715638871567,-0.2974132920960904,1.9049935643822855,3.3428087614815216,-2.2811691653482207,-0.19937634106804117,0.10562266560409969,-0.3321082180200279,2,left
36.066,0.510559279130084,1.095607814418745,-0.29655630676389416,1.9018759022812712,3.3299803564531065,-2.2843524082793047,-0.2006442583146589,0.10313982317062005,-0.33355198213116893,2,left
36.067,0.5119249809681222,1.0945576470560947,-0.2956943147687072,1.8985591118474983,3.317489296834706,-2.2872268768519444,-0.20191542568533635,0.10074036841512028,-0.3348425321024074,2,left
36.067,0.513301026285051,1.093522452632137,-0.29482899400173807,1.895031936694108,3.3053579319677264,-2.2897983652025413,-0.20319151659262638,0.09842909342624771,-0.3359659390216187,2,left
36.122,0.5146833820074588,1.092503457874287,-0.29396203819899397,1.8912814425354492,3.2936081570214824,-2.2920738159144753,-0.20447429379636922,0.0962102774509978,-0.33690893588456083,2,left
36.123000000000005,0.5160680604655412,1.0915017157587428,-0.2930951458806402,1.8872933380922703,3.282261153579439,-2.294061266158515,-0.2057655768136127,0.09408766087188662,-0.33765905951521064,2,left
36.124,0.5174511432481168,1.0905180997775885,-0.2922300088516333,1.883052309916148,3.271337125037345,-2.295769783759867,-0.2070672073746282,0.09206442435193281,-0.33820478776496776,2,left
36.124,0.5188288039404197,1.0895533022376767,-0.2913683004941117,1.8785423571248514,3.26085504187906,-2.297209393457624,-0.20838101374589177,0.09014317231508237,-0.3385356687199732,2,left
36.125,0.5201973301708247,1.088607836443679,-0.2905116641201118,1.8737471156289256,3.2508324081204334,-2.2983909935944156,-0.2097087750133185,0.08832591965465128,-0.33864243755409235,2,left
36.146,0.5215531455046081,1.087682042361778,-0.28966170178959066,1.8686501676739842,3.241285053419046,-2.299326263334036,-0.21105218614667265,0.08661408083797845,-0.3385171177556738,2,left
36.199,0.5228928316652239,1.0867760951503023,-0.28881996405182186,1.8632353359918403,3.2322269515746114,-2.3000275604266722,-0.21241282421666943,0.08500846113840302,-0.33815310535349835,2,left
36.2,0.5242131512266953,1.0858900158586815,-0.28798794090973495,1.8574869625466626,3.223670065391264,-2.300507809525156,-0.21379211606825257,0.08350925033645534,-0.33754523552713966,2,left
36.201,0.5255110705446505,1.0850236836316494,-0.28716705401409665,1.8513901718614783,3.215624217874348,-2.300780381054951,-0.21519130806687933,0.08211601989078007,-0.33668983060925806,2,left
36.201,0.5267837824215422,1.0841768487443757,-0.2863586497848103,1.8449311189094388,3.208096989735705,-2.3008589606399212,-0.21661143873901834,0.08082772491475856,-0.3355847281559666,2,left
36.202,0.5280287277074728,1.083349145646434,-0.28556399291040463,1.8380972217393423,3.2010936432746857,-2.3007574094135164,-0.2180533149237941,0.07964271195995688,-0.3342292880914138,2,left
36.258,0.5292436147469449,1.082540105128167,-0.28478425963923526,1.8308773799341111,3.194617073162457,-2.300489617185586,-0.21951749168498805,0.0785587330045686,-0.3326243785272769,2,left
36.259,0.5304264356291725,1.0817491649929065,-0.2840205305737757,1.8232621816742582,3.1886677854846877,-2.3000693533885537,-0.22100425602834212,0.07757296571017695,-0.3307723401878527,2,left
36.26,0.531575478749263,1.0809756791286032,-0.2832737832230202,1.8152441031075053,3.183243906858084,-2.2995101223673418,-0.22251361440700038,0.07668203982308204,-0.32867692960945766,2,left
36.26,0.53268933786162,1.080218925319878,-0.2825448850426437,1.8068177027944055,3.1783412249788623,-2.298825027935789,-0.22404528389145034,0.07588206899500258,-0.326343242145172,2,left
36.260999999999996,0.5337669180156285,1.0794781123916304,-0.28183458780950243,1.7979798120009307,3.173953260628098,-2.2980266490841195,-0.22559868668862043,0.07516868621513663,-0.3237776173587106,2,left
36.279,0.5348074383897921,1.0787523874073588,-0.28114352396616044,1.7887297190606553,3.1700713681582684,-2.2971269266621865,-0.22717294758831716,0.07453708044411167,-0.3209875302535401,2,left
36.336,0.5358104315793172,1.078040843698645,-0.28047220527511896,1.7790693429314235,3.1666848568172306,-2.2961370597817328,-0.22876689399942007,0.0739820327042611,-0.31798147118341064,2,left
36.336999999999996,0.5367757388109118,1.0773425304380142,-0.2798210238839756,1.7690033894532393,3.1637811227241164,-2.295067410262295,-0.23037905831824734,0.07349795127362198,-0.31476881705515547,2,left
36.338,0.5377035009120322,1.076656464286282,-0.2791902557386635,1.7585394854299066,3.1613457838563095,-2.293927413863371,-0.23200768227680138,0.07307890679029652,-0.3113596979447971,2,left
36.338,0.5385941455011469,1.0759816431450713,-0.27858006606873803,1.7476882885663172,3.1593628149858755,-2.292725497798098,-0.23365072282813065,0.07271866850398814,-0.3077648643935807,2,left
36.339,0.5394483714970318,1.0753170607888027,-0.2779905161444197,1.7364635725824888,3.1578146820259603,-2.291469004611623,-0.2353058592379325,0.07241074260212198,-0.3039955593311535,2,left
36.395,0.5402671323207326,1.0746617196609796,-0.2774215698845318,1.724882285514665,3.156682475645278,-2.290164123440222,-0.2369705012528687,0.07214841298085779,-0.3000633961986928,2,left
36.396,0.5410516190325831,1.074014639377779,-0.2768730991574115,1.712964576551657,3.1559460438833544,-2.28881583114579,-0.23864179832794238,0.07192478452186729,-0.2959802435254402,2,left
36.397,0.5418032442077593,1.0733748610515483,-0.27634488800244955,1.7007337865126246,3.1555841237657467,-2.2874278464183773,-0.24031664991768548,0.07173282887397693,-0.2917581159478395,2,left
36.398,0.5425236264644261,1.0727414496986334,-0.2758366370167471,1.6882164012103538,3.1555744727117574,-2.2860025986377073,-0.24199171683593246,0.07156543273890767,-0.287409071660007,2,left
36.398,0.5432145745368363,1.0721134966997117,-0.2753479688150953,1.6754419712747242,3.1558940011082637,-2.284541211504306,-0.24366343371685384,0.07141544861734075,-0.2829451163937041,2,left
36.474000000000004,0.5438780697731656,1.0714901231357787,-0.27487843487282804,1.6624430022510757,3.15651890715904,-2.2830435008525147,-0.24532802273153034,0.07127574772332192,-0.27837811446470606,2,left
36.476,0.5445162470201151,1.07087048453216,-0.2744275240644791,1.6492548166081353,3.1574248144626926,-2.2815079863398613,-0.24698150887627152,0.0711392742233648,-0.27371970785974836,2,left
36.476,0.5451313745691858,1.0702537774809864,-0.2739946730751074,1.635915387897302,3.1585869123955943,-2.2799319169583354,-0.24861973712809082,0.07099909944643586,-0.2689812438950969,2,left
36.477,0.5457258335654582,1.069639248022483,-0.2735792781230697,1.622465147026027,3.1599800993015617,-2.2783113103632693,-0.25023839153434535,0.07084847476289867,-0.26417371087692054,2,left
36.477,0.5463020967321482,1.0690262010890603,-0.27318070683658546,1.6089467608814376,3.161579128401513,-2.2766410060063214,-0.25183301614159337,0.07068088238222744,-0.2593076807557291,2,left
36.478,0.5468627059419848,1.068414010513603,-0.27279830929315896,1.595404884909738,3.163358755890468,-2.274914732013515,-0.25339903768946,0.0704900838295177,-0.25439325820971453,2,left
36.496,0.5474102481447819,1.0678021296842863,-0.2724314277911387,1.5818858937222373,3.1652938898860383,-2.2731251856673897,-0.2549317900563543,0.07027016606760737,-0.24944003603296597,2,left
36.532,0.5479473294270598,1.0671901028716333,-0.2720794052489326,1.5684375951684673,3.167359738446566,-2.2712641273067593,-0.25642654041851376,0.0700155852535497,-0.24445705673504464,2,left
36.533,0.5484765473241633,1.0665775766889314,-0.27174159218204247,1.5551089319397795,3.1695319554153825,-2.2693224871575106,-0.2578785168682911,0.06972120806429441,-0.23945277986048122,2,left
36.534,0.5490004616694389,1.0659643109712227,-0.2714173522460804,1.5419496722651966,3.1717867841080274,-2.267290482962973,-0.2592829368496447,0.06938235042947685,-0.234435053820634,2,left
36.534,0.5495215642323868,1.065350188586303,-0.27110606639681367,1.529010089826816,3.1741012001271343,-2.265157743219863,-0.2606350355532061,0.06899481345529727,-0.22941109063247633,2,left
36.611999999999995,0.5500422473893398,1.0647352237943049,-0.27080713577387716,1.5163406327124098,3.1764530551353523,-2.2629134291081496,-0.2619300936286538,0.06855491637717795,-0.2243874423566025,2,left
36.614000000000004,0.5505647722593702,1.0641195687067697,-0.27051998349164086,1.5039915813362836,3.17882122268147,-2.2605463499020355,-0.2631634639598434,0.06805952647563292,-0.21936997874271263,2,left
36.615,0.551091237017307,1.06350351741682,-0.2702440555972801,1.4920126957094226,3.181185744957133,-2.2580450696195777,-0.26433059746347376,0.06750608594346548,-0.21436386598860105,2,left
36.615,0.5516235462387157,1.0628875075730795,-0.2699788214998737,1.4804528531687866,3.183527976390947,-2.255398004147932,-0.2654270679149992,0.06689263570302288,-0.20937354659822963,2,left
36.616,0.5521633821107372,1.0622721194878126,-0.2697237742147003,1.4693596780681926,3.185830718498532,-2.2525935082890562,-0.2664485958153888,0.06621783608944817,-0.20440272032007512,2,left
36.617,0.5527121782492166,1.061658073148205,-0.2694784307893491,1.4587791645498396,3.1880783418041507,-2.2496199523074223,-0.2673910713624851,0.0654809839025462,-0.19945432612493208,2,left
36.67,0.5532710966868631,1.0610462235735503,-0.26924233320656205,1.4487552934171868,3.1902568930860755,-2.246465787978235,-0.2682505766811223,0.06468202458602616,-0.19453052514272529,2,left
36.671,0.5538410083604106,1.0604375548633298,-0.26901504991345304,1.4393296467091865,3.1923541872045007,-2.243119605124475,-0.26902340751629167,0.06382155787955109,-0.18963268445590156,2,left
36.672,0.5544224772574531,1.0598331732247828,-0.26879617802104594,1.4305410288327463,3.194359882347494,-2.239570181193745,-0.2697060945163246,0.06290083574562999,-0.18476136174415392,2,left
36.672,0.5550157483443363,1.0592342993582902,-0.26858534618259644,1.4224251060742983,3.1962655371399795,-2.2358065272785415,-0.27029542400847645,0.06192175233502097,-0.17991629119037839,2,left
36.673,0.5556207394664773,1.0586422607020454,-0.2683822181123614,1.4150140733506613,3.198064648450821,-2.2318179331298604,-0.2707884578779738,0.06088682655992163,-0.17509637175561055,2,left
36.745,0.5562370375601624,1.0580584840270166,-0.268186496602713,1.4083363517288954,3.1997526694353833,-2.2275940121777262,-0.2711825520175226,0.059799178144809145,-0.1702996593105792,2,left
36.746,0.5568638995273709,1.057484488658379,-0.26799792780805937,1.4024163172843884,3.2013270077409652,-2.2231247467184505,-0.2714753729477466,0.05866249780649999,-0.1655233637361795,2,left
36.746,0.5575002577098026,1.0569218802660165,-0.2678163055604652,1.3972740612759411,3.20278700388026,-2.2184005332571393,-0.27166491244947943,0.05748101182221381,-0.16076385142950503,2,left
36.748000000000005,0.5581447292712758,1.0563723448666025,-0.2676414755377427,1.3929251816187203,3.204133889777693,-2.21341222799329,-0.2717495001822894,0.056259441026150055,-0.156016653276734,2,left
36.748000000000005,0.5587956286244401,1.0558376424290812,-0.26747333917165467,1.38938060563812,3.2053707274931567,-2.208151192436617,-0.2717278142960659,0.05500295430603015,-0.15127647822078102,2,left
36.749,0.5594509824639782,1.0553195992653284,-0.2673118572475712,1.386646444460921,3.2065023284099192,-2.2026093391357033,-0.27159889007216415,0.05371711704447535,-0.14653723325986634,2,left
36.805,0.5601085474409797,1.0548200983632168,-0.26715705317772903,1.384723881258092,3.207535154586081,-2.196779177482242,-0.27136212668423093,0.052407835622357596,-0.14179205198794279,2,left
36.806,0.560765830679514,1.054341067017024,-0.26700901587659076,1.3836090988960812,3.2084772065118807,-2.190653859518493,-0.27101729219849596,0.051081299474706306,-0.1370333344961346,2,left
36.806,0.5614201132940767,1.0538844614581144,-0.2668679020543086,1.3832932544114434,3.2093379029277784,-2.1842272256557234,-0.2705645269030413,0.04974392181612537,-0.13225280074614731,2,left
36.806,0.562068476852056,1.053452248737431,-0.266733937687683,1.38376250587029,3.2101279569450276,-2.177493850229634,-0.27000434497544096,0.04840227952632954,-0.12744155818444763,2,left
36.806999999999995,0.5627078323679693,1.0530463866335849,-0.266607418461714,1.3849980935724613,3.210859249942886,-2.1704490867577206,-0.2693376343384838,0.04706305254332942,-0.12259018332083667,2,left
36.883,0.5633349511942928,1.0526688023994393,-0.2664887090256684,1.386976474388476,3.211544702183011,-2.163089112308989,-0.26856565431445645,0.04573296345198072,-0.11768881624684295,2,left
36.885999999999996,0.563946497159193,1.0523213708728973,-0.26637824094432694,1.389669505275219,3.212198136782044,-2.155410969548439,-0.26769003055874896,0.04441871818611554,-0.11272726673233263,2,left
36.887,0.564539059177053,1.0520058924408757,-0.2662765092657643,1.3930446707000608,3.212834132562774,-2.1474126045450905,-0.26671274688264696,0.04312694853196621,-0.10769513087555878,2,left
36.888000000000005,0.5651091833121605,1.0517240716333085,-0.26618406769284564,1.3970653500236856,3.2134678624245794,-2.1390928989041735,-0.26563613382448287,0.04186415675695725,-0.10258191771067919,2,left
36.889,0.5656534033319682,1.0514774973433367,-0.2661015224526846,1.401691123267154,3.214114915890535,-2.130451695634128,-0.26446285404080483,0.040636662713796116,-0.09737718462584313,2,left
36.89,0.5661682692489622,1.0512676256005775,-0.2660295250700924,1.4068781149779566,3.2147911053487492,-2.121489818556772,-0.2631958847648909,0.03945055418513818,-0.09207067891427685,2,left
36.942,0.5666503738431796,1.0510957655984658,-0.26596876430628513,1.4125793752477516,3.2155122552243984,-2.1122090847785024,-0.2618384976630283,0.03831164149050851,-0.08665248189286805,2,left
36.944,0.5670963773960955,1.0509630694507142,-0.2659199575054935,1.4187452927969149,3.2162939749564323,-2.102612309004511,-0.2603942363353226,0.03722541712093962,-0.0811131529101843,2,left
36.944,0.5675030309551566,1.05087052591493,-0.2658838415491365,1.4253240279409813,3.217151422514875,-2.092703297984188,-0.25886689155745674,0.03619702070551941,-0.07544387216342312,2,left
36.945,0.5678671986164718,1.050818958054811,-0.2658611636435727,1.4322619495526105,3.218099070475195,-2.082486833677517,-0.25726047431488397,0.03523120930130156,-0.06963658188234098,2,left
36.946,0.5681858795143353,1.0508090245856527,-0.2658526722687868,1.4395040642733288,3.219150485028925,-2.0719686444663155,-0.25557918685752135,0.03433233266415441,-0.06368412437126088,2,left
36.983000000000004,0.5684562301878698,1.0508412245192307,-0.26585910867436374,1.4469944333321314,3.220318122448072,-2.0611553642261815,-0.2538273923510807,0.03350431264931729,-0.05758037316043303,2,left
36.985,0.5686755877157773,1.0509159046445202,-0.2658811992548337,1.454676576219,3.221613143801943,-2.050054479216216,-0.2520095838944535,0.032750625607850165,-0.051320352273488565,2,left
37.013000000000005,0.5688414936420599,1.0510332692478064,-0.2659196489750227,1.4624938612340237,3.223045247929446,-2.0386742627563126,-0.25013035347884627,0.03207428692811605,-0.04490033986145166,2,left
37.02,0.5689517183642312,1.0511933912705183,-0.26597513575438153,1.4703898829335156,3.2246225226702308,-2.0270236976609755,-0.24819436111584967,0.03147783738061013,-0.03831795469279639,2,left
37.021,0.5690042853402426,1.051396223900164,-0.2660483054416389,1.4783088264950732,3.22635131435842,-2.0151123863977842,-0.24620630421434325,0.030963331285293588,-0.03157222515039374,2,left
37.022,0.5689974942618721,1.0516416115191909,-0.2661397668824391,1.4861958191543387,3.2282361158487736,-2.002950449255996,-0.24417088747932306,0.03053232696670888,-0.024663640222888982,2,left
37.08,0.5689299423451412,1.0519292991264082,-0.2662500866711352,1.4939972695185235,3.2302794746741545,-1.990548412400764,-0.24209279402328923,0.03018588066320295,-0.017594181236569577,2,left
37.080999999999996,0.5688005430241367,1.0522589397442699,-0.266379783408573,1.501661196735594,3.232481925325042,-1.977917090551104,-0.23997665861274478,0.029924545446164377,-0.010367332661641174,2,left
37.082,0.568608541454654,1.0526300997325537,-0.2665293215839403,1.509137552150014,3.2348419509709014,-1.9650674706098017,-0.2378270437196085,0.0297483762210181,-0.0029880708737057074,2,left
37.082,0.5683535264531926,1.0530422622444513,-0.2666991055073886,1.5163785354236088,3.2373559786150627,-1.9520106009819804,-0.23564841852676394,0.02965694070586145,0.00453716882988192,2,left
37.083,0.5680354388507963,1.0534948292910782,-0.26688947392688867,1.523338905713145,3.2400184088021433,-1.9387574884542698,-0.2334451406198515,0.02964933503901895,0.01220054502689129,2,left
37.148,0.567654576379572,1.0539871230324354,-0.26710069597524905,1.5299762867795295,3.242821677260973,-1.925319002911413,-0.23122143994815852,0.029724202113887745,0.019992880088215946,2,left
37.15,0.5672115949439084,1.0545183870411798,-0.2673329689203108,1.5362514628570914,3.2457563412663486,-1.9117057898417942,-0.22898140474012244,0.02987975121496804,0.027903745203623435,2,left
37.150999999999996,0.5667075058255242,1.0550877884328782,-0.2675864178806494,1.5421286610465414,3.248811181095433,-1.89792819057911,-0.22672896924383235,0.03011377838471749,0.035921559723261914,2,left
37.158,0.5661436685611057,1.0556944217613997,-0.26786109732695246,1.5475758170583538,3.2519733093629557,-1.8839961702305614,-0.22446790324648383,0.030423687459201123,0.044033704405869005,2,left
37.159,0.5655217798494104,1.0563373152526694,-0.26815699398190807,1.5525648225587327,3.2552282851431644,-1.8699192532763917,-0.22220180325165734,0.030806511969877933,0.052226646821869324,2,left
37.159,0.564843859270159,1.057015439327156,-0.26847403069349435,1.5570717509887975,3.2585602311402404,-1.8557064669704468,-0.2199340850212007,0.03125893840443822,0.0604860744980804,2,left
37.214,0.5641122327792903,1.057727716418662,-0.2688120708183867,1.5610770545391568,3.261951950752608,-1.841366292926667,-0.2176679770928853,0.03177733148390544,0.06879702991225373,2,left
37.215,0.5633295152721878,1.0584730302025724,-0.26917092261415243,1.5645657225162661,3.2653850408222946,-1.8269066274176522,-0.21540651498057536,0.032357761949342576,0.07714404292467014,2,left
37.216,0.5624985933512195,1.059250232703902,-0.269550343378615,1.5675273937800556,3.268839996915254,-1.812334750769407,-0.21315253593570116,0.03299603705635384,0.08551125889597004,2,left
37.217,0.5616226081665587,1.0600581494026158,-0.269950043531866,1.5699564204798335,3.2722963102477967,-1.7976573060289762,-0.2109086742444143,0.033687733811679076,0.09388256221930785,2,left
37.217,0.560704937133422,1.0608955835327865,-0.27036969110665054,1.5718518835029254,3.2757325582833325,-1.7828802871793292,-0.20867735709256058,0.03442823491095082,0.10224169515825728,2,left
37.28,0.5597491737322493,1.061761320514504,-0.27080891709062105,1.5732175618779363,3.2791264945725676,-1.7680090375785251,-0.20646080122374913,0.035212767123908556,0.11057237121935942,2,left
37.281,0.5587591055231429,1.0626541329807981,-0.27126732182257296,1.5740618591174733,3.282455145264692,-1.7530482595395136,-0.20426101096344929,0.03603644149022318,0.118858381095553,2,left
37.282,0.5577386907647249,1.0635727866778344,-0.27174448217304015,1.5743976887391735,3.2856949178626476,-1.7380020357270112,-0.20207977837520572,0.0368942944762831,0.12708368855409874,2,left
37.294000000000004,0.5566920337792461,1.0645160472174473,-0.2722399587829502,1.5742423198623343,3.288821724457466,-1.722873862616293,-0.19991868610081706,0.03778132942685727,0.1352325144174898,2,left
37.295,0.5556233589812906,1.065482687428094,-0.27275330262820247,1.5736171830314942,3.2918111198220763,-1.7076666960188567,-0.19777911298292744,0.03869255788143771,0.14328940854021932,2,left
37.296,0.5545369834674344,1.0664714951980812,-0.2732840605571817,1.5725476368462334,3.2946384539074507,-1.6923830085155087,-0.195662242184933,0.03962304027256892,0.15123931135801408,2,left
37.347,0.553437288132468,1.0674812817911103,-0.27383177970040173,1.5710626988663992,3.2972790359517203,-1.6770248580560156,-0.19356907137871923,0.04056792541862415,0.15906760728028524,2,left
37.348,0.5523286873187256,1.068510890363638,-0.27439601067553737,1.5691947494650342,3.299708303215031,-1.661593965938145,-0.19150042467662584,0.04152248837107758,0.16676017163444093,2,left
37.355,0.5512155970890229,1.0695592041599649,-0.27497630959404606,1.566979220191352,3.3019019850205393,-1.6460918017975166,-0.189456966174576,0.0424821664419118,0.17430341185908005,2,left
37.357,0.5501024023639111,1.0706251537930727,-0.2755722390201454,1.5644542753135804,3.30383625511332,-1.6305196738206493,-0.18743921503769714,0.043442593398190406,0.18168430316465614,2,left
37.357,0.5489934232514604,1.0717077231050878,-0.2761833680641105,1.5616604898611832,3.3054878699194905,-1.6148788232638196,-0.1854475618735075,0.04439963190950532,0.18889041918625732,2,left
37.414,0.547892880859278,1.0728059532975023,-0.276809271730678,1.5586405238695946,3.306834294487499,-1.5991705220630101,-0.18348228576433503,0.045349404458489055,0.19590995890658305,2,left
37.417,0.5468048628527128,1.0739189451806446,-0.2774495296048203,1.555438790648178,3.3078538217222766,-1.583396170855343,-0.1815435711232234,0.04628832299373243,0.2027317715455465,2,left
37.418,0.5457332891875382,1.0750458594440302,-0.27810372400309025,1.552101116167308,3.308525692390545,-1.567557393853891,-0.17963152374514077,0.04721311753529164,0.20934538069361816,2,left
37.431,0.54468187872914,1.0761859149399848,-0.27877143784049735,1.5486743874712516,3.308830221169834,-1.5516561278617222,-0.1777461857988609,0.04812086381848237,0.2157410082116279,2,left
37.431999999999995,0.5436541175933779,1.0773383851754885,-0.2794522525592297,1.5452061897631566,3.3087489289673564,-1.535694704121074,-0.1758875497124498,0.049009009992480784,0.22190959800036236,2,left
37.433,0.542653229887544,1.0785025933594097,-0.280145746436141,1.5417444333184847,3.308264676837272,-1.5196759222643865,-0.17405557097018853,0.04987540228008235,0.2278428396660324,2,left
37.481,0.5416821512671522,1.0796779063381714,-0.2808514934637435,1.538336971964678,3.307361794767796,-1.5036031156387142,-0.1722501799554535,0.05071830902342425,0.2335331921425434,2,left
37.483000000000004,0.5407435055646811,1.0808637276874906,-0.28156906287921485,1.535031214427829,3.3060262002908525,-1.4874802074455515,-0.1704712931840605,0.05153644167372691,0.23897390739471966,2,left
37.488,0.5398395847553538,1.0820594902682967,-0.2822980193192669,1.5318737290607727,3.304245504894031,-1.4713117574452252,-0.1687188243892694,0.052328970801551515,0.24415905436144206,2,left
37.489000000000004,0.5389723326719262,1.0832646486932924,-0.283037923492267,1.528909842030289,3.3020091078957536,-1.4551029991455433,-0.16699269578848394,0.05309553569407871,0.2490835431959857,2,left
37.489000000000004,0.5381433330396508,1.0844786722195319,-0.2837883332130124,1.5261832294279751,3.2993082777155838,-1.4388598675495898,-0.16529284957873025,0.053836247015427316,0.25374314946879106,2,left
37.547,0.537353802377075,1.0857010384557637,-0.2845488046694162,1.5237355061395539,3.296136220149269,-1.42258901814339,-0.16361925945984257,0.05455168256465671,0.2581345373722418,2,left
37.549,0.5366045880078991,1.0869312280071735,-0.2853188938480739,1.5216058185735362,3.2924881326789306,-1.4062978388947949,-0.1619719418879167,0.05524287630521121,0.2622552806317104,2,left
37.568000000000005,0.5358961709407329,1.0881687199083547,-0.28609815806890626,1.5198304511345122,3.288361243740651,-1.3899944576576226,-0.16035096683478825,0.05591130079660263,0.2661038801538429,2,left
37.57,0.5352286729196836,1.0894129875305265,-0.28688615755211944,1.5184424560268281,3.2837548372625682,-1.3736877468531186,-0.1587564679551845,0.056558843165393544,0.269679777889538,2,left
37.571,0.5346018668155437,1.09066349465138,-0.28768245691910804,1.5174713154347497,3.2786702652911655,-1.357387326361327,-0.15718865210739738,0.057187775127276914,0.27298336600481343,2,left
37.571,0.5340151897715911,1.0919196914588543,-0.28848662656272084,1.5169426448259096,3.2731109529142866,-1.3411035650330463,-0.1556478081358316,0.057800718315249404,0.2760159892377447,2,left
37.613,0.5334677588858631,1.0931810102574193,-0.28929824390303016,1.5168779435825197,3.2670823986810937,-1.3248475810277562,-0.1541343147948611,0.05840060658650726,0.278779937607922,2,left
37.615,0.532958389508904,1.094446860512564,-0.29011689460487894,1.5172943954409737,3.2605921717897455,-1.3086312410315992,-0.1526486477225006,0.058990646562950055,0.2812784273550503,2,left
37.626,0.5324856163827117,1.0957166226943635,-0.29094217375952774,1.5182047191522623,3.253649906241057,-1.2924671583254792,-0.15119138542467056,0.05957427690828871,0.2835155692622587,2,left
37.628,0.5320477177117876,1.096989640352971,-0.29177368681290017,1.519617069363051,3.2462672919408564,-1.2763686896566018,-0.14976321424451786,0.060155126462176675,0.28549632426964694,2,left
37.629,0.5316427419078558,1.0982652101528767,-0.2926110498609074,1.5215349875881745,3.2384580625667847,-1.2603499307998274,-0.1483649322201763,0.060736971443970215,0.2872264466238702,2,left
37.681,0.5312685365085091,1.0995425700349015,-0.2934538889913345,1.5239574024943483,3.2302379791859526,-1.244425710360018,-0.14699745159590816,0.06132369225506113,0.28871241516674095,2,left
37.683,0.5309227787001027,1.100820885927324,-0.2943018385242758,1.5268786775420957,3.221624807118075,-1.2286115807631184,-0.1456617996746946,0.061919230584470304,0.28996135356393843,2,left
