time,gFx,gFy,gFz,ax,ay,az,wx,wy,wz,subject_number,foot
17.52,0.5345235022207475,1.1027093549710618,-0.23749743092180423,1.5535878358228452,3.7786331487064535,-1.3366606342428737,0.005656200859601926,0.16982524094413767,-0.01016093634779745,3,left
17.521,0.535971647990549,1.1042267901699976,-0.237685664371986,1.5531460499875356,3.777937951523348,-1.3346176785541082,0.006055682358104343,0.16646987341156258,-0.010186696769631359,3,left
17.537,0.5374514884027823,1.105755128609812,-0.23787948365629916,1.552328834716519,3.7770919369989406,-1.3325754249292159,0.006461147389406993,0.1630276509818991,-0.010096797354155904,3,left
17.538,0.5389616069291001,1.1072936027528464,-0.23807828779504003,1.5511600199535593,3.776107861605376,-1.3305248810399029,0.006873350783919922,0.15950261533973767,-0.0098887775420766,3,left
17.539,0.5405002718790626,1.1088414498462966,-0.23828152250595672,1.5496619210103801,3.7749995483695598,-1.3284577493111664,0.007292859368076026,0.1558994017268021,-0.00955956815196696,3,left
17.588,0.5420654442962655,1.1103979055847193,-0.23848868244594898,1.5478550094343255,3.773781849500862,-1.3263664716650005,0.00772004799718026,0.1522232063266897,-0.009105494237868354,3,left
17.59,0.5436547876063418,1.1119621979593963,-0.2386993130204948,1.5457576050869317,3.7724705913510514,-1.324244269545679,0.008155097013172557,0.14847975016901696,-0.008522285647353578,3,left
17.615,0.5452656788280752,1.1135335412198801,-0.23891301177909807,1.5433855984608968,3.7710825082941875,-1.322085181672948,0.008597991328816184,0.1446752413658522,-0.007805097495863344,3,left
17.617,0.5468952216486014,1.1151111298182579,-0.23912942952514385,1.540752210976701,3.7696351707005626,-1.3198841007462068,0.00904852122526336,0.14081633633535512,-0.0069485414273021354,3,left
17.618,0.5485402618545082,1.1166941321257973,-0.23934827130438505,1.5378677986856653,3.768146909634486,-1.3176368081209506,0.00950628491121253,0.13691009974051388,-0.005946727714561613,3,left
17.619,0.5501974055459731,1.11828168353734,-0.23956929733197366,1.5347397035200931,3.766636739492159,-1.315340004255466,0.009970692928956647,0.13296396217477036,-0.004793317966824183,3,left
17.653,0.5518630404141867,1.1198728783847163,-0.2397923237111468,1.5313721548617873,3.7651242792451827,-1.3129913331782794,0.01044097452065247,0.12898567430707228,-0.0034815881330727176,3,left
17.675,0.5535333601727224,1.1214667603209736,-0.24001722263009426,1.5277662223372588,3.763629672200133,-1.3105894002688063,0.010916186040152064,0.12498325651785275,-0.002004501567839361,3,left
17.677,0.5552043918945118,1.12306231157488,-0.24024392169769385,1.5239198188462564,3.762173502195359,-1.3081337832054403,0.011395221445339998,0.12096494363170035,-0.00035479206343533336,3,left
17.679000000000002,0.5568720256096092,1.1246584419471195,-0.24047240214699028,1.519827750889815,3.7607767009327318,-1.305625036016969,0.011876824877927,0.11693912467148887,0.0014749431705266694,3,left
17.68,0.5585320452063833,1.126253978221368,-0.2407026956999169,1.5154818122886249,3.7594604393761344,-1.3030646861539252,0.01235960532559472,0.11291427781549838,0.003492140682006919,3,left
17.714000000000002,0.5601801594614099,1.1278476543317084,-0.24093487994623494,1.5108709183565279,3.758245997914583,-1.30045522451546,0.012842053329056228,0.10889890170407283,0.00570415869514834,3,left
17.715999999999998,0.5618120320451623,1.1294381026160039,-0.24116907219772102,1.5059812793477183,3.7571546131668203,-1.2978000884015848,0.013322559638390661,0.10490144597944398,0.008118157239352067,3,left
17.750999999999998,0.5634233097557273,1.1310238466536588,-0.24140542193671102,1.5007966125681251,3.7562073014768127,-1.2951036372553897,0.01379943569067291,0.10093024490741356,0.010740972443240652,3,left
17.752,0.5650096488137547,1.1326032962611021,-0.24164410212056134,1.4952983907252446,3.755424661534875,-1.292371120442439,0.014270935775630406,0.09699345688291856,0.013578986690222184,3,left
17.752,0.5665667394526275,1.1341747450945059,-0.24188529964970992,1.489466120471223,3.754826662216763,-1.2896086351964409,0.014735280626125011,0.09309901047627445,0.01663799660049837,3,left
17.753,0.5680903291770754,1.135736371070397,-0.24212920528627624,1.4832776430827517,3.7544324237652797,-1.286823072239081,0.015190681863933225,0.08925455597719241,0.019923082377771198,3,left
17.787,0.5695762451550045,1.1372862395870496,-0.2423760033519429,1.4767094512308154,3.75425999840762,-1.2840220472029047,0.01563536654960896,0.0854674207925782,0.023438483106514484,3,left
17.811,0.5710204163511734,1.1388223093288705,-0.24262586163261948,1.469737018984721,3.7543261532542846,-1.2812138173200722,0.01606760127333415,0.08174456746241612,0.027187481441884553,3,left
17.812,0.5724188960331841,1.1403424402823343,-0.24287892192251007,1.4623351420726307,3.7546461583408197,-1.2784071845411842,0.016485715522962192,0.07809255385128805,0.031172299209946408,3,left
17.813,0.5737678850725191,1.1418444035768012,-0.24313529150991717,1.4544782819849669,3.7552335859519284,-1.2756113883171234,0.016888124056922527,0.074517495773358,0.035394004966724575,3,left
17.814,0.5750637561099123,1.143325892850796,-0.24339503573848528,1.4461409053743304,3.7561001294148344,-1.272835992357178,0.017273347693281718,0.07102503291596628,0.03985243555064916,3,left
17.854,0.5763030782450992,1.1447845368649991,-0.24365817162193912,1.4372978123359164,3.757255447502844,-1.2700907685963823,0.017640031729568337,0.06762029921912106,0.044546134338241304,3,left
17.855,0.5774826415545566,1.1462179130037453,-0.24392466231534163,1.4279244509879117,3.7587070369068147,-1.2673855796604616,0.017986961404571764,0.06430789857645434,0.049472308238961496,3,left
17.891,0.5785994805838923,1.147623561246427,-0.2441944120966326,1.4179972179015585,3.7604601331863834,-1.2647302600364891,0.01831307416724151,0.061091886197949884,0.05462680425154359,3,left
17.893,0.5796508960268566,1.1489989982032949,-0.24446726156219376,1.4074937443554298,3.7625176402042793,-1.2621344959413934,0.01861746873061679,0.057975755609873475,0.06000410572473606,3,left
17.894000000000002,0.580634474014178,1.1503417308718873,-0.24474298304929426,1.3963931683869342,3.7648800880479065,-1.259607703880565,0.01889941100903178,0.054962430843274034,0.06559734830373609,3,left
17.895,0.5815481027707504,1.1516492698752627,-0.24502127668200416,1.3846763926272687,3.7675456192145815,-1.2571589081066514,0.019158337182658906,0.05205426270401385,0.0713983554949701,3,left
17.92,0.5823899867787093,1.1529191420892568,-0.24530176768655715,1.3723263279782854,3.7705100016943986,-1.2547966182772694,0.019393854214433077,0.04925302765163484,0.07739769375513023,3,left
17.947,0.5831586587537358,1.1541489027434753,-0.24558400565508545,1.3593281233210603,3.7737666655276776,-1.2525287105698222,0.019605738092132705,0.04655992823510892,0.08358474676779044,3,left
17.948,0.5838529895744824,1.1553361472852486,-0.24586746627157308,1.3456693815180902,3.7773067582714956,-1.2503623166002984,0.019793930066648785,0.04397559496505827,0.0899478072678826,3,left
17.949,0.584472196018546,1.1564785235058135,-0.24615155574331368,1.3313403618953235,3.781119215953984,-1.2483037234047096,0.0199585313359199,0.041500090358865455,0.09647418236699887,3,left
17.949,0.5850158460229893,1.1575737446104328,-0.246435617896287,1.316334168856963,3.785190847924181,-1.2463582856968616,0.020099796751932773,0.03913291624114057,0.10315030698557826,3,left
17.988,0.5854838612645691,1.1586196039912244,-0.24671894366964722,1.30064692421828,3.789506434001343,-1.2445303500981206,0.020218127983922456,0.03687302510977314,0.10996186135146042,3,left
17.99,0.5858765170656257,1.1596139922187065,-0.24700078259727168,1.2842779172395484,3.7940488304906443,-1.2428231900437055,0.020314066311282918,0.034718835887517036,0.11689389096001866,3,left
18.025,0.5861944398140055,1.160554915905131,-0.2472803555876486,1.2672297244309298,3.7987990807536423,-1.2412389499488294,0.0203882850754342,0.0326682541068161,0.12393092874443566,3,left
18.027,0.5864386020838531,1.1614405167809114,-0.24755686782280498,1.249508293590937,3.8037365285138813,-1.2397785991898347,0.020441581797617014,0.03071869653427967,0.1310571192691573,3,left
18.028,0.5866103155619846,1.1622690886084224,-0.24782952039807268,1.2311229908496664,3.8088389365630717,-1.238441900004469,0.020474870002670207,0.028867120306044453,0.1382563437274041,3,left
18.028,0.5867112220876572,1.1630390902827608,-0.24809751991377,1.2120866118807943,3.814082616025206,-1.237227395387288,0.02048917084845197,0.027110056761699138,0.14551234266541943,3,left
18.054000000000002,0.5867432835646424,1.163749155156154,-0.24836008626118433,1.1924153584399486,3.8194425702227734,-1.236132421600861,0.02048560469365447,0.025443650229261917,0.15280883232388753,3,left
18.084,0.5867087713390139,1.1643980979045583,-0.24861645946267436,1.172128781095092,3.824892654360686,-1.2351531467460584,0.020465382703555704,0.02386370194945717,0.16012961151966607,3,left
18.086,0.5866102544342615,1.1649849200492766,-0.24886590621437157,1.1512496907849925,3.8304057488456693,-1.2342846332792476,0.020429798510862726,0.022365719114436088,0.16745865785594755,3,left
18.086,0.58645058501871,1.1655088141625145,-0.24910772622676455,1.129804045674701,3.835953940091613,-1.2335209184307385,0.020380219802262456,0.02094496844567852,0.17478021311311526,3,left
18.087,0.5862328799188568,1.165969166735299,-0.24934125831148754,1.107820821950332,3.841508700606682,-1.232855104464988,0.020318079490609722,0.019596532848099073,0.1820788579358877,3,left
18.12,0.5859604983421306,1.1663655607798147,-0.24956588636013677,1.0853318750186145,3.8470410622131466,-1.232279452737549,0.020244866019300027,0.01831536919147277,0.18933957596390316,3,left
18.163,0.585637016825399,1.166697779356829,-0.24978104529074596,1.0623717936598236,3.852521779949847,-1.2317854791295542,0.020162112480577327,0.017096365738202366,0.1965478076353359,3,left
18.165,0.5852662022516836,1.1669658098333855,-0.24998622670454707,1.0389777475060364,3.8579214862622155,-1.2313640504549737,0.020071384543023083,0.015934398519427594,0.20368949440628042,3,left
18.165,0.5848519831440127,1.1671698478279229,-0.2501809838919974,1.015189327780183,3.863210835495678,-1.2310054818389715,0.0199742674939208,0.014824386281696581,0.2107511151229411,3,left
18.166,0.5843984190706216,1.167310300453094,-0.25036493597042403,0.991048380986372,3.868360639109049,-1.2306996350849881,0.0198723528343536,0.013761343631540334,0.21771971684717834,3,left
18.166,0.5839096680043705,1.1673877892134843,-0.2505377710250239,0.9665988340225404,3.873341994028952,-1.2304360181436973,0.01976722475534644,0.012740432097741632,0.22458294186580255,3,left
18.187,0.5833899516782153,1.1674031526993813,-0.2506992481602344,0.941886506992586,3.8781264101743553,-1.2302038859687312,0.01966044662620503,0.011757008997354948,0.23132905158783673,3,left
18.208,0.5828435193027471,1.1673574485711764,-0.2508491984880546,0.9169589087759465,3.882685945184552,-1.229992343139543,0.01955354751666664,0.010806674083955895,0.23794694746373302,3,left
18.22,0.5822746103822188,1.1672519539972228,-0.2509875252422367,0.8918650116843698,3.886993352049905,-1.229790448363961,0.01944800875256418,0.009885313975177364,0.24442618894623472,3,left
18.222,0.5816874175607384,1.16708816380478,-0.2511142032793068,0.8666550039999965,3.8910222400912757,-1.2295873199384622,0.0193452505204462,0.008989144334321922,0.25075700855687894,3,left
18.222,0.58108605031166,1.1668677859057015,-0.25122927817323626,0.8413800208967248,3.894747244768713,-1.2293722395954285,0.019246618615326026,0.008114749669056119,0.25693032434496643,3,left
18.253,0.5804745000001369,1.166592733889009,-0.25133286502396013,0.8160918547623598,3.898144199753888,-1.2291347512845707,0.019153371567452376,0.007259120408893276,0.26293775042718437,3,left
18.298,0.5798566066690582,1.1662651170125724,-0.2514251470716962,0.7908426456663501,3.9011903063444024,-1.2288647522987448,0.019066668455721372,0.006419686733899839,0.2687716065065875,3,left
18.3,0.5792360278519983,1.165887228126365,-0.2515063742196563,0.7656845526991677,3.903864297948598,-1.228552575757552,0.018987557601574265,0.005594348351678074,0.2744249269847229,3,left
18.3,0.5786162096525876,1.165461530146311,-0.2515768615617071,0.7406694089955133,3.90614659746956,-1.2281890645735691,0.018916966132423475,0.004781498923930331,0.27989146976816726,3,left
18.301,0.5780003602369757,1.1649906415718212,-0.2516369880129724,0.7158483674445384,3.9080194629667813,-1.227765637645822,0.018855690289881096,0.003980043568511866,0.2851657245857811,3,left
18.301,0.5773914258494002,1.1644773214547457,-0.25168719519295746,0.6912715464490684,3.9094671154294094,-1.227274349273457,0.018804386377395503,0.0031894082726219184,0.2902429206490959,3,left
18.32,0.5767920695180808,1.163924454286724,-0.2517279867376946,0.6669876827376834,3.9104758440373675,-1.2267079425339613,0.01876356230502748,0.002409540750005271,0.2951190335980022,3,left
18.357,0.5762046528412105,1.1633350353094407,-0.251759928114132,0.6430437939887067,3.911034087063564,-1.2260598969228536,0.018733569724179912,0.001640902662395626,0.2997907917346266,3,left
18.359,0.5756312215728694,1.1627121566239171,-0.25178364684912685,0.6194848516673103,3.911132488112648,-1.2253244703031199,0.01871459676613488,0.0008844532956872657,0.30425568144515003,3,left
18.36,0.5750734957876348,1.1620589942196782,-0.2517998330270419,0.5963534640060767,3.910763927699181,-1.224496735162748,0.018706661468282145,0.00014162524514288325,0.3085119511346234,3,left
18.361,0.5745328649397299,1.1613787958210318,-0.2518092399333147,0.5736895693695561,3.9099235305053317,-1.2235726092819423,0.018709606097954596,-0.0005857065012003406,0.3125586119658352,3,left
18.387,0.5740103874387769,1.1606748693619107,-0.25181268469580914,0.5515301417905973,3.908608650349512,-1.2225488814286234,0.018723092653817903,-0.0012952602279389307,0.31639543311857293,3,left
18.435,0.5735067939010335,1.1599505718888774,-0.2518110487160875,0.5299089132504982,3.9068188379427533,-1.2214232336316375,0.01874659975479259,-0.00198438651728739,0.32002292985914205,3,left
18.436,0.5730224931813944,1.1592092986332476,-0.2518052776994297,0.5088561188224914,3.9045557982009003,-1.2201942620981014,0.018779421000085877,-0.0026501101178545063,0.3234423437017781,3,left
18.437,0.5725575805847675,1.158454471869451,-0.2517963812002655,0.48839826925339413,3.901823342186712,-1.2188614983237542,0.018820664811785494,-0.0032891747985584786,0.3266556143118868,3,left
18.437,0.5721118481216096,1.1576895290182827,-0.2517854317124586,0.4685579527767347,3.898627335707884,-1.2174254310138017,0.018869255753617867,-0.0038980917698341203,0.3296653425458723,3,left
18.438,0.5716847970896886,1.156917909260981,-0.2517735633602847,0.4493536667610367,3.894975644944224,-1.2158875287933264,0.018923937317344822,-0.004473192447610892,0.3324747438164983,3,left
18.495,0.5712756534679131,1.1561430378718363,-0.251761970176188,0.4307996812637721,3.890878079343384,-1.214250262978319,0.018983276170451327,-0.005010686142070106,0.33508759117735354,3,left
18.497,0.5708833865013664,1.1553683079177715,-0.25175190387878144,0.4129059397571124,3.886346332394067,-1.2125171285904286,0.019045667873228485,-0.005506722728379909,0.33750814798467205,3,left
18.499000000000002,0.5705067304815524,1.1545970598522755,-0.25174467105691983,0.39567800406778814,3.8813939210903556,-1.2106926611939686,0.019109344128291773,-0.005957459280042107,0.3397410906786972,3,left
18.5,0.5701442093085564,1.1538325601256076,-0.25174162965017954,0.3791170488008631,3.876036124693506,-1.2087824477377,0.01917238172099358,-0.006359128017165196,0.34179142312999905,3,left
18.5,0.5697941630927853,1.1530779798096857,-0.2517441845213634,0.363219906979858,3.870289922603727,-1.2067931306456197,0.019232713361961636,-0.006708102038785064,0.3436643844748997,3,left
18.519000000000002,0.5694547757983323,1.152336373823969,-0.25175378184075176,0.34797916513617455,3.8641739288386288,-1.2047324048765413,0.01928814059023425,-0.007000956191298675,0.3453653518843237,3,left
18.570999999999998,0.5691241028266015,1.1516106611810528,-0.2517719020643226,0.33338330261914917,3.8577083167771535,-1.2026090075616689,0.01933634880048582,-0.007234522014468264,0.34689973884713254,3,left
18.572,0.5688000975780012,1.1509036067918086,-0.2518000514612351,0.31941686817293696,3.8509147257180922,-1.200432699700692,0.019374924405064047,-0.007405936589376442,0.34827288906919507,3,left
18.573,0.5684806364411649,1.1502178055339878,-0.25183975236571843,0.30606068855533025,3.8438161429098296,-1.1982142395251765,0.019401374130993056,-0.007512685289166701,0.34948996599309146,3,left
18.573,0.5681635423087066,1.1495556692319755,-0.25189253255769584,0.2932921070841147,3.836436758502462,-1.1959653473690384,0.019413146430014065,-0.007552638493009436,0.3505558381672485,3,left
18.574,0.5678466072832788,1.148919416889364,-0.25195991430581105,0.2810852515740719,3.8288017933451104,-1.1936986619382142,0.01940765486939885,-0.007524082622432335,0.35147496181473337,3,left
18.631,0.5675276153376607,1.148311068201117,-0.2520434035394979,0.2694113307182845,3.820937301792156,-1.1914276875173573,0.01938230317268108,-0.007425746396946764,0.3522512639708879,3,left
18.633,0.5672043654360044,1.1477324401968534,-0.2521444794483113,0.2582389566071881,3.812869954957421,-1.1891667309675733,0.019334511420474355,-0.007256823473193675,0.35288803082878684,3,left
18.634,0.5668746953958019,1.14718514675224,-0.25226458470855145,0.24753449032381666,3.80462681167464,-1.1869308269893046,0.019261742788677105,-0.007016992175792264,0.35338780555088783,3,left
18.635,0.5665365066424625,1.1466706005895118,-0.25240511651589287,0.23726240831181966,3.7962350826018643,-1.1847356505043143,0.01916152996223325,-0.006706432207355094,0.3537522991204943,3,left
18.635,0.5661877897996421,1.146190017293921,-0.2525674185509993,0.22738568798265235,3.7877218901909036,-1.182597415792618,0.01903150022973408,-0.006325837769087189,0.3539823174260595,3,left
18.654,0.5658266507863193,1.1457444208270982,-0.2527527738972525,0.21786620881877863,3.7791140282231552,-1.1805327628907873,0.01886939852926438,-0.0058764266203766525,0.35407770680488293,3,left
18.691,0.5654513369786105,1.1453346500353219,-0.25296239880570753,0.20866516004076235,3.7704377292901894,-1.178558632717315,0.018673108153446916,-0.005359944888124595,0.35403731893729173,3,left
18.692999999999998,0.5650602630497424,1.144961365674688,-0.2531974370476085,0.19974344293974783,3.7617184513978974,-1.1766921328815505,0.01844066906468124,-0.004778667593330063,0.3538589952403102,3,left
18.708,0.5646520360121422,1.144625057443402,-0.2534589543969864,0.19106205894536427,3.7529806920719433,-1.1749503956422762,0.018170293821507182,-0.004135394854254834,0.35353957078924886,3,left
18.71,0.5642254786434087,1.1443260505058443,-0.2537479326663642,0.18258247997193308,3.7442478331181634,-1.173350428890696,0.01786038112392756,-0.003433443528362014,0.3530748979360638,3,left
18.71,0.5637796502849515,1.1440645111303755,-0.25406526282943537,0.17426700120621477,3.7355420154783734,-1.1719089620004102,0.017509526998025448,-0.0026766337005465725,0.3524598900463935,3,left
18.769000000000002,0.5633138642329373,1.143840451325049,-0.25441173708655346,0.16607907826780205,3.7268840414197926,-1.17064229091382,0.017116533660220822,-0.001869269335643453,0.351688585713403,3,left
18.772000000000002,0.5628277013319897,1.1436537326219125,-0.25478804010786227,0.15798365132589168,3.718293300384033,-1.1695661282929475,0.01668041615997506,-0.0010161131478901347,0.35075423264443767,3,left
18.773,0.5623210197209318,1.143504069316317,-0.25519474002204484,0.1499474581045979,3.7097877157339476,-1.1686954631049737,0.016200407005072925,-0.00012235706260966574,0.3496493883249856,3,left
18.774,0.5617939609718621,1.1433910315351574,-0.25563227998039467,0.14193933653566201,3.7013837112788033,-1.1680444313886562,0.01567595903206787,0.0008064096199053408,0.3483660334022894,3,left
18.775,0.561246952896189,1.1433140486202409,-0.2561009712028713,0.13393051671229084,3.693096197015343,-1.1676261982855547,0.015106746717373576,0.0017642327469893737,0.34689569472321297,3,left
18.846,0.5606807089794096,1.1432724134410328,-0.256600988175584,0.1258948994008781,3.684938571928242,-1.1674528501057722,0.014492666025729918,0.002744825942906821,0.345229576536417,3,left
18.848,0.5600962241485492,1.143265288201757,-0.2571323662775115,0.11780931419339004,3.67692273871476,-1.1675352937542443,0.013833832924132216,0.00374160361897156,0.3433586980808835,3,left
18.849,0.5594947666479443,1.1432917120838495,-0.25769500186409305,0.1096537476468531,3.66905912461757,-1.167883161808287,0.01313058085078936,0.004747715314819479,0.3412740336313605,3,left
18.85,0.558877866063834,1.143350610874719,-0.25828865472941087,0.10141153317777214,3.66135670629897,-1.1685047261379344,0.01238345752561478,0.0057560826371009025,0.33896664976233915,3,left
18.85,0.5582472978277413,1.1434408084497993,-0.2589129526358057,0.09306949808970655,3.6538230409838266,-1.1694068267902702,0.011593221391559307,0.006759439746039754,0.3364278358999828,3,left
18.851,0.5576050648243405,1.143561039163594,-0.25956739714396354,0.08461806584838458,3.646464306780167,-1.170594821895701,0.010760837801247208,0.007750377771773761,0.33364922658592566,3,left
18.906,0.5569533771984162,1.1437099594378024,-0.2602513698132146,0.07605131343019506,3.639285353068911,-1.1720725606627933,0.009887474966184112,0.008721393226530046,0.33062291518461473,3,left
18.908,0.5562946321106259,1.1438861575202162,-0.2609641385348209,0.06736698610455683,3.632289758753438,-1.1738423779428417,0.008974499642469972,0.009664940322699796,0.32734155899414813,3,left
18.908,0.5556313953568359,1.1440881620795278,-0.26170486468021464,0.05856647582188959,3.6254798923308766,-1.1759051055704197,0.008023472407835576,0.010573486642826004,0.3237984755561963,3,left
18.909000000000002,0.5549663857026387,1.1443144509285477,-0.2624726117180322,0.04965477144392464,3.618856965741858,-1.17826009408793,0.007036142170514546,0.011439570772236096,0.3199877296652613,3,left
18.91,0.5543024609282383,1.1445634605403072,-0.2632663551947073,0.040640386987425704,3.612421075961652,-1.1809052400620679,0.006014439431355401,0.01225586004095859,0.31590421041311906,3,left
18.984,0.5536426034934597,1.1448335966439744,-0.26408499359333465,0.03153527033445535,3.6061712319063264,-1.1838370170792545,0.004960467939463391,0.013015206985476363,0.3115436977672183,3,left
18.986,0.5529899043634575,1.1451232461662861,-0.26492735964486386,0.02235469282088337,3.600105366823782,-1.1870505102210416,0.0038764945957470774,0.013710703975972195,0.30690291847566353,3,left
18.987000000000002,0.5523475448095017,1.1454307901551573,-0.2657922315658921,0.013117119822537713,3.59422033969114,-1.1905394547114205,0.002764937577640317,0.014335735918593431,0.30197959125430707,3,left
18.988,0.5517187764340885,1.1457546166422707,-0.26667834361439685,0.0038440626760505065,3.5885119344504757,-1.1942962804552955,0.001628352681976759,0.014884031034902353,0.2967724612434157,3,left
18.988,0.5511068994511517,1.1460931328665371,-0.2675843956507098,-0.005440087607699377,3.5829748688654055,-1.1983121647584667,0.0004694178829080717,0.015349709720495977,0.291281323720576,3,left
18.989,0.5505152391762358,1.1464447771325785,-0.26850906171112443,-0.014708244500861578,3.5776028218315514,-1.2025770949499783,-0.0007090838761209537,0.015727331487216667,0.2855070371634727,3,left
19.041,0.549947120791375,1.1468080305176913,-0.26945099762867025,-0.023930827867923433,3.57238848266446,-1.207079941601945,-0.0019042835263947044,0.01601194000635198,0.2794515262942704,3,left
19.043,0.5494058425510826,1.1471814281013217,-0.2704088476923109,-0.0330759836294539,3.5673236229390515,-1.2118085424724274,-0.003113246024257115,0.016199106293739687,0.2731177767065459,3,left
19.044,0.5488946476572921,1.147563569212793,-0.27138125038772104,-0.04210982120684363,3.5623991908651447,-1.216749797183584,-0.0043329913466667825,0.01628497006299748,0.26650982328337947,3,left
19.045,0.5484166950546123,1.1479531262831912,-0.2723668433083515,-0.05099666877446663,3.5576054281840706,-1.22188977264801,-0.005560515879716641,0.016266279121428855,0.2596327344233267,3,left
19.045,0.5479750294606546,1.1483488519461391,-0.273364267296874,-0.059699346394159615,3.5529320091612218,-1.2272138189606132,-0.006792813763692993,0.0161404264103542,0.2524925937462489,3,left
19.12,0.5475725511236733,1.1487495840402673,-0.274372169819002,-0.06817945735007809,3.548368199196913,-1.2327066939929554,-0.008026897767054932,0.015905484139924462,0.24509648075911145,3,left
19.121,0.547211985992103,1.1491542482316082,-0.2753892075542996,-0.0763976984398385,3.543903026883113,-1.23835269226171,-0.00925981939676497,0.015560234505732212,0.23745245150349437,3,left
19.122,0.5468958570288694,1.1495618581563114,-0.27641404823112253,-0.08431418997422718,3.539525461055718,-1.2441357721441744,-0.010488688189415977,0.015104196232950444,0.22956951956977828,3,left
19.123,0.5466264572744354,1.1499715131783923,-0.2774453717840893,-0.09188882476070978,3.535224585318507,-1.2500396769042594,-0.011710690325212894,0.014537645449536552,0.22145763749651404,3,left
19.123,0.5464058250461176,1.1503823939965534,-0.27848187095721294,-0.09908163268769145,3.5309897641822383,-1.2560480474948221,-0.012923106780298768,0.013861628927316908,0.21312767849326678,3,left
19.124000000000002,0.5462357215015154,1.1507937565159707,-0.27952225158257626,-0.10585315604920546,3.526810795888757,-1.2621445264925892,-0.014123331179914624,0.013077968219498666,0.20459141843448286,3,left
19.178,0.546117610747079,1.1512049245852802,-0.28056523292804475,-0.11216483193294711,3.522678048527517,-1.2683128529095113,-0.015308887387834577,0.012189254178791152,0.19586151800594107,3,left
19.18,0.5460526426454622,1.1516152821737737,-0.2816095485795693,-0.11797937971103728,3.5185825781874414,-1.2745369478891313,-0.016477446656254523,0.011198832199380084,0.18695150447852388,3,left
19.18,0.5460416384280548,1.1520242653386443,-0.28265394820393924,-0.12326119039615266,3.514516229549963,-1.2808009918908096,-0.01762684386483535,0.010110779288486426,0.17787575183638665,3,left
19.180999999999997,0.5460850793061034,1.152431354174156,-0.2836972002856582,-0.12797671035570196,3.5104717205193885,-1.2870894948884166,-0.018755092219312562,0.008929874442267269,0.1686494575699058,3,left
19.182000000000002,0.5461830986201404,1.1528360649806813,-0.28473809566375213,-0.13209480936684478,3.50644271302285,-1.2933873616132414,-0.019860395938282944,0.007661563431199712,0.15928861485941329,3,left
19.208,0.5463354783686655,1.1532379429816753,-0.2857754515225176,-0.13558712550208218,3.5024238715761795,-1.2996799533680023,-0.020941160741569213,0.00631191843502334,0.14980997962430742,3,left
19.246,0.5465416506220041,1.1536365558387804,-0.28680811546970086,-0.13842838384874925,3.498410910247292,-1.305953147033564,-0.02199600211175056,0.00488759259772572,0.14023103232784095,3,left
19.247,0.5468007033522789,1.154031487955719,-0.287834969397977,-0.14059668857248753,3.4944006281126954,-1.312193391387014,-0.023023751332030835,0.003395769498940466,0.13056993451073176,3,left
19.248,0.5471113894309511,1.1544223352425662,-0.2888549328967206,-0.14207378833467552,3.490390933195564,-1.3183877607491505,-0.024023459320827462,0.0018441075828802167,0.12084547990665535,3,left
19.248,0.5474721376098756,1.1548086997738534,-0.28986696607457674,-0.14284531463507485,3.4863808550456006,-1.3245240059621477,-0.0249943983697966,0.00024067981063954783,0.11107703939365264,3,left
19.322,0.547881064928769,1.1551901837281016,-0.29087007175226987,-0.14290099046473698,3.482370546979643,-1.3305906026119922,-0.025936062047464233,-0.0014060907936231414,0.10128449795751764,3,left
19.324,0.5483359905831172,1.155566382046342,-0.29186329703170394,-0.1422348027205202,3.4783612805477495,-1.336576796255182,-0.02684816361695928,-0.0030874988073606655,0.09148818124430924,3,left
19.325,0.5488344516606005,1.155936873249174,-0.29284573426703847,-0.1408451296462619,3.474355435648206,-1.3424726443229174,-0.02773063322985624,-0.004794626614978934,0.08170876987774589,3,left
19.326,0.549373721261066,1.1563012080788897,-0.2938165214940074,-0.13873481674789037,3.470356488856184,-1.3482690544619176,-0.028583614002519568,-0.006518416888646415,0.07196720079490719,3,left
19.327,0.5499508291864771,1.156658896314987,-0.29477484232289164,-0.13591119855941386,3.4663690009850283,-1.353957819225724,-0.029407456960593863,-0.008249747240586445,0.062284555539489646,3,left
19.328,0.5505625848386396,1.1570093927053817,-0.2957199251115022,-0.1323860662720545,3.4623986037864714,-1.35953164698699,-0.03020271464863115,-0.009979506668873445,0.05268193600712724,3,left
19.382,0.5512056017371723,1.157352082882686,-0.2966510410891422,-0.12817558393914563,3.4584519842546064,-1.3649841883121818,-0.030970132921226388,-0.011698672786746628,0.043180329108919176,3,left
19.384,0.5518763232402967,1.1576862696929147,-0.29756750116890834,-0.12330016004536988,3.454536862712922,-1.3703100558770018,-0.03171064039956353,-0.013398388217623921,0.033800463193360934,3,left
19.385,0.5525710491429509,1.158011160165305,-0.2984686513571919,-0.11778428349246338,3.4506619595940187,-1.3755048353545067,-0.03242533549850156,-0.015070034337208466,0.024562660320792722,3,left
19.386,0.5532859625497376,1.1583258535422114,-0.29935386678068854,-0.11165633078599774,3.4468369470914415,-1.3805650853535563,-0.03311547137646755,-0.016705300829545765,0.015486688639348756,3,left
19.386,0.5540171560691549,1.1586293310999618,-0.3002225444019594,-0.10494834706447347,3.443072384062728,-1.3854883256858952,-0.033782439192732654,-0.01829625013168669,0.0065916177378549405,3,left
19.455,0.5547606564329681,1.1589204486060065,-0.3010740945583225,-0.09769580102718062,3.439379633402793,-1.390273014076908,-0.034427749840808076,-0.019835376425181284,-0.0021043219247177543,3,left
19.457,0.5555124471679842,1.1591979320855896,-0.3019079315718611,-0.08993731279111496,3.435770760587106,-1.3949185119078926,-0.03505301418772695,-0.021315659121324066,-0.01058387535159223,3,left
19.458,0.5562684896187017,1.1594603772543357,-0.3027234638469011,-0.08171435338818715,3.432258411654464,-1.3994250397684063,-0.03565992182113132,-0.022730610844705044,-0.0188308951278305,3,left
19.461,0.557024743164952,1.1597062526280424,-0.30352008405836595,-0.07307091492979643,3.428855669329205,-1.4037936234057409,-0.03625021835355173,-0.024074319987812547,-0.026830469146707597,3,left
19.462,0.5577771857018713,1.1599339059933524,-0.30429716012289404,-0.06405315103569974,3.425575886756696,-1.408026030314199,-0.03682568157086105,-0.025341488250964113,-0.03456904273400907,3,left
19.464000000000002,0.5585218352211926,1.1601415737157155,-0.30505402754559546,-0.05470898818577438,3.4224324995227966,-1.4121246969815258,-0.03738809713960376,-0.026527464196712158,-0.04203453211108679,3,left
19.52,0.5592547728303318,1.1603273923424857,-0.3057899835232098,-0.045087712443570474,3.4194388205479833,-1.4160926466021737,-0.037939234837530915,-0.02762827407177235,-0.04921642505094701,3,left
19.522000000000002,0.5599721671448407,1.1604894120656846,-0.306504282992097,-0.03523954270991848,3.4166078293477864,-1.4199333967623673,-0.038480826094102395,-0.02864065021963815,-0.0561058653172828,3,left
19.522000000000002,0.5606702998044563,1.1606256117099327,-0.3071961366500416,-0.02521520539194554,3.4139519709852886,-1.4236508564324903,-0.03901454330813386,-0.02956205573341457,-0.06269571880107472,3,left
19.523,0.561345591737813,1.160733914870627,-0.3078647107858101,-0.015065521644036987,3.411482976208167,-1.427249211771007,-0.0395419812322072,-0.030390703068494875,-0.06898062000495717,3,left
19.523,0.5619946296957373,1.160812206652377,-0.30850912851963874,-0.004841011420769927,3.409211707400256,-1.430732800957331,-0.040064640605780355,-0.031125564854079905,-0.07495699802145651,3,left
19.588,0.5626141925168138,1.1608583503618917,-0.3091284718937008,0.005408486173775007,3.4071480313327496,-1.434105980486002,-0.04058391411068349,-0.03176637620062167,-0.08062308167455223,3,left
19.59,0.5632012764412158,1.1608702036534866,-0.30972178425702007,0.01563417935064853,3.4053007192729408,-1.437372989071234,-0.04110107466254517,-0.03231362838797602,-0.08597888378436368,3,left
19.590999999999998,0.5637531185658853,1.1608456339166247,-0.31028807260877317,0.025788681052247447,3.40367737519728,-1.4405378173568115,-0.04161726603965293,-0.03276855393637485,-0.09102616457212712,3,left
19.597,0.5642672176550313,1.1607825329330743,-0.31082631000115524,0.03582636043072451,3.4022843926678004,-1.4436040895797435,-0.04213349582506302,-0.03313310319718592,-0.09576837435318573,3,left
19.598,0.5647413521184395,1.1606788309198333,-0.3113354385827934,0.04570368927786933,3.4011269401216304,-1.4465749595365738,-0.04265063050937049,-0.03340991327579238,-0.10021057632205507,3,left
19.599,0.5651735954519198,1.1605325100749257,-0.31181437403122025,0.05537958140590222,3.400208971780722,-1.4494530205747427,-0.04316939237043123,-0.03360227131479615,-0.10435935141575396,3,left
19.654,0.5655623292964858,1.1603416178276191,-0.3122620118962624,0.06481571942029904,3.3995332571131045,-1.452240227877951,-0.04369035761792997,-0.033714074841122064,-0.10822268789794483,3,left
19.656,0.5659062537884891,1.1601042802808437,-0.31267723605297715,0.07397686146276843,3.3991014194227476,-1.454937830734241,-0.04421395541908833,-0.0337497912047183,-0.11180985764834163,3,left
19.657,0.566204394643432,1.1598187165799323,-0.31305892917012196,0.08283112236447117,3.3989139765006913,-1.4575463130552055,-0.04474046765292701,-0.0337144169201712,-0.11513127995799409,3,left
19.658,0.566456106620669,1.1594832545401519,-0.3134059846276671,0.09135022700146402,3.3989703805096316,-1.4600653414583815,-0.045270029358288964,-0.03361343698070395,-0.11819837328567746,3,left
19.659000000000002,0.566661073298264,1.1590963467156306,-0.3137173186949975,0.09950973518941678,3.399269056665085,-1.4624937208992137,-0.04580262981346142,-0.03345278374874689,-0.12102339686170914,3,left
19.714000000000002,0.5668193032516756,1.1586565851788035,-0.313991881572733,0.10728923624282583,3.3998074409247208,-1.4648293584278012,-0.046338114089742165,-0.03323879443317578,-0.12361928683874238,3,left
19.715999999999998,0.5669311231844479,1.1581627134905488,-0.31422866652805725,0.11467250847276568,3.400582017216298,-1.4670692364969746,-0.046876184868248134,-0.032978165833189015,-0.12599949325168744,3,left
19.717,0.5669971693860765,1.1576136354847582,-0.3144267174097334,0.12164763731273597,3.4015883549121217,-1.4692093977210836,-0.0474164043623286,-0.032677905358561986,-0.12817782248488746,3,left
19.733,0.5670183789991776,1.157008421737064,-0.3145851353633754,0.12820708734453776,3.4028211470818284,-1.471244942511514,-0.04795819631278695,-0.03234527801391944,-0.13016828722652185,3,left
19.735,0.5669959812569799,1.1563463149024498,-0.31470308509716294,0.13434772649843246,3.4042742496244736,-1.4731700399631722,-0.04850084822284454,-0.03198774978530408,-0.13198496480872451,3,left
19.735,0.5669314874092675,1.1556267343967077,-0.31477980030021674,0.14007080305023226,3.405940720637868,-1.4749779508932603,-0.049043514274396856,-0.031612928690693674,-0.13364186538709133,3,left
19.787,0.5668266779626574,1.154849280624639,-0.31481458788047834,0.1453818777324578,3.407812858328013,-1.476661060039582,-0.04958521951378286,-0.031228505176859253,-0.13515281189517372,3,left
19.788,0.5666835867629143,1.1540137396688106,-0.3148068313929736,0.15029071404160563,3.4098822351952247,-1.4782109134257664,-0.05012486574862429,-0.03084219312405274,-0.13653133322659386,3,left
19.792,0.5665044822945322,1.1531200893597853,-0.3147559942631781,0.15481112953088322,3.41213972711476,-1.4796182580337318,-0.050661239333291315,-0.030461671962463455,-0.13779057122852542,3,left
19.793,0.566291846856939,1.152168506074647,-0.3146616229349686,0.15896081187065259,3.414575538519411,-1.4808730833912043,-0.051193020853714466,-0.030094529995619186,-0.13894320150131728,3,left
19.794,0.5660483540232999,1.1511593703023226,-0.3145233496779749,0.16276110696303847,3.4171792282825586,-1.4819646668849027,-0.051718796592085364,-0.02974820900222004,-0.14000136737174068,3,left
19.854,0.565776844439456,1.1500932697372863,-0.31434089488502076,0.16623678861586527,3.419939742582737,-1.4828816254782005,-0.05223707147047205,-0.029429950296781773,-0.14097662545223485,3,left
19.855999999999998,0.5654802998654849,1.1489710004326648,-0.31411406892465665,0.16941581690699495,3.422845459462619,-1.4836119758429294,-0.05274628307152377,-0.029146742489987866,-0.14187990066779446,3,left
19.857,0.5651618153035524,1.1477935672254143,-0.3138427736403228,0.1723290880976779,3.4258842469722692,-1.4841432037108753,-0.05324481643526007,-0.02890527112922467,-0.14272144916229418,3,left
19.873,0.5648245691166821,1.1465621838723687,-0.313527003459538,0.17501017657956927,3.429043535218282,-1.4844623425813102,-0.053731019488729256,-0.02871187029510225,-0.14351082835638665,3,left
19.875,0.5644717912774389,1.1452782724503963,-0.3131668460103457,0.17749506886460922,3.432310402327141,-1.4845560617866351,-0.05420321894765466,-0.028572476189982193,-0.1442568734884214,3,left
19.875,0.5641067300803828,1.1439434613807775,-0.3127624821975477,0.17982188949609612,3.4356716742031868,-1.4844107637364095,-0.054659736336063976,-0.028492582779640906,-0.14496767922811127,3,left
19.92,0.5637326176988036,1.1425595815513874,-0.31231418576544484,0.18203061810805765,3.4391140373204343,-1.4840126892533363,-0.055098903651383424,-0.028477199569937158,-0.1456505844816176,3,left
19.922,0.5633526350565304,1.141128660075236,-0.3118223223997945,0.18416279568845484,3.4426241626330265,-1.4833480282831402,-0.055519078320916196,-0.028530811579903875,-0.14631215897750288,3,left
19.929000000000002,0.5629698767411687,1.1396529113958926,-0.3112873484232263,0.18626121745074112,3.446188838047898,-1.4824030323534896,-0.055918657308839714,-0.028657341535768942,-0.1469581910705243,3,left
19.929000000000002,0.5625873169066479,1.1381347258748262,-0.3107098091622197,0.18836961036852493,3.4497951075449502,-1.4811641260624868,-0.05629609036118621,-0.028860114368685953,-0.14759367666533582,3,left
19.93,0.5622077770282571,1.1365766564576014,-0.3100903371065923,0.19053229461342697,3.4534304158429614,-1.4796180164334551,-0.056649892449421736,-0.029141824488507058,-0.14822280922764647,3,left
19.987000000000002,0.5618338960272455,1.134981404142352,-0.3094296499945236,0.19279382885942775,3.457082756441104,-1.4777517995079779,-0.05697865556229774,-0.029504507014392712,-0.148848970798789,3,left
19.989,0.5614681029601873,1.1333518027534804,-0.30872854894387114,0.19519863967807333,3.4607408179162733,-1.4755530630634022,-0.0572810600450952,-0.029949514536745537,-0.14947472390098324,3,left
20.008,0.561112592368725,1.1316908033173634,-0.3079879167704609,0.1977906353218017,3.464394121646488,-1.4730099839700732,-0.05755588563580398,-0.03047750059170616,-0.15010180424919597,3,left
20.01,0.5607693025866779,1.1300014583331799,-0.30720871665367167,0.20061280471674334,3.4680331457992932,-1.4701114190861286,-0.057802022258590754,-0.031088410321425466,-0.15073111423703683,3,left
20.01,0.5604398977118364,1.1282869062840948,-0.3063919912435601,0.2037068053385585,3.471649433295037,-1.4668469893199296,-0.05801848058532361,-0.031781478400088034,-0.15136271719276354,3,left
20.011,0.5601257542043159,1.1265503566684751,-0.30553886218944143,0.20711254894158096,3.475235682792121,-1.4632071569800351,-0.058204402350750716,-0.03255523422401645,-0.15199583247947668,3,left
20.053,0.5598279528591117,1.1247950756488903,-0.3046505300113738,0.21086779708037623,3.478785821876128,-1.4591832966727025,-0.058359070330900695,-0.033407514348488175,-0.15262883187496865,3,left
20.054000000000002,0.5595472761840082,1.1230243722241788,-0.3037282742186507,0.21500777538087254,3.4822950618418202,-1.4547677599387614,-0.05848191775748099,-0.03433548212544878,-0.15325923831718238,3,left
20.067,0.5592842101928307,1.1212415846626211,-0.3027734535197397,0.21956481058737842,3.485759934057499,-1.4499539337407399,-0.05857253686501512,-0.03533565448060079,-0.15388372846261872,3,left
20.067999999999998,0.5590389489426829,1.1194500667791294,-0.301787505900768,0.22456799361595373,3.489178309246973,-1.4447362930471899,-0.05863068634331828,-0.03640393578450654,-0.15449814014364818,3,left
20.069000000000003,0.5588114005122683,1.1176531735654611,-0.3007719484196218,0.23004287518373898,3.4925494031154583,-1.4391104481142794,-0.05865629760823798,-0.03753565877829556,-0.1550974853094091,3,left
20.12,0.5586011942666814,1.115854245727144,-0.2997283767917916,0.23601120277092083,3.495873772884349,-1.4330731872678335,-0.05864947989800268,-0.03872563241597835,-0.15567596941967574,3,left
20.121,0.5584076901647008,1.1140565927185955,-0.2986584650223328,0.24249070548740403,3.4991533081609116,-1.4266225157835979,-0.05861052425102679,-0.03996819628223597,-0.1562270195317599,3,left
20.145,0.5582299910263422,1.1122634738384387,-0.2975639652498141,0.24949492948302182,3.502391217519091,-1.4197576910946568,-0.05853990643948821,-0.04125728113000619,-0.156743324066566,3,left
20.148,0.5580669582637021,1.1104780771182503,-0.2964467076401061,0.2570331243556441,3.505592011028725,-1.4124792543495142,-0.05843828887589138,-0.042586475003555266,-0.15721688645897752,3,left
20.149,0.5579172308911732,1.108703496316842,-0.2953085998481178,0.2651101805758268,3.5087614787426036,-1.4047890583023037,-0.058306521284078996,-0.043949093651748004,-0.15763909338079785,3,left
20.15,0.5577792470462307,1.106942706886836,-0.29415162545749085,0.2737266175941593,3.5119066648349424,-1.3966902915035884,-0.05814563956145713,-0.045338252309340056,-0.1580007971652609,3,left
20.187,0.5576512670680424,1.1051985417857888,-0.2929778408753731,0.28287862052907536,3.515035835506068,-1.3881874986999319,-0.057956862063148595,-0.046746934979536685,-0.15829241173889314,3,left
20.188,0.5575313973004571,1.1034736676993304,-0.2917893703041238,0.2925581201485761,3.5181584359263867,-1.3792865972428838,-0.05774158273095221,-0.048168058318798,-0.15850402154024987,3,left
20.202,0.5574176139261531,1.1017705621664164,-0.29058839864451536,0.30275290909093744,3.521285029913987,-1.3699948892477432,-0.057501360864569556,-0.04959452901636523,-0.15862550301827028,3,left
20.204,0.557307786198551,1.1000914922721399,-0.2893771624533892,0.313446789040923,3.5244272176188374,-1.3603210693004122,-0.05723790766782779,-0.05101929477701272,-0.15864665747865608,3,left
20.204,0.5571996985016381,1.0984384956920288,-0.2881579392287795,0.3246197468444425,3.527597529297725,-1.3502752274834737,-0.056953069998577494,-0.05243538965609617,-0.1585573522847756,3,left
20.253,0.5570910708169712,1.0968133648152913,-0.2869330352903998,0.3362481597113033,3.5308092946906147,-1.339868846888586,-0.05664881189397143,-0.05383597474431696,-0.1583476664213086,3,left
20.255,0.5569795774454789,1.0952176345469578,-0.28570477248836557,0.34830503072267693,3.5340764875509794,-1.329114793601405,-0.056327194299665435,-0.05521437495128379,-0.15800803742658626,3,left
20.281,0.5568628642558546,1.0936525742490886,-0.28447547404022844,0.36076025625658864,3.5374135447305797,-1.3180272964821687,-0.055990353173844994,-0.056564112189926206,-0.15752940849571517,3,left
20.282,0.5567385652071043,1.0921191840679163,-0.28324744996780477,0.37358092655072067,3.540835159371458,-1.3066219147260487,-0.055640476032712716,-0.0578789351038757,-0.1569033752876758,3,left
20.283,0.5566043191277468,1.0906181956003462,-0.28202298272181603,0.3867316592397455,3.54435604883622,-1.2949154923174773,-0.05527977716982814,-0.05915284587239917,-0.15612233083591648,3,left
20.284000000000002,0.5564577875807047,1.089150076627436,-0.28080431350497137,0.40017496195155144,3.5479907021813677,-1.2829260988510773,-0.05491047213161414,-0.060380125423345456,-0.15517960456233915,3,left
20.32,0.556296674314356,1.0877150395418202,-0.27959362963316675,0.4138716139230925,3.551753119247477,-1.2706729557785925,-0.054534752225732334,-0.06155535882666539,-0.15406959006124826,3,left
20.339000000000002,0.5561187465436335,1.086313052949659,-0.2783930531869023,0.42778105323886234,3.555656557461605,-1.2581763468377316,-0.05415475964457331,-0.06267346219874936,-0.15278785765229427,3,left
20.340999999999998,0.5559218580376291,1.0849438556942554,-0.27720463114801774,0.4418617596545031,3.559713298426336,-1.245457511720651,-0.05377256347339893,-0.06372971149227163,-0.15133125003017092,3,left
20.342,0.555703973590711,1.0836069724533692,-0.27603032704649805,0.4560716290144009,3.5639344391318732,-1.2325385225837697,-0.053390136844643284,-0.06471977230656453,-0.1496979603210692,3,left
20.342,0.5554631941247877,1.0823017302117601,-0.2748720139015226,0.4703683388457924,3.568329708835448,-1.2194421437220244,-0.05300933579652562,-0.0656397283297697,-0.14788759149165412,3,left
20.387,0.5551977816127135,1.0810272751504932,-0.27373146805643206,0.4847097064560883,3.5729073129923687,-1.2061916768879937,-0.05263188058053542,-0.06648610522651835,-0.145901195705649,3,left
20.389,0.5549061831064221,1.0797825896741118,-0.27261036342160105,0.49905404279001414,3.5776738076824444,-1.1928107985111227,-0.05225933997593538,-0.0672558875820217,-0.14374129257278886,3,left
20.419,0.5545870531548833,1.078566509369504,-0.2715102656761077,0.5133605063753708,3.5826340091198836,-1.179323397169206,-0.05189311883388842,-0.06794652794842501,-0.14141186586472715,3,left
20.421,0.5542392737740768,1.0773777396328745,-0.2704326261908447,0.5275894606143932,3.5877909416914258,-1.1657534175664106,-0.0515344488631894,-0.06855594796406606,-0.13891833869130077,3,left
20.422,0.5538619711504832,1.0762148715858462,-0.26937877576062785,0.5417028354107664,3.5931458254211566,-1.1521247135040718,-0.051184382511210304,-0.06908253231392109,-0.13626752754581656,3,left
20.422,0.5534545285978308,1.0750763969116202,-0.26834991846341116,0.5556644913632625,3.5986981001777014,-1.1384609102712693,-0.05084378957569816,-0.06952511744841108,-0.13346757624982494,3,left
20.453,0.5530165957457982,1.07396072147092,-0.2673471260673606,0.569440581505685,3.6044454793202836,-1.1247852765317894,-0.050513356061983164,-0.06988297761590628,-0.13052787117309503,3,left
20.476,0.5525480942247144,1.072866177939614,-0.2663713335580039,0.5829999034039958,3.610384022842354,-1.111120605778093,-0.05019358492128191,-0.07015581012563235,-0.1274589387583393,3,left
20.477999999999998,0.5520492200844118,1.071791038065341,-0.26542333649474786,0.5963142337008388,3.6165082215170195,-1.0974891071626458,-0.04988479849943924,-0.07034372053101277,-0.12427232607346199,3,left
20.479,0.5515204429602103,1.0707335252445032,-0.2645037907824453,0.6093586359007467,3.6228110861499987,-1.0839123050486417,-0.0495871425248073,-0.07044720739827996,-0.12098046634767827,3,left
20.48,0.5509625018694425,1.0696918279641887,-0.2636132150975783,0.622111731468467,3.6292842374913374,-1.0704109463620133,-0.04930059126901299,-0.07046714550145225,-0.11759653422178103,3,left
20.52,0.5503763975963158,1.068664114290263,-0.2627519958121022,0.6345559270568231,3.635917993840008,-1.057004915040674,-0.04902495339261922,-0.07040476589796878,-0.11413429702218471,3,left
20.521,0.5497633818644228,1.0676485467726338,-0.26192039382799953,0.6466775950128225,3.6427014551661134,-1.0437131532760475,-0.04875987810949385,-0.07026163172559494,-0.11060796678838548,3,left
20.555,0.5491249441732401,1.0666432962710288,-0.261118552489184,0.6584672068406104,3.649622583676852,-1.0305535896704228,-0.0485048615229304,-0.07003960925678347,-0.10703205493977345,3,left
20.555999999999997,0.5484627982366375,1.0656465535611626,-0.260346506036146,0.6699194203976944,3.6566682814842224,-1.0175430755112773,-0.048259253108372493,-0.06974083413300312,-0.10342122988781938,3,left
20.555999999999997,0.547778870098266,1.0646565390390763,-0.25960418855183764,0.6810331227110124,3.6638244669912416,-1.0046973322234791,-0.04802226236502435,-0.06936767285226815,-0.0997901777700443,3,left
20.557,0.5470752882883363,1.0636715116380115,-0.2588914433184307,0.691811430915725,3.6710761521463153,-0.9920309140936648,-0.04779296577388127,-0.06892267995108002,-0.09615346741457755,3,left
20.587,0.5463543742933117,1.062689777785088,-0.2582080322734314,0.7022616532013969,3.6784075221832997,-0.9795571893285058,-0.04757031440714373,-0.06840855198453907,-0.09252542232257797,3,left
20.613000000000003,0.5456186311758093,1.0617097010334637,-0.25755364545416853,0.7123952105382083,3.6858020185067097,-0.967288340649611,-0.047353142649226486,-0.06782807977637406,-0.08892000338827333,3,left
20.614,0.544870729397997,1.0607297131157267,-0.25692791054178876,0.7222275193376273,3.6932424248493585,-0.9552353855953104,-0.04714017837437229,-0.06718410004222797,-0.08535070514381748,3,left
20.616,0.5441134901623274,1.0597483266191858,-0.25633040235737653,0.7317778350775873,3.70071095672346,-0.9434082164935109,-0.04693005470582939,-0.06647944687111006,-0.0818304665186389,3,left
20.616,0.543349866815921,1.0587641483912835,-0.25576065190499886,0.7410690573220922,3.7081893539836783,-0.9318156598077627,-0.04672132330300923,-0.06571690340421132,-0.07837159557557635,3,left
20.653000000000002,0.5425829244966732,1.0577758924441374,-0.25521815472238313,0.750127498568203,3.715658975307202,-0.9204655532460639,-0.046512468986005195,-0.06489915437728479,-0.07498570642886827,3,left
20.655,0.5418158179845284,1.056782391835501,-0.25470237852236527,0.7589826229595575,3.7231008915715695,-0.9093648366587862,-0.046301925443526334,-0.06402874041529916,-0.07168366595429816,3,left
20.691,0.5410517676890307,1.0557826097328338,-0.2542127700834093,0.7676667629087228,3.7304959740974675,-0.8985196514395515,-0.04608809183363899,-0.06310801474522644,-0.06847554849687672,3,left
20.693,0.540294033719271,1.0547756498770404,-0.25374876127417506,0.77621481968323,3.7378249751402164,-0.8879354443462838,-0.045869350200711125,-0.06213910259183764,-0.065370597852474,3,left
20.693,0.5395458881182169,1.053760766204903,-0.2533097741586269,0.7846639504880182,3.7450686018529367,-0.8776170734715496,-0.04564408366977067,-0.06112386330744863,-0.06237719630658878,3,left
20.694000000000003,0.5388105855282813,1.052737371118139,-0.25289522523520885,0.7930532427264819,3.752207589584674,-0.8675689144105424,-0.045410695264579304,-0.06006385528638153,-0.05950284019085116,3,left
20.72,0.5380913326679808,1.0517050419296032,-0.2525045288958669,0.8014233758066123,3.7592227825942257,-0.8577949643858364,-0.04516762696608781,-0.05896030379487713,-0.05675412062283711,3,left
20.73,0.537391257150221,1.050663525035314,-0.2521371001703484,0.8098162707729798,3.7660952282452174,-0.848298942641417,-0.04491337850035328,-0.05781407189156468,-0.05413670765325224,3,left
20.749000000000002,0.5367133764112098,1.0496127373669124,-0.2517923568173069,0.8182747278913038,3.772806287120827,-0.8390843864139899,-0.04464652547320652,-0.056625634625083035,-0.05165533648216164,3,left
20.75,0.5360605676182092,1.0485527649319388,-0.2514697208465425,0.8268420522268348,3.7793377594812467,-0.8301547423429725,-0.044365736701873354,-0.055395056895819875,-0.04931379517881085,3,left
20.750999999999998,0.5354355392498511,1.0474838586531563,-0.25116861958765024,0.835561667247037,3.785672027610376,-0.8215134531858621,-0.044069790727267806,-0.05412197582920137,-0.047114913740754306,3,left
20.788,0.5348408047591106,1.0464064279966132,-0.25088848645844325,0.8444767165106684,3.791792211231756,-0.813164039176304,-0.043757591519473976,-0.052805588779549224,-0.04506055439396164,3,left
20.828000000000003,0.5342786585186081,1.0453210329744278,-0.2506287616520691,0.8536296540963837,3.7976823288321153,-0.8051101724679732,-0.04342818338557215,-0.0514446478027924,-0.04315160305877434,3,left
20.83,0.5337511541284186,1.044228375096514,-0.2503888930459771,0.8630618271266287,3.803327454953059,-0.7973557428744623,-0.04308076506717402,-0.050037460931081315,-0.04138796197368101,3,left
20.83,0.5332600850974736,1.0431292877508007,-0.25016833766279345,0.8728130585191598,3.8087138651366015,-0.7899049141799596,-0.04271470293282061,-0.04858190030150709,-0.039768543620312534,3,left
20.831,0.5328069678855979,1.0420247263576403,-0.2499665639418098,0.8829212407134327,3.8138291640571897,-0.7827621715470968,-0.042329543027765794,-0.047075417134675966,-0.038291266328827886,3,left
20.831999999999997,0.5323930273908124,1.0409157585748368,-0.24978305494616238,0.893421948417694,3.818662395149451,-0.7759323607829577,-0.0419250216647736,-0.045515063558643036,-0.03695305207149431,3,left
20.851999999999997,0.5320191852988974,1.0398035548172462,-0.24961731242555915,0.9043480736098183,3.8232041312536147,-0.7694207197975654,-0.04150107431834762,-0.04389752127368151,-0.03574982682445975,3,left
20.886999999999997,0.531686052112295,1.0386893792740117,-0.24946886140338173,0.9157294833551631,3.827446546211023,-0.7632329022936288,-0.041057842735853056,-0.042219136951472926,-0.034676523805850006,3,left
20.889,0.5313939236544745,1.0375745814607213,-0.24933725483550515,0.9275927004716767,3.8313834674236076,-0.7573749936679365,-0.04059568030367625,-0.04047596375252931,-0.03372709056310735,3,left
20.889,0.5311427821844854,1.036460588236626,-0.24922207796979387,0.9399606070737117,3.835010409390344,-0.7518535191057072,-0.04011515580489337,-0.03866380742800069,-0.03289450228391845,3,left
20.89,0.5309323013449446,1.035348896134443,-0.2491229521721096,0.9528521713441725,3.8383245885617514,-0.7466754439790219,-0.03961705575076126,-0.0367782749621152,-0.032170784498056076,3,left
20.92,0.5307618536705514,1.034241063742152,-0.2490395380839812,0.9662821994703843,3.841324921497006,-0.7418481673058753,-0.039102385422393436,-0.034814824221043233,-0.03154704754520719,3,left
20.965,0.5306305196950587,1.0331387037960578,-0.24897153809051198,0.9802611175323881,3.844012011267256,-0.7373795101873709,-0.038572368657546485,-0.032768814000342615,-0.03101353371861974,3,left
20.968000000000004,0.530537098514249,1.0320434746170477,-0.24891869821162782,0.9947947897182549,3.8463881286922326,-0.7332777017860288,-0.03802844627763834,-0.030635554417906826,-0.030559677007680055,3,left
20.969,0.5304801202820042,1.0309570704326874,-0.24888080960175643,1.0098843776581543,3.8484571933519622,-0.7295513647647293,-0.03747227287194984,-0.02841035778250269,-0.030174174854330833,3,left
20.97,0.5304578612200396,1.0298812099576407,-0.24885770979269373,1.025526242818609,3.8502247563545624,-0.726209500946822,-0.03690571156205966,-0.02608859011299186,-0.029845071144071623,3,left
20.971,0.5304683614872197,1.0288176226906303,-0.24884928367566267,1.0417118921905402,3.851697985024752,-0.7232614771016478,-0.03633082646338087,-0.023665723437834494,-0.029559849846936454,3,left
20.987,0.5305094458673136,1.0277680329738024,-0.24885546408651638,1.0584279665643122,3.8528856484924656,-0.7207170095675149,-0.03574987272957626,-0.0211373889227674,-0.029305539074004627,3,left
21.024,0.5305787468359332,1.0267341425010572,-0.24887623177593396,1.0756562696295262,3.853798101271102,-0.7185861446163981,-0.035165284159457806,-0.018499430829026237,-0.02906882550958722,3,left
21.026,0.5306737293510811,1.0257176120828793,-0.24891161448478036,1.0933738358546028,3.8544472593128685,-0.7168792309364753,-0.03457965837658709,-0.015747961169648526,-0.02883617908844383,3,left
21.026999999999997,0.53079171673448,1.0247200431968124,-0.24896168482770573,1.1115530363413362,3.8548465607409352,-0.7156068826373804,-0.03399573965109397,-0.01287941430362393,-0.028593987138481304,3,left
21.026999999999997,0.5309299170681682,1.0237429596375087,-0.24902655676574273,1.1301617233171084,3.8550109032514075,-0.714779933635255,-0.03341639953999212,-0.00989059957790171,-0.02832869604125263,3,left
21.053,0.531085449368784,1.0227877896559323,-0.2491063805759499,1.1491634142131206,3.8549565527786123,-0.7144093848051839,-0.032844615581584774,-0.006778749499472021,-0.02802695781359462,3,left
21.101999999999997,0.5312553685864545,1.0218558492727565,-0.24920133636387273,1.1685175157898067,3.8547010213299497,-0.7145063445395173,-0.03228344822024179,-0.0035415615468700756,-0.02767577966270694,3,left
21.105,0.531436688704486,1.020948327664528,-0.24931162633616055,1.1881795884309778,3.854262913641668,-0.715081962816754,-0.031736016059210496,-0.00017723298490418134,-0.027262675486677306,3,left
21.105999999999998,0.5316264038953122,1.0200662753992014,-0.24943746620174578,1.2081016506612017,3.853661742655441,-0.7161473587799396,-0.031205469620523694,0.0033155106997038897,-0.026775817699269122,3,left
21.107,0.5318215082544696,1.0192105959219382,-0.24957907611773186,1.2282325239419132,3.852917713815057,-0.7177135418248883,-0.030694964032489273,0.00693739187075325,-0.026204185651708633,3,left
21.107,0.5320190148121685,1.0183820403084007,-0.24973667158913287,1.2485182170623759,3.8520514788604796,-0.7197913260269042,-0.0302076312059821,0.01068855882565207,-0.025537705681956503,3,left
21.16,0.5322159744796731,1.0175812050544102,-0.24991045473004594,1.26890234576015,3.8510838635531,-0.722391237185618,-0.029746551920110657,0.014568564018878488,-0.02476737906381431,3,left
21.162,0.5324094954336203,1.0168085326077625,-0.2501006062337616,1.2893265766396347,3.8500355816948275,-0.7255234117845699,-0.029314728031841635,0.018576341798943696,-0.023885396266038295,3,left
21.163,0.532596763217314,1.016064314425917,-0.25030727825672344,1.309731080928649,3.8489269544769478,-0.7291974891292481,-0.028915055119571063,0.022710186233383882,-0.022885236685073668,3,left
21.163,0.5327750616771528,1.0153486963808347,-0.25053058830100255,1.3300549874103516,3.847777652624833,-0.7334225003663299,-0.0285502962674302,0.026967730755689798,-0.02176175238408557,3,left
21.164,0.53294179476569,1.0146616861980289,-0.25077061413153706,1.3502368304346,3.846606470875107,-0.7382067580728199,-0.02822305793323377,0.03134593194270337,-0.020511233882280218,3,left
21.186999999999998,0.5330945090848559,1.014003162407788,-0.251027389703782,1.370214992441835,3.845431137648069,-0.7435577481397234,-0.02793576860703472,0.03584105915711651,-0.019131456526537798,3,left
21.206999999999997,0.5332309168151077,1.0133728841605958,-0.25130090192818905,1.3899281410768825,3.844268160276689,-0.7494820242769241,-0.027690660542485812,0.040448690756402415,-0.017621706856084038,3,left
21.239,0.5333489185055391,1.0127705012386035,-0.2515910878924846,1.409315660883559,3.8431327054393356,-0.755985105264601,-0.027489754607280238,0.04516371699559954,-0.0159827888589303,3,left
21.241,0.5334466250972828,1.012195563664988,-0.2518978320254002,1.4283180792355719,3.8420385126957886,-0.7630713756360458,-0.02733484822859964,0.049980349581754055,-0.014217010129380932,3,left
21.241999999999997,0.5335223785047958,1.0116475304901587,-0.2522209627353238,1.4468774855557855,3.840997835880459,-0.7707439914825901,-0.027227506293362597,0.05489213756265743,-0.012328148001856144,3,left
21.243000000000002,0.5335747700782109,1.0111257775627405,-0.2525602482929381,1.464937942540193,3.8400214053592534,-0.7790047936309139,-0.027169054653932486,0.05989198873693961,-0.01032139585528645,3,left
21.299,0.5336026562935502,1.0106296042728913,-0.2529153920650368,1.4824458879270124,3.839118405659819,-0.7878542297217371,-0.027160575773819307,0.0649721954973783,-0.008203289848293155,3,left
21.3,0.5336051712212277,1.0101582393503068,-0.2532860275374242,1.4993505234046265,3.8382964649088778,-0.7972912848911822,-0.027202906147011922,0.07012446429525827,-0.00598161654177418,3,left
21.301,0.5335817357379897,1.009710845831873,-0.25367171372090763,1.5156041829988882,3.83756165205878,-0.8073134187145414,-0.0272966352475264,0.07533994841080427,-0.0036653030611784668,3,left
21.302,0.5335320637242963,1.0092865253629928,-0.25407193149072854,1.5311626707976167,3.8369184770132905,-0.8179165051370973,-0.027442105726542706,0.08060928399233022,-0.0012642937517908961,3,left
21.302,0.5334561654129473,1.0088843221726396,-0.2544860813558027,1.5459855604164618,3.836369889984691,-0.8290947729435223,-0.027639414511447344,0.08592262938310603,0.0012105814178340495,3,left
21.32,0.5333543478184983,1.0085032273435188,-0.25491348310340195,1.5600364531950288,3.8359172786138727,-0.840840745804409,-0.027888414547697974,0.09126970775406915,0.0037477427647966627,3,left
21.377,0.5332272121120631,1.0081421842017004,-0.2553533775582248,1.573283194741808,3.8355604629539846,-0.8531451821475429,-0.028188717080186478,0.09663985305876271,0.00633499954155822,3,left
21.378,0.5330756480101534,1.0078000956365236,-0.2558049304228814,1.5856980503717826,3.835297690396784,-0.865997017179236,-0.028539694463009985,0.1020220593001255,0.008959690859580096,3,left
21.379,0.5329008254142401,1.0074758338528709,-0.2562672379856625,1.5972578407304159,3.835125635742125,-0.8793833128225029,-0.02894048353216389,0.10740503296950521,0.01160882762900631,3,left
21.38,0.5327041834607638,1.0071682522147194,-0.2567393341769613,1.6079440393132274,3.835039413345248,-0.8932892232514726,-0.029389989626516833,0.11277724828588347,0.014269232358915113,3,left
21.381,0.5324874172134846,1.0068761975498635,-0.25722019795027545,1.617742833169979,3.835032606542865,-0.9076979817919897,-0.029886891370739216,0.11812700473419666,0.01692767260847884,3,left
21.435,0.5322524628659259,1.0065985208608386,-0.25770876002643933,1.6266451473280081,3.8350973164382283,-0.922590911520046,-0.030429646323266828,0.12344248648148178,0.01957098493499558,3,left
21.436,0.5320014829121277,1.006334085848227,-0.258203909143106,1.6346466330489322,3.835224230391715,-0.937947459980163,-0.03101649762899103,0.12871182323552363,0.02218618808882286,3,left
21.436999999999998,0.5317368521309104,1.0060817763749745,-0.2587044989025324,1.64174761994686,3.8354027102168837,-0.9537452580650712,-0.03164548194524138,0.13392315179610392,0.024760585270883026,3,left
21.436999999999998,0.5314611437046889,1.0058405041385556,-0.2592093559874448,1.647953031993669,3.835620900082181,-0.9699602030994312,-0.03231443899129416,0.1390646773282101,0.027281855485532094,3,left
21.438000000000002,0.5311771141698459,1.0056092174496414,-0.2597172896545663,1.6532722679364928,3.8358658535709895,-0.9865665657412912,-0.033021022984596964,0.14412473363290165,0.029738134015197266,3,left
21.454,0.5308876866995057,1.0053869121998837,-0.26022710195938487,1.657719049160748,3.83612367661472,-1.0035371181643797,-0.03376271607011508,0.14909184213501267,0.03211808203171997,3,left
21.514,0.5305959328827478,1.005172645477062,-0.2607375979843437,1.661311242548861,3.836379678085054,-1.020843277112193,-0.0345368437362417,0.15395476953904344,0.03441094547230806,3,left
21.517,0.530305052822911,1.0049655504655441,-0.26124759528964747,1.6640706683930733,3.8366185170933496,-1.0384552532640925,-0.035340592063845634,0.158702584083159,0.03660660390367856,3,left
21.518,0.5300183530415246,1.0047648504826818,-0.26175593207310555,1.6660229009074532,3.8368243387834347,-1.0563422005065355,-0.03617102642195447,0.16332471019405703,0.03869561117257862,3,left
21.518,0.5297392220308788,1.0045698713346343,-0.262261474016363,1.667197064362397,3.8369808953326845,-1.0744723625768586,-0.03702511109412162,0.16781098127467522,0.04066923023774808,3,left
21.519000000000002,0.5294711036821965,1.0043800525978746,-0.26276312010679426,1.6676256250565196,3.837071652069075,-1.0928132168001081,-0.03789972944915293,0.17215169042687148,0.04251946398098463,3,left
21.572,0.5292174687713542,1.004194958296395,-0.26325980768034907,1.6673441773601572,3.8370798814327833,-1.111331615572241,-0.03879170450312116,0.17633763903774047,0.044239082719843635,3,left
21.573,0.5289817845966336,1.0040142867107427,-0.2637505167681898,1.6663912194053185,3.836988751602772,-1.1299939271467299,-0.03969781982971253,0.18036018320443697,0.04582164860967539,3,left
21.574,0.5287674829331603,1.0038378788478246,-0.2642342737703407,1.6648079125185753,3.8367814188819502,-1.1487661777838822,-0.040614840704445876,0.1842112778665708,0.04726153731605313,3,left
21.575,0.5285779265468601,1.0036657251910797,-0.2647101544790202,1.662637819967556,3.836441130660926,-1.1676141968210234,-0.04153953519290705,0.18788351829971625,0.048553957901901784,3,left
21.575,0.5284163746509811,1.00349797032952,-0.26517728643678223,1.6599266233475867,3.8359513414426982,-1.1865037651583634,-0.04246869479571084,0.1913701785036237,0.04969497218637362,3,left
21.65,0.5282859479604574,1.003334914980159,-0.26563485054224506,1.6567218169125928,3.8352958409101183,-1.205400766350385,-0.04339915436040495,0.19466524613771685,0.05068151451898056,3,left
21.651999999999997,0.5281895942236848,1.003177014973341,-0.2660820817924162,1.6530723813536619,3.8344588903545946,-1.2242713379459547,-0.044327811150735925,0.19776345376740553,0.051511412339643486,3,left
21.653000000000002,0.5281300551327685,1.0030248770227146,-0.2665182691360322,1.649028439030287,3.8334253625572594,-1.2430820199168453,-0.045251643084858316,0.2006603057855969,0.052183407537768796,3,left
21.654,0.5281098353651981,1.002879251433983,-0.2669427545716488,1.6446408921547229,3.8321808814401614,-1.2617998978180107,-0.04616772621618627,0.20335209946455343,0.05269717848121533,3,left
21.655,0.5281311742906598,1.0027410222504425,-0.26735493181274395,1.6399610445228912,3.830711960012852,-1.2803927397694,-0.04707325155425932,0.20583593807458084,0.053053362541578296,3,left
21.655,0.5281960206891759,1.002611195662755,-0.2677542450276246,1.6350402071906633,3.8290061360628287,-1.2988291270982009,-0.04796554129930267,0.20810973452355364,0.05325357898575363,3,left
21.708000000000002,0.5283060107145598,1.002490887658038,-0.26814018824152774,1.6299292899412516,3.827052103767295,-1.317078578369098,-0.04884206449453955,0.2101722050502677,0.053300452037966156,3,left
21.71,0.5284624492780168,1.0023813117141043,-0.26851230585548713,1.6246783831759133,3.82483983667459,-1.3351116660405897,-0.04970045194169929,0.2120228537570418,0.053197633237445786,3,left
21.711,0.5286662950875721,1.0022837670080025,-0.26887019439895565,1.6193363364080111,3.822360695987204,-1.3529001247132084,-0.050538509977560084,0.21366195019287518,0.0529498209247203,3,left
21.711,0.5289181498052625,1.0021996273353995,-0.26921350522732385,1.6139503379913993,3.8196075195933625,-1.3704169502067054,-0.05135423257441442,0.2150905029327893,0.05256277396651779,3,left
21.712,0.529218251884687,1.0021303307706007,-0.2695419476302888,1.6085654984881015,3.8165746902453512,-1.3876364893654316,-0.05214581136219939,0.21631023136344948,0.05204331755138128,3,left
21.787,0.5295664753192555,1.002077370015156,-0.2698552918710306,1.6032244416422228,3.81325818407022,-1.4045345214579912,-0.05291164341280787,0.21732353656168732,0.05139934018825129,3,left
21.789,0.5299623330584711,1.0020422834002463,-0.2701533719012206,1.5979669131833605,3.8096556036871214,-1.4210883327921005,-0.05365033678394185,0.21813347136415934,0.05063978169920243,3,left
21.79,0.5304049847018637,1.0020266465535341,-0.27043608766647986,1.5928294232105038,3.805766202716751,-1.4372767854826864,-0.05436071395679861,0.2187437093145009,0.049774611825604206,3,left
21.791,0.5308932480815035,1.002032064715688,-0.27070340695432343,1.5878449366095087,3.8015909081248043,-1.4530803795811733,-0.05504181349983709,0.21915851169801842,0.04881479849773851,3,left
21.791999999999998,0.5314256140928267,1.002060165566329,-0.2709553667111907,1.5830426193913127,3.7971323440543063,-1.4684813070716467,-0.055692890400810525,0.21938269160908863,0.04777226450153081,3,left
21.793000000000003,0.5320002638760539,1.002112592153286,-0.2711920737673555,1.5784476433106622,3.792394858288834,-1.483463496920581,-0.05631341539915451,0.21942157426015235,0.04665983159179671,3,left
21.844,0.5326150877242234,1.0021909950912065,-0.27141370497274026,1.57408104857503,3.7873845510702377,-1.4980126510429232,-0.056903073452705344,0.2192809532163553,0.04549115167001732,3,left
21.846,0.533267705759907,1.0022970228372645,-0.27162050678911115,1.5699596617609106,3.782109303741954,-1.5121162711666865,-0.057461761362621364,0.21896704250363277,0.04428062496046728,3,left
21.846,0.5339554908384669,1.0024323090232499,-0.2718127943992441,1.566096061751635,3.7765788009140273,-1.5257636764839406,-0.05798958455828902,0.2184864245903628,0.04304330518152878,3,left
21.846999999999998,0.5346755940301596,1.0025984566717192,-0.27199095041202137,1.562498584120598,3.7708045377484436,-1.5389460119231275,-0.058486853043907584,0.21784599424219658,0.0417947917088654,3,left
21.85,0.5354249726062323,1.0027970201065568,-0.2721554231671054,1.5591713567753838,3.7647998060593535,-1.5516562469280666,-0.05895407647556352,0.2170528983903021,0.040551108820105125,3,left
21.921999999999997,0.5362004200378808,1.003029485762875,-0.2723067244331046,1.556114363982633,3.758579656696219,-1.5638891647207882,-0.059391958173547206,0.216114472858393,0.03932857257607877,3,left
21.924,0.5369985973138653,1.0032972528448696,-0.2724454261512447,1.553323538285143,3.7521608377739715,-1.5756413420757047,-0.059801387579430904,0.2150381780635642,0.03814364673147934,3,left
21.925,0.5378160647388047,1.003601614458284,-0.272572155950049,1.5507908803016426,3.7455617087329607,-1.5869111196416223,-0.060183430503370675,0.21383153651113185,0.03701278953329529,3,left
21.926,0.5386493131335344,1.0039437398577176,-0.2726875913351117,1.548504606400454,3.7388021302108583,-1.5976985628467288,-0.060539316687041725,0.2125020742121871,0.035952293002598605,3,left
21.926,0.539494793308028,1.0043246586088563,-0.27279245261453683,1.5464493242390016,3.7319033297081288,-1.6080054134203126,-0.0608704245829836,0.21105726695478527,0.034978116470726024,3,left
21.927,0.540348943116455,1.0047452474404186,-0.2728874947514463,1.5446062361822017,3.7248877432284164,-1.6178350315921797,-0.06117826355956699,0.20950449178459157,0.034105717499333166,3,left
21.982,0.5412082120938798,1.0052062203309438,-0.27297349843870894,1.542953370715104,3.717778834076161,-1.627192329172286,-0.06146445389996718,0.20785098392135343,0.03334988443416262,3,left
21.985,0.542069084115585,1.0057081221214623,-0.27305126071617936,1.5414658421487761,3.71060089179585,-1.636083693969028,-0.06173070511391796,0.20610379896106698,0.03272457482968645,3,left
21.986,0.542928098620686,1.0062513257303147,-0.27312158541193576,1.540116139020672,3.7033788152383815,-1.6445169061462017,-0.061978793351779776,0.2042697795362876,0.03224276395880544,3,left
21.986,0.5437818710264896,1.0068360327965624,-0.2731852737003712,1.5388744414896176,3.696137882738354,-1.6525010469743504,-0.06221053886085363,0.20235552523057254,0.03191630760919315,3,left
21.987,0.5446271131006363,1.0074622772792619,-0.2732431151493639,1.5377089671209776,3.6889035112199267,-1.6600464001428838,-0.06242778417699333,0.2003673648316861,0.03175582216533356,3,left
22.055,0.5454606539539371,1.008129931327449,-0.27329587964043406,1.5365863407459126,3.681701008230076,-1.6671643455015885,-0.06263237332914624,0.1983113305541679,0.03177058317522033,3,left
22.057,0.5462794618808363,1.0088387127308462,-0.2733443104189252,1.535471977559897,3.674555326426595,-1.6738672447939564,-0.0628261321036445,0.19619313416508727,0.031968442600857294,3,left
22.058000000000003,0.5470806667896692,1.0095881933719497,-0.2733891183305128,1.5343304650154905,3.6674908332308824,-1.6801683187899827,-0.06301084936887466,0.1940181450072851,0.032355764752119015,3,left
22.059,0.547861582736561,1.0103778081692527,-0.27343097710034625,1.5331259326748687,3.660531105172992,-1.6860815153783721,-0.06318825947657847,0.19179137000628924,0.032937380937668626,3,left
22.059,0.5486197301732675,1.0112068640540022,-0.2734705193747468,1.5318224059241554,3.6536987506814738,-1.6916213687865,-0.06336002583431041,0.18951743620731076,0.033716563035342526,3,left
22.06,0.5493528577054634,1.0120745486442702,-0.2735083332294317,1.5303841442509225,3.6470152616569935,-1.696802851915226,-0.06352772588449981,0.18720057721728475,0.034695016487693776,3,left
22.118000000000002,0.5500589630946171,1.0129799384105416,-0.2735449589040093,1.5287759676483097,3.6405008931164797,-1.7016412268047398,-0.06369283778811122,0.18484462528192064,0.035872893246877306,3,left
22.12,0.5507363128874195,1.013922006180286,-0.27358088554060067,1.5269635758979316,3.6341745699638373,-1.7061518999129306,-0.06385672895388993,0.18245300974094178,0.03724882427417018,3,left
22.12,0.5513834598063829,1.0148996278695699,-0.27361654772835753,1.5249138642943578,3.628053820174769,-1.7103502872203675,-0.06402064627158523,0.1800287608286003,0.03881996954497134,3,left
22.121,0.551999257219691,1.015911588463802,-0.27365232185556754,1.522595237233273,3.6221547340997184,-1.7142516911754853,-0.06418570775054541,0.1775745167997916,0.040582082591240735,3,left
22.121,0.5525828704596197,1.0169565874776307,-0.2736885226475203,1.5199779194998881,3.616491949445012,-1.7178711897369354,-0.0643528953281003,0.17509253279615722,0.0425295873315302,3,left
22.188000000000002,0.5531337850413874,1.01803324431124,-0.27372540054467803,1.5170342628759945,3.6110786596612616,-1.7212235369893656,-0.06452304875378133,0.17258469081371963,0.04465566629159286,3,left
22.19,0.5536518118015414,1.019140104031708,-0.27376314050979167,1.5137390421197758,3.605926640088639,-1.7243230740042694,-0.0646968605341183,0.17005251065975296,0.04695236007036816,3,left
22.191,0.5541370888748276,1.020275644122564,-0.273801862535823,1.5100697323919348,3.601046284331478,-1.7271836481702174,-0.064874871938495,0.16749716189176428,0.04941067805692263,3,left
22.195,0.5545900804875447,1.021438282569061,-0.27384162379197935,1.50600676218047,3.5964466452132067,-1.729818539662541,-0.0650574700563287,0.16491947678971378,0.05202072011840688,3,left
22.197,0.5550115726761202,1.0226263872314476,-0.2738824221029695,1.5015337390998522,3.592135478131502,-1.7322403946184153,-0.06524488584472322,0.16231996470418233,0.054771807549427336,3,left
22.197,0.5554026660812535,1.0238382859432393,-0.27392420032326303,1.4966376467236322,3.588119286952446,-1.7344611654933952,-0.06543719301373087,0.1596988286480963,0.05765261899942343,3,left
22.206999999999997,0.5557647660883918,1.0250722762002358,-0.27396685109045676,1.4913090088526517,3.584403373751365,-1.7364920599997817,-0.06563430754524535,0.15705598529120524,0.06065132566492525,3,left
22.253,0.5560995711231292,1.026326632996844,-0.2740102214659768,1.485542016424502,3.5809918941491405,-1.738343500490848,-0.06583598769268748,0.1543910892247941,0.06375572146412038,3,left
22.255,0.5564090604006613,1.0275996141461705,-0.2740541172647939,1.4793346134640237,3.5778879195533446,-1.7400250951901068,-0.06604183440068474,0.15170356183908051,0.06695334648580023,3,left
22.263,0.5566954816059835,1.0288894638747377,-0.27409830726963685,1.4726885408438206,3.5750935065371445,-1.741545621706356,-0.0662512921350857,0.14899262486403328,0.07023160343524422,3,left
22.265,0.5569613370993906,1.0301944160484555,-0.2741425277076298,1.4656093389115243,3.572609771725821,-1.742913022199285,-0.06646365012388739,0.14625733856595602,0.07357786708593306,3,left
22.265,0.5572093666671344,1.031512698188582,-0.27418648737695583,1.4581063122469642,3.5704369679109225,-1.744134408366971,-0.06667804403710086,0.1434966445043962,0.07697958665070917,3,left
22.320999999999998,0.557442526437769,1.0328425375630161,-0.2742298736819956,1.4501924609047916,3.5685745556892883,-1.7452160738149491,-0.0668934582707623,0.1407094123152871,0.08042438050852964,3,left
22.323,0.5576639651524513,1.034182170398397,-0.27427235947923684,1.441884381403222,3.567021266348746,-1.7461635119772825,-0.06710872924721734,0.1378944891967061,0.08390012186328509,3,left
22.324,0.5578769988339977,1.0355298538348958,-0.2743136102518029,1.4332021387497569,3.5657751542858214,-1.7469814388597422,-0.0673225502671186,0.13505075031914615,0.08739501355048428,3,left
22.325,0.5580850840222287,1.0368838790334705,-0.27435329106615863,1.4241691096999176,3.5648336386653603,-1.747673820485987,-0.06753347824207967,0.1321771487415729,0.09089765126978697,3,left
22.326,0.558291789396916,1.038242584223128,-0.27439107300269705,1.4148117975828725,3.5641935347337212,-1.7482439051665268,-0.06773994226522706,0.12927276406147098,0.09439707643316304,3,left
22.389,0.5585007656679498,1.039604367569391,-0.27442663893217245,1.4051596208152959,3.5638510772786427,-1.7486942612951903,-0.06794025377038747,0.12633684938645148,0.0978828208805697,3,left
22.391,0.5587157136335936,1.040967700123155,-0.2744596885047676,1.395244680443137,3.563801942474803,-1.7490268224309797,-0.0681326180725314,0.12336887638175917,0.10134494522624884,3,left
22.392,0.5589403503491862,1.0423311386631253,-0.2744899422170775,1.385101513838573,3.564041276435539,-1.7492429420081477,-0.06831514720687024,0.12036857829037254,0.1047740715469001,3,left
22.401999999999997,0.5591783735821013,1.043693337727316,-0.2745171444993913,1.3747668398900563,3.5645637367114604,-1.7493434594316823,-0.06848587405331263,0.1173359909014343,0.10816141053859255,3,left
22.403000000000002,0.5594334250916949,1.0450530600064096,-0.2745410658387631,1.364279297661226,3.5653635490699767,-1.7493287779892726,-0.06864276774682904,0.11427149145848581,0.11149878315234085,3,left
22.403000000000002,0.5597090535199625,1.0464091844111438,-0.2745615039794374,1.3536791779949797,3.566434578997379,-1.7491989530639613,-0.06878375034458332,0.11117583548522739,0.1147786368071026,3,left
22.455,0.560008677642224,1.0477607113204872,-0.2745782842409031,1.3430081459022565,3.567770415487089,-1.7489537865640967,-0.06890671457235188,0.10805019143814011,0.11799405672345709,3,left
22.456,0.5603355505478734,1.0491067647829762,-0.2745912590200889,1.3323089508643526,3.5693644638658646,-1.7485929221256324,-0.06900954220576178,0.10489617297228242,0.12113877372140565,3,left
22.458000000000002,0.5606927252720061,1.0504465917870853,-0.27460030663864604,1.3216251228875602,3.5712100452231517,-1.7481159370027213,-0.06909012249778856,0.10171586846685898,0.12420717027007525,3,left
22.459,0.5610830224542227,1.051779559028909,-0.27460532981342783,1.3110006534272247,3.573300501472256,-1.7475224290124267,-0.06914637023350642,0.09851186716870054,0.12719428613171732,3,left
22.46,0.5615090005110641,1.0531051477600106,-0.2746062540938279,1.3004796611072904,3.575629305545214,-1.7468120981913144,-0.06917624329831139,0.09528728079264094,0.1300958241408206,3,left
22.521,0.5619729285644984,1.0544229472784568,-0.2746030266259019,1.2901060427973445,3.578190174685699,-1.7459848227488246,-0.06917775981537806,0.092045759129331,0.1329081562137322,3,left
22.523000000000003,0.5624767621916927,1.055732647554969,-0.27459561559121076,1.2799231114982603,3.580977181743578,-1.7450407282814013,-0.06914901491640307,0.08879149858128793,0.13562832959560855,3,left
22.524,0.5630221220905607,1.0570340314767688,-0.2745840105785217,1.2699732229816676,3.5839848576746234,-1.7439802488662461,-0.06908819717127518,0.08552924318992343,0.1382540733523234,3,left
22.539,0.5636102760100447,1.0583269672081919,-0.2745682239275566,1.2602973926350693,3.587208280150343,-1.742804178998002,-0.06899360468093192,0.08226427807291392,0.14078380511528873,3,left
22.541,0.5642421246222018,1.0596114010711797,-0.2745482928206571,1.2509349036580262,3.590643146238623,-1.7415137160591867,-0.06886366083331638,0.07900241526257462,0.1432166380869984,3,left
22.541,0.5649181920750175,1.0608873511152643,-0.2745242817868125,1.2419229101715337,3.5942858287855772,-1.7401104938959446,-0.06869692970004138,0.07574997196208634,0.14555238826110006,3,left
22.587,0.5656386216386492,1.0621549013425513,-0.2744962853764241,1.2332960439425116,3.5981334164126504,-1.7385966091046479,-0.0684921309402001,0.07251374136746327,0.14779158154185984,3,left
22.589000000000002,0.5664031763652867,1.0634141964922048,-0.2744644308831611,1.2250860363361011,3.602183737011887,-1.7369746421708592,-0.06824815387773216,0.06930095643904327,0.1499354599640039,3,left
22.596999999999998,0.5672112441647179,1.0646654372873254,-0.2744288809834736,1.2173213645415581,3.606435364949035,-1.7352476751529542,-0.06796407030757713,0.06611924713735566,0.15198598594497678,3,left
22.598000000000003,0.5680618462677897,1.0659088760180138,-0.27438983609819584,1.2100269275907434,3.6108876137138433,-1.7334193070741253,-0.06763914570373615,0.06297659159840133,0.15394584361920682,3,left
22.599,0.5689536480209565,1.0671448123030762,-0.27434753628545505,1.2032237578573068,3.615540518438876,-1.7314936684366191,-0.06727284873680883,0.05988126194345471,0.15581843603309442,3,left
22.655,0.5698849713955934,1.068373588812894,-0.27430226257387763,1.1969287748538446,3.6203948141870637,-1.7294754366015805,-0.06686485918186301,0.05684176610814161,0.15760787589027178,3,left
22.658,0.5708538091420124,1.0695955865225073,-0.2742543377560256,1.1911545864357649,3.6254519144368156,-1.7273698533405086,-0.0664150743542226,0.053866787505340206,0.15931896683595242,3,left
22.674,0.5718578408581229,1.070811218719599,-0.2742041266985946,1.1859093392317313,3.6307138913564665,-1.72518274489655,-0.06592361417601031,0.05096512388069948,0.1609571730231443,3,left
22.676,0.5728944513272456,1.0720209227859439,-0.2741520361868847,1.1811966173497022,3.63618345704842,-1.722920543552768,-0.06539082489210368,0.04814562588281311,0.16252857611600172,3,left
22.677,0.5739607513816513,1.0732251489592444,-0.2740985142767164,1.1770153861547437,3.6418639429575506,-1.7205903079901192,-0.06481728131078822,0.04541713533280199,0.16403981991542213,3,left
22.678,0.5750536013738372,1.074424345890586,-0.2740440491143876,1.1733599768538836,3.647759273699025,-1.7181997388138892,-0.06420378724182108,0.04278842294024511,0.16549804343915622,3,left
22.714000000000002,0.5761696371048571,1.0756189436108312,-0.2739891671514785,1.1702201086872144,3.6538739325012966,-1.7157571865308754,-0.06355137369587482,0.04026812513105376,0.16691080356435875,3,left
22.715999999999998,0.5773052976988094,1.0768093350823718,-0.2739344305763002,1.1675809474383174,3.6602129171526125,-1.7132716508861459,-0.06286129451783969,0.03786467973472615,0.1682859880644862,3,left
22.730999999999998,0.5784568544959581,1.0779958575664965,-0.2738804336745371,1.1654232000410047,3.666781686279976,-1.7107527713717745,-0.06213501933833368,0.0355862605438772,0.1696317195125264,3,left
22.732,0.5796204398170154,1.0791787747699888,-0.27382779783989747,1.1637232452733257,3.6735860959781443,-1.7082108089005565,-0.0613742239185833,0.0334407114324566,0.17095625093036598,3,left
22.732,0.5807920745759172,1.0803582604958215,-0.27377716509304956,1.1624533004952513,3.6806323265151084,-1.705656618655697,-0.06058077813359346,0.031435481800646294,0.17226785523966434,3,left
22.789,0.5819676940662131,1.0815343844141336,-0.27372919013340447,1.1615816242080093,3.687926797382285,-1.7031016142179265,-0.05975673192072126,0.029577565706412977,0.1735747112533198,3,left
22.791,0.5831431716541039,1.0827071005047222,-0.27368453108678387,1.1610727538906807,3.695476066332345,-1.7005577232344413,-0.05890429943836993,0.027873446452446136,0.1748847882627515,3,left
22.811999999999998,0.5843143405633064,1.0838762386155414,-0.27364383926546343,1.160887778391082,3.7032867065894317,-1.6980373349845879,-0.058025841531287266,0.026329047332687337,0.17620573004534298,3,left
22.814,0.585477014392693,1.0850414993811626,-0.27360774845169333,1.1609846443289056,3.711365157876097,-1.6955532401066549,-0.057123846516565914,0.0249496886514527,0.177544738432579,3,left
22.815,0.5866270073050591,1.086202452434005,-0.27357686437285716,1.1613184956759057,3.7197175501855533,-1.6931185624606042,-0.05620090928790174,0.02374005101026572,0.17890845644265554,3,left
22.815,0.5877601548395857,1.087358537538187,-0.27355175504196255,1.1618420427692129,3.7283495039751293,-1.690746682378293,-0.05525970876788337,0.022704144766590984,0.1803028512210978,3,left
22.853,0.5888723360415258,1.0885090681833938,-0.2735329424645537,1.1625059514896194,3.7372659166672166,-1.6884511493957195,-0.05430298389947534,0.021845285112210133,0.1817330982315984,3,left
22.855,0.5899594971893303,1.0896532372739947,-0.27352089595426476,1.163259240247913,3.746470748632455,-1.6862455819291802,-0.053333508658418856,0.02116607139700857,0.18320347029688294,3,left
22.869,0.5910176769735959,1.0907901245947191,-0.27351602706447087,1.1640496755091503,3.755966818886875,-1.684143552332905,-0.05235406672967885,0.020668368867517148,0.18471723628812234,3,left
22.871,0.5920430326730246,1.0919187056658683,-0.27351868598089557,1.1648241621303213,3.7657556165369312,-1.682158458628535,-0.051367426370725534,0.02035329156909555,0.18627657316007928,3,left
22.871,0.5930318668056058,1.0930378615908225,-0.27352915915159426,1.1655291278480306,3.775837133814139,-1.680303387914273,-0.05037631589958453,0.02022118659418582,0.18788249335772658,3,left
22.919,0.5939806538556043,1.094146389563263,-0.273547667917097,1.166110901854973,3.7862097276035636,-1.6785909783019446,-0.04938340045455257,0.020271621415528608,0.18953478929630574,3,left
22.921,0.5948860666695471,1.0952430136498847,-0.27357436782057487,1.1665160874197793,3.7968700146520007,-1.6770332845169862,-0.048391260845967995,0.02050337674571019,0.19123199686316056,3,left
22.95,0.595745001773223,1.096326395310082,-0.27360934812854454,1.166691928446725,3.807812802176784,-1.675641649333331,-0.04740237511460785,0.0209144467543641,0.1929713794038488,3,left
22.951999999999998,0.5965546024698012,1.097395143124426,-0.2736526310648672,1.1665866694552762,3.8190310520221145,-1.6744265819069877,-0.046419103011671715,0.021502047280247717,0.19474893274742988,3,left
22.953000000000003,0.5973122786312649,1.0984478214426099,-0.273704170453716,1.1661499076844983,3.8305158728267257,-1.6733976448187973,-0.04544367326371907,0.022262631587346794,0.19655941117498923,3,left
22.953000000000003,0.5980157226985677,1.0994829579134928,-0.27376384983179236,1.165332935594678,3.842256532811863,-1.6725633522423173,-0.04447817318235067,0.023191912232127705,0.19839637384137848,3,left
22.989,0.5986629221211716,1.1004990500471716,-0.27383148054913553,1.1640890724697208,3.854240487654978,-1.6719310810482981,-0.04352454003264903,0.024284887131544256,0.20025225099525615,3,left
22.991,0.5992521687025785,1.1014945712201538,-0.27390680069806705,1.1623739846005516,3.866453421255369,-1.6715069955687911,-0.04258455372020685,0.025535868399919705,0.20211842950760886,3,left
23.006999999999998,0.5997820649713984,1.1024679768701633,-0.2739894755953714,1.1601459939606713,3.8788792990543595,-1.6712959861395045,-0.041659830605509,0.02693851342566465,0.20398535721042296,3,left
23.008000000000003,0.6002515273310394,1.1034177117714281,-0.27407910008262,1.157366375370197,3.891500433944398,-1.671301621418602,-0.0407518183326823,0.028485858346898454,0.20584266418429714,3,left
23.009,0.6006597857776962,1.1043422190334458,-0.2741752024872536,1.1539996416623115,3.9042975645096005,-1.6715261143366582,-0.03986179146718654,0.03017035455841361,0.2076792964165308,3,left
23.054000000000002,0.6010063801676869,1.1052399508651887,-0.27427724982759216,1.150013813959266,3.9172499438781587,-1.6719703008126805,-0.038990847669487086,0.03198390909247665,0.20948365572328864,3,left
23.055999999999997,0.6012911531955344,1.1061093802523858,-0.2743846536186357,1.1453806698339495,3.930335434834749,-1.6726336290750106,-0.03813990419937357,0.033917929506753756,0.21124374135734741,3,left
23.084,0.6015142408643025,1.1069490119599326,-0.274496775617272,1.140075959726051,3.943530605378894,-1.6735141567061238,-0.037309694692365496,0.03596337347712274,0.2129472912701644,3,left
23.086,0.6016760623184385,1.1077573916838206,-0.2746129333648094,1.1340795843853804,3.956810820378359,-1.6746085532513892,-0.03650076634271162,0.03811080279086419,0.21458192150989694,3,left
23.086,0.6017773111022854,1.1085331136227936,-0.274732405993623,1.12737573044261,3.970150327599886,-1.6759121075292056,-0.03571347786684578,0.04035044086671172,0.21613526071555317,3,left
23.087,0.6018189480859043,1.109274827566016,-0.2748544406843711,1.1199529636220347,3.9835223382517695,-1.6774187397184583,-0.034947998746656384,0.0426722326355417,0.21759507565234,3,left
23.118000000000002,0.6018021938992908,1.1099812461452023,-0.27497825969201733,1.1118042796446916,3.996899104411437,-1.6791210195314732,-0.03420431012655197,0.0450659059087941,0.21894938474802633,3,left
23.142,0.6017285183503278,1.1106511524558516,-0.2751030677667901,1.1029271129665743,4.010251999213985,-1.6810101937387876,-0.03348220751258395,0.04752103388941386,0.220186558416818,3,left
23.143,0.6015996261845417,1.111283408470699,-0.2752280599182889,1.0933233035492862,4.0235516076236095,-1.6830762274001831,-0.032781305290073254,0.050027098720597525,0.22129540606088205,3,left
23.144000000000002,0.6014174402815361,1.1118769644929185,-0.27535242932147036,1.0829990218037384,4.036767833663978,-1.6853078620694446,-0.0321010430189568,0.05257355576264164,0.2222652502871495,3,left
23.145,0.6011840834032272,1.1124308690478302,-0.27547537496079366,1.0719646522839097,4.049870025899779,-1.6876926919516713,-0.031440693408160345,0.05514989781352999,0.22308598967733342,3,left
23.188000000000002,0.6009018587448036,1.1129442783438641,-0.2755961087509032,1.0602346393355138,4.0628271181099205,-1.690217256246859,-0.03079937183815902,0.05774571822524545,0.2237481518935342,3,left
23.19,0.6005732290282814,1.1134164650656508,-0.27571386214007926,1.0478273027236442,4.0756077764731815,-1.6928671427118842,-0.030176047333151525,0.06035077213170576,0.22424293845660379,3,left
23.206999999999997,0.6002007938749101,1.1138468267781765,-0.2758278922097046,1.0347646339460068,4.0881805416810595,-1.6956270958153805,-0.029569554942301925,0.06295503547914477,0.22456226173336932,3,left
23.221,0.5997872653676233,1.1142348940753024,-0.2759374871340315,1.0210720810957497,4.1005139578038845,-1.6984811246428235,-0.02897860952176326,0.0655487618136146,0.2246987742235596,3,left
23.223000000000003,0.5993354418719007,1.1145803381879986,-0.2760419708337841,1.0067783245235151,4.112576687496024,-1.7014126093157684,-0.028401820891756305,0.06812253683569228,0.22464589025008092,3,left
23.223000000000003,0.5988481802509165,1.1148829776179248,-0.2761407067411336,0.9919150414575106,4.124337620585165,-1.704404407466686,-0.027837710223357712,0.07066733074557921,0.22439780066699827,3,left
23.253,0.5983283666437214,1.1151427834760883,-0.2762331006672784,0.9765166564214565,4.135765986201141,-1.707438963264448,-0.02728472729429499,0.07317454842534525,0.22394948211923507,3,left
23.28,0.5977788861221947,1.115359883184028,-0.27631860279290277,0.9606200750915751,4.146831475801744,-1.7104984206556595,-0.026741268133418886,0.07563607751811867,0.22329670289867526,3,left
23.281999999999996,0.5972025917824054,1.1155345619610013,-0.27639670880217065,0.9442644007505789,4.157504378561899,-1.7135647403263061,-0.026205692688967785,0.07804433439427341,0.22243602695854042,3,left
23.283,0.5966022739278295,1.11566726142569,-0.2764669601720995,0.9274906334805592,4.167755725656571,-1.7166198173913672,-0.025676342349872826,0.08039230768815832,0.22136481687196383,3,left
23.283,0.5959806299448033,1.1157585749167944,-0.2765289436533373,0.910341352505329,4.177557438124591,-1.71964559565397,-0.02515155723070978,0.0826735985666232,0.22008123626953227,3,left
23.320999999999998,0.5953402354865492,1.1158092396751493,-0.2765822900771315,0.8928603819774266,4.186882474335585,-1.722624175317485,-0.02462969313356095,0.08488245660501634,0.21858425233253265,3,left
23.322,0.5946835176345623,1.115820126587271,-0.2766266727790344,0.8750924402985234,4.195704975486041,-1.7255379129091402,-0.024109138121367106,0.08701381042896339,0.21687363877323276,3,left
23.358,0.5940127305446712,1.1157922284784794,-0.2766618060555799,0.8570827734558363,4.20400040857964,-1.7283695132314028,-0.023588328675699807,0.08906329278910008,0.21494997947227143,3,left
23.359,0.5933299337736209,1.1157266477914476,-0.2766874440756339,0.8388767753782014,4.211745705084106,-1.7311021134453013,-0.02306576542765295,0.09102725997001421,0.21281467277157262,3,left
23.359,0.5926369732933867,1.1156245841032093,-0.2767033805407597,0.820519602895309,4.218919390703731,-1.7337193595331812,-0.02254002842712069,0.09290280524840348,0.2104699362604004,3,left
23.36,0.5919354652586065,1.1154873216935888,-0.2767094491865446,0.802055795427724,4.225501700176447,-1.7362054754678649,-0.02200979186587761,0.09468776567856259,0.20791881165535403,3,left
23.386999999999997,0.5912267829073488,1.115316217376538,-0.2767055250043597,0.7835289069899328,4.231474672531505,-1.7385453253351806,-0.021473838142177088,0.09638072124047936,0.20516516924327222,3,left
23.416,0.5905120473193495,1.1151126888439786,-0.27669152591866597,0.7649811535075597,4.23682222499385,-1.7407244685130168,-0.020931071182269837,0.09798098562815705,0.20221371148664036,3,left
23.418000000000003,0.5897921225587104,1.1148782036665672,-0.2766674146513765,0.7464530759047627,4.24153020524833,-1.7427292079299437,-0.020380528978463073,0.09948858849477718,0.19906997545597513,3,left
23.419,0.5890676148671392,1.1146142688852894,-0.2766332005957871,0.727983218908681,4.245586422080848,-1.7445466314101044,-0.01982139530292062,0.10090424972662951,0.19574033303063273,3,left
23.42,0.5883388748536489,1.114322420949697,-0.27658894158360436,0.7096078258587374,4.248980654758126,-1.7461646462427822,-0.019253010511345883,0.10222934728936081,0.19223198629855523,3,left
23.453000000000003,0.587606001692126,1.1140042156629424,-0.2765347454398504,0.691360551513671,4.25170464323758,-1.7475720077754997,-0.018674881322568625,0.10346588070281468,0.1885529547312439,3,left
23.496,0.5868688489424442,1.1136612177628946,-0.2764707712715348,0.6732721979183524,4.25375206441386,-1.7487583440186303,-0.018086689488131198,0.10461643168748717,0.18471205156339116,3,left
23.498,0.586127032274946,1.1132949897611855,-0.2763972305561872,0.655370480097717,4.255118501338425,-1.7497141789098738,-0.01748829929375513,0.10568412255761173,0.18071884837624536,3,left
23.499000000000002,0.5853799397876964,1.1129070796137808,-0.2763143881725294,0.6376798266405013,4.255801410614907,-1.7504309562254077,-0.016879763748808393,0.1066725722007526,0.17658362790468565,3,left
23.5,0.5846267455831116,1.112499006727744,-0.2762225634206829,0.6202212171668884,4.255800090054123,-1.7509010649342167,-0.01626132912058709,0.10758584898153022,0.17231732556014842,3,left
23.500999999999998,0.5838664269332419,1.1120722459223293,-0.27612213085737153,0.6030120570156343,4.2551156468455815,-1.75111786597232,-0.015633437356364414,0.10842841968496839,0.16793146032882947,3,left
23.52,0.5830977849631849,1.1116282094195036,-0.2760135206102565,0.5860660893755153,4.2537509656869865,-1.7510757194897475,-0.014996726049963018,0.10920509383662287,0.16343805553646043,3,left
23.553,0.5823194683989261,1.1111682274789436,-0.2758972178278002,0.5693933455000348,4.251710675470605,-1.7507700101986354,-0.014352025814476685,0.10992096313584948,0.15884954966869044,3,left
23.555999999999997,0.5815299995134031,1.1106935285167623,-0.2757737609819721,0.5530001338747177,4.249001112656367,-1.750197167659099,-0.013700355036572479,0.1105813359602628,0.15417869726804323,3,left
23.555999999999997,0.5807278010164597,1.110205219524403,-0.2756437388094407,0.5368890689773818,4.245630279926654,-1.749354679129774,-0.013042912018208206,0.11119166715362913,0.1494384599840576,3,left
23.557,0.5799112225067488,1.1097042675835227,-0.2755077857800842,0.5210591399197347,4.241607799175757,-1.7482410940820878,-0.012381064549888018,0.11175748435926937,0.14464188830039887,3,left
23.589000000000002,0.5790785653986232,1.109191483194654,-0.27536657609336485,0.5055058193327774,4.236944856448453,-1.746856020513148,-0.011716337028518445,0.11228431405090064,0.13980199526790224,3,left
23.631,0.5782281057897283,1.1086675059626863,-0.27522081628715983,0.49022121335881286,4.231654133107145,-1.7452001137916817,-0.011050395271221527,0.11277761146270758,0.13493162401976214,3,left
23.631999999999998,0.5773581152510588,1.1081327930971272,-0.2750712366404237,0.4751942539166931,4.225749715601486,-1.7432750590163026,-0.0103850291588539,0.11324269746952181,0.13004331064462638,3,left
23.633000000000003,0.5764668798613078,1.1075876111966128,-0.2749185816547373,0.4604109341046897,4.219246978116221,-1.7410835476189843,-0.009722133277589135,0.11368470307396776,0.12514914442360994,3,left
23.634,0.5755527179671063,1.107032031689232,-0.2747635999366156,0.44585458642588394,4.212162436362671,-1.738629248335474,-0.009063685875042813,0.1141085202003185,0.12026062921412894,3,left
23.634,0.5746139971771229,1.1064659300684636,-0.27460703377544127,0.43150620004464313,4.204513575505999,-1.7359167715767323,-0.008411726543334974,0.11451875678082708,0.11538855090970465,3,left
23.653000000000002,0.5736491510667178,1.1058889888287855,-0.2744496086955603,0.4173447675095764,4.1963186606840495,-1.7329516246713292,-0.007768332937916448,0.11491969462412724,0.11054285466907735,3,left
23.691,0.5726566960252937,1.1053007037987255,-0.2742920232905517,0.403347648204977,4.187596541396724,-1.729740154606702,-0.007135596710742388,0.11531524951756544,0.10573253352571998,3,left
23.691999999999997,0.5716352485995017,1.1047003934101984,-0.2741349396815272,0.38949093896738574,4.1783664582184095,-1.7262894757377076,-0.006515599013719048,0.11570893379572779,0.10096552946389425,3,left
23.693,0.5705835435290406,1.1040872103797985,-0.2739789749032102,0.37574984801770317,4.168647855199737,-1.7226073814444596,-0.005910386413278467,0.11610382220595807,0.09624864907974706,3,left
23.693,0.5695004524514472,1.1034601552363326,-0.2738246934035765,0.3620990713034974,4.158460199009018,-1.718702239795278,-0.005321948337865744,0.11650252217819305,0.09158749665684386,3,left
23.72,0.5683850030621639,1.1028180910367136,-0.27367260071490995,0.3485131698299348,4.14782280784925,-1.7145828746046725,-0.004752196899260671,0.1169071493298891,0.0869864267748579,3,left
23.769000000000002,0.5672363984435441,1.102159758569142,-0.27352313824627195,0.3349669444980493,4.136754697466928,-1.7102584356155641,-0.004202949423078769,0.11731930853903448,0.08244851729083646,3,left
23.771,0.5660540363120694,1.1014837914253963,-0.2733766790516849,0.32143580388053866,4.1252744525604195,-1.7057382639020038,-0.0036759137266470228,0.1177400806434706,0.07797556282515387,3,left
23.771,0.5648375279783974,1.1007887304744117,-0.2732335243738585,0.3078961216296382,4.113400126536076,-1.701031759583653,-0.003172676044831833,0.11817001477827217,0.07356808875892365,3,left
23.772,0.5635867166943072,1.1000730374022962,-0.2730939007443159,0.2943255823469483,4.101149166406317,-1.6961482580441751,-0.0026946913577709044,0.11860912637883335,0.06922538577979603,3,left
23.773000000000003,0.5623016946770294,1.0993351070516375,-0.27295795741459206,0.28070351583392517,4.08853835862991,-1.6910969184774225,-0.002243275793032955,0.11905690088615015,0.06494556502990396,3,left
23.829,0.5609828178057816,1.0985732783741424,-0.2728257640275709,0.2670112197592584,4.075583793989461,-1.6858866261893422,-0.0018196008357036627,0.11951230314912963,0.0607256336285309,3,left
23.831,0.5596307172818773,1.0977858440313968,-0.2726973087897906,0.25323227071663335,4.062300851159123,-1.6805259088818283,-0.001424689123728321,0.1199737923385746,0.05656158898866985,3,left
23.831999999999997,0.5582463081703751,1.0969710590023731,-0.2725724977045095,0.23935282363370614,4.048704198926357,-1.675022866904027,-0.0010594115021446827,0.12043934188290431,0.052448527947667155,3,left
23.833000000000002,0.5568307949207931,1.096127148869042,-0.27245115538690456,0.22536189898135073,4.034807816597859,-1.66938511731143,-0.0007244849232924509,0.12090646376959853,0.048380765405371604,3,left
23.834,0.5553856736304894,1.0952523186497547,-0.27233302769540774,0.21125165467413898,4.020625029955442,-1.6636197508490564,-0.00042047088309284456,0.12137223672069856,0.044351958486980265,3,left
23.853,0.5539127306563797,1.094344763027084,-0.27221778613728276,0.19701763494859334,4.0061685562325895,-1.6577332996721612,-0.00014777426884084698,0.12183333804650193,0.040355234630418735,3,left
23.904,0.5524140375589848,1.0934026786322395,-0.2721050338776152,0.18265898594758237,3.9914505494181305,-1.6517317128939173,9.335739701197746e-05,0.12228607911351237,0.03638332311352949,3,left
23.906,0.5508919428470673,1.092424278768738,-0.2719943131226252,0.16817863029675,3.9764826393560706,-1.645620337772749,0.00030283428181399774,0.12272644423352835,0.03242868875965238,3,left
23.906999999999996,0.5493490610957318,1.0914078102467795,-0.2718851134273204,0.15358339756266015,3.9612759620039864,-1.639403905654102,0.0004807240468357652,0.12315013248906581,0.02848366468553105,3,left
23.908,0.5477882600298337,1.0903515708307154,-0.27177688015902746,0.13888411003984297,3.945841180375035,-1.6330865225047124,0.0006272510107752447,0.12355260184824683,0.024540579914026705,3,left
23.909000000000002,0.5462126466586192,1.0892539254955593,-0.271669022564549,0.12409562384972189,3.9301884965531064,-1.6266716642738737,0.0007427945828914968,0.12392911508428989,0.02059187871569312,3,left
23.965,0.5446255540502645,1.0881133211624143,-0.27156092177572716,0.1092368254568872,3.91432765733241,-1.6201621785761926,0.0008278869301357425,0.12427478730636049,0.01663023041803579,3,left
23.967,0.5430305296776055,1.0869283009996982,-0.27145193953694075,0.09433058447125411,3.8982679594536314,-1.613560296157117,0.0008832098726777983,0.12458463507052056,0.012648629462806933,3,left
23.968000000000004,0.5414313245337126,1.0856975187332727,-0.271341427754904,0.0794036664387288,3.88201826021568,-1.606867655355503,0.0009095909859690832,0.12485362703754967,0.008640485675487038,3,left
23.969,0.5398318810378194,1.0844197520707544,-0.2712287381724448,0.0644866140807458,3.865586992840139,-1.6000853388043028,0.0009079987764369124,0.12507673597283409,0.004599704588616769,3,left
23.969,0.53823631808849,1.083093914674353,-0.2711132316344376,0.04961360793337934,3.848982179717573,-1.5932139178346703,0.0008795365980927794,0.1252489915747369,0.0005207574401762243,3,left
23.987,0.5366489127406681,1.0817190676435287,-0.2709942870680808,0.034822314502346956,3.832211436856756,-1.5862535002952642,0.0008254348662951569,0.1253655334462558,-0.0036012596543169755,3,left
24.044,0.5350740788904613,1.0802944318220125,-0.2708713103920162,0.020153724897648086,3.8152819671726905,-1.5792037800305365,0.000747041235786611,0.12542166369613314,-0.0077705777349615255,3,left
24.046,0.5335163436744927,1.07881940071051,-0.2707437431025701,0.005651982963658911,3.798200545148562,-1.572064088127015,0.000645808639826394,0.1254128989398814,-0.011990718272998753,3,left
24.046,0.5319803220787808,1.0772935523579532,-0.27061107004541946,-0.008635800847316754,3.7809735004579723,-1.5648334469829812,0.0005232813483830457,0.12533502152134643,-0.016264466995763706,3,left
24.046999999999997,0.5304706898876859,1.075716659110918,-0.2704728261020575,-0.022659754846213506,3.7636067106781885,-1.5575106286151388,0.0003810794959372203,0.1251841295914466,-0.020593856449825153,3,left
24.046999999999997,0.5289921549199392,1.074088695596757,-0.2703286017836357,-0.03636747447424234,3.7461056106798623,-1.5500942182571487,0.00022088267963697446,0.12495668555936972,-0.024980154883482812,3,left
24.101999999999997,0.5275494265060927,1.0724098458344589,-0.27017804779331717,-0.04970427519057698,3.728475221697549,-1.5425826836594152,4.4413078229309244e-05,0.12464956255248276,-0.02942385963768272,3,left
24.104,0.5261471833013635,1.0706805096652305,-0.27002087862647783,-0.06261347016816932,3.710720200540124,-1.534974450140776,-0.00014658170535063382,0.12426008872858203,-0.03392469426984027,3,left
24.105,0.5247900396899781,1.068901308013715,-0.2698568753260836,-0.07503667283695495,3.6928449088908133,-1.5272679813707866,-0.00035034591027345704,0.12378608935243439,-0.03848160894965188,3,left
24.105999999999998,0.5234825110572876,1.0670730864651305,-0.26968588751797945,-0.0869141242329215,3.674853502240048,-1.5194618656379397,-0.0005651326488349635,0.12322592647783319,-0.04309278325972845,3,left
24.105999999999998,0.5222289781398061,1.065196916856586,-0.26950783478041396,-0.09818504471168867,3.6567500359630936,-1.5115549062435025,-0.000789220243198489,0.1225785360235282,-0.04775563024073585,3,left
24.12,0.5210336507577299,1.0632740966591103,-0.269322707340061,-0.10878800886638468,3.6385385823985255,-1.5035462126526744,-0.0010209275237810127,0.12184346208377589,-0.052466800814197335,3,left
24.179000000000002,0.519900531570101,1.0613061459383366,-0.2691305660920624,-0.11866134208944187,3.6202233507524033,-1.4954352879191062,-0.0012586279656865516,0.12102088830016781,-0.05722218824728327,3,left
24.182,0.5188333807998566,1.0592948018006785,-0.2689315420028223,-0.12774353761478244,3.6018088036835576,-1.4872221090139155,-0.0015007627227763595,0.12011166563089483,-0.06201693263265441,3,left
24.182,0.5178356828412304,1.057242010504,-0.26872583504340625,-0.13597369333828171,3.583299767872499,-1.4789071987052143,-0.001745852764854994,0.11911733488669837,-0.06684542544273546,3,left
24.183000000000003,0.5169106153600752,1.0551499177061958,-0.26851371288881803,-0.14329196684024675,3.564701536866347,-1.4704916887867292,-0.0019925103917409854,0.1180401418596301,-0.0717013142332046,3,left
24.184,0.5160610212193031,1.0530208574621556,-0.268295509677968,-0.1496400448239317,3.5460199630247975,-1.4619773747442857,-0.0022394503297314457,0.11688304341337347,-0.07657750755531266,3,left
24.208000000000002,0.5152893834300029,1.050857340539277,-0.2680716251293458,-0.15496162191102106,3.527261534351223,-1.4533667619861124,-0.0024855004930884844,0.1156497038808201,-0.0814661801092297,3,left
24.247,0.5145978033832018,1.0486620425532953,-0.26784252417966004,-0.1592028844638147,3.508433433198701,-1.444663103845276,-0.0027296124249077043,0.11434448165723757,-0.08635877815541014,3,left
24.249000000000002,0.5139879828426747,1.0464377924049793,-0.26760873705009575,-0.16231299469210192,3.4895435765404414,-1.4358704320954427,-0.002970871390048552,0.11297240608855112,-0.09124602532162997,3,left
24.249000000000002,0.5134612103443537,1.0441875614217329,-0.26737085944447175,-0.1642445667173835,3.470600640022408,-1.426993581764471,-0.0032085059526684584,0.11153914526824253,-0.09611792956169438,3,left
24.25,0.5130183525678603,1.041914453402906,-0.26712955263183347,-0.16495412382200503,3.4516140690504984,-1.4180382126231654,-0.0034418966186534625,0.11005096628171754,-0.10096379313478435,3,left
24.305,0.5126598509810264,1.0396216955288877,-0.26688554335544545,-0.16440252841912698,3.4325940794879775,-1.409010829049851,-0.003670582983094604,0.1085146899510001,-0.10577222809270434,3,left
24.307,0.5123857236842919,1.0373126299657505,-0.2666396236277714,-0.16255537920648677,3.4135516498014926,-1.399918798510992,-0.003894268982785463,0.10693764161963615,-0.1105311792305093,3,left
24.308000000000003,0.5121955720179809,1.0349907060070327,-0.266392650469178,-0.15938336919881668,3.394498507018446,-1.3907703676147918,-0.004112826204451701,0.10532759859895834,-0.11522795577581564,3,left
24.308000000000003,0.5120885912566805,1.0326594726309437,-0.2661455455840663,-0.15486259694677088,3.3754471094437384,-1.3815746741952313,-0.004326295516851834,0.1036927343950932,-0.11984927325283383,3,left
24.309,0.5120635845059242,1.0303225712717663,-0.2658992948944074,-0.1489748251691274,3.3564106283331876,-1.3723417542629763,-0.00453488742140493,0.10204155974011644,-0.12438130726621643,3,left
24.386999999999997,0.5121189788551117,1.0279837283255926,-0.2656549478132115,-0.14170768448195503,3.3374029293696985,-1.3630825433419056,-0.00473898141748319,0.10038286044368819,-0.12880976051677404,3,left
24.39,0.5122528432643662,1.0256467464628836,-0.265413616134745,-0.1330548218271941,3.318438554037624,-1.3538088720890373,-0.004939124475489625,0.09872563215492207,-0.13311994347300207,3,left
24.391,0.5124629083377406,1.0233154935105826,-0.2651764724019757,-0.12301599358371135,3.299532700840655,-1.3445334561713453,-0.005136028483836532,0.09707901254749761,-0.13729686814555536,3,left
24.392,0.5127465884434113,1.0209938880333664,-0.2649447476328891,-0.11159710333993797,3.2807012063086605,-1.3352698803728995,-0.005330566284949781,0.09545221221411516,-0.14132535334629862,3,left
24.393,0.5131010064283065,1.0186858818341975,-0.26471972838099356,-0.09881018430323353,3.2619605257390445,-1.3260325769057144,-0.005523765786925374,0.09385444598667868,-0.14519013926953347,3,left
24.394000000000002,0.5135230207277568,1.0163954405382531,-0.2645027531205382,-0.08467332682945641,3.2433277132484513,-1.316836797840202,-0.005716801765943346,0.0922948659683409,-0.14887600977630688,3,left
24.441999999999997,0.5140092543333461,1.0141265234500023,-0.2642952078096258,-0.06921055404447453,3.2248203989994586,-1.307698581275288,-0.0059109852058150565,0.09078249678909525,-0.1523679217409161,3,left
24.444000000000003,0.5145561250423785,1.0118830633076783,-0.26409852038454945,-0.052451652789539394,3.2064567588280717,-1.298634710308739,-0.006107750149523912,0.08932617316640057,-0.1556511413619425,3,left
24.445,0.515159876495316,1.0096689461785495,-0.2639141539904961,-0.03443196905613227,3.1882554708904065,-1.2896626635049513,-0.006308638078986738,0.08793447982038936,-0.15871138725613523,3,left
24.445,0.5158166094259339,1.007487991754545,-0.26374359883983345,-0.015192174163900675,3.170235656486534,-1.2808005558028266,-0.006515279917615908,0.08661569406340597,-0.1615349791917328,3,left
24.445999999999998,0.5165223123799664,1.0053439344685364,-0.2635883626338641,0.005221996332514133,3.152416804858947,-1.272067069366175,-0.006729375891298753,0.08537773186988688,-0.16410898958709488,3,left
24.521,0.5172728911548875,1.0032404059894435,-0.2634499595477759,0.02676003096311954,3.134818682371306,-1.263481374242763,-0.006952673604867621,0.08422809844178653,-0.16642139374018666,3,left
24.523000000000003,0.5180641964239672,1.001180919735578,-0.2633298978950025,0.04936695801318793,3.1174612261536954,-1.255063038798144,-0.007186944828278794,0.08317384370962778,-0.16846121472238076,3,left
24.523000000000003,0.5188920493731759,0.9991688579794785,-0.2632296667196216,0.07298368860338281,3.10036442216326,-1.2468319298992254,-0.0074339617335706055,0.08222152217388969,-0.17021865881281137,3,left
24.524,0.519752265659772,0.9972074618533704,-0.2631507217064063,0.09754738724114946,3.0835481676096856,-1.23880810282295,-0.007695473460825772,0.08137715591636566,-0.17168523731736704,3,left
24.525,0.5206406784560424,0.9952998241980971,-0.2630944709560132,0.12299186990818674,3.067032117695728,-1.2310116808659504,-0.007973183660247121,0.08064619986265914,-0.17285387180043796,3,left
24.526999999999997,0.5215531614998921,0.9934488848622839,-0.2630622612697898,0.1492480290310033,3.0508355172324078,-1.2234627245899625,-0.008268729269633039,0.08003350892676643,-0.17371898154335905,3,left
24.579,0.5224856528113531,0.9916574278804413,-0.2630553655237184,0.17624428126345523,3.0349770207580478,-1.2161810908144832,-0.008583660571103055,0.07954330697427832,-0.17427655303523182,3,left
24.581999999999997,0.523434179299799,0.9899280800063454,-0.2630749715032065,0.20390702843988354,3.0194745103955474,-1.2091862830150524,-0.008919422527874851,0.07917915760211107,-0.17452419149947002,3,left
24.583000000000002,0.5243948821978744,0.9882633102146885,-0.2631221723352845,0.23216112010065879,3.004344923953567,-1.202497298035533,-0.009277337420905115,0.07894393685143075,-0.17446115442758336,3,left
24.584,0.5253640431335252,0.9866654298126504,-0.2631979584741212,0.26093031051114507,2.9896041028607616,-1.1961324761523136,-0.009658588900062269,0.07883980856286017,-0.17408836693601962,3,left
24.586,0.5263381105273772,0.9851365927446334,-0.2633032110487152,0.29013770866980765,2.975266663918855,-1.1901093599829262,-0.01006420773519913,0.07886820414915317,-0.17340841848233446,3,left
24.655,0.5273137257190091,0.9836787956593854,-0.2634386961981684,0.31970622176202323,2.9613458955910423,-1.1844445644831865,-0.01049505964735705,0.07902980915296477,-0.17242554032125695,3,left
24.656999999999996,0.5282877477966729,0.9822938773744141,-0.2636050598622199,0.34955899232478393,2.9478536788086256,-1.1791536583987479,-0.010951835505599625,0.07932455836564567,-0.1711455632351444,3,left
24.656999999999996,0.5292572759275255,0.9809835175338424,-0.26380282260881305,0.379619829206034,2.9348004322547148,-1.174251057153809,-0.011435044004403296,0.07975164021763398,-0.16957585535110667,3,left
24.658,0.5302196683896752,0.9797492345320002,-0.2640323745534634,0.4098136324034164,2.9221950820850244,-1.1697499271607306,-0.011945006819019754,0.08030951041868968,-0.16772524017669768,3,left
24.659000000000002,0.531172558117286,0.9785923830682947,-0.26429397090776025,0.4400668118680248,2.9100450560470366,-1.165662101535396,-0.012481856103417207,0.08099591400501405,-0.16560389584454133,3,left
24.659000000000002,0.5321138647815308,0.9775141518573571,-0.2645877287759638,0.4703076999273547,2.8983563015478984,-1.1619980070986038,-0.013045533990423786,0.08180791368497085,-0.16322323804647332,3,left
24.715999999999998,0.533041803269414,0.9765155620172656,-0.2649136255473434,0.5004669548220295,2.887133325161939,-1.158766602016665,-0.013635793639851063,0.08274192167233188,-0.1605957899653333,3,left
24.717,0.533954888375219,0.9755974665929227,-0.26527149896413404,0.5304779489630459,2.876379247360648,-1.1559753224846805,-0.014252201483296208,0.08379373294630858,-0.15773504195832985,3,left
24.717,0.5348519357745681,0.9747605516027232,-0.26566104885573105,0.560277133122339,2.8660958643301138,-1.1536300364568466,-0.014894140464067486,0.08495855937771085,-0.15465530362871885,3,left
24.718000000000004,0.5357320596085069,0.9740053388912063,-0.26608184053105716,0.589804368759705,2.8562837115111472,-1.1517350035972977,-0.015560814084973803,0.0862310652853201,-0.15137155256775636,3,left
24.718000000000004,0.5365946669873382,0.9733321907217619,-0.26653330974624323,0.6190032224715358,2.8469421284826018,-1.1502928427285257,-0.016251251044188116,0.0876054053615501,-0.14789928525715107,3,left
24.788,0.5374394496237166,0.9727413151534597,-0.26701476889725556,0.6478212175366835,2.8380693275786237,-1.149304509223609,-0.016964310294857482,0.08907526567277714,-0.14425437424701018,3,left
24.789,0.5382663731475908,0.9722327703328502,-0.26752541382341055,0.6762100391355396,2.8296624683359677,-1.1487692842557786,-0.01769868646390492,0.09063390801880102,-0.14045293324940203,3,left
24.79,0.5390756653408597,0.9718064662488098,-0.26806433075314245,0.7041256919226494,2.8217177385942565,-1.1486847766687656,-0.01845291562092612,0.09227421770217481,-0.13651119041251594,3,left
24.793000000000003,0.539867804297263,0.9714621641964893,-0.2686305033665362,0.7315286098016375,2.8142304423653193,-1.1490469375930168,-0.01922538139922659,0.09398875471161112,-0.13244536976498228,3,left
24.794,0.5406435060427296,0.9711994755832363,-0.26922282020571586,0.7583837179838997,2.8071950944474504,-1.1498500878062423,-0.02001432149725215,0.09576980824788076,-0.12827158089537524,3,left
24.795,0.5414037103226433,0.9710178622801631,-0.2698400827214145,0.7846604477291587,2.800605521379179,-1.151086957706182,-0.020817834719454174,0.09760945414061972,-0.1240057173110544,3,left
24.854,0.5421495640078398,0.9709166407303128,-0.2704810142480839,0.810332705754435,2.7944549664156306,-1.1527487391055018,-0.0216338889510003,0.09949961402025408,-0.11966336460331205,3,left
24.855,0.5428824024375647,0.9708949910275674,-0.2711442699342217,0.8353788031582867,2.7887361927687504,-1.1548251468732973,-0.0224603305706032,0.10143211472301471,-0.11525971980886321,3,left
24.855999999999998,0.5436037290809344,0.9709519703967716,-0.2718284471219231,0.8597813502954407,2.7834415774410903,-1.157304487789662,-0.023294895570464165,0.10339874675644369,-0.11080952239712649,3,left
24.857,0.544315193678336,0.9710865292085602,-0.2725320953881205,0.8835271224452864,2.778563189896969,-1.1601737346402599,-0.024135222228793028,0.10539132128161008,-0.1063269955839412,3,left
24.857,0.5450185688975855,0.9712975276496904,-0.2732537257293601,0.9066068985304502,2.7740928538317577,-1.1634186048727733,-0.02497886494507823,0.10740172541763543,-0.10182579571186551,3,left
24.921999999999997,0.5457157254643247,0.9715837521998621,-0.27399181882852697,0.9290152749318618,2.7700221950770803,-1.1670236443327942,-0.025823308926743054,0.10942197578124621,-0.09731896794194463,3,left
24.924,0.5464086056792041,0.9719439320514299,-0.2747448325193826,0.9507504586144031,2.766342684216884,-1.1709723176931797,-0.026665985604094236,0.11144427022989367,-0.09281890754715781,3,left
24.925,0.5470991952538782,0.9723767555586329,-0.2755112084727721,0.9718140451572885,2.7630456853534935,-1.1752471077272466,-0.027504288755064048,0.11346103780800532,-0.08833732667848454,3,left
24.93,0.5477894935529654,0.9728808861264968,-0.2762893780606912,0.9922107858994362,2.76012251960091,-1.1798296250419404,-0.028335591342166164,0.1154649869021544,-0.08388522659066955,3,left
24.930999999999997,0.5484814825748363,0.9734549766639596,-0.2770777674210644,1.0119483459206335,2.75756454673036,-1.1847007289246074,-0.029157263035137704,0.11744915160536168,-0.07947287524141772,3,left
24.932,0.5491770951518893,0.9740976819138109,-0.2778748018097706,1.031037053089771,2.755363265213999,-1.1898406591106914,-0.029966688248013268,0.11940693626283096,-0.07510978981096625,3,left
24.989,0.5498781828251352,0.9748076682089065,-0.2786789092997237,1.0494896376049438,2.7535104287551,-1.195229176613632,-0.03076128425887157,0.12133215812116922,-0.07080472302876299,3,left
24.991,0.5505864838097402,0.9755836203866898,-0.27948852385095446,1.0673209604976042,2.751998174539243,-1.2008457089512998,-0.03153851883575369,0.12321908797518964,-0.06656565182725738,3,left
24.991,0.5513035915772623,0.9764242458130171,-0.28030208781655563,1.0845477290429126,2.750819156855991,-1.206669493544202,-0.03229592693693073,0.12506248873421755,-0.06239976720978495,3,left
24.991999999999997,0.552030924712994,0.9773282758099885,-0.281118054063058,1.1011881975447952,2.7499666813276074,-1.21267971462128,-0.03303112632690261,0.12685765179588665,-0.058313464879877056,3,left
24.991999999999997,0.5527696986356109,0.9782944651559866,-0.2819348879917578,1.1172618530550584,2.7494348375720787,-1.2188556317758372,-0.03374183215798001,0.12860043072292965,-0.05431233654576661,3,left
25.055,0.5535208995296333,0.9793215904185562,-0.2827510697555673,1.132789086821904,2.749218628389201,-1.22517669986607,-0.03442587071103852,0.13028727096743253,-0.05040116188638523,3,left
25.057,0.5542852606422082,0.9804084476293949,-0.2835650968874962,1.147790853644319,2.7493140914906253,-1.231622680251844,-0.03508119255277641,0.13191523396661303,-0.04658390116479122,3,left
25.057,0.5550632410525658,0.9815538495361862,-0.28437548747810854,1.1622883220167317,2.7497184084701654,-1.2381737433512938,-0.035705885302931575,0.13348201435430612,-0.04286368847579365,3,left
25.066999999999997,0.5558550072298285,0.9827566225902398,-0.2851807839367889,1.1763025172372075,2.750429997037114,-1.2448105625097812,-0.03629818608998534,0.13498594978866996,-0.03924282561584526,3,left
25.068,0.5566604181588566,0.9840156038648137,-0.2859795571949608,1.1898539588572257,2.7514485849653325,-1.2515143992546542,-0.03685649370999306,0.13642602331672943,-0.03572277656412817,3,left
25.069000000000003,0.5574790151887571,0.9853296380880479,-0.2867704110784677,1.2029622955572756,2.7527752657531206,-1.2582671803441208,-0.03737938047027234,0.1378018582911758,-0.032304162621824874,3,left
25.12,0.5583100176092624,0.9866975748863586,-0.2875519866171608,1.2156459447401897,2.7544125366432883,-1.2650515676073621,-0.03786560359928853,0.1391137059092655,-0.028986758545223427,3,left
25.121,0.5591523242718519,0.9881182662429311,-0.28832296618744224,1.2279217465499945,2.7563643198695162,-1.2718510218992365,-0.038314115923441854,0.1403624255417678,-0.02576949052766547,3,left
25.125,0.5600045206447825,0.9895905641086714,-0.2890820774480141,1.2398046396055902,2.758635967780203,-1.2786498621670304,-0.038724075411060314,0.14154945807433156,-0.022650437174007894,3,left
25.125999999999998,0.5608648899252157,0.9911133180112148,-0.2898280970157996,1.2513073613863714,2.761234252103459,-1.2854333200399544,-0.03909485329527342,0.1426767925003047,-0.019626834467436877,3,left
25.127,0.561731426683576,0.9926853724042004,-0.29055985382129307,1.2624401742116573,2.764167337582012,-1.2921875900347441,-0.03942604072375508,0.1437469262628245,-0.016695085930945052,3,left
25.186999999999998,0.5626018520428139,0.9943055634648161,-0.291276232124476,1.2732106193868524,2.7674447410644736,-1.2988998754488212,-0.039717454084103154,0.14476282043226665,-0.013850780195954806,3,left
