time,gFx,gFy,gFz,ax,ay,az,wx,wy,wz
0.038,0.1519,0.9835,0.0878,0,0,0,0,0,0
0.038,0.1512,0.9816,0.0831,0,0,0,0,0,0
0.038,0.151,0.9833,0.0827,0,0,0,0,0,0
0.038,0.1498,0.9847,0.081,0,0,0,0,0,0
0.038,0.1529,0.984,0.0788,0,0,0,0,0,0
0.038,0.1515,0.9857,0.0746,0,0,0,0,0,0
0.039,0.1478,0.9864,0.0751,0,0,0,0,0,0
0.052,0.1544,0.9828,0.0746,0,0,0,0,0,0
0.053,0.1546,0.9852,0.078,0,0,0,0,0,0
0.053,0.1561,0.9847,0.078,0,0,0,0,0,0
0.053,0.1566,0.985,0.0768,0,0,0,0,0,0
0.054,0.1559,0.9855,0.0778,0,0,0,0,0,0
0.054,0.1556,0.9847,0.0783,0,0,0,0,0,0
0.063,0.1563,0.9818,0.0775,0,0,0,0,0,0
0.064,0.1571,0.9833,0.081,0,0,0,0,0,0
0.064,0.1588,0.9816,0.0807,0,0,0,0,0,0
0.065,0.161,0.9796,0.0836,0,0,0,0,0,0
0.069,0.1615,0.9801,0.0841,0,0,0,0,0,0
0.07,0.1629,0.9796,0.0844,0,0,0,0,0,0
0.073,0.1671,0.9803,0.0849,0,0,0,0,0,0
0.074,0.1681,0.9806,0.0841,0,0,0,0,0,0
0.078,0.1717,0.9835,0.0858,0,0,0,0,0,0
0.079,0.1756,0.9808,0.0861,0,0,0,0,0,0
0.083,0.1778,0.9833,0.0878,0,0,0,0,0,0
0.083,0.1771,0.9811,0.0897,0,0,0,0,0,0
0.088,0.1791,0.9801,0.0907,0,0,0,0,0,0
0.088,0.1793,0.9794,0.09,0,0,0,0,0,0
0.093,0.1769,0.9806,0.0912,0,0,0,0,0,0
0.094,0.1764,0.9796,0.0897,0,0,0,0,0,0
0.097,0.1769,0.9791,0.0897,0,0,0,0,0,0
0.098,0.1756,0.9823,0.0875,0,0,0,0,0,0
0.103,0.1752,0.9821,0.0875,0,0,0,0,0,0
0.104,0.1749,0.9821,0.0873,0,0,0,0,0,0
0.107,0.1734,0.9823,0.0883,0,0,0,0,0,0
0.108,0.1737,0.9835,0.0875,0,0,0,0,0,0
0.114,0.1732,0.984,0.0871,0,0,0,0,0,0
0.115,0.1698,0.983,0.0846,0,0,0,0,0,0
0.117,0.1671,0.983,0.0853,0,0,0,0,0,0
0.117,0.1632,0.9857,0.0846,0,0,0,0,0,0
0.123,0.1607,0.9872,0.0856,0,0,0,0,0,0
0.124,0.1573,0.9884,0.0873,0,0,0,0,0,0
0.13,0.1517,0.9891,0.0858,0,0,0,0,0,0
0.131,0.1502,0.9884,0.0827,0,0,0,0,0,0
0.132,0.1471,0.9884,0.0792,0,0,0,0,0,0
0.132,0.1463,0.9882,0.0805,0,0,0,0,0,0
0.139,0.1456,0.9877,0.0836,0,0,0,0,0,0
0.139,0.1439,0.9857,0.0846,0,0,0,0,0,0
0.141,0.1466,0.9855,0.0856,0,0,0,0,0,0
0.142,0.1432,0.9835,0.0849,0,0,0,0,0,0
0.148,0.1456,0.9818,0.0836,0,0,0,0,0,0
0.148,0.1446,0.9813,0.0824,0,0,0,0,0,0
0.151,0.1471,0.9799,0.0817,0,0,0,0,0,0
0.151,0.1476,0.9791,0.08,0,0,0,0,0,0
0.157,0.1502,0.9791,0.0827,0,0,0,0,0,0
0.158,0.1539,0.9789,0.0827,0,0,0,0,0,0
0.161,0.1593,0.9796,0.0836,0,0,0,0,0,0
0.161,0.1598,0.9784,0.0827,0,0,0,0,0,0
0.166,0.1598,0.9784,0.0827,0,0,0,0.0062,-0.0088,0.0057
0.167,0.16,0.9811,0.081,0,0,0,0.0062,-0.0088,0.0057
0.168,0.1637,0.983,0.0812,0,0,0,0.0062,-0.0088,0.0057
0.171,0.1656,0.983,0.079,0,0,0,0.0062,-0.0088,0.0057
0.171,0.1669,0.9855,0.0763,0,0,0,0.0062,-0.0088,0.0057
0.176,0.1676,0.9845,0.0751,0,0,0,0.0062,-0.0088,0.0057
0.176,0.1693,0.9843,0.0746,0,0,0,0.0062,-0.0088,0.0057
0.177,0.1693,0.9843,0.0746,0,0,0,0.0062,-0.0088,0.0057
0.18,0.1732,0.9864,0.0714,0,0,0,0.0062,-0.0088,0.0057
0.181,0.1752,0.9845,0.0726,0,0,0,0.0062,-0.0088,0.0057
0.186,0.1761,0.9828,0.0717,0,0,0,0.0062,-0.0088,0.0057
0.187,0.1793,0.9801,0.0753,0,0,0,0.0062,-0.0088,0.0057
0.19,0.1798,0.9796,0.0768,0,0,0,0.0062,-0.0088,0.0057
0.191,0.1796,0.9791,0.0758,0,0,0,0.0062,-0.0088,0.0057
0.195,0.1778,0.9794,0.0773,0,0,0,0.0062,-0.0088,0.0057
0.196,0.1754,0.9801,0.0766,0,0,0,0.0062,-0.0088,0.0057
0.201,0.1727,0.9808,0.0734,0,0,0,0.0062,-0.0088,0.0057
0.202,0.1722,0.9825,0.0775,0,0,0,0.0062,-0.0088,0.0057
0.205,0.1725,0.985,0.078,0,0,0,0.0062,-0.0088,0.0057
0.205,0.1686,0.9857,0.0795,0,0,0,0.0062,-0.0088,0.0057
0.21,0.1659,0.9874,0.0805,0,0,0,0.0062,-0.0088,0.0057
0.211,0.1654,0.985,0.0819,0,0,0,0.0062,-0.0088,0.0057
0.215,0.1654,0.986,0.08,0,0,0,0.0062,-0.0088,0.0057
0.215,0.1629,0.9869,0.0822,0,0,0,0.0062,-0.0088,0.0057
0.22,0.1625,0.9862,0.0805,0,0,0,0.0062,-0.0088,0.0057
0.22,0.1593,0.9886,0.0812,0,0,0,0.0062,-0.0088,0.0057
0.226,0.159,0.9879,0.0851,0,0,0,0.0062,-0.0088,0.0057
0.227,0.1571,0.986,0.0839,0,0,0,0.0062,-0.0088,0.0057
0.23,0.159,0.9869,0.0853,0,0,0,0.0062,-0.0088,0.0057
0.23,0.1598,0.9845,0.0871,0,0,0,0.0062,-0.0088,0.0057
0.235,0.1598,0.9845,0.0871,0,0,0,0.0012,-0.0065,0.0093
0.235,0.159,0.9847,0.0846,0,0,0,0.0012,-0.0065,0.0093
0.236,0.1583,0.9828,0.0861,0,0,0,0.0012,-0.0065,0.0093
0.239,0.16,0.9816,0.0888,0,0,0,0.0012,-0.0065,0.0093
0.239,0.161,0.9808,0.0924,0,0,0,0.0012,-0.0065,0.0093
0.244,0.161,0.9808,0.0924,-0.0597,0.0097,-0.0091,0.0012,-0.0065,0.0093
0.246,0.1622,0.9828,0.0922,-0.0597,0.0097,-0.0091,0.0012,-0.0065,0.0093
0.247,0.1629,0.9801,0.0905,-0.0597,0.0097,-0.0091,0.0012,-0.0065,0.0093
0.249,0.1664,0.9816,0.09,-0.0597,0.0097,-0.0091,0.0012,-0.0065,0.0093
0.249,0.1698,0.9816,0.0895,-0.0597,0.0097,-0.0091,0.0012,-0.0065,0.0093
0.254,0.1676,0.9808,0.0897,-0.0597,0.0097,-0.0091,0.0012,-0.0065,0.0093
0.254,0.1708,0.9828,0.088,-0.0597,0.0097,-0.0091,0.0012,-0.0065,0.0093
0.26,0.1725,0.9821,0.0861,-0.0597,0.0097,-0.0091,0.0012,-0.0065,0.0093
0.261,0.1754,0.9818,0.0836,-0.0597,0.0097,-0.0091,0.0012,-0.0065,0.0093
0.264,0.1744,0.9825,0.0824,-0.0597,0.0097,-0.0091,0.0012,-0.0065,0.0093
0.264,0.1771,0.9821,0.0814,-0.0597,0.0097,-0.0091,0.0012,-0.0065,0.0093
0.271,0.1764,0.9828,0.0824,-0.0597,0.0097,-0.0091,0.0012,-0.0065,0.0093
0.271,0.1761,0.9823,0.0802,-0.0597,0.0097,-0.0091,0.0012,-0.0065,0.0093
0.273,0.1761,0.9821,0.0814,-0.0597,0.0097,-0.0091,0.0012,-0.0065,0.0093
0.273,0.1759,0.9811,0.0814,-0.0597,0.0097,-0.0091,0.0012,-0.0065,0.0093
0.278,0.173,0.9816,0.0807,-0.0597,0.0097,-0.0091,0.0012,-0.0065,0.0093
0.279,0.172,0.9811,0.0814,-0.0597,0.0097,-0.0091,0.0012,-0.0065,0.0093
0.283,0.1693,0.9796,0.081,-0.0597,0.0097,-0.0091,0.0012,-0.0065,0.0093
0.284,0.1664,0.9779,0.0802,-0.0597,0.0097,-0.0091,0.0012,-0.0065,0.0093
0.289,0.1649,0.9789,0.0807,-0.0597,0.0097,-0.0091,0.0012,-0.0065,0.0093
0.29,0.1637,0.9796,0.0812,-0.0597,0.0097,-0.0091,0.0012,-0.0065,0.0093
0.292,0.1649,0.9801,0.0783,-0.0597,0.0097,-0.0091,0.0012,-0.0065,0.0093
0.293,0.1639,0.9796,0.078,-0.0597,0.0097,-0.0091,0.0012,-0.0065,0.0093
0.299,0.1639,0.9801,0.0773,-0.0597,0.0097,-0.0091,0.0012,-0.0065,0.0093
0.299,0.1629,0.9784,0.0761,-0.0597,0.0097,-0.0091,0.0012,-0.0065,0.0093
0.303,0.1625,0.9808,0.0775,-0.0597,0.0097,-0.0091,0.0012,-0.0065,0.0093
0.304,0.1625,0.9808,0.0775,-0.0597,0.0097,-0.0091,0.001,0.0008,0.0065
0.305,0.1632,0.9813,0.0778,-0.0597,0.0097,-0.0091,0.001,0.0008,0.0065
0.309,0.1612,0.9808,0.0761,-0.0597,0.0097,-0.0091,0.001,0.0008,0.0065
0.309,0.1607,0.9818,0.0778,-0.0597,0.0097,-0.0091,0.001,0.0008,0.0065
0.313,0.162,0.9816,0.079,-0.0597,0.0097,-0.0091,0.001,0.0008,0.0065
0.314,0.162,0.9816,0.079,0.0314,0.0062,-0.015,0.001,0.0008,0.0065
0.314,0.1632,0.9838,0.0802,0.0314,0.0062,-0.015,0.001,0.0008,0.0065
0.317,0.1622,0.9816,0.0805,0.0314,0.0062,-0.015,0.001,0.0008,0.0065
0.318,0.1651,0.9816,0.08,0.0314,0.0062,-0.015,0.001,0.0008,0.0065
0.323,0.1639,0.9811,0.0812,0.0314,0.0062,-0.015,0.001,0.0008,0.0065
0.323,0.1673,0.983,0.081,0.0314,0.0062,-0.015,0.001,0.0008,0.0065
0.327,0.1671,0.9818,0.0851,0.0314,0.0062,-0.015,0.001,0.0008,0.0065
0.327,0.1698,0.9816,0.0807,0.0314,0.0062,-0.015,0.001,0.0008,0.0065
0.333,0.1691,0.9857,0.0795,0.0314,0.0062,-0.015,0.001,0.0008,0.0065
0.334,0.1693,0.9835,0.08,0.0314,0.0062,-0.015,0.001,0.0008,0.0065
0.337,0.1693,0.986,0.077,0.0314,0.0062,-0.015,0.001,0.0008,0.0065
0.338,0.1678,0.9847,0.0748,0.0314,0.0062,-0.015,0.001,0.0008,0.0065
0.341,0.1634,0.9855,0.0746,0.0314,0.0062,-0.015,0.001,0.0008,0.0065
0.342,0.1605,0.985,0.0758,0.0314,0.0062,-0.015,0.001,0.0008,0.0065
0.348,0.1578,0.9896,0.0775,0.0314,0.0062,-0.015,0.001,0.0008,0.0065
0.349,0.1573,0.9882,0.0802,0.0314,0.0062,-0.015,0.001,0.0008,0.0065
0.352,0.1568,0.9867,0.0812,0.0314,0.0062,-0.015,0.001,0.0008,0.0065
0.352,0.1559,0.9862,0.08,0.0314,0.0062,-0.015,0.001,0.0008,0.0065
0.358,0.1559,0.9852,0.0822,0.0314,0.0062,-0.015,0.001,0.0008,0.0065
0.359,0.1598,0.9847,0.0844,0.0314,0.0062,-0.015,0.001,0.0008,0.0065
0.361,0.1607,0.983,0.0851,0.0314,0.0062,-0.015,0.001,0.0008,0.0065
0.362,0.162,0.9838,0.0883,0.0314,0.0062,-0.015,0.001,0.0008,0.0065
0.366,0.1654,0.9852,0.088,0.0314,0.0062,-0.015,0.001,0.0008,0.0065
0.366,0.1671,0.985,0.088,0.0314,0.0062,-0.015,0.001,0.0008,0.0065
0.371,0.1693,0.984,0.0888,0.0314,0.0062,-0.015,0.001,0.0008,0.0065
0.371,0.173,0.9847,0.0873,0.0314,0.0062,-0.015,0.001,0.0008,0.0065
0.372,0.173,0.9847,0.0873,0.0314,0.0062,-0.015,0.0001,0.004,0.0081
0.375,0.1737,0.984,0.0883,0.0314,0.0062,-0.015,0.0001,0.004,0.0081
0.376,0.173,0.9828,0.088,0.0314,0.0062,-0.015,0.0001,0.004,0.0081
0.382,0.1739,0.9813,0.0885,0.0314,0.0062,-0.015,0.0001,0.004,0.0081
0.383,0.1759,0.9833,0.0897,0.0314,0.0062,-0.015,0.0001,0.004,0.0081
0.383,0.1759,0.9833,0.0897,0.0288,-0.0142,-0.0086,0.0001,0.004,0.0081
0.386,0.1759,0.9813,0.0885,0.0288,-0.0142,-0.0086,0.0001,0.004,0.0081
0.387,0.1747,0.984,0.0863,0.0288,-0.0142,-0.0086,0.0001,0.004,0.0081
0.392,0.1764,0.9852,0.0856,0.0288,-0.0142,-0.0086,0.0001,0.004,0.0081
0.393,0.1749,0.9821,0.0831,0.0288,-0.0142,-0.0086,0.0001,0.004,0.0081
0.395,0.1783,0.9813,0.0831,0.0288,-0.0142,-0.0086,0.0001,0.004,0.0081
0.396,0.1749,0.9811,0.0834,0.0288,-0.0142,-0.0086,0.0001,0.004,0.0081
0.401,0.1737,0.9799,0.0849,0.0288,-0.0142,-0.0086,0.0001,0.004,0.0081
0.402,0.1717,0.9801,0.0827,0.0288,-0.0142,-0.0086,0.0001,0.004,0.0081
0.405,0.172,0.9823,0.0841,0.0288,-0.0142,-0.0086,0.0001,0.004,0.0081
0.406,0.1688,0.9806,0.0839,0.0288,-0.0142,-0.0086,0.0001,0.004,0.0081
0.411,0.1661,0.9801,0.0827,0.0288,-0.0142,-0.0086,0.0001,0.004,0.0081
0.411,0.1639,0.9813,0.0805,0.0288,-0.0142,-0.0086,0.0001,0.004,0.0081
0.415,0.1627,0.9801,0.0792,0.0288,-0.0142,-0.0086,0.0001,0.004,0.0081
0.416,0.161,0.9813,0.0805,0.0288,-0.0142,-0.0086,0.0001,0.004,0.0081
0.42,0.1615,0.9823,0.0822,0.0288,-0.0142,-0.0086,0.0001,0.004,0.0081
0.42,0.1612,0.9803,0.0792,0.0288,-0.0142,-0.0086,0.0001,0.004,0.0081
0.425,0.1607,0.9808,0.081,0.0288,-0.0142,-0.0086,0.0001,0.004,0.0081
0.426,0.162,0.9801,0.0795,0.0288,-0.0142,-0.0086,0.0001,0.004,0.0081
0.43,0.1581,0.9801,0.078,0.0288,-0.0142,-0.0086,0.0001,0.004,0.0081
0.43,0.1585,0.9843,0.0797,0.0288,-0.0142,-0.0086,0.0001,0.004,0.0081
0.434,0.1585,0.983,0.077,0.0288,-0.0142,-0.0086,0.0001,0.004,0.0081
0.435,0.1583,0.9821,0.0758,0.0288,-0.0142,-0.0086,0.0001,0.004,0.0081
0.44,0.1607,0.9825,0.0746,0.0288,-0.0142,-0.0086,0.0001,0.004,0.0081
0.441,0.1639,0.9818,0.0753,0.0288,-0.0142,-0.0086,0.0001,0.004,0.0081
0.441,0.1639,0.9818,0.0753,0.0288,-0.0142,-0.0086,-0.0028,-0.0043,0.0007
0.444,0.1632,0.9835,0.078,0.0288,-0.0142,-0.0086,-0.0028,-0.0043,0.0007
0.444,0.1644,0.9825,0.0785,0.0288,-0.0142,-0.0086,-0.0028,-0.0043,0.0007
0.45,0.1644,0.9825,0.0785,-0.0011,0.0137,0.0017,-0.0028,-0.0043,0.0007
0.45,0.1639,0.9845,0.0768,-0.0011,0.0137,0.0017,-0.0028,-0.0043,0.0007
0.451,0.1666,0.9828,0.0766,-0.0011,0.0137,0.0017,-0.0028,-0.0043,0.0007
0.454,0.1664,0.9833,0.0746,-0.0011,0.0137,0.0017,-0.0028,-0.0043,0.0007
0.454,0.1639,0.9811,0.0746,-0.0011,0.0137,0.0017,-0.0028,-0.0043,0.0007
0.46,0.1647,0.9816,0.0768,-0.0011,0.0137,0.0017,-0.0028,-0.0043,0.0007
0.46,0.1671,0.9803,0.0773,-0.0011,0.0137,0.0017,-0.0028,-0.0043,0.0007
0.465,0.1666,0.9823,0.0792,-0.0011,0.0137,0.0017,-0.0028,-0.0043,0.0007
0.466,0.1681,0.9825,0.0834,-0.0011,0.0137,0.0017,-0.0028,-0.0043,0.0007
0.469,0.1654,0.9823,0.0834,-0.0011,0.0137,0.0017,-0.0028,-0.0043,0.0007
0.47,0.1647,0.9828,0.0844,-0.0011,0.0137,0.0017,-0.0028,-0.0043,0.0007
0.474,0.1671,0.9872,0.0814,-0.0011,0.0137,0.0017,-0.0028,-0.0043,0.0007
0.474,0.1654,0.9886,0.0797,-0.0011,0.0137,0.0017,-0.0028,-0.0043,0.0007
0.479,0.1651,0.986,0.0792,-0.0011,0.0137,0.0017,-0.0028,-0.0043,0.0007
0.479,0.1634,0.9877,0.0812,-0.0011,0.0137,0.0017,-0.0028,-0.0043,0.0007
0.484,0.1627,0.9862,0.0819,-0.0011,0.0137,0.0017,-0.0028,-0.0043,0.0007
0.485,0.162,0.9869,0.0824,-0.0011,0.0137,0.0017,-0.0028,-0.0043,0.0007
0.488,0.1634,0.9862,0.0824,-0.0011,0.0137,0.0017,-0.0028,-0.0043,0.0007
0.489,0.161,0.9874,0.0822,-0.0011,0.0137,0.0017,-0.0028,-0.0043,0.0007
0.493,0.1622,0.9855,0.0807,-0.0011,0.0137,0.0017,-0.0028,-0.0043,0.0007
0.494,0.1634,0.986,0.0783,-0.0011,0.0137,0.0017,-0.0028,-0.0043,0.0007
0.499,0.1676,0.9835,0.0763,-0.0011,0.0137,0.0017,-0.0028,-0.0043,0.0007
0.499,0.1673,0.9838,0.0788,-0.0011,0.0137,0.0017,-0.0028,-0.0043,0.0007
0.503,0.172,0.985,0.0797,-0.0011,0.0137,0.0017,-0.0028,-0.0043,0.0007
0.503,0.1688,0.9845,0.0773,-0.0011,0.0137,0.0017,-0.0028,-0.0043,0.0007
0.508,0.1688,0.9845,0.0773,-0.0011,0.0137,0.0017,-0.0067,-0.0026,0.0033
0.509,0.1712,0.9852,0.078,-0.0011,0.0137,0.0017,-0.0067,-0.0026,0.0033
0.509,0.1698,0.9862,0.0763,-0.0011,0.0137,0.0017,-0.0067,-0.0026,0.0033
0.515,0.1693,0.9879,0.0792,-0.0011,0.0137,0.0017,-0.0067,-0.0026,0.0033
0.515,0.1688,0.9872,0.0763,-0.0011,0.0137,0.0017,-0.0067,-0.0026,0.0033
0.517,0.1688,0.9838,0.0766,-0.0011,0.0137,0.0017,-0.0067,-0.0026,0.0033
0.518,0.1703,0.9867,0.0739,-0.0011,0.0137,0.0017,-0.0067,-0.0026,0.0033
0.519,0.1703,0.9867,0.0739,0.004,-0.0076,-0.0186,-0.0067,-0.0026,0.0033
0.522,0.1705,0.9835,0.0751,0.004,-0.0076,-0.0186,-0.0067,-0.0026,0.0033
0.522,0.1715,0.9821,0.0761,0.004,-0.0076,-0.0186,-0.0067,-0.0026,0.0033
0.527,0.1705,0.9803,0.0792,0.004,-0.0076,-0.0186,-0.0067,-0.0026,0.0033
0.527,0.1708,0.9801,0.081,0.004,-0.0076,-0.0186,-0.0067,-0.0026,0.0033
0.532,0.1676,0.9796,0.0805,0.004,-0.0076,-0.0186,-0.0067,-0.0026,0.0033
0.533,0.1644,0.9799,0.0817,0.004,-0.0076,-0.0186,-0.0067,-0.0026,0.0033
0.537,0.1637,0.9811,0.0856,0.004,-0.0076,-0.0186,-0.0067,-0.0026,0.0033
0.537,0.1622,0.9813,0.0861,0.004,-0.0076,-0.0186,-0.0067,-0.0026,0.0033
0.543,0.162,0.9825,0.0888,0.004,-0.0076,-0.0186,-0.0067,-0.0026,0.0033
0.544,0.1612,0.9825,0.0888,0.004,-0.0076,-0.0186,-0.0067,-0.0026,0.0033
0.547,0.162,0.9818,0.0912,0.004,-0.0076,-0.0186,-0.0067,-0.0026,0.0033
0.547,0.1644,0.9791,0.0949,0.004,-0.0076,-0.0186,-0.0067,-0.0026,0.0033
0.552,0.1678,0.9784,0.0929,0.004,-0.0076,-0.0186,-0.0067,-0.0026,0.0033
0.553,0.1708,0.9779,0.0956,0.004,-0.0076,-0.0186,-0.0067,-0.0026,0.0033
0.558,0.1747,0.9752,0.0959,0.004,-0.0076,-0.0186,-0.0067,-0.0026,0.0033
0.558,0.1786,0.975,0.0976,0.004,-0.0076,-0.0186,-0.0067,-0.0026,0.0033
0.561,0.1803,0.9759,0.0978,0.004,-0.0076,-0.0186,-0.0067,-0.0026,0.0033
0.562,0.182,0.9762,0.0995,0.004,-0.0076,-0.0186,-0.0067,-0.0026,0.0033
0.567,0.1847,0.975,0.0995,0.004,-0.0076,-0.0186,-0.0067,-0.0026,0.0033
0.568,0.1847,0.9745,0.101,0.004,-0.0076,-0.0186,-0.0067,-0.0026,0.0033
0.572,0.1866,0.9757,0.0978,0.004,-0.0076,-0.0186,-0.0067,-0.0026,0.0033
0.573,0.1864,0.9752,0.0971,0.004,-0.0076,-0.0186,-0.0067,-0.0026,0.0033
0.577,0.1864,0.974,0.0937,0.004,-0.0076,-0.0186,-0.0067,-0.0026,0.0033
0.578,0.1864,0.974,0.0937,0.004,-0.0076,-0.0186,-0.0063,0.014,0.0086
0.578,0.1847,0.974,0.0939,0.004,-0.0076,-0.0186,-0.0063,0.014,0.0086
0.582,0.1871,0.974,0.0919,0.004,-0.0076,-0.0186,-0.0063,0.014,0.0086
0.583,0.1862,0.9764,0.0937,0.004,-0.0076,-0.0186,-0.0063,0.014,0.0086
0.587,0.1862,0.9764,0.0937,0.0029,0.0197,-0.033,-0.0063,0.014,0.0086
0.587,0.1949,0.9755,0.0878,0.0029,0.0197,-0.033,-0.0063,0.014,0.0086
0.588,0.1546,0.9957,0.0949,0.0029,0.0197,-0.033,-0.0063,0.014,0.0086
0.593,0.1124,1.0155,0.0929,0.0029,0.0197,-0.033,-0.0063,0.014,0.0086
0.594,0.1004,1.0165,0.0873,0.0029,0.0197,-0.033,-0.0063,0.014,0.0086
0.596,0.118,1.0033,0.0871,0.0029,0.0197,-0.033,-0.0063,0.014,0.0086
0.596,0.1344,0.9962,0.0844,0.0029,0.0197,-0.033,-0.0063,0.014,0.0086
0.601,0.1559,0.986,0.088,0.0029,0.0197,-0.033,-0.0063,0.014,0.0086
0.602,0.172,0.9786,0.0937,0.0029,0.0197,-0.033,-0.0063,0.014,0.0086
0.605,0.1849,0.972,0.0988,0.0029,0.0197,-0.033,-0.0063,0.014,0.0086
0.606,0.1954,0.9696,0.0981,0.0029,0.0197,-0.033,-0.0063,0.014,0.0086
0.611,0.194,0.9715,0.0939,0.0029,0.0197,-0.033,-0.0063,0.014,0.0086
0.611,0.1903,0.9728,0.0866,0.0029,0.0197,-0.033,-0.0063,0.014,0.0086
0.616,0.1844,0.9764,0.081,0.0029,0.0197,-0.033,-0.0063,0.014,0.0086
0.617,0.18,0.9808,0.0763,0.0029,0.0197,-0.033,-0.0063,0.014,0.0086
0.62,0.18,0.9808,0.0717,0.0029,0.0197,-0.033,-0.0063,0.014,0.0086
0.621,0.1776,0.9806,0.0717,0.0029,0.0197,-0.033,-0.0063,0.014,0.0086
0.626,0.1781,0.9811,0.0707,0.0029,0.0197,-0.033,-0.0063,0.014,0.0086
0.627,0.1756,0.9791,0.0719,0.0029,0.0197,-0.033,-0.0063,0.014,0.0086
0.63,0.1752,0.9762,0.0758,0.0029,0.0197,-0.033,-0.0063,0.014,0.0086
0.631,0.1712,0.9762,0.0783,0.0029,0.0197,-0.033,-0.0063,0.014,0.0086
0.637,0.1691,0.9777,0.0817,0.0029,0.0197,-0.033,-0.0063,0.014,0.0086
0.637,0.1683,0.9764,0.0836,0.0029,0.0197,-0.033,-0.0063,0.014,0.0086
0.641,0.1671,0.9779,0.0805,0.0029,0.0197,-0.033,-0.0063,0.014,0.0086
0.641,0.1695,0.9786,0.0819,0.0029,0.0197,-0.033,-0.0063,0.014,0.0086
0.645,0.171,0.9801,0.08,0.0029,0.0197,-0.033,-0.0063,0.014,0.0086
0.646,0.1666,0.9801,0.078,0.0029,0.0197,-0.033,-0.0063,0.014,0.0086
0.646,0.1666,0.9801,0.078,0.0029,0.0197,-0.033,-0.0002,0.0024,-0.0141
0.649,0.1654,0.9813,0.0795,0.0029,0.0197,-0.033,-0.0002,0.0024,-0.0141
0.65,0.1598,0.9847,0.0834,0.0029,0.0197,-0.033,-0.0002,0.0024,-0.0141
0.655,0.1598,0.9847,0.0834,0.0772,-0.0373,0.0696,-0.0002,0.0024,-0.0141
0.656,0.1551,0.9811,0.0856,0.0772,-0.0373,0.0696,-0.0002,0.0024,-0.0141
0.656,0.1554,0.984,0.0834,0.0772,-0.0373,0.0696,-0.0002,0.0024,-0.0141
0.66,0.1529,0.9847,0.0844,0.0772,-0.0373,0.0696,-0.0002,0.0024,-0.0141
0.66,0.1519,0.984,0.0814,0.0772,-0.0373,0.0696,-0.0002,0.0024,-0.0141
0.665,0.1522,0.9852,0.0846,0.0772,-0.0373,0.0696,-0.0002,0.0024,-0.0141
0.666,0.1539,0.9857,0.0853,0.0772,-0.0373,0.0696,-0.0002,0.0024,-0.0141
0.67,0.1546,0.9835,0.0866,0.0772,-0.0373,0.0696,-0.0002,0.0024,-0.0141
0.671,0.1573,0.983,0.0885,0.0772,-0.0373,0.0696,-0.0002,0.0024,-0.0141
0.675,0.1625,0.9825,0.089,0.0772,-0.0373,0.0696,-0.0002,0.0024,-0.0141
0.675,0.1632,0.9823,0.0917,0.0772,-0.0373,0.0696,-0.0002,0.0024,-0.0141
0.678,0.1627,0.9813,0.0902,0.0772,-0.0373,0.0696,-0.0002,0.0024,-0.0141
0.679,0.1615,0.9821,0.0912,0.0772,-0.0373,0.0696,-0.0002,0.0024,-0.0141
0.684,0.1639,0.9828,0.09,0.0772,-0.0373,0.0696,-0.0002,0.0024,-0.0141
0.685,0.1671,0.985,0.0885,0.0772,-0.0373,0.0696,-0.0002,0.0024,-0.0141
0.688,0.1678,0.9828,0.0863,0.0772,-0.0373,0.0696,-0.0002,0.0024,-0.0141
0.689,0.1681,0.985,0.0858,0.0772,-0.0373,0.0696,-0.0002,0.0024,-0.0141
0.694,0.1676,0.9857,0.0834,0.0772,-0.0373,0.0696,-0.0002,0.0024,-0.0141
0.695,0.1678,0.9862,0.0839,0.0772,-0.0373,0.0696,-0.0002,0.0024,-0.0141
0.698,0.1725,0.9862,0.0819,0.0772,-0.0373,0.0696,-0.0002,0.0024,-0.0141
0.699,0.1749,0.9867,0.0846,0.0772,-0.0373,0.0696,-0.0002,0.0024,-0.0141
0.703,0.1774,0.985,0.0858,0.0772,-0.0373,0.0696,-0.0002,0.0024,-0.0141
0.703,0.1783,0.9813,0.0866,0.0772,-0.0373,0.0696,-0.0002,0.0024,-0.0141
0.708,0.1788,0.9801,0.0858,0.0772,-0.0373,0.0696,-0.0002,0.0024,-0.0141
0.709,0.1771,0.9806,0.0861,0.0772,-0.0373,0.0696,-0.0002,0.0024,-0.0141
0.716,0.1771,0.9806,0.0861,0.0772,-0.0373,0.0696,-0.0017,0.0048,-0.0043
0.716,0.1761,0.9808,0.0849,0.0772,-0.0373,0.0696,-0.0017,0.0048,-0.0043
0.717,0.1764,0.9828,0.0802,0.0772,-0.0373,0.0696,-0.0017,0.0048,-0.0043
0.718,0.172,0.9811,0.0802,0.0772,-0.0373,0.0696,-0.0017,0.0048,-0.0043
0.718,0.1688,0.9823,0.0817,0.0772,-0.0373,0.0696,-0.0017,0.0048,-0.0043
0.723,0.1666,0.9816,0.0773,0.0772,-0.0373,0.0696,-0.0017,0.0048,-0.0043
0.723,0.1666,0.9816,0.0773,-0.0077,0.0017,-0.0067,-0.0017,0.0048,-0.0043
0.725,0.1671,0.9823,0.0763,-0.0077,0.0017,-0.0067,-0.0017,0.0048,-0.0043
0.728,0.1642,0.9799,0.0797,-0.0077,0.0017,-0.0067,-0.0017,0.0048,-0.0043
0.728,0.1647,0.9818,0.079,-0.0077,0.0017,-0.0067,-0.0017,0.0048,-0.0043
0.733,0.1627,0.9803,0.0797,-0.0077,0.0017,-0.0067,-0.0017,0.0048,-0.0043
0.734,0.1634,0.9796,0.0819,-0.0077,0.0017,-0.0067,-0.0017,0.0048,-0.0043
0.738,0.1637,0.9786,0.0827,-0.0077,0.0017,-0.0067,-0.0017,0.0048,-0.0043
0.738,0.1669,0.9806,0.0839,-0.0077,0.0017,-0.0067,-0.0017,0.0048,-0.0043
0.742,0.1642,0.9808,0.0858,-0.0077,0.0017,-0.0067,-0.0017,0.0048,-0.0043
0.743,0.1629,0.9786,0.0849,-0.0077,0.0017,-0.0067,-0.0017,0.0048,-0.0043
0.747,0.1664,0.9811,0.0829,-0.0077,0.0017,-0.0067,-0.0017,0.0048,-0.0043
0.748,0.1637,0.9833,0.0851,-0.0077,0.0017,-0.0067,-0.0017,0.0048,-0.0043
0.753,0.1659,0.9818,0.0849,-0.0077,0.0017,-0.0067,-0.0017,0.0048,-0.0043
0.754,0.1686,0.9803,0.0851,-0.0077,0.0017,-0.0067,-0.0017,0.0048,-0.0043
0.757,0.1669,0.9811,0.0849,-0.0077,0.0017,-0.0067,-0.0017,0.0048,-0.0043
0.757,0.1654,0.9803,0.0853,-0.0077,0.0017,-0.0067,-0.0017,0.0048,-0.0043
0.762,0.1647,0.9838,0.0885,-0.0077,0.0017,-0.0067,-0.0017,0.0048,-0.0043
0.763,0.1637,0.9813,0.0888,-0.0077,0.0017,-0.0067,-0.0017,0.0048,-0.0043
0.766,0.1607,0.9808,0.0895,-0.0077,0.0017,-0.0067,-0.0017,0.0048,-0.0043
0.767,0.1625,0.9786,0.0917,-0.0077,0.0017,-0.0067,-0.0017,0.0048,-0.0043
0.772,0.1593,0.9794,0.0919,-0.0077,0.0017,-0.0067,-0.0017,0.0048,-0.0043
0.772,0.1578,0.9774,0.091,-0.0077,0.0017,-0.0067,-0.0017,0.0048,-0.0043
0.776,0.1578,0.9791,0.0912,-0.0077,0.0017,-0.0067,-0.0017,0.0048,-0.0043
0.776,0.1563,0.9786,0.0905,-0.0077,0.0017,-0.0067,-0.0017,0.0048,-0.0043
0.781,0.1561,0.9772,0.0888,-0.0077,0.0017,-0.0067,-0.0017,0.0048,-0.0043
0.781,0.1561,0.9772,0.0888,-0.0077,0.0017,-0.0067,0.0002,0.0092,-0.0057
0.782,0.1551,0.9755,0.09,-0.0077,0.0017,-0.0067,0.0002,0.0092,-0.0057
0.787,0.1549,0.975,0.0915,-0.0077,0.0017,-0.0067,0.0002,0.0092,-0.0057
0.788,0.1576,0.9752,0.0905,-0.0077,0.0017,-0.0067,0.0002,0.0092,-0.0057
0.793,0.1615,0.9789,0.0949,-0.0077,0.0017,-0.0067,0.0002,0.0092,-0.0057
0.794,0.1615,0.9789,0.0949,0.0074,0.0063,0.0117,0.0002,0.0092,-0.0057
0.794,0.1644,0.9796,0.099,0.0074,0.0063,0.0117,0.0002,0.0092,-0.0057
0.796,0.1725,0.9774,0.0973,0.0074,0.0063,0.0117,0.0002,0.0092,-0.0057
0.797,0.1766,0.9803,0.0966,0.0074,0.0063,0.0117,0.0002,0.0092,-0.0057
0.802,0.1793,0.9799,0.0963,0.0074,0.0063,0.0117,0.0002,0.0092,-0.0057
0.803,0.1837,0.9833,0.0966,0.0074,0.0063,0.0117,0.0002,0.0092,-0.0057
0.806,0.1869,0.9857,0.0961,0.0074,0.0063,0.0117,0.0002,0.0092,-0.0057
0.806,0.1896,0.9864,0.0924,0.0074,0.0063,0.0117,0.0002,0.0092,-0.0057
0.811,0.1923,0.9877,0.0954,0.0074,0.0063,0.0117,0.0002,0.0092,-0.0057
0.812,0.1952,0.9891,0.0959,0.0074,0.0063,0.0117,0.0002,0.0092,-0.0057
0.816,0.1959,0.9911,0.0922,0.0074,0.0063,0.0117,0.0002,0.0092,-0.0057
0.816,0.1964,0.9911,0.0893,0.0074,0.0063,0.0117,0.0002,0.0092,-0.0057
0.822,0.1974,0.9899,0.0893,0.0074,0.0063,0.0117,0.0002,0.0092,-0.0057
0.822,0.1962,0.9886,0.0851,0.0074,0.0063,0.0117,0.0002,0.0092,-0.0057
0.825,0.1981,0.9899,0.0834,0.0074,0.0063,0.0117,0.0002,0.0092,-0.0057
0.826,0.1967,0.9857,0.0795,0.0074,0.0063,0.0117,0.0002,0.0092,-0.0057
0.83,0.1959,0.9855,0.0817,0.0074,0.0063,0.0117,0.0002,0.0092,-0.0057
0.831,0.1927,0.9825,0.081,0.0074,0.0063,0.0117,0.0002,0.0092,-0.0057
0.837,0.1883,0.9825,0.0827,0.0074,0.0063,0.0117,0.0002,0.0092,-0.0057
0.838,0.1832,0.9796,0.0875,0.0074,0.0063,0.0117,0.0002,0.0092,-0.0057
0.84,0.1759,0.9781,0.0871,0.0074,0.0063,0.0117,0.0002,0.0092,-0.0057
0.841,0.1673,0.9786,0.0861,0.0074,0.0063,0.0117,0.0002,0.0092,-0.0057
0.845,0.161,0.9762,0.0863,0.0074,0.0063,0.0117,0.0002,0.0092,-0.0057
0.846,0.1524,0.9747,0.0871,0.0074,0.0063,0.0117,0.0002,0.0092,-0.0057
0.85,0.1524,0.9747,0.0871,0.0074,0.0063,0.0117,0.005,0.0112,-0.0171
0.85,0.1476,0.9755,0.0856,0.0074,0.0063,0.0117,0.005,0.0112,-0.0171
0.851,0.1444,0.9713,0.0866,0.0074,0.0063,0.0117,0.005,0.0112,-0.0171
0.855,0.1402,0.9689,0.089,0.0074,0.0063,0.0117,0.005,0.0112,-0.0171
0.855,0.1378,0.9676,0.0951,0.0074,0.0063,0.0117,0.005,0.0112,-0.0171
0.859,0.1378,0.9676,0.0951,-0.0179,-0.0291,0.0319,0.005,0.0112,-0.0171
0.86,0.1361,0.965,0.0985,-0.0179,-0.0291,0.0319,0.005,0.0112,-0.0171
0.861,0.1353,0.965,0.1034,-0.0179,-0.0291,0.0319,0.005,0.0112,-0.0171
0.864,0.1348,0.9637,0.1105,-0.0179,-0.0291,0.0319,0.005,0.0112,-0.0171
0.865,0.1346,0.9613,0.1139,-0.0179,-0.0291,0.0319,0.005,0.0112,-0.0171
0.87,0.1375,0.9593,0.1193,-0.0179,-0.0291,0.0319,0.005,0.0112,-0.0171
0.87,0.1424,0.9564,0.1217,-0.0179,-0.0291,0.0319,0.005,0.0112,-0.0171
0.875,0.1456,0.9552,0.1266,-0.0179,-0.0291,0.0319,0.005,0.0112,-0.0171
0.875,0.1505,0.9562,0.132,-0.0179,-0.0291,0.0319,0.005,0.0112,-0.0171
0.88,0.1598,0.9513,0.1357,-0.0179,-0.0291,0.0319,0.005,0.0112,-0.0171
0.881,0.1666,0.9542,0.1369,-0.0179,-0.0291,0.0319,0.005,0.0112,-0.0171
0.884,0.1752,0.9552,0.1359,-0.0179,-0.0291,0.0319,0.005,0.0112,-0.0171
0.884,0.1864,0.9566,0.1345,-0.0179,-0.0291,0.0319,0.005,0.0112,-0.0171
0.888,0.1984,0.9559,0.1369,-0.0179,-0.0291,0.0319,0.005,0.0112,-0.0171
0.889,0.2079,0.9576,0.1371,-0.0179,-0.0291,0.0319,0.005,0.0112,-0.0171
0.894,0.2189,0.9581,0.1381,-0.0179,-0.0291,0.0319,0.005,0.0112,-0.0171
0.895,0.2311,0.9591,0.1352,-0.0179,-0.0291,0.0319,0.005,0.0112,-0.0171
0.899,0.2416,0.9598,0.1352,-0.0179,-0.0291,0.0319,0.005,0.0112,-0.0171
0.9,0.255,0.9593,0.1347,-0.0179,-0.0291,0.0319,0.005,0.0112,-0.0171
0.903,0.2658,0.9571,0.1354,-0.0179,-0.0291,0.0319,0.005,0.0112,-0.0171
0.904,0.2792,0.9569,0.1369,-0.0179,-0.0291,0.0319,0.005,0.0112,-0.0171
0.909,0.287,0.9557,0.1366,-0.0179,-0.0291,0.0319,0.005,0.0112,-0.0171
0.91,0.2956,0.9564,0.1354,-0.0179,-0.0291,0.0319,0.005,0.0112,-0.0171
0.914,0.301,0.9593,0.1288,-0.0179,-0.0291,0.0319,0.005,0.0112,-0.0171
0.915,0.3046,0.9608,0.1235,-0.0179,-0.0291,0.0319,0.005,0.0112,-0.0171
0.918,0.3046,0.9608,0.1235,-0.0179,-0.0291,0.0319,0.0276,-0.0008,-0.0315
0.919,0.3041,0.962,0.1249,-0.0179,-0.0291,0.0319,0.0276,-0.0008,-0.0315
0.919,0.3029,0.9608,0.1217,-0.0179,-0.0291,0.0319,0.0276,-0.0008,-0.0315
0.925,0.2968,0.9584,0.1257,-0.0179,-0.0291,0.0319,0.0276,-0.0008,-0.0315
0.926,0.289,0.9564,0.1298,-0.0179,-0.0291,0.0319,0.0276,-0.0008,-0.0315
0.928,0.2751,0.9525,0.1301,-0.0179,-0.0291,0.0319,0.0276,-0.0008,-0.0315
0.929,0.2751,0.9525,0.1301,0.1235,-0.0226,0.0734,0.0276,-0.0008,-0.0315
0.929,0.2602,0.9505,0.1259,0.1235,-0.0226,0.0734,0.0276,-0.0008,-0.0315
0.934,0.2431,0.9483,0.1235,0.1235,-0.0226,0.0734,0.0276,-0.0008,-0.0315
0.934,0.2265,0.954,0.1213,0.1235,-0.0226,0.0734,0.0276,-0.0008,-0.0315
0.938,0.2062,0.9564,0.1164,0.1235,-0.0226,0.0734,0.0276,-0.0008,-0.0315
0.938,0.1876,0.9596,0.112,0.1235,-0.0226,0.0734,0.0276,-0.0008,-0.0315
0.943,0.1715,0.9608,0.1086,0.1235,-0.0226,0.0734,0.0276,-0.0008,-0.0315
0.943,0.1566,0.964,0.1042,0.1235,-0.0226,0.0734,0.0276,-0.0008,-0.0315
0.947,0.1449,0.9642,0.1015,0.1235,-0.0226,0.0734,0.0276,-0.0008,-0.0315
0.948,0.1327,0.9667,0.102,0.1235,-0.0226,0.0734,0.0276,-0.0008,-0.0315
0.953,0.1199,0.9671,0.1042,0.1235,-0.0226,0.0734,0.0276,-0.0008,-0.0315
0.954,0.1068,0.9686,0.1017,0.1235,-0.0226,0.0734,0.0276,-0.0008,-0.0315
0.956,0.097,0.9662,0.0998,0.1235,-0.0226,0.0734,0.0276,-0.0008,-0.0315
0.96,0.0853,0.9676,0.0961,0.1235,-0.0226,0.0734,0.0276,-0.0008,-0.0315
0.96,0.0774,0.9679,0.0924,0.1235,-0.0226,0.0734,0.0276,-0.0008,-0.0315
0.965,0.0689,0.9664,0.0861,0.1235,-0.0226,0.0734,0.0276,-0.0008,-0.0315
0.966,0.0655,0.9671,0.0839,0.1235,-0.0226,0.0734,0.0276,-0.0008,-0.0315
0.969,0.063,0.9659,0.0795,0.1235,-0.0226,0.0734,0.0276,-0.0008,-0.0315
0.97,0.0645,0.9674,0.0748,0.1235,-0.0226,0.0734,0.0276,-0.0008,-0.0315
0.974,0.0628,0.9703,0.0663,0.1235,-0.0226,0.0734,0.0276,-0.0008,-0.0315
0.975,0.0669,0.9723,0.0595,0.1235,-0.0226,0.0734,0.0276,-0.0008,-0.0315
0.981,0.0718,0.9728,0.0551,0.1235,-0.0226,0.0734,0.0276,-0.0008,-0.0315
0.981,0.0782,0.974,0.0472,0.1235,-0.0226,0.0734,0.0276,-0.0008,-0.0315
0.984,0.086,0.9742,0.0443,0.1235,-0.0226,0.0734,0.0276,-0.0008,-0.0315
0.984,0.086,0.9742,0.0443,0.1235,-0.0226,0.0734,0.0924,0.252,-0.0616
0.985,0.0953,0.9715,0.0433,0.1235,-0.0226,0.0734,0.0924,0.252,-0.0616
0.99,0.1055,0.9684,0.0397,0.1235,-0.0226,0.0734,0.0924,0.252,-0.0616
0.991,0.1131,0.9669,0.0348,0.1235,-0.0226,0.0734,0.0924,0.252,-0.0616
0.993,0.1199,0.9679,0.0296,0.1235,-0.0226,0.0734,0.0924,0.252,-0.0616
0.994,0.1273,0.9674,0.0226,0.1235,-0.0226,0.0734,0.0924,0.252,-0.0616
0.998,0.1307,0.9689,0.015,0.1235,-0.0226,0.0734,0.0924,0.252,-0.0616
0.999,0.1307,0.9689,0.015,0.603,-0.2328,0.4426,0.0924,0.252,-0.0616
1,0.1351,0.9718,0.0089,0.603,-0.2328,0.4426,0.0924,0.252,-0.0616
1.004,0.1375,0.9755,0.0013,0.603,-0.2328,0.4426,0.0924,0.252,-0.0616
1.004,0.1395,0.9777,-0.0065,0.603,-0.2328,0.4426,0.0924,0.252,-0.0616
1.009,0.1427,0.9833,-0.0109,0.603,-0.2328,0.4426,0.0924,0.252,-0.0616
1.01,0.1446,0.9882,-0.0177,0.603,-0.2328,0.4426,0.0924,0.252,-0.0616
1.014,0.151,0.9913,-0.0202,0.603,-0.2328,0.4426,0.0924,0.252,-0.0616
1.014,0.1561,0.9926,-0.0212,0.603,-0.2328,0.4426,0.0924,0.252,-0.0616
1.018,0.1625,0.995,-0.0199,0.603,-0.2328,0.4426,0.0924,0.252,-0.0616
1.019,0.1659,0.9982,-0.0195,0.603,-0.2328,0.4426,0.0924,0.252,-0.0616
1.023,0.1681,0.9996,-0.0177,0.603,-0.2328,0.4426,0.0924,0.252,-0.0616
1.024,0.1681,1.005,-0.0146,0.603,-0.2328,0.4426,0.0924,0.252,-0.0616
1.028,0.1703,1.0092,-0.0131,0.603,-0.2328,0.4426,0.0924,0.252,-0.0616
1.029,0.1664,1.0167,-0.0048,0.603,-0.2328,0.4426,0.0924,0.252,-0.0616
1.033,0.1629,1.0197,0.004,0.603,-0.2328,0.4426,0.0924,0.252,-0.0616
1.034,0.161,1.0219,0.0089,0.603,-0.2328,0.4426,0.0924,0.252,-0.0616
1.037,0.1549,1.0248,0.015,0.603,-0.2328,0.4426,0.0924,0.252,-0.0616
1.038,0.1473,1.0294,0.0199,0.603,-0.2328,0.4426,0.0924,0.252,-0.0616
1.043,0.1385,1.0334,0.0221,0.603,-0.2328,0.4426,0.0924,0.252,-0.0616
1.043,0.129,1.0378,0.0282,0.603,-0.2328,0.4426,0.0924,0.252,-0.0616
1.049,0.1202,1.0395,0.0282,0.603,-0.2328,0.4426,0.0924,0.252,-0.0616
1.05,0.1153,1.0417,0.0323,0.603,-0.2328,0.4426,0.0924,0.252,-0.0616
1.052,0.1153,1.0417,0.0323,0.603,-0.2328,0.4426,0.0154,0.06,-0.051
1.053,0.1104,1.0434,0.0328,0.603,-0.2328,0.4426,0.0154,0.06,-0.051
1.054,0.1063,1.0446,0.037,0.603,-0.2328,0.4426,0.0154,0.06,-0.051
1.058,0.1021,1.047,0.034,0.603,-0.2328,0.4426,0.0154,0.06,-0.051
1.06,0.1011,1.0483,0.0326,0.603,-0.2328,0.4426,0.0154,0.06,-0.051
1.062,0.1004,1.0507,0.0292,0.603,-0.2328,0.4426,0.0154,0.06,-0.051
1.063,0.1014,1.0541,0.026,0.603,-0.2328,0.4426,0.0154,0.06,-0.051
1.068,0.1014,1.0541,0.026,-0.3879,-0.1348,-0.0736,0.0154,0.06,-0.051
1.069,0.1041,1.0524,0.0245,-0.3879,-0.1348,-0.0736,0.0154,0.06,-0.051
1.07,0.1072,1.0517,0.0206,-0.3879,-0.1348,-0.0736,0.0154,0.06,-0.051
1.073,0.1134,1.047,0.0177,-0.3879,-0.1348,-0.0736,0.0154,0.06,-0.051
1.073,0.1187,1.0434,0.0152,-0.3879,-0.1348,-0.0736,0.0154,0.06,-0.051
1.076,0.1246,1.0419,0.013,-0.3879,-0.1348,-0.0736,0.0154,0.06,-0.051
1.077,0.1322,1.0385,0.0062,-0.3879,-0.1348,-0.0736,0.0154,0.06,-0.051
1.081,0.1432,1.0343,0.0035,-0.3879,-0.1348,-0.0736,0.0154,0.06,-0.051
1.082,0.1505,1.0334,-0.0006,-0.3879,-0.1348,-0.0736,0.0154,0.06,-0.051
1.087,0.1598,1.0346,-0.0092,-0.3879,-0.1348,-0.0736,0.0154,0.06,-0.051
1.088,0.1666,1.0338,-0.0121,-0.3879,-0.1348,-0.0736,0.0154,0.06,-0.051
1.094,0.1737,1.0334,-0.0207,-0.3879,-0.1348,-0.0736,0.0154,0.06,-0.051
1.095,0.1825,1.0331,-0.0243,-0.3879,-0.1348,-0.0736,0.0154,0.06,-0.051
1.096,0.191,1.0314,-0.0258,-0.3879,-0.1348,-0.0736,0.0154,0.06,-0.051
1.097,0.1984,1.0309,-0.0319,-0.3879,-0.1348,-0.0736,0.0154,0.06,-0.051
1.103,0.2018,1.0321,-0.0353,-0.3879,-0.1348,-0.0736,0.0154,0.06,-0.051
1.103,0.2037,1.0316,-0.0419,-0.3879,-0.1348,-0.0736,0.0154,0.06,-0.051
1.106,0.2035,1.0336,-0.0458,-0.3879,-0.1348,-0.0736,0.0154,0.06,-0.051
1.107,0.2057,1.0336,-0.0524,-0.3879,-0.1348,-0.0736,0.0154,0.06,-0.051
1.111,0.2052,1.0351,-0.0607,-0.3879,-0.1348,-0.0736,0.0154,0.06,-0.051
1.112,0.2042,1.037,-0.0659,-0.3879,-0.1348,-0.0736,0.0154,0.06,-0.051
1.115,0.2003,1.0392,-0.0681,-0.3879,-0.1348,-0.0736,0.0154,0.06,-0.051
1.116,0.1971,1.0402,-0.0764,-0.3879,-0.1348,-0.0736,0.0154,0.06,-0.051
1.121,0.1954,1.0409,-0.08,-0.3879,-0.1348,-0.0736,0.0154,0.06,-0.051
1.122,0.1954,1.0409,-0.08,-0.3879,-0.1348,-0.0736,-0.1227,0.047,-0.0562
1.123,0.1898,1.0387,-0.0781,-0.3879,-0.1348,-0.0736,-0.1227,0.047,-0.0562
1.126,0.1883,1.0373,-0.0788,-0.3879,-0.1348,-0.0736,-0.1227,0.047,-0.0562
1.127,0.1857,1.0358,-0.0796,-0.3879,-0.1348,-0.0736,-0.1227,0.047,-0.0562
1.131,0.1842,1.0329,-0.0788,-0.3879,-0.1348,-0.0736,-0.1227,0.047,-0.0562
1.132,0.1788,1.0326,-0.0796,-0.3879,-0.1348,-0.0736,-0.1227,0.047,-0.0562
1.14,0.1798,1.0326,-0.0798,-0.3879,-0.1348,-0.0736,-0.1227,0.047,-0.0562
1.141,0.1798,1.0326,-0.0798,-0.1325,0.3477,-0.8041,-0.1227,0.047,-0.0562
1.142,0.1732,1.0334,-0.0783,-0.1325,0.3477,-0.8041,-0.1227,0.047,-0.0562
1.142,0.1722,1.0368,-0.08,-0.1325,0.3477,-0.8041,-0.1227,0.047,-0.0562
1.143,0.1717,1.038,-0.0761,-0.1325,0.3477,-0.8041,-0.1227,0.047,-0.0562
1.145,0.1681,1.04,-0.0769,-0.1325,0.3477,-0.8041,-0.1227,0.047,-0.0562
1.145,0.1642,1.039,-0.0752,-0.1325,0.3477,-0.8041,-0.1227,0.047,-0.0562
1.15,0.1595,1.0395,-0.0783,-0.1325,0.3477,-0.8041,-0.1227,0.047,-0.0562
1.15,0.1529,1.0414,-0.08,-0.1325,0.3477,-0.8041,-0.1227,0.047,-0.0562
1.155,0.1444,1.0424,-0.0761,-0.1325,0.3477,-0.8041,-0.1227,0.047,-0.0562
1.155,0.1356,1.0424,-0.0761,-0.1325,0.3477,-0.8041,-0.1227,0.047,-0.0562
1.16,0.1256,1.0426,-0.0752,-0.1325,0.3477,-0.8041,-0.1227,0.047,-0.0562
1.16,0.1151,1.0417,-0.0725,-0.1325,0.3477,-0.8041,-0.1227,0.047,-0.0562
1.164,0.1082,1.0404,-0.0727,-0.1325,0.3477,-0.8041,-0.1227,0.047,-0.0562
1.164,0.0965,1.0417,-0.0717,-0.1325,0.3477,-0.8041,-0.1227,0.047,-0.0562
1.17,0.0848,1.0414,-0.0715,-0.1325,0.3477,-0.8041,-0.1227,0.047,-0.0562
1.171,0.0748,1.0421,-0.0693,-0.1325,0.3477,-0.8041,-0.1227,0.047,-0.0562
1.174,0.0647,1.0439,-0.0703,-0.1325,0.3477,-0.8041,-0.1227,0.047,-0.0562
1.174,0.0537,1.0451,-0.071,-0.1325,0.3477,-0.8041,-0.1227,0.047,-0.0562
1.179,0.044,1.0485,-0.0761,-0.1325,0.3477,-0.8041,-0.1227,0.047,-0.0562
1.179,0.033,1.0522,-0.0764,-0.1325,0.3477,-0.8041,-0.1227,0.047,-0.0562
1.184,0.0208,1.0575,-0.0805,-0.1325,0.3477,-0.8041,-0.1227,0.047,-0.0562
1.185,0.0098,1.0634,-0.0842,-0.1325,0.3477,-0.8041,-0.1227,0.047,-0.0562
1.189,-0.001,1.0698,-0.0896,-0.1325,0.3477,-0.8041,-0.1227,0.047,-0.0562
1.189,-0.0144,1.0754,-0.0969,-0.1325,0.3477,-0.8041,-0.1227,0.047,-0.0562
1.189,-0.0144,1.0754,-0.0969,-0.1325,0.3477,-0.8041,-0.3032,0.2453,-0.0146
1.193,-0.0235,1.0829,-0.1047,-0.1325,0.3477,-0.8041,-0.3032,0.2453,-0.0146
1.194,-0.0347,1.0898,-0.1101,-0.1325,0.3477,-0.8041,-0.3032,0.2453,-0.0146
1.199,-0.0464,1.0952,-0.1199,-0.1325,0.3477,-0.8041,-0.3032,0.2453,-0.0146
1.199,-0.0569,1.1042,-0.1257,-0.1325,0.3477,-0.8041,-0.3032,0.2453,-0.0146
1.203,-0.0677,1.113,-0.1323,-0.1325,0.3477,-0.8041,-0.3032,0.2453,-0.0146
1.204,-0.0677,1.113,-0.1323,0.2225,0.5226,-1.409,-0.3032,0.2453,-0.0146
1.204,-0.0762,1.1228,-0.1375,0.2225,0.5226,-1.409,-0.3032,0.2453,-0.0146
1.209,-0.0877,1.1323,-0.1428,0.2225,0.5226,-1.409,-0.3032,0.2453,-0.0146
1.21,-0.0955,1.1401,-0.1509,0.2225,0.5226,-1.409,-0.3032,0.2453,-0.0146
1.214,-0.105,1.1487,-0.1577,0.2225,0.5226,-1.409,-0.3032,0.2453,-0.0146
1.214,-0.1112,1.1584,-0.1592,0.2225,0.5226,-1.409,-0.3032,0.2453,-0.0146
1.219,-0.12,1.166,-0.1611,0.2225,0.5226,-1.409,-0.3032,0.2453,-0.0146
1.22,-0.1253,1.1768,-0.1638,0.2225,0.5226,-1.409,-0.3032,0.2453,-0.0146
1.223,-0.1349,1.188,-0.1636,0.2225,0.5226,-1.409,-0.3032,0.2453,-0.0146
1.223,-0.1419,1.1953,-0.1597,0.2225,0.5226,-1.409,-0.3032,0.2453,-0.0146
1.228,-0.149,1.2056,-0.1555,0.2225,0.5226,-1.409,-0.3032,0.2453,-0.0146
1.229,-0.1593,1.2151,-0.1524,0.2225,0.5226,-1.409,-0.3032,0.2453,-0.0146
1.233,-0.1676,1.2232,-0.146,0.2225,0.5226,-1.409,-0.3032,0.2453,-0.0146
1.234,-0.1781,1.232,-0.1404,0.2225,0.5226,-1.409,-0.3032,0.2453,-0.0146
1.237,-0.1884,1.2398,-0.1323,0.2225,0.5226,-1.409,-0.3032,0.2453,-0.0146
1.238,-0.1962,1.2478,-0.1252,0.2225,0.5226,-1.409,-0.3032,0.2453,-0.0146
1.242,-0.2057,1.2547,-0.1182,0.2225,0.5226,-1.409,-0.3032,0.2453,-0.0146
1.243,-0.2152,1.2647,-0.1111,0.2225,0.5226,-1.409,-0.3032,0.2453,-0.0146
1.249,-0.2228,1.2701,-0.0979,0.2225,0.5226,-1.409,-0.3032,0.2453,-0.0146
1.25,-0.2255,1.2759,-0.0888,0.2225,0.5226,-1.409,-0.3032,0.2453,-0.0146
1.252,-0.2282,1.2801,-0.081,0.2225,0.5226,-1.409,-0.3032,0.2453,-0.0146
1.253,-0.2299,1.2806,-0.0715,0.2225,0.5226,-1.409,-0.3032,0.2453,-0.0146
1.258,-0.2272,1.2833,-0.0673,0.2225,0.5226,-1.409,-0.3032,0.2453,-0.0146
1.259,-0.2272,1.2833,-0.0673,0.2225,0.5226,-1.409,-0.6237,0.3531,0.3272
1.259,-0.2282,1.2847,-0.0625,0.2225,0.5226,-1.409,-0.6237,0.3531,0.3272
1.263,-0.227,1.283,-0.0549,0.2225,0.5226,-1.409,-0.6237,0.3531,0.3272
1.264,-0.224,1.282,-0.0444,0.2225,0.5226,-1.409,-0.6237,0.3531,0.3272
1.267,-0.2174,1.2786,-0.0297,0.2225,0.5226,-1.409,-0.6237,0.3531,0.3272
1.267,-0.213,1.2735,-0.0158,0.2225,0.5226,-1.409,-0.6237,0.3531,0.3272
1.272,-0.213,1.2735,-0.0158,-0.9812,0.7693,-2.2279,-0.6237,0.3531,0.3272
1.273,-0.2057,1.2674,0.0072,-0.9812,0.7693,-2.2279,-0.6237,0.3531,0.3272
1.273,-0.1957,1.2635,0.0299,-0.9812,0.7693,-2.2279,-0.6237,0.3531,0.3272
1.277,-0.1822,1.2593,0.0563,-0.9812,0.7693,-2.2279,-0.6237,0.3531,0.3272
1.278,-0.1703,1.2532,0.0839,-0.9812,0.7693,-2.2279,-0.6237,0.3531,0.3272
1.282,-0.1571,1.251,0.1108,-0.9812,0.7693,-2.2279,-0.6237,0.3531,0.3272
1.283,-0.1427,1.2525,0.1374,-0.9812,0.7693,-2.2279,-0.6237,0.3531,0.3272
1.287,-0.1263,1.2574,0.1613,-0.9812,0.7693,-2.2279,-0.6237,0.3531,0.3272
1.287,-0.1094,1.2593,0.184,-0.9812,0.7693,-2.2279,-0.6237,0.3531,0.3272
1.293,-0.0887,1.2684,0.2085,-0.9812,0.7693,-2.2279,-0.6237,0.3531,0.3272
1.294,-0.0662,1.282,0.2309,-0.9812,0.7693,-2.2279,-0.6237,0.3531,0.3272
1.297,-0.0413,1.2955,0.2512,-0.9812,0.7693,-2.2279,-0.6237,0.3531,0.3272
1.297,-0.0142,1.3077,0.2649,-0.9812,0.7693,-2.2279,-0.6237,0.3531,0.3272
1.302,0.0142,1.3194,0.2757,-0.9812,0.7693,-2.2279,-0.6237,0.3531,0.3272
1.302,0.0471,1.3297,0.2805,-0.9812,0.7693,-2.2279,-0.6237,0.3531,0.3272
1.306,0.0801,1.336,0.2801,-0.9812,0.7693,-2.2279,-0.6237,0.3531,0.3272
1.307,0.1121,1.3421,0.271,-0.9812,0.7693,-2.2279,-0.6237,0.3531,0.3272
1.312,0.138,1.3429,0.262,-0.9812,0.7693,-2.2279,-0.6237,0.3531,0.3272
1.313,0.1642,1.3429,0.2454,-0.9812,0.7693,-2.2279,-0.6237,0.3531,0.3272
1.316,0.1835,1.3424,0.2287,-0.9812,0.7693,-2.2279,-0.6237,0.3531,0.3272
1.317,0.1981,1.3392,0.2163,-0.9812,0.7693,-2.2279,-0.6237,0.3531,0.3272
1.32,0.2113,1.337,0.2053,-0.9812,0.7693,-2.2279,-0.6237,0.3531,0.3272
1.321,0.2208,1.3363,0.2016,-0.9812,0.7693,-2.2279,-0.6237,0.3531,0.3272
1.326,0.2208,1.3363,0.2016,-0.9812,0.7693,-2.2279,-0.8664,0.3349,0.9824
1.327,0.2269,1.3355,0.2055,-0.9812,0.7693,-2.2279,-0.8664,0.3349,0.9824
1.327,0.2338,1.339,0.2185,-0.9812,0.7693,-2.2279,-0.8664,0.3349,0.9824
1.331,0.2389,1.3487,0.2253,-0.9812,0.7693,-2.2279,-0.8664,0.3349,0.9824
1.332,0.2445,1.3578,0.2395,-0.9812,0.7693,-2.2279,-0.8664,0.3349,0.9824
1.338,0.247,1.3661,0.2454,-0.9812,0.7693,-2.2279,-0.8664,0.3349,0.9824
1.339,0.2484,1.3746,0.2419,-0.9812,0.7693,-2.2279,-0.8664,0.3349,0.9824
1.34,0.244,1.3759,0.2353,-0.9812,0.7693,-2.2279,-0.8664,0.3349,0.9824
1.341,0.237,1.3788,0.2168,-0.9812,0.7693,-2.2279,-0.8664,0.3349,0.9824
1.342,0.237,1.3788,0.2168,-3.8119,2.5497,-2.907,-0.8664,0.3349,0.9824
1.345,0.2279,1.3783,0.1943,-3.8119,2.5497,-2.907,-0.8664,0.3349,0.9824
1.346,0.2177,1.3734,0.1709,-3.8119,2.5497,-2.907,-0.8664,0.3349,0.9824
1.35,0.2059,1.3663,0.1486,-3.8119,2.5497,-2.907,-0.8664,0.3349,0.9824
1.351,0.1901,1.3566,0.1301,-3.8119,2.5497,-2.907,-0.8664,0.3349,0.9824
1.355,0.171,1.3453,0.1127,-3.8119,2.5497,-2.907,-0.8664,0.3349,0.9824
1.356,0.15,1.3324,0.102,-3.8119,2.5497,-2.907,-0.8664,0.3349,0.9824
1.36,0.1265,1.317,0.0963,-3.8119,2.5497,-2.907,-0.8664,0.3349,0.9824
1.36,0.0984,1.3009,0.0985,-3.8119,2.5497,-2.907,-0.8664,0.3349,0.9824
1.365,0.0704,1.2874,0.1042,-3.8119,2.5497,-2.907,-0.8664,0.3349,0.9824
1.366,0.0398,1.2747,0.1134,-3.8119,2.5497,-2.907,-0.8664,0.3349,0.9824
1.37,0.0039,1.2649,0.1264,-3.8119,2.5497,-2.907,-0.8664,0.3349,0.9824
1.371,-0.0301,1.2623,0.132,-3.8119,2.5497,-2.907,-0.8664,0.3349,0.9824
1.376,-0.066,1.2693,0.1459,-3.8119,2.5497,-2.907,-0.8664,0.3349,0.9824
1.376,-0.1026,1.2813,0.1589,-3.8119,2.5497,-2.907,-0.8664,0.3349,0.9824
1.381,-0.1329,1.3023,0.1682,-3.8119,2.5497,-2.907,-0.8664,0.3349,0.9824
1.382,-0.1488,1.3324,0.1765,-3.8119,2.5497,-2.907,-0.8664,0.3349,0.9824
1.384,-0.1493,1.3656,0.1902,-3.8119,2.5497,-2.907,-0.8664,0.3349,0.9824
1.385,-0.1273,1.4022,0.2031,-3.8119,2.5497,-2.907,-0.8664,0.3349,0.9824
1.389,-0.0816,1.4384,0.2092,-3.8119,2.5497,-2.907,-0.8664,0.3349,0.9824
1.389,-0.01,1.4709,0.2121,-3.8119,2.5497,-2.907,-0.8664,0.3349,0.9824
1.394,-0.01,1.4709,0.2121,-3.8119,2.5497,-2.907,-0.9096,-0.1002,1.0695
1.395,0.0804,1.4926,0.2104,-3.8119,2.5497,-2.907,-0.9096,-0.1002,1.0695
1.396,0.1881,1.5,0.1997,-3.8119,2.5497,-2.907,-0.9096,-0.1002,1.0695
1.399,0.3005,1.498,0.1833,-3.8119,2.5497,-2.907,-0.9096,-0.1002,1.0695
1.4,0.4058,1.4824,0.1743,-3.8119,2.5497,-2.907,-0.9096,-0.1002,1.0695
1.405,0.5006,1.4594,0.1643,-3.8119,2.5497,-2.907,-0.9096,-0.1002,1.0695
1.406,0.5802,1.4279,0.1474,-3.8119,2.5497,-2.907,-0.9096,-0.1002,1.0695
1.409,0.6427,1.4013,0.1357,-3.8119,2.5497,-2.907,-0.9096,-0.1002,1.0695
1.409,0.6845,1.3715,0.1254,-3.8119,2.5497,-2.907,-0.9096,-0.1002,1.0695
1.41,0.6845,1.3715,0.1254,-2.1696,3.5522,-0.3375,-0.9096,-0.1002,1.0695
1.415,0.7124,1.3375,0.121,-2.1696,3.5522,-0.3375,-0.9096,-0.1002,1.0695
1.416,0.7295,1.3082,0.1261,-2.1696,3.5522,-0.3375,-0.9096,-0.1002,1.0695
1.419,0.7344,1.2786,0.142,-2.1696,3.5522,-0.3375,-0.9096,-0.1002,1.0695
1.42,0.7221,1.2469,0.1557,-2.1696,3.5522,-0.3375,-0.9096,-0.1002,1.0695
1.424,0.7151,1.21,0.1735,-2.1696,3.5522,-0.3375,-0.9096,-0.1002,1.0695
1.425,0.7011,1.1753,0.1875,-2.1696,3.5522,-0.3375,-0.9096,-0.1002,1.0695
1.428,0.6796,1.1426,0.1987,-2.1696,3.5522,-0.3375,-0.9096,-0.1002,1.0695
1.428,0.654,1.112,0.1997,-2.1696,3.5522,-0.3375,-0.9096,-0.1002,1.0695
1.433,0.6237,1.0856,0.1899,-2.1696,3.5522,-0.3375,-0.9096,-0.1002,1.0695
1.434,0.5912,1.0636,0.176,-2.1696,3.5522,-0.3375,-0.9096,-0.1002,1.0695
1.438,0.5563,1.0465,0.1569,-2.1696,3.5522,-0.3375,-0.9096,-0.1002,1.0695
1.439,0.5233,1.0334,0.1391,-2.1696,3.5522,-0.3375,-0.9096,-0.1002,1.0695
1.443,0.4959,1.0275,0.1274,-2.1696,3.5522,-0.3375,-0.9096,-0.1002,1.0695
1.443,0.4744,1.0224,0.1249,-2.1696,3.5522,-0.3375,-0.9096,-0.1002,1.0695
1.449,0.4617,1.0224,0.1237,-2.1696,3.5522,-0.3375,-0.9096,-0.1002,1.0695
1.45,0.4559,1.025,0.1281,-2.1696,3.5522,-0.3375,-0.9096,-0.1002,1.0695
1.453,0.4583,1.0263,0.141,-2.1696,3.5522,-0.3375,-0.9096,-0.1002,1.0695
1.453,0.4673,1.0265,0.1616,-2.1696,3.5522,-0.3375,-0.9096,-0.1002,1.0695
1.459,0.4842,1.0243,0.1848,-2.1696,3.5522,-0.3375,-0.9096,-0.1002,1.0695
1.46,0.5003,1.0199,0.2068,-2.1696,3.5522,-0.3375,-0.9096,-0.1002,1.0695
1.463,0.5003,1.0199,0.2068,-2.1696,3.5522,-0.3375,-1.0725,-0.5312,1.9117
1.464,0.5221,1.0089,0.2305,-2.1696,3.5522,-0.3375,-1.0725,-0.5312,1.9117
1.464,0.5443,0.9987,0.2493,-2.1696,3.5522,-0.3375,-1.0725,-0.5312,1.9117
1.468,0.5631,0.9791,0.2713,-2.1696,3.5522,-0.3375,-1.0725,-0.5312,1.9117
1.468,0.5802,0.9606,0.2888,-2.1696,3.5522,-0.3375,-1.0725,-0.5312,1.9117
1.472,0.5895,0.9351,0.3077,-2.1696,3.5522,-0.3375,-1.0725,-0.5312,1.9117
1.473,0.5917,0.9122,0.3245,-2.1696,3.5522,-0.3375,-1.0725,-0.5312,1.9117
1.477,0.5917,0.9122,0.3245,-2.6551,4.4998,-1.3048,-1.0725,-0.5312,1.9117
1.478,0.588,0.887,0.3426,-2.6551,4.4998,-1.3048,-1.0725,-0.5312,1.9117
1.478,0.5809,0.8667,0.3609,-2.6551,4.4998,-1.3048,-1.0725,-0.5312,1.9117
1.482,0.5663,0.8465,0.3709,-2.6551,4.4998,-1.3048,-1.0725,-0.5312,1.9117
1.483,0.5489,0.8311,0.379,-2.6551,4.4998,-1.3048,-1.0725,-0.5312,1.9117
1.487,0.5274,0.8184,0.3834,-2.6551,4.4998,-1.3048,-1.0725,-0.5312,1.9117
1.488,0.505,0.812,0.389,-2.6551,4.4998,-1.3048,-1.0725,-0.5312,1.9117
1.492,0.483,0.8079,0.3915,-2.6551,4.4998,-1.3048,-1.0725,-0.5312,1.9117
1.493,0.462,0.8076,0.3936,-2.6551,4.4998,-1.3048,-1.0725,-0.5312,1.9117
1.496,0.4392,0.8071,0.3971,-2.6551,4.4998,-1.3048,-1.0725,-0.5312,1.9117
1.497,0.4195,0.8115,0.3976,-2.6551,4.4998,-1.3048,-1.0725,-0.5312,1.9117
1.502,0.4011,0.8157,0.4015,-2.6551,4.4998,-1.3048,-1.0725,-0.5312,1.9117
1.502,0.3889,0.8215,0.4022,-2.6551,4.4998,-1.3048,-1.0725,-0.5312,1.9117
1.506,0.3811,0.8262,0.4002,-2.6551,4.4998,-1.3048,-1.0725,-0.5312,1.9117
1.507,0.3743,0.8323,0.398,-2.6551,4.4998,-1.3048,-1.0725,-0.5312,1.9117
1.511,0.3723,0.8387,0.3936,-2.6551,4.4998,-1.3048,-1.0725,-0.5312,1.9117
1.512,0.3752,0.8416,0.3966,-2.6551,4.4998,-1.3048,-1.0725,-0.5312,1.9117
1.516,0.3799,0.8428,0.4002,-2.6551,4.4998,-1.3048,-1.0725,-0.5312,1.9117
1.517,0.3892,0.8426,0.4044,-2.6551,4.4998,-1.3048,-1.0725,-0.5312,1.9117
1.521,0.3994,0.8391,0.4107,-2.6551,4.4998,-1.3048,-1.0725,-0.5312,1.9117
1.522,0.4087,0.8296,0.4147,-2.6551,4.4998,-1.3048,-1.0725,-0.5312,1.9117
1.527,0.419,0.8196,0.423,-2.6551,4.4998,-1.3048,-1.0725,-0.5312,1.9117
1.528,0.43,0.803,0.4286,-2.6551,4.4998,-1.3048,-1.0725,-0.5312,1.9117
1.531,0.43,0.803,0.4286,-2.6551,4.4998,-1.3048,-0.9509,-0.7306,1.4497
1.532,0.4395,0.7851,0.4347,-2.6551,4.4998,-1.3048,-0.9509,-0.7306,1.4497
1.532,0.4497,0.76,0.4406,-2.6551,4.4998,-1.3048,-0.9509,-0.7306,1.4497
1.537,0.461,0.736,0.4423,-2.6551,4.4998,-1.3048,-0.9509,-0.7306,1.4497
1.538,0.4759,0.7111,0.4391,-2.6551,4.4998,-1.3048,-0.9509,-0.7306,1.4497
1.542,0.4957,0.6847,0.4344,-2.6551,4.4998,-1.3048,-0.9509,-0.7306,1.4497
1.542,0.5167,0.6598,0.4308,-2.6551,4.4998,-1.3048,-0.9509,-0.7306,1.4497
1.546,0.5352,0.632,0.4232,-2.6551,4.4998,-1.3048,-0.9509,-0.7306,1.4497
1.547,0.5572,0.6044,0.4186,-2.6551,4.4998,-1.3048,-0.9509,-0.7306,1.4497
1.547,0.5572,0.6044,0.4186,0.8355,2.1316,-1.1733,-0.9509,-0.7306,1.4497
1.55,0.5741,0.5812,0.41,0.8355,2.1316,-1.1733,-0.9509,-0.7306,1.4497
1.551,0.5888,0.5587,0.3961,0.8355,2.1316,-1.1733,-0.9509,-0.7306,1.4497
1.555,0.6032,0.5362,0.3792,0.8355,2.1316,-1.1733,-0.9509,-0.7306,1.4497
1.556,0.6171,0.5181,0.3646,0.8355,2.1316,-1.1733,-0.9509,-0.7306,1.4497
1.56,0.6278,0.5003,0.3502,0.8355,2.1316,-1.1733,-0.9509,-0.7306,1.4497
1.561,0.6405,0.4859,0.3372,0.8355,2.1316,-1.1733,-0.9509,-0.7306,1.4497
1.565,0.651,0.4715,0.326,0.8355,2.1316,-1.1733,-0.9509,-0.7306,1.4497
1.566,0.6613,0.4612,0.3138,0.8355,2.1316,-1.1733,-0.9509,-0.7306,1.4497
1.571,0.6701,0.4495,0.3052,0.8355,2.1316,-1.1733,-0.9509,-0.7306,1.4497
1.572,0.6794,0.4392,0.2964,0.8355,2.1316,-1.1733,-0.9509,-0.7306,1.4497
1.575,0.6889,0.4319,0.2864,0.8355,2.1316,-1.1733,-0.9509,-0.7306,1.4497
1.576,0.6896,0.4265,0.2803,0.8355,2.1316,-1.1733,-0.9509,-0.7306,1.4497
1.581,0.6865,0.4185,0.2732,0.8355,2.1316,-1.1733,-0.9509,-0.7306,1.4497
1.582,0.6823,0.4158,0.2651,0.8355,2.1316,-1.1733,-0.9509,-0.7306,1.4497
1.585,0.6725,0.4148,0.2576,0.8355,2.1316,-1.1733,-0.9509,-0.7306,1.4497
1.586,0.6557,0.4172,0.248,0.8355,2.1316,-1.1733,-0.9509,-0.7306,1.4497
1.589,0.6388,0.4165,0.2366,0.8355,2.1316,-1.1733,-0.9509,-0.7306,1.4497
1.59,0.6247,0.4155,0.23,0.8355,2.1316,-1.1733,-0.9509,-0.7306,1.4497
1.594,0.6085,0.4168,0.2258,0.8355,2.1316,-1.1733,-0.9509,-0.7306,1.4497
1.595,0.5963,0.4128,0.2248,0.8355,2.1316,-1.1733,-0.9509,-0.7306,1.4497
1.6,0.5963,0.4128,0.2248,0.8355,2.1316,-1.1733,-0.2492,-1.2311,0.4855
1.601,0.5863,0.4053,0.2263,0.8355,2.1316,-1.1733,-0.2492,-1.2311,0.4855
1.601,0.5839,0.396,0.2307,0.8355,2.1316,-1.1733,-0.2492,-1.2311,0.4855
1.605,0.5817,0.3845,0.2336,0.8355,2.1316,-1.1733,-0.2492,-1.2311,0.4855
1.606,0.5883,0.3713,0.2371,0.8355,2.1316,-1.1733,-0.2492,-1.2311,0.4855
1.61,0.5902,0.3547,0.2336,0.8355,2.1316,-1.1733,-0.2492,-1.2311,0.4855
1.611,0.5868,0.3393,0.2327,0.8355,2.1316,-1.1733,-0.2492,-1.2311,0.4855
1.616,0.5841,0.3234,0.2314,0.8355,2.1316,-1.1733,-0.2492,-1.2311,0.4855
1.617,0.5841,0.3234,0.2314,-0.8261,-0.5156,1.2355,-0.2492,-1.2311,0.4855
1.618,0.577,0.3051,0.2361,-0.8261,-0.5156,1.2355,-0.2492,-1.2311,0.4855
1.619,0.569,0.2905,0.2405,-0.8261,-0.5156,1.2355,-0.2492,-1.2311,0.4855
1.619,0.5607,0.2753,0.2478,-0.8261,-0.5156,1.2355,-0.2492,-1.2311,0.4855
1.624,0.5458,0.2584,0.2532,-0.8261,-0.5156,1.2355,-0.2492,-1.2311,0.4855
1.626,0.5343,0.2433,0.2595,-0.8261,-0.5156,1.2355,-0.2492,-1.2311,0.4855
1.629,0.5196,0.2338,0.2715,-0.8261,-0.5156,1.2355,-0.2492,-1.2311,0.4855
1.63,0.504,0.2223,0.2788,-0.8261,-0.5156,1.2355,-0.2492,-1.2311,0.4855
1.634,0.4903,0.2135,0.283,-0.8261,-0.5156,1.2355,-0.2492,-1.2311,0.4855
1.635,0.4749,0.2081,0.2915,-0.8261,-0.5156,1.2355,-0.2492,-1.2311,0.4855
1.638,0.461,0.203,0.2918,-0.8261,-0.5156,1.2355,-0.2492,-1.2311,0.4855
1.639,0.4436,0.1966,0.2925,-0.8261,-0.5156,1.2355,-0.2492,-1.2311,0.4855
1.643,0.4297,0.1896,0.293,-0.8261,-0.5156,1.2355,-0.2492,-1.2311,0.4855
1.644,0.4143,0.1817,0.2947,-0.8261,-0.5156,1.2355,-0.2492,-1.2311,0.4855
1.648,0.3997,0.172,0.2986,-0.8261,-0.5156,1.2355,-0.2492,-1.2311,0.4855
1.649,0.385,0.1632,0.3059,-0.8261,-0.5156,1.2355,-0.2492,-1.2311,0.4855
1.654,0.3772,0.1556,0.3079,-0.8261,-0.5156,1.2355,-0.2492,-1.2311,0.4855
1.655,0.3686,0.1466,0.3086,-0.8261,-0.5156,1.2355,-0.2492,-1.2311,0.4855
1.658,0.3616,0.1402,0.3128,-0.8261,-0.5156,1.2355,-0.2492,-1.2311,0.4855
1.658,0.3559,0.1331,0.315,-0.8261,-0.5156,1.2355,-0.2492,-1.2311,0.4855
1.663,0.3486,0.1253,0.3233,-0.8261,-0.5156,1.2355,-0.2492,-1.2311,0.4855
1.664,0.3423,0.1202,0.3311,-0.8261,-0.5156,1.2355,-0.2492,-1.2311,0.4855
1.667,0.3369,0.1126,0.337,-0.8261,-0.5156,1.2355,-0.2492,-1.2311,0.4855
1.668,0.3264,0.108,0.3502,-0.8261,-0.5156,1.2355,-0.2492,-1.2311,0.4855
1.668,0.3264,0.108,0.3502,-0.8261,-0.5156,1.2355,0.5392,-0.4905,-0.8455
1.672,0.3193,0.1065,0.3609,-0.8261,-0.5156,1.2355,0.5392,-0.4905,-0.8455
1.673,0.3024,0.1058,0.3668,-0.8261,-0.5156,1.2355,0.5392,-0.4905,-0.8455
1.678,0.2802,0.1094,0.3775,-0.8261,-0.5156,1.2355,0.5392,-0.4905,-0.8455
1.678,0.2568,0.1153,0.3858,-0.8261,-0.5156,1.2355,0.5392,-0.4905,-0.8455
1.683,0.2568,0.1153,0.3858,1.3964,-4.2938,0.576,0.5392,-0.4905,-0.8455
1.684,0.2326,0.1234,0.3912,1.3964,-4.2938,0.576,0.5392,-0.4905,-0.8455
1.685,0.2103,0.1309,0.3883,1.3964,-4.2938,0.576,0.5392,-0.4905,-0.8455
1.688,0.1901,0.1395,0.3841,1.3964,-4.2938,0.576,0.5392,-0.4905,-0.8455
1.688,0.1703,0.1468,0.3729,1.3964,-4.2938,0.576,0.5392,-0.4905,-0.8455
1.692,0.1581,0.1576,0.3592,1.3964,-4.2938,0.576,0.5392,-0.4905,-0.8455
1.693,0.1502,0.1654,0.3441,1.3964,-4.2938,0.576,0.5392,-0.4905,-0.8455
1.698,0.1483,0.1739,0.3314,1.3964,-4.2938,0.576,0.5392,-0.4905,-0.8455
1.698,0.1507,0.1815,0.3182,1.3964,-4.2938,0.576,0.5392,-0.4905,-0.8455
1.702,0.1578,0.1854,0.3084,1.3964,-4.2938,0.576,0.5392,-0.4905,-0.8455
1.703,0.1703,0.1903,0.2984,1.3964,-4.2938,0.576,0.5392,-0.4905,-0.8455
1.707,0.18,0.1957,0.2901,1.3964,-4.2938,0.576,0.5392,-0.4905,-0.8455
1.708,0.1935,0.1996,0.282,1.3964,-4.2938,0.576,0.5392,-0.4905,-0.8455
1.712,0.2037,0.2049,0.2742,1.3964,-4.2938,0.576,0.5392,-0.4905,-0.8455
1.713,0.2145,0.2103,0.2742,1.3964,-4.2938,0.576,0.5392,-0.4905,-0.8455
1.717,0.2206,0.2159,0.2666,1.3964,-4.2938,0.576,0.5392,-0.4905,-0.8455
1.717,0.2287,0.2238,0.2625,1.3964,-4.2938,0.576,0.5392,-0.4905,-0.8455
1.722,0.235,0.2289,0.2603,1.3964,-4.2938,0.576,0.5392,-0.4905,-0.8455
1.722,0.2416,0.2338,0.2593,1.3964,-4.2938,0.576,0.5392,-0.4905,-0.8455
1.727,0.2504,0.2391,0.2573,1.3964,-4.2938,0.576,0.5392,-0.4905,-0.8455
1.727,0.258,0.2443,0.2554,1.3964,-4.2938,0.576,0.5392,-0.4905,-0.8455
1.732,0.2655,0.2506,0.2561,1.3964,-4.2938,0.576,0.5392,-0.4905,-0.8455
1.732,0.2717,0.257,0.2561,1.3964,-4.2938,0.576,0.5392,-0.4905,-0.8455
1.738,0.2717,0.257,0.2561,1.3964,-4.2938,0.576,0.7687,-0.6383,-2.0026
1.739,0.2709,0.265,0.2554,1.3964,-4.2938,0.576,0.7687,-0.6383,-2.0026
1.74,0.2773,0.2773,0.2561,1.3964,-4.2938,0.576,0.7687,-0.6383,-2.0026
1.742,0.279,0.2895,0.2576,1.3964,-4.2938,0.576,0.7687,-0.6383,-2.0026
1.743,0.2795,0.3022,0.2593,1.3964,-4.2938,0.576,0.7687,-0.6383,-2.0026
1.748,0.2775,0.3171,0.2593,1.3964,-4.2938,0.576,0.7687,-0.6383,-2.0026
1.748,0.2746,0.3344,0.2576,1.3964,-4.2938,0.576,0.7687,-0.6383,-2.0026
1.751,0.2668,0.3542,0.2561,1.3964,-4.2938,0.576,0.7687,-0.6383,-2.0026
1.752,0.2668,0.3542,0.2561,0.4748,-7.2598,1.3457,0.7687,-0.6383,-2.0026
1.753,0.2616,0.3723,0.2527,0.4748,-7.2598,1.3457,0.7687,-0.6383,-2.0026
1.756,0.2484,0.394,0.249,0.4748,-7.2598,1.3457,0.7687,-0.6383,-2.0026
1.756,0.2377,0.4158,0.2498,0.4748,-7.2598,1.3457,0.7687,-0.6383,-2.0026
1.761,0.2267,0.4365,0.2517,0.4748,-7.2598,1.3457,0.7687,-0.6383,-2.0026
1.762,0.2208,0.4534,0.2542,0.4748,-7.2598,1.3457,0.7687,-0.6383,-2.0026
1.766,0.216,0.47,0.2542,0.4748,-7.2598,1.3457,0.7687,-0.6383,-2.0026
1.767,0.213,0.4881,0.2595,0.4748,-7.2598,1.3457,0.7687,-0.6383,-2.0026
1.772,0.2123,0.5035,0.2647,0.4748,-7.2598,1.3457,0.7687,-0.6383,-2.0026
1.773,0.212,0.5201,0.2727,0.4748,-7.2598,1.3457,0.7687,-0.6383,-2.0026
1.775,0.215,0.5367,0.2805,0.4748,-7.2598,1.3457,0.7687,-0.6383,-2.0026
1.776,0.2172,0.5514,0.2866,0.4748,-7.2598,1.3457,0.7687,-0.6383,-2.0026
1.78,0.2208,0.565,0.2918,0.4748,-7.2598,1.3457,0.7687,-0.6383,-2.0026
1.781,0.2272,0.5797,0.2967,0.4748,-7.2598,1.3457,0.7687,-0.6383,-2.0026
1.786,0.2316,0.5882,0.3133,0.4748,-7.2598,1.3457,0.7687,-0.6383,-2.0026
1.786,0.2433,0.5983,0.3177,0.4748,-7.2598,1.3457,0.7687,-0.6383,-2.0026
1.79,0.2563,0.6107,0.3182,0.4748,-7.2598,1.3457,0.7687,-0.6383,-2.0026
1.791,0.2663,0.6261,0.3155,0.4748,-7.2598,1.3457,0.7687,-0.6383,-2.0026
1.794,0.2751,0.6403,0.314,0.4748,-7.2598,1.3457,0.7687,-0.6383,-2.0026
1.795,0.2868,0.6554,0.3099,0.4748,-7.2598,1.3457,0.7687,-0.6383,-2.0026
1.8,0.2966,0.6672,0.3028,0.4748,-7.2598,1.3457,0.7687,-0.6383,-2.0026
1.801,0.3115,0.6821,0.2994,0.4748,-7.2598,1.3457,0.7687,-0.6383,-2.0026
1.805,0.323,0.6943,0.2972,0.4748,-7.2598,1.3457,0.7687,-0.6383,-2.0026
1.806,0.323,0.6943,0.2972,0.4748,-7.2598,1.3457,0.0939,-1.0746,-2.1684
1.806,0.3364,0.7084,0.2942,0.4748,-7.2598,1.3457,0.0939,-1.0746,-2.1684
1.81,0.3479,0.7197,0.2862,0.4748,-7.2598,1.3457,0.0939,-1.0746,-2.1684
1.811,0.3594,0.7307,0.2818,0.4748,-7.2598,1.3457,0.0939,-1.0746,-2.1684
1.814,0.3679,0.7407,0.2837,0.4748,-7.2598,1.3457,0.0939,-1.0746,-2.1684
1.815,0.3743,0.7517,0.2769,0.4748,-7.2598,1.3457,0.0939,-1.0746,-2.1684
1.819,0.3743,0.7517,0.2769,-0.1961,-6.9122,1.3125,0.0939,-1.0746,-2.1684
1.819,0.3826,0.7629,0.2715,-0.1961,-6.9122,1.3125,0.0939,-1.0746,-2.1684
1.82,0.3945,0.7724,0.2639,-0.1961,-6.9122,1.3125,0.0939,-1.0746,-2.1684
1.826,0.4021,0.7825,0.26,-0.1961,-6.9122,1.3125,0.0939,-1.0746,-2.1684
1.828,0.4107,0.7893,0.248,-0.1961,-6.9122,1.3125,0.0939,-1.0746,-2.1684
1.829,0.419,0.7986,0.2397,-0.1961,-6.9122,1.3125,0.0939,-1.0746,-2.1684
1.83,0.4253,0.8086,0.2319,-0.1961,-6.9122,1.3125,0.0939,-1.0746,-2.1684
1.834,0.4322,0.8162,0.2244,-0.1961,-6.9122,1.3125,0.0939,-1.0746,-2.1684
1.835,0.4402,0.8235,0.2182,-0.1961,-6.9122,1.3125,0.0939,-1.0746,-2.1684
1.839,0.4478,0.8272,0.216,-0.1961,-6.9122,1.3125,0.0939,-1.0746,-2.1684
1.84,0.4603,0.8296,0.2104,-0.1961,-6.9122,1.3125,0.0939,-1.0746,-2.1684
1.844,0.47,0.8281,0.2046,-0.1961,-6.9122,1.3125,0.0939,-1.0746,-2.1684
1.844,0.483,0.8262,0.2016,-0.1961,-6.9122,1.3125,0.0939,-1.0746,-2.1684
1.849,0.4964,0.8215,0.198,-0.1961,-6.9122,1.3125,0.0939,-1.0746,-2.1684
1.85,0.5084,0.814,0.1955,-0.1961,-6.9122,1.3125,0.0939,-1.0746,-2.1684
1.854,0.5199,0.8054,0.1941,-0.1961,-6.9122,1.3125,0.0939,-1.0746,-2.1684
1.854,0.5311,0.7944,0.1919,-0.1961,-6.9122,1.3125,0.0939,-1.0746,-2.1684
1.859,0.536,0.7839,0.1794,-0.1961,-6.9122,1.3125,0.0939,-1.0746,-2.1684
1.86,0.5379,0.7734,0.1643,-0.1961,-6.9122,1.3125,0.0939,-1.0746,-2.1684
1.864,0.5316,0.7705,0.1472,-0.1961,-6.9122,1.3125,0.0939,-1.0746,-2.1684
1.865,0.5103,0.7854,0.1281,-0.1961,-6.9122,1.3125,0.0939,-1.0746,-2.1684
1.868,0.4678,0.8179,0.1381,-0.1961,-6.9122,1.3125,0.0939,-1.0746,-2.1684
1.868,0.4028,0.8807,0.1347,-0.1961,-6.9122,1.3125,0.0939,-1.0746,-2.1684
1.872,0.3112,0.975,0.1425,-0.1961,-6.9122,1.3125,0.0939,-1.0746,-2.1684
1.873,0.3112,0.975,0.1425,-0.1961,-6.9122,1.3125,-0.4395,-1.3517,-1.1931
1.874,0.2189,1.104,0.2124,-0.1961,-6.9122,1.3125,-0.4395,-1.3517,-1.1931
1.878,0.1473,1.2601,0.3675,-0.1961,-6.9122,1.3125,-0.4395,-1.3517,-1.1931
1.879,0.1234,1.4511,0.5737,-0.1961,-6.9122,1.3125,-0.4395,-1.3517,-1.1931
1.883,0.1847,1.6732,0.7581,-0.1961,-6.9122,1.3125,-0.4395,-1.3517,-1.1931
1.884,0.341,1.9214,0.8905,-0.1961,-6.9122,1.3125,-0.4395,-1.3517,-1.1931
1.888,0.5465,2.1566,0.8871,-0.1961,-6.9122,1.3125,-0.4395,-1.3517,-1.1931
1.888,0.5465,2.1566,0.8871,0.6015,-3.2927,1.1198,-0.4395,-1.3517,-1.1931
1.889,0.7593,2.3215,0.7552,0.6015,-3.2927,1.1198,-0.4395,-1.3517,-1.1931
1.892,0.9584,2.3699,0.5231,0.6015,-3.2927,1.1198,-0.4395,-1.3517,-1.1931
1.893,1.1411,2.2893,0.2038,0.6015,-3.2927,1.1198,-0.4395,-1.3517,-1.1931
1.897,1.3141,2.1156,-0.1514,0.6015,-3.2927,1.1198,-0.4395,-1.3517,-1.1931
1.898,1.4228,1.9145,-0.4846,0.6015,-3.2927,1.1198,-0.4395,-1.3517,-1.1931
1.903,1.4387,1.7076,-0.7382,0.6015,-3.2927,1.1198,-0.4395,-1.3517,-1.1931
1.903,1.3732,1.5061,-0.8713,0.6015,-3.2927,1.1198,-0.4395,-1.3517,-1.1931
1.907,1.2554,1.3126,-0.8916,0.6015,-3.2927,1.1198,-0.4395,-1.3517,-1.1931
1.907,1.1167,1.1308,-0.8247,0.6015,-3.2927,1.1198,-0.4395,-1.3517,-1.1931
1.912,0.9782,0.9691,-0.7162,0.6015,-3.2927,1.1198,-0.4395,-1.3517,-1.1931
1.912,0.8411,0.8296,-0.5718,0.6015,-3.2927,1.1198,-0.4395,-1.3517,-1.1931
1.917,0.7136,0.7209,-0.4113,0.6015,-3.2927,1.1198,-0.4395,-1.3517,-1.1931
1.918,0.5922,0.6403,-0.2398,0.6015,-3.2927,1.1198,-0.4395,-1.3517,-1.1931
1.922,0.471,0.5941,-0.0796,0.6015,-3.2927,1.1198,-0.4395,-1.3517,-1.1931
1.922,0.3398,0.5777,0.059,0.6015,-3.2927,1.1198,-0.4395,-1.3517,-1.1931
1.927,0.1927,0.601,0.1728,0.6015,-3.2927,1.1198,-0.4395,-1.3517,-1.1931
1.928,0.0232,0.6755,0.261,0.6015,-3.2927,1.1198,-0.4395,-1.3517,-1.1931
1.932,-0.1627,0.8013,0.3348,0.6015,-3.2927,1.1198,-0.4395,-1.3517,-1.1931
1.933,-0.3515,0.9679,0.3954,0.6015,-3.2927,1.1198,-0.4395,-1.3517,-1.1931
1.938,-0.515,1.1626,0.4486,0.6015,-3.2927,1.1198,-0.4395,-1.3517,-1.1931
1.939,-0.6381,1.381,0.5124,0.6015,-3.2927,1.1198,-0.4395,-1.3517,-1.1931
1.941,-0.7195,1.6099,0.5906,0.6015,-3.2927,1.1198,-0.4395,-1.3517,-1.1931
1.942,-0.7195,1.6099,0.5906,0.6015,-3.2927,1.1198,-0.0294,0.6561,1.1071
1.943,-0.7581,1.8315,0.6814,0.6015,-3.2927,1.1198,-0.0294,0.6561,1.1071
1.946,-0.761,2.0264,0.773,0.6015,-3.2927,1.1198,-0.0294,0.6561,1.1071
1.947,-0.7375,2.1754,0.8617,0.6015,-3.2927,1.1198,-0.0294,0.6561,1.1071
1.951,-0.7006,2.2644,0.9311,0.6015,-3.2927,1.1198,-0.0294,0.6561,1.1071
1.952,-0.6596,2.2859,0.9734,0.6015,-3.2927,1.1198,-0.0294,0.6561,1.1071
1.957,-0.622,2.2306,0.9883,0.6015,-3.2927,1.1198,-0.0294,0.6561,1.1071
1.957,-0.622,2.2306,0.9883,1.4616,0.711,0.9251,-0.0294,0.6561,1.1071
1.959,-0.5739,2.1063,0.9646,1.4616,0.711,0.9251,-0.0294,0.6561,1.1071
1.961,-0.5116,1.9184,0.9125,1.4616,0.711,0.9251,-0.0294,0.6561,1.1071
1.962,-0.4322,1.6939,0.8432,1.4616,0.711,0.9251,-0.0294,0.6561,1.1071
1.966,-0.3366,1.4577,0.7701,1.4616,0.711,0.9251,-0.0294,0.6561,1.1071
1.966,-0.2335,1.2293,0.7005,1.4616,0.711,0.9251,-0.0294,0.6561,1.1071
1.971,-0.1358,1.0175,0.6433,1.4616,0.711,0.9251,-0.0294,0.6561,1.1071
1.972,-0.0484,0.8274,0.5957,1.4616,0.711,0.9251,-0.0294,0.6561,1.1071
1.976,0.0308,0.661,0.5559,1.4616,0.711,0.9251,-0.0294,0.6561,1.1071
1.977,0.0882,0.5216,0.5212,1.4616,0.711,0.9251,-0.0294,0.6561,1.1071
1.98,0.129,0.4021,0.4857,1.4616,0.711,0.9251,-0.0294,0.6561,1.1071
1.981,0.1534,0.3095,0.4459,1.4616,0.711,0.9251,-0.0294,0.6561,1.1071
1.985,0.1617,0.2404,0.4015,1.4616,0.711,0.9251,-0.0294,0.6561,1.1071
1.986,0.1595,0.1925,0.3504,1.4616,0.711,0.9251,-0.0294,0.6561,1.1071
1.99,0.1595,0.1637,0.3028,1.4616,0.711,0.9251,-0.0294,0.6561,1.1071
1.991,0.162,0.1519,0.2515,1.4616,0.711,0.9251,-0.0294,0.6561,1.1071
1.995,0.1749,0.1551,0.2065,1.4616,0.711,0.9251,-0.0294,0.6561,1.1071
1.995,0.2057,0.1722,0.1696,1.4616,0.711,0.9251,-0.0294,0.6561,1.1071
2,0.2499,0.1976,0.1408,1.4616,0.711,0.9251,-0.0294,0.6561,1.1071
2.001,0.31,0.2335,0.1125,1.4616,0.711,0.9251,-0.0294,0.6561,1.1071
2.004,0.3901,0.2758,0.0812,1.4616,0.711,0.9251,-0.0294,0.6561,1.1071
2.005,0.4839,0.322,0.0455,1.4616,0.711,0.9251,-0.0294,0.6561,1.1071
2.009,0.5941,0.3742,0.0089,1.4616,0.711,0.9251,-0.0294,0.6561,1.1071
2.01,0.7089,0.4297,-0.0251,1.4616,0.711,0.9251,-0.0294,0.6561,1.1071
2.011,0.7089,0.4297,-0.0251,1.4616,0.711,0.9251,-0.3891,-1.0609,0.881
2.014,0.8269,0.4896,-0.0571,1.4616,0.711,0.9251,-0.3891,-1.0609,0.881
2.015,0.9491,0.5453,-0.0905,1.4616,0.711,0.9251,-0.3891,-1.0609,0.881
2.02,1.0624,0.5978,-0.1238,1.4616,0.711,0.9251,-0.3891,-1.0609,0.881
2.021,1.169,0.6364,-0.1511,1.4616,0.711,0.9251,-0.3891,-1.0609,0.881
2.024,1.2628,0.6672,-0.1848,1.4616,0.711,0.9251,-0.3891,-1.0609,0.881
2.026,1.3321,0.6821,-0.2212,1.4616,0.711,0.9251,-0.3891,-1.0609,0.881
2.026,1.3321,0.6821,-0.2212,-0.4789,5.4783,-0.5134,-0.3891,-1.0609,0.881
2.029,1.3764,0.6879,-0.2525,-0.4789,5.4783,-0.5134,-0.3891,-1.0609,0.881
2.03,1.3986,0.6794,-0.2703,-0.4789,5.4783,-0.5134,-0.3891,-1.0609,0.881
2.034,1.3908,0.6674,-0.2667,-0.4789,5.4783,-0.5134,-0.3891,-1.0609,0.881
2.035,1.3593,0.6488,-0.2464,-0.4789,5.4783,-0.5134,-0.3891,-1.0609,0.881
2.039,1.3006,0.6342,-0.2088,-0.4789,5.4783,-0.5134,-0.3891,-1.0609,0.881
2.04,1.2264,0.6273,-0.1582,-0.4789,5.4783,-0.5134,-0.3891,-1.0609,0.881
2.044,1.1399,0.633,-0.0945,-0.4789,5.4783,-0.5134,-0.3891,-1.0609,0.881
2.044,1.0441,0.6593,-0.0239,-0.4789,5.4783,-0.5134,-0.3891,-1.0609,0.881
2.048,0.9486,0.7016,0.0509,-0.4789,5.4783,-0.5134,-0.3891,-1.0609,0.881
2.049,0.8597,0.7619,0.1164,-0.4789,5.4783,-0.5134,-0.3891,-1.0609,0.881
2.055,0.7813,0.8372,0.1711,-0.4789,5.4783,-0.5134,-0.3891,-1.0609,0.881
2.055,0.7153,0.9227,0.2114,-0.4789,5.4783,-0.5134,-0.3891,-1.0609,0.881
2.06,0.6518,1.0167,0.239,-0.4789,5.4783,-0.5134,-0.3891,-1.0609,0.881
2.06,0.5971,1.1201,0.2605,-0.4789,5.4783,-0.5134,-0.3891,-1.0609,0.881
2.063,0.5409,1.2249,0.2742,-0.4789,5.4783,-0.5134,-0.3891,-1.0609,0.881
2.064,0.4852,1.3255,0.2849,-0.4789,5.4783,-0.5134,-0.3891,-1.0609,0.881
2.068,0.4253,1.4101,0.292,-0.4789,5.4783,-0.5134,-0.3891,-1.0609,0.881
2.068,0.3589,1.4792,0.2979,-0.4789,5.4783,-0.5134,-0.3891,-1.0609,0.881
2.073,0.2868,1.519,0.3037,-0.4789,5.4783,-0.5134,-0.3891,-1.0609,0.881
2.074,0.2067,1.5293,0.305,-0.4789,5.4783,-0.5134,-0.3891,-1.0609,0.881
2.078,0.1317,1.5058,0.3094,-0.4789,5.4783,-0.5134,-0.3891,-1.0609,0.881
2.079,0.1317,1.5058,0.3094,-0.4789,5.4783,-0.5134,-0.1807,0.0055,0.5281
2.08,0.0701,1.4479,0.3189,-0.4789,5.4783,-0.5134,-0.1807,0.0055,0.5281
2.084,0.033,1.3619,0.3353,-0.4789,5.4783,-0.5134,-0.1807,0.0055,0.5281
2.085,0.0286,1.2503,0.3604,-0.4789,5.4783,-0.5134,-0.1807,0.0055,0.5281
2.087,0.0528,1.1269,0.3939,-0.4789,5.4783,-0.5134,-0.1807,0.0055,0.5281
2.088,0.0997,1.0004,0.4298,-0.4789,5.4783,-0.5134,-0.1807,0.0055,0.5281
2.093,0.0997,1.0004,0.4298,-1.0599,-2.3669,1.1313,-0.1807,0.0055,0.5281
2.094,0.1581,0.877,0.465,-1.0599,-2.3669,1.1313,-0.1807,0.0055,0.5281
2.094,0.2255,0.7639,0.5002,-1.0599,-2.3669,1.1313,-0.1807,0.0055,0.5281
2.098,0.3002,0.6686,0.5231,-1.0599,-2.3669,1.1313,-0.1807,0.0055,0.5281
2.099,0.3782,0.588,0.5361,-1.0599,-2.3669,1.1313,-0.1807,0.0055,0.5281
2.103,0.4461,0.5245,0.5349,-1.0599,-2.3669,1.1313,-0.1807,0.0055,0.5281
2.103,0.5116,0.4812,0.5226,-1.0599,-2.3669,1.1313,-0.1807,0.0055,0.5281
2.107,0.5665,0.4519,0.5026,-1.0599,-2.3669,1.1313,-0.1807,0.0055,0.5281
2.108,0.6173,0.4451,0.4806,-1.0599,-2.3669,1.1313,-0.1807,0.0055,0.5281
2.112,0.6628,0.449,0.454,-1.0599,-2.3669,1.1313,-0.1807,0.0055,0.5281
2.113,0.7001,0.4632,0.4288,-1.0599,-2.3669,1.1313,-0.1807,0.0055,0.5281
2.116,0.7341,0.4842,0.4024,-1.0599,-2.3669,1.1313,-0.1807,0.0055,0.5281
2.117,0.7668,0.5086,0.3712,-1.0599,-2.3669,1.1313,-0.1807,0.0055,0.5281
2.122,0.7959,0.5321,0.3421,-1.0599,-2.3669,1.1313,-0.1807,0.0055,0.5281
2.123,0.8223,0.5528,0.3196,-1.0599,-2.3669,1.1313,-0.1807,0.0055,0.5281
2.127,0.8448,0.5753,0.2937,-1.0599,-2.3669,1.1313,-0.1807,0.0055,0.5281
2.128,0.8641,0.5924,0.2818,-1.0599,-2.3669,1.1313,-0.1807,0.0055,0.5281
2.132,0.8792,0.6024,0.2769,-1.0599,-2.3669,1.1313,-0.1807,0.0055,0.5281
2.133,0.8912,0.6115,0.27,-1.0599,-2.3669,1.1313,-0.1807,0.0055,0.5281
2.137,0.8966,0.6185,0.2669,-1.0599,-2.3669,1.1313,-0.1807,0.0055,0.5281
2.138,0.8985,0.6281,0.2703,-1.0599,-2.3669,1.1313,-0.1807,0.0055,0.5281
2.142,0.8936,0.6349,0.2764,-1.0599,-2.3669,1.1313,-0.1807,0.0055,0.5281
2.142,0.8817,0.642,0.2818,-1.0599,-2.3669,1.1313,-0.1807,0.0055,0.5281
2.147,0.8631,0.6532,0.2813,-1.0599,-2.3669,1.1313,-0.1807,0.0055,0.5281
2.148,0.8631,0.6532,0.2813,-1.0599,-2.3669,1.1313,-0.0879,-0.6183,0.2043
2.148,0.8387,0.6698,0.2771,-1.0599,-2.3669,1.1313,-0.0879,-0.6183,0.2043
2.151,0.8128,0.686,0.2722,-1.0599,-2.3669,1.1313,-0.0879,-0.6183,0.2043
2.152,0.7803,0.7023,0.2747,-1.0599,-2.3669,1.1313,-0.0879,-0.6183,0.2043
2.156,0.7449,0.7231,0.2857,-1.0599,-2.3669,1.1313,-0.0879,-0.6183,0.2043
2.157,0.7104,0.7417,0.3023,-1.0599,-2.3669,1.1313,-0.0879,-0.6183,0.2043
2.161,0.6835,0.7605,0.3282,-1.0599,-2.3669,1.1313,-0.0879,-0.6183,0.2043
2.162,0.6586,0.7764,0.3568,-1.0599,-2.3669,1.1313,-0.0879,-0.6183,0.2043
2.163,0.6586,0.7764,0.3568,2.8338,1.2439,-0.5234,-0.0879,-0.6183,0.2043
2.167,0.6398,0.7954,0.3778,2.8338,1.2439,-0.5234,-0.0879,-0.6183,0.2043
2.167,0.6276,0.8172,0.3902,2.8338,1.2439,-0.5234,-0.0879,-0.6183,0.2043
2.171,0.619,0.8462,0.3941,2.8338,1.2439,-0.5234,-0.0879,-0.6183,0.2043
2.172,0.6132,0.8797,0.3927,2.8338,1.2439,-0.5234,-0.0879,-0.6183,0.2043
2.176,0.6056,0.921,0.3853,2.8338,1.2439,-0.5234,-0.0879,-0.6183,0.2043
2.177,0.5966,0.9657,0.3726,2.8338,1.2439,-0.5234,-0.0879,-0.6183,0.2043
2.18,0.5936,1.0167,0.358,2.8338,1.2439,-0.5234,-0.0879,-0.6183,0.2043
2.181,0.5931,1.0685,0.3436,2.8338,1.2439,-0.5234,-0.0879,-0.6183,0.2043
2.186,0.5956,1.1176,0.3255,2.8338,1.2439,-0.5234,-0.0879,-0.6183,0.2043
2.187,0.5966,1.168,0.3138,2.8338,1.2439,-0.5234,-0.0879,-0.6183,0.2043
2.19,0.5949,1.2097,0.3059,2.8338,1.2439,-0.5234,-0.0879,-0.6183,0.2043
2.191,0.5875,1.2483,0.3008,2.8338,1.2439,-0.5234,-0.0879,-0.6183,0.2043
2.195,0.5724,1.2764,0.2976,2.8338,1.2439,-0.5234,-0.0879,-0.6183,0.2043
2.196,0.5477,1.2967,0.2896,2.8338,1.2439,-0.5234,-0.0879,-0.6183,0.2043
2.2,0.5162,1.3075,0.2796,2.8338,1.2439,-0.5234,-0.0879,-0.6183,0.2043
2.2,0.4837,1.3109,0.2686,2.8338,1.2439,-0.5234,-0.0879,-0.6183,0.2043
2.205,0.4576,1.3035,0.252,2.8338,1.2439,-0.5234,-0.0879,-0.6183,0.2043
2.206,0.4322,1.284,0.2349,2.8338,1.2439,-0.5234,-0.0879,-0.6183,0.2043
2.211,0.4234,1.2591,0.2143,2.8338,1.2439,-0.5234,-0.0879,-0.6183,0.2043
2.212,0.426,1.2261,0.197,2.8338,1.2439,-0.5234,-0.0879,-0.6183,0.2043
2.217,0.439,1.1841,0.1704,2.8338,1.2439,-0.5234,-0.0879,-0.6183,0.2043
2.218,0.439,1.1841,0.1704,2.8338,1.2439,-0.5234,0.3585,0.0098,-0.2775
2.218,0.4668,1.1386,0.1506,2.8338,1.2439,-0.5234,0.3585,0.0098,-0.2775
2.219,0.5079,1.0864,0.1357,2.8338,1.2439,-0.5234,0.3585,0.0098,-0.2775
2.22,0.5563,1.0343,0.1296,2.8338,1.2439,-0.5234,0.3585,0.0098,-0.2775
2.224,0.6105,0.9816,0.1347,2.8338,1.2439,-0.5234,0.3585,0.0098,-0.2775
2.225,0.6625,0.93,0.1401,2.8338,1.2439,-0.5234,0.3585,0.0098,-0.2775
2.229,0.6625,0.93,0.1401,3.2521,-2.8373,1.9289,0.3585,0.0098,-0.2775
2.23,0.7124,0.8838,0.1506,3.2521,-2.8373,1.9289,0.3585,0.0098,-0.2775
2.231,0.7532,0.8369,0.1591,3.2521,-2.8373,1.9289,0.3585,0.0098,-0.2775
2.234,0.7827,0.801,0.1655,3.2521,-2.8373,1.9289,0.3585,0.0098,-0.2775
2.235,0.7988,0.7663,0.1635,3.2521,-2.8373,1.9289,0.3585,0.0098,-0.2775
2.239,0.8089,0.7375,0.1594,3.2521,-2.8373,1.9289,0.3585,0.0098,-0.2775
2.24,0.8098,0.7153,0.1545,3.2521,-2.8373,1.9289,0.3585,0.0098,-0.2775
2.244,0.7998,0.7014,0.1457,3.2521,-2.8373,1.9289,0.3585,0.0098,-0.2775
2.245,0.7898,0.693,0.1393,3.2521,-2.8373,1.9289,0.3585,0.0098,-0.2775
2.252,0.7749,0.6872,0.1327,3.2521,-2.8373,1.9289,0.3585,0.0098,-0.2775
2.253,0.7615,0.6872,0.1259,3.2521,-2.8373,1.9289,0.3585,0.0098,-0.2775
2.253,0.7483,0.6926,0.1188,3.2521,-2.8373,1.9289,0.3585,0.0098,-0.2775
2.254,0.737,0.7018,0.1137,3.2521,-2.8373,1.9289,0.3585,0.0098,-0.2775
2.259,0.7265,0.7136,0.1071,3.2521,-2.8373,1.9289,0.3585,0.0098,-0.2775
2.259,0.7121,0.7314,0.1034,3.2521,-2.8373,1.9289,0.3585,0.0098,-0.2775
2.263,0.7011,0.7505,0.1,3.2521,-2.8373,1.9289,0.3585,0.0098,-0.2775
2.264,0.6899,0.7717,0.0971,3.2521,-2.8373,1.9289,0.3585,0.0098,-0.2775
2.269,0.6782,0.7959,0.091,3.2521,-2.8373,1.9289,0.3585,0.0098,-0.2775
2.269,0.6603,0.8198,0.0824,3.2521,-2.8373,1.9289,0.3585,0.0098,-0.2775
2.273,0.6444,0.8462,0.0751,3.2521,-2.8373,1.9289,0.3585,0.0098,-0.2775
2.274,0.6261,0.8699,0.069,3.2521,-2.8373,1.9289,0.3585,0.0098,-0.2775
2.278,0.6066,0.8941,0.0636,3.2521,-2.8373,1.9289,0.3585,0.0098,-0.2775
2.279,0.5836,0.9124,0.068,3.2521,-2.8373,1.9289,0.3585,0.0098,-0.2775
2.283,0.5599,0.929,0.0736,3.2521,-2.8373,1.9289,0.3585,0.0098,-0.2775
2.285,0.5599,0.929,0.0736,3.2521,-2.8373,1.9289,0.4329,0.0786,-0.4348
2.285,0.5384,0.9432,0.0788,3.2521,-2.8373,1.9289,0.4329,0.0786,-0.4348
2.288,0.5138,0.9525,0.0861,3.2521,-2.8373,1.9289,0.4329,0.0786,-0.4348
2.288,0.493,0.9613,0.0902,3.2521,-2.8373,1.9289,0.4329,0.0786,-0.4348
2.295,0.4681,0.9679,0.0963,3.2521,-2.8373,1.9289,0.4329,0.0786,-0.4348
2.296,0.4451,0.974,0.1007,3.2521,-2.8373,1.9289,0.4329,0.0786,-0.4348
2.298,0.4451,0.974,0.1007,2.0151,1.6895,1.2417,0.4329,0.0786,-0.4348
2.299,0.4217,0.9767,0.109,2.0151,1.6895,1.2417,0.4329,0.0786,-0.4348
2.299,0.4009,0.9828,0.1154,2.0151,1.6895,1.2417,0.4329,0.0786,-0.4348
2.304,0.3838,0.9796,0.1186,2.0151,1.6895,1.2417,0.4329,0.0786,-0.4348
2.305,0.3679,0.9767,0.121,2.0151,1.6895,1.2417,0.4329,0.0786,-0.4348
2.307,0.3572,0.9723,0.1235,2.0151,1.6895,1.2417,0.4329,0.0786,-0.4348
2.308,0.3476,0.965,0.1301,2.0151,1.6895,1.2417,0.4329,0.0786,-0.4348
2.312,0.3462,0.9559,0.1369,2.0151,1.6895,1.2417,0.4329,0.0786,-0.4348
2.313,0.3427,0.9425,0.1423,2.0151,1.6895,1.2417,0.4329,0.0786,-0.4348
2.317,0.3418,0.931,0.1481,2.0151,1.6895,1.2417,0.4329,0.0786,-0.4348
2.318,0.3415,0.9161,0.1508,2.0151,1.6895,1.2417,0.4329,0.0786,-0.4348
2.322,0.3381,0.9044,0.1472,2.0151,1.6895,1.2417,0.4329,0.0786,-0.4348
2.323,0.3347,0.8897,0.1408,2.0151,1.6895,1.2417,0.4329,0.0786,-0.4348
2.327,0.3259,0.8792,0.1349,2.0151,1.6895,1.2417,0.4329,0.0786,-0.4348
2.328,0.3198,0.8697,0.1323,2.0151,1.6895,1.2417,0.4329,0.0786,-0.4348
2.332,0.3176,0.8567,0.122,2.0151,1.6895,1.2417,0.4329,0.0786,-0.4348
2.333,0.3129,0.8452,0.11,2.0151,1.6895,1.2417,0.4329,0.0786,-0.4348
2.338,0.3125,0.8389,0.1002,2.0151,1.6895,1.2417,0.4329,0.0786,-0.4348
2.339,0.312,0.8303,0.0937,2.0151,1.6895,1.2417,0.4329,0.0786,-0.4348
2.343,0.3151,0.8237,0.0883,2.0151,1.6895,1.2417,0.4329,0.0786,-0.4348
2.344,0.3178,0.8189,0.088,2.0151,1.6895,1.2417,0.4329,0.0786,-0.4348
2.346,0.3269,0.8206,0.09,2.0151,1.6895,1.2417,0.4329,0.0786,-0.4348
2.346,0.3327,0.8194,0.0922,2.0151,1.6895,1.2417,0.4329,0.0786,-0.4348
2.352,0.3327,0.8194,0.0922,2.0151,1.6895,1.2417,0.401,0.1858,-0.6079
2.352,0.3391,0.8237,0.0949,2.0151,1.6895,1.2417,0.401,0.1858,-0.6079
2.353,0.3501,0.8316,0.0924,2.0151,1.6895,1.2417,0.401,0.1858,-0.6079
2.356,0.3576,0.8428,0.0941,2.0151,1.6895,1.2417,0.401,0.1858,-0.6079
2.357,0.3598,0.854,0.0924,2.0151,1.6895,1.2417,0.401,0.1858,-0.6079
2.362,0.3625,0.8704,0.0915,2.0151,1.6895,1.2417,0.401,0.1858,-0.6079
2.363,0.3664,0.8829,0.091,2.0151,1.6895,1.2417,0.401,0.1858,-0.6079
2.366,0.3664,0.8829,0.091,3.3066,-1.0731,-0.1554,0.401,0.1858,-0.6079
2.367,0.3682,0.898,0.0853,3.3066,-1.0731,-0.1554,0.401,0.1858,-0.6079
2.368,0.366,0.9139,0.0846,3.3066,-1.0731,-0.1554,0.401,0.1858,-0.6079
2.373,0.3603,0.9251,0.0802,3.3066,-1.0731,-0.1554,0.401,0.1858,-0.6079
2.374,0.3537,0.9376,0.0741,3.3066,-1.0731,-0.1554,0.401,0.1858,-0.6079
2.376,0.3449,0.9476,0.0712,3.3066,-1.0731,-0.1554,0.401,0.1858,-0.6079
2.377,0.3318,0.9549,0.0702,3.3066,-1.0731,-0.1554,0.401,0.1858,-0.6079
2.381,0.3181,0.9593,0.0641,3.3066,-1.0731,-0.1554,0.401,0.1858,-0.6079
2.381,0.3054,0.9642,0.0577,3.3066,-1.0731,-0.1554,0.401,0.1858,-0.6079
2.386,0.2853,0.9674,0.0531,3.3066,-1.0731,-0.1554,0.401,0.1858,-0.6079
2.387,0.2673,0.9693,0.0487,3.3066,-1.0731,-0.1554,0.401,0.1858,-0.6079
2.391,0.2462,0.9723,0.0472,3.3066,-1.0731,-0.1554,0.401,0.1858,-0.6079
2.392,0.2221,0.9755,0.0485,3.3066,-1.0731,-0.1554,0.401,0.1858,-0.6079
2.396,0.1945,0.9786,0.0529,3.3066,-1.0731,-0.1554,0.401,0.1858,-0.6079
2.397,0.171,0.9833,0.058,3.3066,-1.0731,-0.1554,0.401,0.1858,-0.6079
2.4,0.1458,0.9879,0.0675,3.3066,-1.0731,-0.1554,0.401,0.1858,-0.6079
2.401,0.1231,0.9928,0.0773,3.3066,-1.0731,-0.1554,0.401,0.1858,-0.6079
2.405,0.1028,0.9955,0.0829,3.3066,-1.0731,-0.1554,0.401,0.1858,-0.6079
2.406,0.0865,0.9933,0.0851,3.3066,-1.0731,-0.1554,0.401,0.1858,-0.6079
2.41,0.073,0.9935,0.0849,3.3066,-1.0731,-0.1554,0.401,0.1858,-0.6079
2.41,0.0591,0.9926,0.0824,3.3066,-1.0731,-0.1554,0.401,0.1858,-0.6079
2.416,0.0508,0.9926,0.08,3.3066,-1.0731,-0.1554,0.401,0.1858,-0.6079
2.417,0.043,0.9923,0.0797,3.3066,-1.0731,-0.1554,0.401,0.1858,-0.6079
2.42,0.0415,0.9945,0.0763,3.3066,-1.0731,-0.1554,0.401,0.1858,-0.6079
2.421,0.0415,0.9945,0.0763,3.3066,-1.0731,-0.1554,0.3483,0.1206,-0.5631
2.422,0.0469,0.9908,0.0763,3.3066,-1.0731,-0.1554,0.3483,0.1206,-0.5631
2.425,0.0545,0.9879,0.0736,3.3066,-1.0731,-0.1554,0.3483,0.1206,-0.5631
2.426,0.0642,0.986,0.0707,3.3066,-1.0731,-0.1554,0.3483,0.1206,-0.5631
2.429,0.0728,0.984,0.0663,3.3066,-1.0731,-0.1554,0.3483,0.1206,-0.5631
2.43,0.084,0.984,0.056,3.3066,-1.0731,-0.1554,0.3483,0.1206,-0.5631
2.435,0.0933,0.984,0.0526,3.3066,-1.0731,-0.1554,0.3483,0.1206,-0.5631
2.435,0.0933,0.984,0.0526,0.4668,-0.4962,0.0615,0.3483,0.1206,-0.5631
2.436,0.1065,0.9843,0.0504,0.4668,-0.4962,0.0615,0.3483,0.1206,-0.5631
2.439,0.1158,0.9845,0.0492,0.4668,-0.4962,0.0615,0.3483,0.1206,-0.5631
2.44,0.128,0.983,0.0502,0.4668,-0.4962,0.0615,0.3483,0.1206,-0.5631
2.445,0.1339,0.9803,0.0487,0.4668,-0.4962,0.0615,0.3483,0.1206,-0.5631
2.445,0.14,0.9847,0.0443,0.4668,-0.4962,0.0615,0.3483,0.1206,-0.5631
2.449,0.1412,0.9852,0.0421,0.4668,-0.4962,0.0615,0.3483,0.1206,-0.5631
2.45,0.1375,0.9886,0.0389,0.4668,-0.4962,0.0615,0.3483,0.1206,-0.5631
2.453,0.1351,0.9904,0.0338,0.4668,-0.4962,0.0615,0.3483,0.1206,-0.5631
2.454,0.1329,0.9896,0.0272,0.4668,-0.4962,0.0615,0.3483,0.1206,-0.5631
2.459,0.1317,0.9896,0.0199,0.4668,-0.4962,0.0615,0.3483,0.1206,-0.5631
2.459,0.1361,0.9843,0.014,0.4668,-0.4962,0.0615,0.3483,0.1206,-0.5631
2.464,0.14,0.9777,0.0045,0.4668,-0.4962,0.0615,0.3483,0.1206,-0.5631
2.465,0.1441,0.9715,-0.005,0.4668,-0.4962,0.0615,0.3483,0.1206,-0.5631
2.468,0.1427,0.9647,-0.0155,0.4668,-0.4962,0.0615,0.3483,0.1206,-0.5631
2.469,0.1432,0.9601,-0.0265,0.4668,-0.4962,0.0615,0.3483,0.1206,-0.5631
2.474,0.1441,0.9557,-0.0312,0.4668,-0.4962,0.0615,0.3483,0.1206,-0.5631
2.474,0.1432,0.9544,-0.0353,0.4668,-0.4962,0.0615,0.3483,0.1206,-0.5631
2.479,0.1454,0.9532,-0.0353,0.4668,-0.4962,0.0615,0.3483,0.1206,-0.5631
2.479,0.1429,0.9518,-0.0353,0.4668,-0.4962,0.0615,0.3483,0.1206,-0.5631
2.483,0.1439,0.9496,-0.0339,0.4668,-0.4962,0.0615,0.3483,0.1206,-0.5631
2.484,0.1471,0.952,-0.0339,0.4668,-0.4962,0.0615,0.3483,0.1206,-0.5631
2.489,0.1471,0.952,-0.0339,0.4668,-0.4962,0.0615,0.2494,0.1415,-0.2451
2.49,0.1512,0.95,-0.0261,0.4668,-0.4962,0.0615,0.2494,0.1415,-0.2451
2.49,0.1546,0.9505,-0.0163,0.4668,-0.4962,0.0615,0.2494,0.1415,-0.2451
2.493,0.1578,0.952,-0.0107,0.4668,-0.4962,0.0615,0.2494,0.1415,-0.2451
2.494,0.1598,0.9547,-0.0058,0.4668,-0.4962,0.0615,0.2494,0.1415,-0.2451
2.498,0.1603,0.9574,-0.0028,0.4668,-0.4962,0.0615,0.2494,0.1415,-0.2451
2.498,0.1625,0.9628,0.0018,0.4668,-0.4962,0.0615,0.2494,0.1415,-0.2451
2.503,0.1625,0.9628,0.0018,-1.0107,0.3092,-0.2581,0.2494,0.1415,-0.2451
2.504,0.159,0.9674,0.0001,-1.0107,0.3092,-0.2581,0.2494,0.1415,-0.2451
2.504,0.1554,0.9737,-0.0011,-1.0107,0.3092,-0.2581,0.2494,0.1415,-0.2451
2.507,0.1512,0.9803,-0.009,-1.0107,0.3092,-0.2581,0.2494,0.1415,-0.2451
2.508,0.1507,0.9838,-0.0138,-1.0107,0.3092,-0.2581,0.2494,0.1415,-0.2451
2.513,0.1495,0.9872,-0.019,-1.0107,0.3092,-0.2581,0.2494,0.1415,-0.2451
2.513,0.1512,0.9904,-0.0219,-1.0107,0.3092,-0.2581,0.2494,0.1415,-0.2451
2.518,0.1537,0.9918,-0.0214,-1.0107,0.3092,-0.2581,0.2494,0.1415,-0.2451
2.518,0.1546,0.9921,-0.0224,-1.0107,0.3092,-0.2581,0.2494,0.1415,-0.2451
2.522,0.1549,0.9957,-0.0202,-1.0107,0.3092,-0.2581,0.2494,0.1415,-0.2451
2.523,0.1576,0.9974,-0.0182,-1.0107,0.3092,-0.2581,0.2494,0.1415,-0.2451
2.528,0.1573,1.0028,-0.0104,-1.0107,0.3092,-0.2581,0.2494,0.1415,-0.2451
2.529,0.1563,1.0089,-0.008,-1.0107,0.3092,-0.2581,0.2494,0.1415,-0.2451
2.532,0.1561,1.0172,-0.0046,-1.0107,0.3092,-0.2581,0.2494,0.1415,-0.2451
2.533,0.1551,1.0246,-0.0041,-1.0107,0.3092,-0.2581,0.2494,0.1415,-0.2451
2.536,0.1546,1.0351,-0.008,-1.0107,0.3092,-0.2581,0.2494,0.1415,-0.2451
2.537,0.149,1.0402,-0.0141,-1.0107,0.3092,-0.2581,0.2494,0.1415,-0.2451
2.542,0.1446,1.0487,-0.0111,-1.0107,0.3092,-0.2581,0.2494,0.1415,-0.2451
2.543,0.1351,1.0558,-0.0077,-1.0107,0.3092,-0.2581,0.2494,0.1415,-0.2451
2.548,0.1292,1.0607,-0.0031,-1.0107,0.3092,-0.2581,0.2494,0.1415,-0.2451
2.548,0.1253,1.0632,0.0047,-1.0107,0.3092,-0.2581,0.2494,0.1415,-0.2451
2.551,0.1256,1.0597,0.0096,-1.0107,0.3092,-0.2581,0.2494,0.1415,-0.2451
2.552,0.1253,1.0573,0.0135,-1.0107,0.3092,-0.2581,0.2494,0.1415,-0.2451
2.557,0.1221,1.0546,0.0169,-1.0107,0.3092,-0.2581,0.2494,0.1415,-0.2451
2.558,0.1221,1.0546,0.0169,-1.0107,0.3092,-0.2581,0.0581,0.1172,-0.0009
2.558,0.1209,1.0492,0.0143,-1.0107,0.3092,-0.2581,0.0581,0.1172,-0.0009
2.562,0.1207,1.0439,0.0128,-1.0107,0.3092,-0.2581,0.0581,0.1172,-0.0009
2.563,0.1209,1.0407,0.0084,-1.0107,0.3092,-0.2581,0.0581,0.1172,-0.0009
2.566,0.1202,1.0351,0.0091,-1.0107,0.3092,-0.2581,0.0581,0.1172,-0.0009
2.567,0.1214,1.0297,0.0099,-1.0107,0.3092,-0.2581,0.0581,0.1172,-0.0009
2.573,0.1224,1.0248,0.0147,-1.0107,0.3092,-0.2581,0.0581,0.1172,-0.0009
2.573,0.1224,1.0248,0.0147,-1.3203,0.2498,-0.8742,0.0581,0.1172,-0.0009
2.574,0.1251,1.0167,0.0201,-1.3203,0.2498,-0.8742,0.0581,0.1172,-0.0009
2.576,0.1295,1.0109,0.0274,-1.3203,0.2498,-0.8742,0.0581,0.1172,-0.0009
2.577,0.1336,1.0001,0.0365,-1.3203,0.2498,-0.8742,0.0581,0.1172,-0.0009
2.582,0.139,0.9928,0.0443,-1.3203,0.2498,-0.8742,0.0581,0.1172,-0.0009
2.583,0.1436,0.9852,0.0519,-1.3203,0.2498,-0.8742,0.0581,0.1172,-0.0009
2.585,0.1463,0.9764,0.0551,-1.3203,0.2498,-0.8742,0.0581,0.1172,-0.0009
2.586,0.1515,0.973,0.0541,-1.3203,0.2498,-0.8742,0.0581,0.1172,-0.0009
2.591,0.1583,0.9684,0.0529,-1.3203,0.2498,-0.8742,0.0581,0.1172,-0.0009
2.593,0.1712,0.965,0.0504,-1.3203,0.2498,-0.8742,0.0581,0.1172,-0.0009
2.595,0.1891,0.962,0.0485,-1.3203,0.2498,-0.8742,0.0581,0.1172,-0.0009
2.596,0.2076,0.9579,0.0467,-1.3203,0.2498,-0.8742,0.0581,0.1172,-0.0009
2.601,0.2311,0.9544,0.0492,-1.3203,0.2498,-0.8742,0.0581,0.1172,-0.0009
2.602,0.2541,0.9544,0.0494,-1.3203,0.2498,-0.8742,0.0581,0.1172,-0.0009
2.605,0.2724,0.9515,0.047,-1.3203,0.2498,-0.8742,0.0581,0.1172,-0.0009
2.606,0.2907,0.9518,0.0411,-1.3203,0.2498,-0.8742,0.0581,0.1172,-0.0009
2.61,0.3039,0.9515,0.0367,-1.3203,0.2498,-0.8742,0.0581,0.1172,-0.0009
2.61,0.3132,0.9544,0.0287,-1.3203,0.2498,-0.8742,0.0581,0.1172,-0.0009
2.616,0.3217,0.9574,0.0209,-1.3203,0.2498,-0.8742,0.0581,0.1172,-0.0009
2.617,0.3286,0.9598,0.0155,-1.3203,0.2498,-0.8742,0.0581,0.1172,-0.0009
2.62,0.3305,0.9615,0.0128,-1.3203,0.2498,-0.8742,0.0581,0.1172,-0.0009
2.62,0.3271,0.9662,0.0047,-1.3203,0.2498,-0.8742,0.0581,0.1172,-0.0009
2.625,0.3278,0.9669,-0.0021,-1.3203,0.2498,-0.8742,0.0581,0.1172,-0.0009
2.626,0.3278,0.9669,-0.0021,-1.3203,0.2498,-0.8742,-0.0915,0.1647,0.2581
2.627,0.3212,0.9711,-0.0053,-1.3203,0.2498,-0.8742,-0.0915,0.1647,0.2581
2.629,0.3122,0.9757,-0.0031,-1.3203,0.2498,-0.8742,-0.0915,0.1647,0.2581
2.63,0.3015,0.9791,-0.0036,-1.3203,0.2498,-0.8742,-0.0915,0.1647,0.2581
2.634,0.2883,0.9781,-0.0009,-1.3203,0.2498,-0.8742,-0.0915,0.1647,0.2581
2.635,0.2704,0.9784,0.0072,-1.3203,0.2498,-0.8742,-0.0915,0.1647,0.2581
2.64,0.2704,0.9784,0.0072,-1.4622,0.8192,-1.0244,-0.0915,0.1647,0.2581
2.64,0.255,0.9757,0.0169,-1.4622,0.8192,-1.0244,-0.0915,0.1647,0.2581
2.641,0.2394,0.9735,0.0282,-1.4622,0.8192,-1.0244,-0.0915,0.1647,0.2581
2.644,0.2233,0.9703,0.0399,-1.4622,0.8192,-1.0244,-0.0915,0.1647,0.2581
2.645,0.2123,0.9715,0.0504,-1.4622,0.8192,-1.0244,-0.0915,0.1647,0.2581
2.649,0.2067,0.9689,0.059,-1.4622,0.8192,-1.0244,-0.0915,0.1647,0.2581
2.65,0.204,0.9713,0.0702,-1.4622,0.8192,-1.0244,-0.0915,0.1647,0.2581
2.655,0.2106,0.9691,0.0807,-1.4622,0.8192,-1.0244,-0.0915,0.1647,0.2581
2.655,0.2201,0.9662,0.0932,-1.4622,0.8192,-1.0244,-0.0915,0.1647,0.2581
2.66,0.2375,0.9596,0.1068,-1.4622,0.8192,-1.0244,-0.0915,0.1647,0.2581
2.661,0.2555,0.9525,0.1215,-1.4622,0.8192,-1.0244,-0.0915,0.1647,0.2581
2.665,0.2748,0.9444,0.1359,-1.4622,0.8192,-1.0244,-0.0915,0.1647,0.2581
2.666,0.2924,0.9361,0.1459,-1.4622,0.8192,-1.0244,-0.0915,0.1647,0.2581
2.668,0.3115,0.9264,0.1545,-1.4622,0.8192,-1.0244,-0.0915,0.1647,0.2581
2.668,0.3305,0.9183,0.1567,-1.4622,0.8192,-1.0244,-0.0915,0.1647,0.2581
2.674,0.3508,0.9115,0.1564,-1.4622,0.8192,-1.0244,-0.0915,0.1647,0.2581
2.675,0.3662,0.9078,0.1496,-1.4622,0.8192,-1.0244,-0.0915,0.1647,0.2581
2.678,0.3843,0.9046,0.1418,-1.4622,0.8192,-1.0244,-0.0915,0.1647,0.2581
2.678,0.4016,0.9044,0.1337,-1.4622,0.8192,-1.0244,-0.0915,0.1647,0.2581
2.684,0.4243,0.9031,0.122,-1.4622,0.8192,-1.0244,-0.0915,0.1647,0.2581
2.684,0.4463,0.9049,0.1098,-1.4622,0.8192,-1.0244,-0.0915,0.1647,0.2581
2.688,0.472,0.908,0.0998,-1.4622,0.8192,-1.0244,-0.0915,0.1647,0.2581
2.689,0.494,0.9124,0.0905,-1.4622,0.8192,-1.0244,-0.0915,0.1647,0.2581
2.696,0.5135,0.9168,0.0766,-1.4622,0.8192,-1.0244,-0.0915,0.1647,0.2581
2.697,0.5135,0.9168,0.0766,-1.4622,0.8192,-1.0244,-0.1905,0.2556,0.3582
2.697,0.5245,0.922,0.066,-1.4622,0.8192,-1.0244,-0.1905,0.2556,0.3582
2.698,0.5279,0.9312,0.0597,-1.4622,0.8192,-1.0244,-0.1905,0.2556,0.3582
2.698,0.5301,0.9393,0.057,-1.4622,0.8192,-1.0244,-0.1905,0.2556,0.3582
2.705,0.5228,0.95,0.0577,-1.4622,0.8192,-1.0244,-0.1905,0.2556,0.3582
2.705,0.5145,0.962,0.0555,-1.4622,0.8192,-1.0244,-0.1905,0.2556,0.3582
2.708,0.5145,0.962,0.0555,-0.6666,0.388,-0.8603,-0.1905,0.2556,0.3582
2.709,0.5008,0.9745,0.0555,-0.6666,0.388,-0.8603,-0.1905,0.2556,0.3582
2.709,0.4876,0.983,0.0472,-0.6666,0.388,-0.8603,-0.1905,0.2556,0.3582
2.712,0.471,0.9933,0.0394,-0.6666,0.388,-0.8603,-0.1905,0.2556,0.3582
2.713,0.4529,1.0031,0.037,-0.6666,0.388,-0.8603,-0.1905,0.2556,0.3582
2.717,0.4351,1.0133,0.0348,-0.6666,0.388,-0.8603,-0.1905,0.2556,0.3582
2.718,0.4121,1.0207,0.0409,-0.6666,0.388,-0.8603,-0.1905,0.2556,0.3582
2.722,0.3896,1.029,0.0487,-0.6666,0.388,-0.8603,-0.1905,0.2556,0.3582
2.723,0.3672,1.0309,0.0634,-0.6666,0.388,-0.8603,-0.1905,0.2556,0.3582
2.727,0.3469,1.0321,0.0814,-0.6666,0.388,-0.8603,-0.1905,0.2556,0.3582
2.728,0.3259,1.0292,0.1034,-0.6666,0.388,-0.8603,-0.1905,0.2556,0.3582
2.732,0.3063,1.0299,0.123,-0.6666,0.388,-0.8603,-0.1905,0.2556,0.3582
2.732,0.2861,1.0268,0.1432,-0.6666,0.388,-0.8603,-0.1905,0.2556,0.3582
2.737,0.2682,1.0285,0.1613,-0.6666,0.388,-0.8603,-0.1905,0.2556,0.3582
2.738,0.2528,1.027,0.1699,-0.6666,0.388,-0.8603,-0.1905,0.2556,0.3582
2.742,0.2443,1.0253,0.1748,-0.6666,0.388,-0.8603,-0.1905,0.2556,0.3582
2.742,0.2419,1.0226,0.1821,-0.6666,0.388,-0.8603,-0.1905,0.2556,0.3582
2.746,0.2455,1.0175,0.1902,-0.6666,0.388,-0.8603,-0.1905,0.2556,0.3582
2.747,0.2536,1.015,0.1967,-0.6666,0.388,-0.8603,-0.1905,0.2556,0.3582
2.751,0.2633,1.0116,0.2094,-0.6666,0.388,-0.8603,-0.1905,0.2556,0.3582
2.752,0.2758,1.006,0.2192,-0.6666,0.388,-0.8603,-0.1905,0.2556,0.3582
2.757,0.2944,1.0031,0.2285,-0.6666,0.388,-0.8603,-0.1905,0.2556,0.3582
2.758,0.3088,0.9987,0.2322,-0.6666,0.388,-0.8603,-0.1905,0.2556,0.3582
2.761,0.3271,0.9933,0.228,-0.6666,0.388,-0.8603,-0.1905,0.2556,0.3582
2.762,0.3271,0.9933,0.228,-0.6666,0.388,-0.8603,-0.1867,0.5061,0.3076
2.762,0.3484,0.9889,0.22,-0.6666,0.388,-0.8603,-0.1867,0.5061,0.3076
2.766,0.3716,0.9894,0.2077,-0.6666,0.388,-0.8603,-0.1867,0.5061,0.3076
2.767,0.3999,0.9864,0.1933,-0.6666,0.388,-0.8603,-0.1867,0.5061,0.3076
2.773,0.4268,0.986,0.184,-0.6666,0.388,-0.8603,-0.1867,0.5061,0.3076
2.774,0.4534,0.985,0.1809,-0.6666,0.388,-0.8603,-0.1867,0.5061,0.3076
2.776,0.4749,0.9847,0.1755,-0.6666,0.388,-0.8603,-0.1867,0.5061,0.3076
2.777,0.4749,0.9847,0.1755,0.3886,0.1435,-0.4238,-0.1867,0.5061,0.3076
2.778,0.4957,0.9869,0.164,0.3886,0.1435,-0.4238,-0.1867,0.5061,0.3076
2.781,0.5142,0.9852,0.1498,0.3886,0.1435,-0.4238,-0.1867,0.5061,0.3076
2.782,0.5321,0.983,0.1362,0.3886,0.1435,-0.4238,-0.1867,0.5061,0.3076
2.785,0.5538,0.9786,0.1222,0.3886,0.1435,-0.4238,-0.1867,0.5061,0.3076
2.786,0.5726,0.9713,0.1059,0.3886,0.1435,-0.4238,-0.1867,0.5061,0.3076
2.79,0.5919,0.9608,0.1005,0.3886,0.1435,-0.4238,-0.1867,0.5061,0.3076
2.791,0.6142,0.9527,0.1017,0.3886,0.1435,-0.4238,-0.1867,0.5061,0.3076
2.796,0.6278,0.9457,0.1103,0.3886,0.1435,-0.4238,-0.1867,0.5061,0.3076
2.796,0.6398,0.9476,0.1227,0.3886,0.1435,-0.4238,-0.1867,0.5061,0.3076
2.8,0.6484,0.9471,0.1296,0.3886,0.1435,-0.4238,-0.1867,0.5061,0.3076
2.801,0.6523,0.9498,0.1318,0.3886,0.1435,-0.4238,-0.1867,0.5061,0.3076
2.807,0.6633,0.953,0.1376,0.3886,0.1435,-0.4238,-0.1867,0.5061,0.3076
2.807,0.675,0.9557,0.144,0.3886,0.1435,-0.4238,-0.1867,0.5061,0.3076
2.811,0.6857,0.9574,0.1491,0.3886,0.1435,-0.4238,-0.1867,0.5061,0.3076
2.812,0.6936,0.9591,0.1496,0.3886,0.1435,-0.4238,-0.1867,0.5061,0.3076
2.816,0.6874,0.9711,0.1459,0.3886,0.1435,-0.4238,-0.1867,0.5061,0.3076
2.816,0.673,0.9813,0.1352,0.3886,0.1435,-0.4238,-0.1867,0.5061,0.3076
2.82,0.6493,0.9987,0.1188,0.3886,0.1435,-0.4238,-0.1867,0.5061,0.3076
2.821,0.6271,1.017,0.0961,0.3886,0.1435,-0.4238,-0.1867,0.5061,0.3076
2.827,0.6088,1.0346,0.0753,0.3886,0.1435,-0.4238,-0.1867,0.5061,0.3076
2.827,0.601,1.049,0.0546,0.3886,0.1435,-0.4238,-0.1867,0.5061,0.3076
2.83,0.5971,1.0617,0.0431,0.3886,0.1435,-0.4238,-0.1867,0.5061,0.3076
2.831,0.6007,1.0766,0.056,0.3886,0.1435,-0.4238,-0.1867,0.5061,0.3076
2.831,0.6007,1.0766,0.056,0.3886,0.1435,-0.4238,-0.231,0.25,0.1016
2.835,0.6093,1.0898,0.0863,0.3886,0.1435,-0.4238,-0.231,0.25,0.1016
2.836,0.6173,1.1008,0.1115,0.3886,0.1435,-0.4238,-0.231,0.25,0.1016
2.84,0.6212,1.1125,0.1261,0.3886,0.1435,-0.4238,-0.231,0.25,0.1016
2.841,0.622,1.1237,0.1325,0.3886,0.1435,-0.4238,-0.231,0.25,0.1016
2.844,0.6139,1.1374,0.1459,0.3886,0.1435,-0.4238,-0.231,0.25,0.1016
2.845,0.5949,1.1555,0.1506,0.3886,0.1435,-0.4238,-0.231,0.25,0.1016
2.846,0.5949,1.1555,0.1506,0.2274,0.8433,-0.1069,-0.231,0.25,0.1016
2.851,0.5653,1.1792,0.1342,0.2274,0.8433,-0.1069,-0.231,0.25,0.1016
2.852,0.5272,1.2078,0.0988,0.2274,0.8433,-0.1069,-0.231,0.25,0.1016
2.855,0.4808,1.2432,0.0665,0.2274,0.8433,-0.1069,-0.231,0.25,0.1016
2.855,0.4366,1.2801,0.0414,0.2274,0.8433,-0.1069,-0.231,0.25,0.1016
2.859,0.386,1.3204,0.0299,0.2274,0.8433,-0.1069,-0.231,0.25,0.1016
2.86,0.3335,1.3641,0.0245,0.2274,0.8433,-0.1069,-0.231,0.25,0.1016
2.864,0.2875,1.4074,0.0294,0.2274,0.8433,-0.1069,-0.231,0.25,0.1016
2.865,0.2416,1.444,0.0436,0.2274,0.8433,-0.1069,-0.231,0.25,0.1016
2.869,0.1971,1.4797,0.0555,0.2274,0.8433,-0.1069,-0.231,0.25,0.1016
2.869,0.1463,1.5144,0.0604,0.2274,0.8433,-0.1069,-0.231,0.25,0.1016
2.874,0.0899,1.5471,0.0555,0.2274,0.8433,-0.1069,-0.231,0.25,0.1016
2.875,0.0337,1.5806,0.027,0.2274,0.8433,-0.1069,-0.231,0.25,0.1016
2.878,-0.0237,1.6087,0.0035,0.2274,0.8433,-0.1069,-0.231,0.25,0.1016
2.879,-0.0716,1.6289,-0.0129,0.2274,0.8433,-0.1069,-0.231,0.25,0.1016
2.883,-0.1082,1.6424,-0.0236,0.2274,0.8433,-0.1069,-0.231,0.25,0.1016
2.884,-0.1422,1.6502,-0.0346,0.2274,0.8433,-0.1069,-0.231,0.25,0.1016
2.888,-0.1688,1.6546,-0.0429,0.2274,0.8433,-0.1069,-0.231,0.25,0.1016
2.889,-0.1964,1.6578,-0.0607,0.2274,0.8433,-0.1069,-0.231,0.25,0.1016
2.894,-0.2282,1.6636,-0.0712,0.2274,0.8433,-0.1069,-0.231,0.25,0.1016
2.895,-0.2678,1.6685,-0.0673,0.2274,0.8433,-0.1069,-0.231,0.25,0.1016
2.898,-0.3093,1.6722,-0.0568,0.2274,0.8433,-0.1069,-0.231,0.25,0.1016
2.898,-0.3093,1.6722,-0.0568,0.2274,0.8433,-0.1069,-0.1556,0.5369,-0.0564
2.899,-0.3581,1.6737,-0.0632,0.2274,0.8433,-0.1069,-0.1556,0.5369,-0.0564
2.902,-0.4055,1.6749,-0.0874,0.2274,0.8433,-0.1069,-0.1556,0.5369,-0.0564
2.903,-0.4483,1.6778,-0.1177,0.2274,0.8433,-0.1069,-0.1556,0.5369,-0.0564
2.908,-0.482,1.6807,-0.1362,0.2274,0.8433,-0.1069,-0.1556,0.5369,-0.0564
2.908,-0.5086,1.6817,-0.1462,0.2274,0.8433,-0.1069,-0.1556,0.5369,-0.0564
2.914,-0.5086,1.6817,-0.1462,2.8535,0.8262,-0.6368,-0.1556,0.5369,-0.0564
2.915,-0.5245,1.6798,-0.1582,2.8535,0.8262,-0.6368,-0.1556,0.5369,-0.0564
2.916,-0.525,1.6737,-0.1719,2.8535,0.8262,-0.6368,-0.1556,0.5369,-0.0564
2.918,-0.5172,1.6653,-0.177,2.8535,0.8262,-0.6368,-0.1556,0.5369,-0.0564
2.919,-0.5015,1.6551,-0.1741,2.8535,0.8262,-0.6368,-0.1556,0.5369,-0.0564
2.922,-0.4886,1.6446,-0.1741,2.8535,0.8262,-0.6368,-0.1556,0.5369,-0.0564
2.923,-0.4774,1.6358,-0.1699,2.8535,0.8262,-0.6368,-0.1556,0.5369,-0.0564
2.929,-0.4703,1.6263,-0.1487,2.8535,0.8262,-0.6368,-0.1556,0.5369,-0.0564
2.93,-0.4559,1.6123,-0.1245,2.8535,0.8262,-0.6368,-0.1556,0.5369,-0.0564
2.933,-0.4414,1.5967,-0.1172,2.8535,0.8262,-0.6368,-0.1556,0.5369,-0.0564
2.934,-0.4185,1.5828,-0.1118,2.8535,0.8262,-0.6368,-0.1556,0.5369,-0.0564
2.938,-0.3899,1.563,-0.0947,2.8535,0.8262,-0.6368,-0.1556,0.5369,-0.0564
2.939,-0.3513,1.54,-0.0683,2.8535,0.8262,-0.6368,-0.1556,0.5369,-0.0564
2.942,-0.3061,1.5146,-0.0405,2.8535,0.8262,-0.6368,-0.1556,0.5369,-0.0564
2.943,-0.2511,1.4851,-0.0258,2.8535,0.8262,-0.6368,-0.1556,0.5369,-0.0564
2.947,-0.1925,1.4506,-0.007,2.8535,0.8262,-0.6368,-0.1556,0.5369,-0.0564
2.949,-0.1241,1.414,0.0201,2.8535,0.8262,-0.6368,-0.1556,0.5369,-0.0564
2.952,-0.053,1.3749,0.0592,2.8535,0.8262,-0.6368,-0.1556,0.5369,-0.0564
2.952,0.0183,1.3351,0.0983,2.8535,0.8262,-0.6368,-0.1556,0.5369,-0.0564
2.957,0.084,1.3001,0.1354,2.8535,0.8262,-0.6368,-0.1556,0.5369,-0.0564
2.961,0.1468,1.2681,0.166,2.8535,0.8262,-0.6368,-0.1556,0.5369,-0.0564
2.962,0.203,1.2444,0.1921,2.8535,0.8262,-0.6368,-0.1556,0.5369,-0.0564
2.964,0.2526,1.2249,0.2156,2.8535,0.8262,-0.6368,-0.1556,0.5369,-0.0564
2.965,0.3007,1.2085,0.2297,2.8535,0.8262,-0.6368,-0.1556,0.5369,-0.0564
2.969,0.3007,1.2085,0.2297,2.8535,0.8262,-0.6368,-0.3629,0.9419,0.792
2.971,0.3501,1.197,0.2471,2.8535,0.8262,-0.6368,-0.3629,0.9419,0.792
2.972,0.3953,1.1797,0.2612,2.8535,0.8262,-0.6368,-0.3629,0.9419,0.792
2.974,0.4419,1.1626,0.2732,2.8535,0.8262,-0.6368,-0.3629,0.9419,0.792
2.975,0.4815,1.1428,0.283,2.8535,0.8262,-0.6368,-0.3629,0.9419,0.792
2.98,0.5123,1.1284,0.2937,2.8535,0.8262,-0.6368,-0.3629,0.9419,0.792
2.981,0.5123,1.1284,0.2937,-3.5026,5.9929,-2.2469,-0.3629,0.9419,0.792
2.982,0.536,1.1147,0.2957,-3.5026,5.9929,-2.2469,-0.3629,0.9419,0.792
2.985,0.5462,1.112,0.2891,-3.5026,5.9929,-2.2469,-0.3629,0.9419,0.792
2.986,0.5448,1.1174,0.2862,-3.5026,5.9929,-2.2469,-0.3629,0.9419,0.792
2.989,0.5316,1.1352,0.2747,-3.5026,5.9929,-2.2469,-0.3629,0.9419,0.792
2.989,0.5108,1.1667,0.259,-3.5026,5.9929,-2.2469,-0.3629,0.9419,0.792
2.993,0.4827,1.2009,0.2446,-3.5026,5.9929,-2.2469,-0.3629,0.9419,0.792
2.995,0.4573,1.2388,0.2251,-3.5026,5.9929,-2.2469,-0.3629,0.9419,0.792
2.999,0.439,1.2776,0.2033,-3.5026,5.9929,-2.2469,-0.3629,0.9419,0.792
3,0.4307,1.3075,0.186,-3.5026,5.9929,-2.2469,-0.3629,0.9419,0.792
3.003,0.4326,1.3412,0.2019,-3.5026,5.9929,-2.2469,-0.3629,0.9419,0.792
3.004,0.4539,1.3712,0.238,-3.5026,5.9929,-2.2469,-0.3629,0.9419,0.792
3.009,0.4805,1.3998,0.2463,-3.5026,5.9929,-2.2469,-0.3629,0.9419,0.792
3.01,0.4869,1.434,0.1999,-3.5026,5.9929,-2.2469,-0.3629,0.9419,0.792
3.013,0.4681,1.4787,0.131,-3.5026,5.9929,-2.2469,-0.3629,0.9419,0.792
3.014,0.4207,1.5273,0.0741,-3.5026,5.9929,-2.2469,-0.3629,0.9419,0.792
3.018,0.3591,1.5642,0.0213,-3.5026,5.9929,-2.2469,-0.3629,0.9419,0.792
3.019,0.2956,1.586,-0.0373,-3.5026,5.9929,-2.2469,-0.3629,0.9419,0.792
3.023,0.2387,1.5825,-0.0793,-3.5026,5.9929,-2.2469,-0.3629,0.9419,0.792
3.023,0.1957,1.5525,-0.1113,-3.5026,5.9929,-2.2469,-0.3629,0.9419,0.792
3.029,0.1708,1.5009,-0.1284,-3.5026,5.9929,-2.2469,-0.3629,0.9419,0.792
3.029,0.1593,1.4355,-0.1333,-3.5026,5.9929,-2.2469,-0.3629,0.9419,0.792
3.033,0.1541,1.3705,-0.1262,-3.5026,5.9929,-2.2469,-0.3629,0.9419,0.792
3.034,0.1495,1.316,-0.1015,-3.5026,5.9929,-2.2469,-0.3629,0.9419,0.792
3.04,0.1495,1.316,-0.1015,-3.5026,5.9929,-2.2469,-0.5083,0.46,1.0671
3.041,0.1427,1.2737,-0.0651,-3.5026,5.9929,-2.2469,-0.5083,0.46,1.0671
3.041,0.137,1.2491,-0.0177,-3.5026,5.9929,-2.2469,-0.5083,0.46,1.0671
3.042,0.1356,1.2334,0.0372,-3.5026,5.9929,-2.2469,-0.5083,0.46,1.0671
3.043,0.1451,1.2285,0.0905,-3.5026,5.9929,-2.2469,-0.5083,0.46,1.0671
3.048,0.1703,1.2305,0.1447,-3.5026,5.9929,-2.2469,-0.5083,0.46,1.0671
3.05,0.1703,1.2305,0.1447,-4.8834,5.2287,-2.2013,-0.5083,0.46,1.0671
3.05,0.2094,1.232,0.1858,-4.8834,5.2287,-2.2013,-0.5083,0.46,1.0671
3.052,0.2604,1.2437,0.2241,-4.8834,5.2287,-2.2013,-0.5083,0.46,1.0671
3.053,0.3195,1.2564,0.2537,-4.8834,5.2287,-2.2013,-0.5083,0.46,1.0671
3.057,0.3838,1.2713,0.2769,-4.8834,5.2287,-2.2013,-0.5083,0.46,1.0671
3.058,0.4483,1.2933,0.2901,-4.8834,5.2287,-2.2013,-0.5083,0.46,1.0671
3.062,0.5072,1.3082,0.3025,-4.8834,5.2287,-2.2013,-0.5083,0.46,1.0671
3.063,0.5614,1.3206,0.3069,-4.8834,5.2287,-2.2013,-0.5083,0.46,1.0671
3.067,0.61,1.3263,0.3045,-4.8834,5.2287,-2.2013,-0.5083,0.46,1.0671
3.068,0.6501,1.3275,0.3008,-4.8834,5.2287,-2.2013,-0.5083,0.46,1.0671
3.073,0.685,1.3202,0.2984,-4.8834,5.2287,-2.2013,-0.5083,0.46,1.0671
3.074,0.7124,1.306,0.2996,-4.8834,5.2287,-2.2013,-0.5083,0.46,1.0671
3.076,0.7417,1.2825,0.3101,-4.8834,5.2287,-2.2013,-0.5083,0.46,1.0671
3.077,0.7659,1.2522,0.3233,-4.8834,5.2287,-2.2013,-0.5083,0.46,1.0671
3.081,0.7883,1.2149,0.3409,-4.8834,5.2287,-2.2013,-0.5083,0.46,1.0671
3.082,0.8076,1.1709,0.3594,-4.8834,5.2287,-2.2013,-0.5083,0.46,1.0671
3.086,0.8255,1.1237,0.3809,-4.8834,5.2287,-2.2013,-0.5083,0.46,1.0671
3.087,0.8377,1.0759,0.4044,-4.8834,5.2287,-2.2013,-0.5083,0.46,1.0671
3.091,0.8445,1.0304,0.4286,-4.8834,5.2287,-2.2013,-0.5083,0.46,1.0671
3.092,0.8489,0.9847,0.4513,-4.8834,5.2287,-2.2013,-0.5083,0.46,1.0671
3.096,0.8453,0.941,0.4674,-4.8834,5.2287,-2.2013,-0.5083,0.46,1.0671
3.096,0.8411,0.8985,0.497,-4.8834,5.2287,-2.2013,-0.5083,0.46,1.0671
3.101,0.8333,0.8577,0.5202,-4.8834,5.2287,-2.2013,-0.5083,0.46,1.0671
3.101,0.8206,0.8186,0.5439,-4.8834,5.2287,-2.2013,-0.5083,0.46,1.0671
3.106,0.8079,0.78,0.5585,-4.8834,5.2287,-2.2013,-0.5083,0.46,1.0671
3.107,0.8079,0.78,0.5585,-4.8834,5.2287,-2.2013,-1.202,0.507,2.4494
3.107,0.7932,0.7456,0.5703,-4.8834,5.2287,-2.2013,-1.202,0.507,2.4494
3.112,0.7866,0.7131,0.5803,-4.8834,5.2287,-2.2013,-1.202,0.507,2.4494
3.112,0.7739,0.684,0.5818,-4.8834,5.2287,-2.2013,-1.202,0.507,2.4494
3.118,0.7605,0.6562,0.5796,-4.8834,5.2287,-2.2013,-1.202,0.507,2.4494
3.119,0.7605,0.6562,0.5796,-2.0888,5.4586,-2.4256,-1.202,0.507,2.4494
3.119,0.7451,0.6312,0.5754,-2.0888,5.4586,-2.4256,-1.202,0.507,2.4494
3.12,0.7297,0.6097,0.5742,-2.0888,5.4586,-2.4256,-1.202,0.507,2.4494
3.121,0.716,0.5907,0.5752,-2.0888,5.4586,-2.4256,-1.202,0.507,2.4494
3.127,0.7023,0.5733,0.5752,-2.0888,5.4586,-2.4256,-1.202,0.507,2.4494
3.127,0.6904,0.5589,0.5827,-2.0888,5.4586,-2.4256,-1.202,0.507,2.4494
3.13,0.6767,0.5411,0.5813,-2.0888,5.4586,-2.4256,-1.202,0.507,2.4494
3.131,0.6684,0.5216,0.5788,-2.0888,5.4586,-2.4256,-1.202,0.507,2.4494
3.136,0.6547,0.5045,0.5764,-2.0888,5.4586,-2.4256,-1.202,0.507,2.4494
3.137,0.6449,0.4859,0.5754,-2.0888,5.4586,-2.4256,-1.202,0.507,2.4494
3.139,0.6342,0.4651,0.5749,-2.0888,5.4586,-2.4256,-1.202,0.507,2.4494
3.14,0.6305,0.4446,0.5771,-2.0888,5.4586,-2.4256,-1.202,0.507,2.4494
3.144,0.6217,0.4214,0.5761,-2.0888,5.4586,-2.4256,-1.202,0.507,2.4494
3.145,0.6144,0.3984,0.5778,-2.0888,5.4586,-2.4256,-1.202,0.507,2.4494
3.15,0.599,0.373,0.5752,-2.0888,5.4586,-2.4256,-1.202,0.507,2.4494
3.151,0.5809,0.3518,0.58,-2.0888,5.4586,-2.4256,-1.202,0.507,2.4494
3.155,0.5658,0.3305,0.5869,-2.0888,5.4586,-2.4256,-1.202,0.507,2.4494
3.156,0.5492,0.3078,0.5959,-2.0888,5.4586,-2.4256,-1.202,0.507,2.4494
3.161,0.5299,0.288,0.6096,-2.0888,5.4586,-2.4256,-1.202,0.507,2.4494
3.161,0.5113,0.2724,0.6218,-2.0888,5.4586,-2.4256,-1.202,0.507,2.4494
3.164,0.493,0.2555,0.6333,-2.0888,5.4586,-2.4256,-1.202,0.507,2.4494
3.164,0.4744,0.2428,0.6441,-2.0888,5.4586,-2.4256,-1.202,0.507,2.4494
3.169,0.4603,0.2323,0.6455,-2.0888,5.4586,-2.4256,-1.202,0.507,2.4494
3.17,0.4461,0.2262,0.6399,-2.0888,5.4586,-2.4256,-1.202,0.507,2.4494
3.174,0.4461,0.2262,0.6399,-2.0888,5.4586,-2.4256,-1.0087,0.3475,2.4552
3.175,0.4361,0.2203,0.6291,-2.0888,5.4586,-2.4256,-1.0087,0.3475,2.4552
3.176,0.4231,0.2198,0.6211,-2.0888,5.4586,-2.4256,-1.0087,0.3475,2.4552
3.18,0.4177,0.2216,0.6118,-2.0888,5.4586,-2.4256,-1.0087,0.3475,2.4552
3.181,0.4111,0.2245,0.6069,-2.0888,5.4586,-2.4256,-1.0087,0.3475,2.4552
3.184,0.4111,0.2245,0.6069,0.4031,3.8713,0.0725,-1.0087,0.3475,2.4552
3.185,0.4089,0.2323,0.6006,0.4031,3.8713,0.0725,-1.0087,0.3475,2.4552
3.185,0.4114,0.2428,0.592,0.4031,3.8713,0.0725,-1.0087,0.3475,2.4552
3.189,0.417,0.2541,0.5805,0.4031,3.8713,0.0725,-1.0087,0.3475,2.4552
3.189,0.4273,0.2668,0.5637,0.4031,3.8713,0.0725,-1.0087,0.3475,2.4552
3.194,0.4412,0.2804,0.5485,0.4031,3.8713,0.0725,-1.0087,0.3475,2.4552
3.195,0.4519,0.2946,0.5185,0.4031,3.8713,0.0725,-1.0087,0.3475,2.4552
3.2,0.4607,0.3085,0.4904,0.4031,3.8713,0.0725,-1.0087,0.3475,2.4552
3.2,0.4637,0.3242,0.4591,0.4031,3.8713,0.0725,-1.0087,0.3475,2.4552
3.203,0.4612,0.3366,0.4305,0.4031,3.8713,0.0725,-1.0087,0.3475,2.4552
3.203,0.4603,0.3486,0.402,0.4031,3.8713,0.0725,-1.0087,0.3475,2.4552
3.208,0.4585,0.3589,0.3758,0.4031,3.8713,0.0725,-1.0087,0.3475,2.4552
3.209,0.4515,0.3615,0.3502,0.4031,3.8713,0.0725,-1.0087,0.3475,2.4552
3.214,0.4468,0.364,0.3343,0.4031,3.8713,0.0725,-1.0087,0.3475,2.4552
3.214,0.4466,0.3633,0.326,0.4031,3.8713,0.0725,-1.0087,0.3475,2.4552
3.218,0.4524,0.3603,0.3221,0.4031,3.8713,0.0725,-1.0087,0.3475,2.4552
3.219,0.461,0.353,0.3252,0.4031,3.8713,0.0725,-1.0087,0.3475,2.4552
3.223,0.473,0.3437,0.3287,0.4031,3.8713,0.0725,-1.0087,0.3475,2.4552
3.224,0.4825,0.332,0.3252,0.4031,3.8713,0.0725,-1.0087,0.3475,2.4552
3.228,0.491,0.3207,0.3223,0.4031,3.8713,0.0725,-1.0087,0.3475,2.4552
3.229,0.5006,0.309,0.3186,0.4031,3.8713,0.0725,-1.0087,0.3475,2.4552
3.234,0.5091,0.299,0.3177,0.4031,3.8713,0.0725,-1.0087,0.3475,2.4552
3.235,0.526,0.2941,0.3138,0.4031,3.8713,0.0725,-1.0087,0.3475,2.4552
3.239,0.5443,0.2934,0.3138,0.4031,3.8713,0.0725,-1.0087,0.3475,2.4552
3.239,0.5538,0.2953,0.3162,0.4031,3.8713,0.0725,-1.0087,0.3475,2.4552
3.242,0.5626,0.2973,0.3213,0.4031,3.8713,0.0725,-1.0087,0.3475,2.4552
3.243,0.5695,0.3046,0.3311,0.4031,3.8713,0.0725,-1.0087,0.3475,2.4552
3.243,0.5695,0.3046,0.3311,0.4031,3.8713,0.0725,-0.4885,-0.9106,1.3378
3.247,0.5724,0.3107,0.3397,0.4031,3.8713,0.0725,-0.4885,-0.9106,1.3378
3.248,0.5719,0.3166,0.3497,0.4031,3.8713,0.0725,-0.4885,-0.9106,1.3378
3.252,0.5719,0.3166,0.3497,-1.638,-2.2853,2.183,-0.4885,-0.9106,1.3378
3.253,0.566,0.3227,0.3497,-1.638,-2.2853,2.183,-0.4885,-0.9106,1.3378
3.253,0.5602,0.3237,0.3524,-1.638,-2.2853,2.183,-0.4885,-0.9106,1.3378
3.258,0.5531,0.3237,0.3524,-1.638,-2.2853,2.183,-0.4885,-0.9106,1.3378
3.258,0.5472,0.3176,0.3511,-1.638,-2.2853,2.183,-0.4885,-0.9106,1.3378
3.262,0.5436,0.3105,0.3521,-1.638,-2.2853,2.183,-0.4885,-0.9106,1.3378
3.263,0.5428,0.3007,0.3538,-1.638,-2.2853,2.183,-0.4885,-0.9106,1.3378
3.268,0.5431,0.2885,0.3616,-1.638,-2.2853,2.183,-0.4885,-0.9106,1.3378
3.269,0.5436,0.2755,0.3704,-1.638,-2.2853,2.183,-0.4885,-0.9106,1.3378
3.272,0.5453,0.2584,0.3734,-1.638,-2.2853,2.183,-0.4885,-0.9106,1.3378
3.273,0.5467,0.2426,0.3731,-1.638,-2.2853,2.183,-0.4885,-0.9106,1.3378
3.276,0.5421,0.2282,0.3746,-1.638,-2.2853,2.183,-0.4885,-0.9106,1.3378
3.277,0.537,0.2162,0.3768,-1.638,-2.2853,2.183,-0.4885,-0.9106,1.3378
3.282,0.5265,0.2074,0.3743,-1.638,-2.2853,2.183,-0.4885,-0.9106,1.3378
3.283,0.5147,0.202,0.3692,-1.638,-2.2853,2.183,-0.4885,-0.9106,1.3378
3.287,0.5015,0.1979,0.366,-1.638,-2.2853,2.183,-0.4885,-0.9106,1.3378
3.287,0.4942,0.1988,0.3614,-1.638,-2.2853,2.183,-0.4885,-0.9106,1.3378
3.292,0.4879,0.2035,0.3555,-1.638,-2.2853,2.183,-0.4885,-0.9106,1.3378
3.293,0.4883,0.2052,0.3543,-1.638,-2.2853,2.183,-0.4885,-0.9106,1.3378
3.296,0.4903,0.2076,0.3524,-1.638,-2.2853,2.183,-0.4885,-0.9106,1.3378
3.297,0.4935,0.2115,0.3546,-1.638,-2.2853,2.183,-0.4885,-0.9106,1.3378
3.301,0.5089,0.2123,0.3529,-1.638,-2.2853,2.183,-0.4885,-0.9106,1.3378
3.301,0.5287,0.214,0.3502,-1.638,-2.2853,2.183,-0.4885,-0.9106,1.3378
3.306,0.5492,0.2142,0.3441,-1.638,-2.2853,2.183,-0.4885,-0.9106,1.3378
3.306,0.5746,0.2106,0.3448,-1.638,-2.2853,2.183,-0.4885,-0.9106,1.3378
3.312,0.6039,0.2057,0.3436,-1.638,-2.2853,2.183,-0.4885,-0.9106,1.3378
3.312,0.6039,0.2057,0.3436,-1.638,-2.2853,2.183,0.2965,-0.1687,0.1192
3.313,0.6288,0.202,0.3445,-1.638,-2.2853,2.183,0.2965,-0.1687,0.1192
3.319,0.6447,0.2023,0.3438,-1.638,-2.2853,2.183,0.2965,-0.1687,0.1192
3.32,0.6554,0.2052,0.3455,-1.638,-2.2853,2.183,0.2965,-0.1687,0.1192
3.322,0.6554,0.2052,0.3455,-2.2382,-2.8781,0.2662,0.2965,-0.1687,0.1192
3.323,0.6584,0.2128,0.3497,-2.2382,-2.8781,0.2662,0.2965,-0.1687,0.1192
3.324,0.6535,0.2213,0.3568,-2.2382,-2.8781,0.2662,0.2965,-0.1687,0.1192
3.326,0.6391,0.233,0.3594,-2.2382,-2.8781,0.2662,0.2965,-0.1687,0.1192
3.326,0.6212,0.2477,0.3621,-2.2382,-2.8781,0.2662,0.2965,-0.1687,0.1192
3.331,0.5995,0.2606,0.3663,-2.2382,-2.8781,0.2662,0.2965,-0.1687,0.1192
3.332,0.5734,0.2768,0.3712,-2.2382,-2.8781,0.2662,0.2965,-0.1687,0.1192
3.337,0.5492,0.2912,0.3763,-2.2382,-2.8781,0.2662,0.2965,-0.1687,0.1192
3.338,0.5243,0.3014,0.3809,-2.2382,-2.8781,0.2662,0.2965,-0.1687,0.1192
3.34,0.4976,0.31,0.3836,-2.2382,-2.8781,0.2662,0.2965,-0.1687,0.1192
3.341,0.4798,0.3149,0.3836,-2.2382,-2.8781,0.2662,0.2965,-0.1687,0.1192
3.345,0.4644,0.3181,0.3849,-2.2382,-2.8781,0.2662,0.2965,-0.1687,0.1192
3.346,0.4559,0.3185,0.3851,-2.2382,-2.8781,0.2662,0.2965,-0.1687,0.1192
3.349,0.45,0.3195,0.3795,-2.2382,-2.8781,0.2662,0.2965,-0.1687,0.1192
3.35,0.4475,0.3139,0.3778,-2.2382,-2.8781,0.2662,0.2965,-0.1687,0.1192
3.355,0.4502,0.3105,0.3717,-2.2382,-2.8781,0.2662,0.2965,-0.1687,0.1192
3.356,0.4563,0.3041,0.3673,-2.2382,-2.8781,0.2662,0.2965,-0.1687,0.1192
3.36,0.4659,0.2922,0.3597,-2.2382,-2.8781,0.2662,0.2965,-0.1687,0.1192
3.36,0.4781,0.2826,0.3497,-2.2382,-2.8781,0.2662,0.2965,-0.1687,0.1192
3.365,0.4915,0.2751,0.3394,-2.2382,-2.8781,0.2662,0.2965,-0.1687,0.1192
3.366,0.5054,0.2692,0.3314,-2.2382,-2.8781,0.2662,0.2965,-0.1687,0.1192
3.369,0.5196,0.2638,0.3199,-2.2382,-2.8781,0.2662,0.2965,-0.1687,0.1192
3.369,0.5333,0.2611,0.3055,-2.2382,-2.8781,0.2662,0.2965,-0.1687,0.1192
3.374,0.5524,0.2541,0.2903,-2.2382,-2.8781,0.2662,0.2965,-0.1687,0.1192
3.375,0.5712,0.2492,0.2737,-2.2382,-2.8781,0.2662,0.2965,-0.1687,0.1192
3.379,0.5934,0.2391,0.2598,-2.2382,-2.8781,0.2662,0.2965,-0.1687,0.1192
3.38,0.5934,0.2391,0.2598,-2.2382,-2.8781,0.2662,1.1011,-0.2484,-1.1004
3.38,0.6107,0.2282,0.2437,-2.2382,-2.8781,0.2662,1.1011,-0.2484,-1.1004
3.384,0.6222,0.2238,0.2317,-2.2382,-2.8781,0.2662,1.1011,-0.2484,-1.1004
3.385,0.6124,0.233,0.2204,-2.2382,-2.8781,0.2662,1.1011,-0.2484,-1.1004
3.389,0.6124,0.233,0.2204,-1.1437,-4.4903,0.7292,1.1011,-0.2484,-1.1004
3.39,0.6249,0.2335,0.1809,-1.1437,-4.4903,0.7292,1.1011,-0.2484,-1.1004
3.39,0.6562,0.2118,0.1777,-1.1437,-4.4903,0.7292,1.1011,-0.2484,-1.1004
3.395,0.6706,0.2042,0.1745,-1.1437,-4.4903,0.7292,1.1011,-0.2484,-1.1004
3.396,0.6765,0.2008,0.2058,-1.1437,-4.4903,0.7292,1.1011,-0.2484,-1.1004
3.398,0.6718,0.1976,0.2251,-1.1437,-4.4903,0.7292,1.1011,-0.2484,-1.1004
3.398,0.664,0.1971,0.2129,-1.1437,-4.4903,0.7292,1.1011,-0.2484,-1.1004
3.404,0.6572,0.1957,0.1904,-1.1437,-4.4903,0.7292,1.1011,-0.2484,-1.1004
3.405,0.6479,0.2005,0.1716,-1.1437,-4.4903,0.7292,1.1011,-0.2484,-1.1004
3.408,0.6459,0.2027,0.1538,-1.1437,-4.4903,0.7292,1.1011,-0.2484,-1.1004
3.409,0.6523,0.203,0.1388,-1.1437,-4.4903,0.7292,1.1011,-0.2484,-1.1004
3.414,0.6681,0.2049,0.1347,-1.1437,-4.4903,0.7292,1.1011,-0.2484,-1.1004
3.414,0.6872,0.2059,0.1259,-1.1437,-4.4903,0.7292,1.1011,-0.2484,-1.1004
3.418,0.7021,0.2052,0.1159,-1.1437,-4.4903,0.7292,1.1011,-0.2484,-1.1004
3.419,0.7104,0.2084,0.1042,-1.1437,-4.4903,0.7292,1.1011,-0.2484,-1.1004
3.423,0.7163,0.2157,0.0976,-1.1437,-4.4903,0.7292,1.1011,-0.2484,-1.1004
3.423,0.7202,0.2194,0.0863,-1.1437,-4.4903,0.7292,1.1011,-0.2484,-1.1004
3.43,0.7236,0.2245,0.077,-1.1437,-4.4903,0.7292,1.1011,-0.2484,-1.1004
3.431,0.7256,0.2289,0.0675,-1.1437,-4.4903,0.7292,1.1011,-0.2484,-1.1004
3.434,0.7251,0.2389,0.0617,-1.1437,-4.4903,0.7292,1.1011,-0.2484,-1.1004
3.434,0.7199,0.2523,0.0643,-1.1437,-4.4903,0.7292,1.1011,-0.2484,-1.1004
3.439,0.7119,0.2624,0.0682,-1.1437,-4.4903,0.7292,1.1011,-0.2484,-1.1004
3.44,0.6992,0.279,0.0724,-1.1437,-4.4903,0.7292,1.1011,-0.2484,-1.1004
3.443,0.6823,0.2946,0.0775,-1.1437,-4.4903,0.7292,1.1011,-0.2484,-1.1004
3.443,0.6662,0.3083,0.0834,-1.1437,-4.4903,0.7292,1.1011,-0.2484,-1.1004
3.448,0.6662,0.3083,0.0834,-1.1437,-4.4903,0.7292,1.2494,-0.6712,-1.9227
3.45,0.6488,0.3276,0.0885,-1.1437,-4.4903,0.7292,1.2494,-0.6712,-1.9227
3.45,0.6278,0.3415,0.0961,-1.1437,-4.4903,0.7292,1.2494,-0.6712,-1.9227
3.453,0.6085,0.3586,0.1046,-1.1437,-4.4903,0.7292,1.2494,-0.6712,-1.9227
3.454,0.589,0.3718,0.1093,-1.1437,-4.4903,0.7292,1.2494,-0.6712,-1.9227
3.459,0.589,0.3718,0.1093,-0.3898,-5.0053,1.2487,1.2494,-0.6712,-1.9227
3.459,0.5702,0.3874,0.1164,-0.3898,-5.0053,1.2487,1.2494,-0.6712,-1.9227
3.461,0.5536,0.3975,0.122,-0.3898,-5.0053,1.2487,1.2494,-0.6712,-1.9227
3.463,0.5392,0.4067,0.1266,-0.3898,-5.0053,1.2487,1.2494,-0.6712,-1.9227
3.464,0.5243,0.4094,0.1281,-0.3898,-5.0053,1.2487,1.2494,-0.6712,-1.9227
3.467,0.5116,0.416,0.1337,-0.3898,-5.0053,1.2487,1.2494,-0.6712,-1.9227
3.468,0.5003,0.416,0.131,-0.3898,-5.0053,1.2487,1.2494,-0.6712,-1.9227
3.473,0.4874,0.417,0.1364,-0.3898,-5.0053,1.2487,1.2494,-0.6712,-1.9227
3.474,0.4778,0.4194,0.1386,-0.3898,-5.0053,1.2487,1.2494,-0.6712,-1.9227
3.478,0.4705,0.418,0.1428,-0.3898,-5.0053,1.2487,1.2494,-0.6712,-1.9227
3.478,0.4615,0.4202,0.1479,-0.3898,-5.0053,1.2487,1.2494,-0.6712,-1.9227
3.484,0.4541,0.4172,0.1535,-0.3898,-5.0053,1.2487,1.2494,-0.6712,-1.9227
3.485,0.4475,0.416,0.1596,-0.3898,-5.0053,1.2487,1.2494,-0.6712,-1.9227
3.487,0.4427,0.4148,0.1645,-0.3898,-5.0053,1.2487,1.2494,-0.6712,-1.9227
3.487,0.441,0.4146,0.1687,-0.3898,-5.0053,1.2487,1.2494,-0.6712,-1.9227
3.491,0.4405,0.4143,0.1721,-0.3898,-5.0053,1.2487,1.2494,-0.6712,-1.9227
3.492,0.4414,0.4104,0.1704,-0.3898,-5.0053,1.2487,1.2494,-0.6712,-1.9227
3.496,0.4422,0.4092,0.1704,-0.3898,-5.0053,1.2487,1.2494,-0.6712,-1.9227
3.498,0.4422,0.4099,0.174,-0.3898,-5.0053,1.2487,1.2494,-0.6712,-1.9227
3.501,0.4407,0.4116,0.1811,-0.3898,-5.0053,1.2487,1.2494,-0.6712,-1.9227
3.502,0.4344,0.4175,0.1867,-0.3898,-5.0053,1.2487,1.2494,-0.6712,-1.9227
3.506,0.4287,0.4268,0.1992,-0.3898,-5.0053,1.2487,1.2494,-0.6712,-1.9227
3.507,0.4207,0.4331,0.2082,-0.3898,-5.0053,1.2487,1.2494,-0.6712,-1.9227
3.512,0.4114,0.4463,0.2168,-0.3898,-5.0053,1.2487,1.2494,-0.6712,-1.9227
3.512,0.4036,0.4605,0.2224,-0.3898,-5.0053,1.2487,1.2494,-0.6712,-1.9227
3.518,0.4036,0.4605,0.2224,-0.3898,-5.0053,1.2487,0.894,-0.3625,-1.7727
3.52,0.3987,0.4688,0.2312,-0.3898,-5.0053,1.2487,0.894,-0.3625,-1.7727
3.52,0.3965,0.4808,0.2331,-0.3898,-5.0053,1.2487,0.894,-0.3625,-1.7727
3.521,0.3975,0.4886,0.2336,-0.3898,-5.0053,1.2487,0.894,-0.3625,-1.7727
3.521,0.4055,0.4952,0.2253,-0.3898,-5.0053,1.2487,0.894,-0.3625,-1.7727
3.527,0.4055,0.4952,0.2253,1.7571,-5.7661,-0.1584,0.894,-0.3625,-1.7727
3.527,0.4126,0.502,0.2156,1.7571,-5.7661,-0.1584,0.894,-0.3625,-1.7727
3.528,0.4234,0.5032,0.2041,1.7571,-5.7661,-0.1584,0.894,-0.3625,-1.7727
3.53,0.4341,0.5084,0.1931,1.7571,-5.7661,-0.1584,0.894,-0.3625,-1.7727
3.531,0.4466,0.5093,0.1823,1.7571,-5.7661,-0.1584,0.894,-0.3625,-1.7727
3.536,0.4585,0.5113,0.1718,1.7571,-5.7661,-0.1584,0.894,-0.3625,-1.7727
3.536,0.4732,0.5137,0.1621,1.7571,-5.7661,-0.1584,0.894,-0.3625,-1.7727
3.541,0.491,0.5181,0.153,1.7571,-5.7661,-0.1584,0.894,-0.3625,-1.7727
3.542,0.5067,0.5162,0.1437,1.7571,-5.7661,-0.1584,0.894,-0.3625,-1.7727
3.545,0.524,0.5179,0.1396,1.7571,-5.7661,-0.1584,0.894,-0.3625,-1.7727
3.546,0.5404,0.5211,0.1347,1.7571,-5.7661,-0.1584,0.894,-0.3625,-1.7727
3.552,0.558,0.5245,0.131,1.7571,-5.7661,-0.1584,0.894,-0.3625,-1.7727
3.553,0.5721,0.526,0.1279,1.7571,-5.7661,-0.1584,0.894,-0.3625,-1.7727
3.555,0.5866,0.5257,0.1193,1.7571,-5.7661,-0.1584,0.894,-0.3625,-1.7727
3.556,0.601,0.5267,0.1156,1.7571,-5.7661,-0.1584,0.894,-0.3625,-1.7727
3.56,0.6146,0.5279,0.1088,1.7571,-5.7661,-0.1584,0.894,-0.3625,-1.7727
3.561,0.6303,0.5294,0.1005,1.7571,-5.7661,-0.1584,0.894,-0.3625,-1.7727
3.564,0.644,0.5301,0.0951,1.7571,-5.7661,-0.1584,0.894,-0.3625,-1.7727
3.566,0.6537,0.5294,0.0885,1.7571,-5.7661,-0.1584,0.894,-0.3625,-1.7727
3.569,0.6662,0.5316,0.0792,1.7571,-5.7661,-0.1584,0.894,-0.3625,-1.7727
3.57,0.676,0.5299,0.0692,1.7571,-5.7661,-0.1584,0.894,-0.3625,-1.7727
3.575,0.6877,0.5323,0.0621,1.7571,-5.7661,-0.1584,0.894,-0.3625,-1.7727
3.576,0.6911,0.5308,0.0546,1.7571,-5.7661,-0.1584,0.894,-0.3625,-1.7727
3.58,0.6938,0.5311,0.0494,1.7571,-5.7661,-0.1584,0.894,-0.3625,-1.7727
3.581,0.6965,0.5357,0.0399,1.7571,-5.7661,-0.1584,0.894,-0.3625,-1.7727
3.585,0.6965,0.5357,0.0399,1.7571,-5.7661,-0.1584,0.3194,-1.2078,-1.3854
3.586,0.6933,0.5365,0.0367,1.7571,-5.7661,-0.1584,0.3194,-1.2078,-1.3854
3.587,0.6892,0.5445,0.0318,1.7571,-5.7661,-0.1584,0.3194,-1.2078,-1.3854
3.589,0.6833,0.5467,0.0284,1.7571,-5.7661,-0.1584,0.3194,-1.2078,-1.3854
3.59,0.6725,0.5533,0.0243,1.7571,-5.7661,-0.1584,0.3194,-1.2078,-1.3854
3.597,0.6589,0.5575,0.0262,1.7571,-5.7661,-0.1584,0.3194,-1.2078,-1.3854
3.598,0.6589,0.5575,0.0262,0.2232,-4.3288,0.8843,0.3194,-1.2078,-1.3854
3.598,0.6454,0.5643,0.0233,0.2232,-4.3288,0.8843,0.3194,-1.2078,-1.3854
3.599,0.6271,0.5699,0.0274,0.2232,-4.3288,0.8843,0.3194,-1.2078,-1.3854
3.599,0.6061,0.576,0.0336,0.2232,-4.3288,0.8843,0.3194,-1.2078,-1.3854
3.605,0.5858,0.5826,0.0428,0.2232,-4.3288,0.8843,0.3194,-1.2078,-1.3854
3.606,0.5643,0.5856,0.0546,0.2232,-4.3288,0.8843,0.3194,-1.2078,-1.3854
3.608,0.5416,0.5897,0.0707,0.2232,-4.3288,0.8843,0.3194,-1.2078,-1.3854
3.609,0.5218,0.5919,0.0844,0.2232,-4.3288,0.8843,0.3194,-1.2078,-1.3854
3.614,0.5062,0.5936,0.101,0.2232,-4.3288,0.8843,0.3194,-1.2078,-1.3854
3.615,0.4918,0.5956,0.1176,0.2232,-4.3288,0.8843,0.3194,-1.2078,-1.3854
3.618,0.4803,0.5995,0.1366,0.2232,-4.3288,0.8843,0.3194,-1.2078,-1.3854
3.619,0.4649,0.6017,0.1584,0.2232,-4.3288,0.8843,0.3194,-1.2078,-1.3854
3.624,0.4505,0.6031,0.1911,0.2232,-4.3288,0.8843,0.3194,-1.2078,-1.3854
3.625,0.4326,0.6085,0.229,0.2232,-4.3288,0.8843,0.3194,-1.2078,-1.3854
3.628,0.406,0.6156,0.2818,0.2232,-4.3288,0.8843,0.3194,-1.2078,-1.3854
3.63,0.3857,0.6286,0.3323,0.2232,-4.3288,0.8843,0.3194,-1.2078,-1.3854
3.633,0.3755,0.6422,0.3724,0.2232,-4.3288,0.8843,0.3194,-1.2078,-1.3854
3.634,0.3826,0.6691,0.4034,0.2232,-4.3288,0.8843,0.3194,-1.2078,-1.3854
3.638,0.4021,0.7097,0.4134,0.2232,-4.3288,0.8843,0.3194,-1.2078,-1.3854
3.639,0.4182,0.7678,0.3998,0.2232,-4.3288,0.8843,0.3194,-1.2078,-1.3854
3.643,0.4187,0.8545,0.379,0.2232,-4.3288,0.8843,0.3194,-1.2078,-1.3854
3.645,0.4114,0.9664,0.3912,0.2232,-4.3288,0.8843,0.3194,-1.2078,-1.3854
3.648,0.4219,1.103,0.4445,0.2232,-4.3288,0.8843,0.3194,-1.2078,-1.3854
3.648,0.4598,1.2635,0.5458,0.2232,-4.3288,0.8843,0.3194,-1.2078,-1.3854
3.652,0.5343,1.4472,0.6377,0.2232,-4.3288,0.8843,0.3194,-1.2078,-1.3854
3.653,0.5343,1.4472,0.6377,0.2232,-4.3288,0.8843,0.0989,-0.4497,-0.5609
3.654,0.664,1.6365,0.6372,0.2232,-4.3288,0.8843,0.0989,-0.4497,-0.5609
3.658,0.8555,1.8332,0.5424,0.2232,-4.3288,0.8843,0.0989,-0.4497,-0.5609
3.659,1.0776,2.0081,0.3538,0.2232,-4.3288,0.8843,0.0989,-0.4497,-0.5609
3.663,1.3114,2.1141,0.0863,0.2232,-4.3288,0.8843,0.0989,-0.4497,-0.5609
3.664,1.3114,2.1141,0.0863,1.7595,-3.3648,0.2959,0.0989,-0.4497,-0.5609
3.665,1.5288,2.1356,-0.2056,1.7595,-3.3648,0.2959,0.0989,-0.4497,-0.5609
3.667,1.69,2.0914,-0.4462,1.7595,-3.3648,0.2959,0.0989,-0.4497,-0.5609
3.668,1.7553,1.9907,-0.6033,1.7595,-3.3648,0.2959,0.0989,-0.4497,-0.5609
3.674,1.7032,1.8461,-0.6678,1.7595,-3.3648,0.2959,0.0989,-0.4497,-0.5609
3.676,1.5364,1.6724,-0.6471,1.7595,-3.3648,0.2959,0.0989,-0.4497,-0.5609
3.677,1.3009,1.4914,-0.5882,1.7595,-3.3648,0.2959,0.0989,-0.4497,-0.5609
3.678,1.0326,1.3214,-0.4927,1.7595,-3.3648,0.2959,0.0989,-0.4497,-0.5609
3.684,0.7754,1.1743,-0.3632,1.7595,-3.3648,0.2959,0.0989,-0.4497,-0.5609
3.685,0.544,1.0524,-0.1939,1.7595,-3.3648,0.2959,0.0989,-0.4497,-0.5609
3.687,0.3515,0.9635,-0.0068,1.7595,-3.3648,0.2959,0.0989,-0.4497,-0.5609
3.688,0.1945,0.9097,0.1916,1.7595,-3.3648,0.2959,0.0989,-0.4497,-0.5609
3.692,0.0591,0.8978,0.4007,1.7595,-3.3648,0.2959,0.0989,-0.4497,-0.5609
3.693,-0.0689,0.9325,0.6081,1.7595,-3.3648,0.2959,0.0989,-0.4497,-0.5609
3.697,-0.1879,1.006,0.794,1.7595,-3.3648,0.2959,0.0989,-0.4497,-0.5609
3.698,-0.3005,1.0986,0.9492,1.7595,-3.3648,0.2959,0.0989,-0.4497,-0.5609
3.702,-0.3901,1.1926,1.0503,1.7595,-3.3648,0.2959,0.0989,-0.4497,-0.5609
3.703,-0.4476,1.2703,1.0845,1.7595,-3.3648,0.2959,0.0989,-0.4497,-0.5609
3.708,-0.4717,1.3275,1.0371,1.7595,-3.3648,0.2959,0.0989,-0.4497,-0.5609
3.709,-0.4517,1.349,0.9343,1.7595,-3.3648,0.2959,0.0989,-0.4497,-0.5609
3.712,-0.3757,1.3294,0.7943,1.7595,-3.3648,0.2959,0.0989,-0.4497,-0.5609
3.713,-0.2602,1.2791,0.6409,1.7595,-3.3648,0.2959,0.0989,-0.4497,-0.5609
3.718,-0.1224,1.1897,0.4994,1.7595,-3.3648,0.2959,0.0989,-0.4497,-0.5609
3.719,0.0237,1.0715,0.3802,1.7595,-3.3648,0.2959,0.0989,-0.4497,-0.5609
3.722,0.1734,0.9325,0.2837,1.7595,-3.3648,0.2959,0.0989,-0.4497,-0.5609
3.723,0.1734,0.9325,0.2837,1.7595,-3.3648,0.2959,-0.5045,0.4764,0.6711
3.723,0.3173,0.7859,0.2261,1.7595,-3.3648,0.2959,-0.5045,0.4764,0.6711
3.725,0.45,0.6322,0.2087,1.7595,-3.3648,0.2959,-0.5045,0.4764,0.6711
3.726,0.5751,0.4778,0.2073,1.7595,-3.3648,0.2959,-0.5045,0.4764,0.6711
3.731,0.5751,0.4778,0.2073,1.2722,0.887,1.3761,-0.5045,0.4764,0.6711
3.732,0.6896,0.3254,0.2046,1.2722,0.887,1.3761,-0.5045,0.4764,0.6711
3.732,0.7922,0.1754,0.2043,1.2722,0.887,1.3761,-0.5045,0.4764,0.6711
3.736,0.8819,0.0371,0.1975,1.2722,0.887,1.3761,-0.5045,0.4764,0.6711
3.737,0.9581,-0.0933,0.1828,1.2722,0.887,1.3761,-0.5045,0.4764,0.6711
3.741,1.0185,-0.2057,0.1728,1.2722,0.887,1.3761,-0.5045,0.4764,0.6711
3.741,1.0673,-0.2976,0.1774,1.2722,0.887,1.3761,-0.5045,0.4764,0.6711
3.747,1.1062,-0.3667,0.1894,1.2722,0.887,1.3761,-0.5045,0.4764,0.6711
3.748,1.1355,-0.406,0.208,1.2722,0.887,1.3761,-0.5045,0.4764,0.6711
3.752,1.1663,-0.4143,0.2126,1.2722,0.887,1.3761,-0.5045,0.4764,0.6711
3.753,1.1995,-0.3894,0.1987,1.2722,0.887,1.3761,-0.5045,0.4764,0.6711
3.756,1.244,-0.3349,0.1633,1.2722,0.887,1.3761,-0.5045,0.4764,0.6711
3.756,1.3082,-0.2543,0.1064,1.2722,0.887,1.3761,-0.5045,0.4764,0.6711
3.76,1.3888,-0.1503,0.0323,1.2722,0.887,1.3761,-0.5045,0.4764,0.6711
3.761,1.4846,-0.0237,-0.0392,1.2722,0.887,1.3761,-0.5045,0.4764,0.6711
3.766,1.5916,0.1212,-0.1028,1.2722,0.887,1.3761,-0.5045,0.4764,0.6711
3.767,1.6996,0.2758,-0.1521,1.2722,0.887,1.3761,-0.5045,0.4764,0.6711
3.771,1.7948,0.4412,-0.1792,1.2722,0.887,1.3761,-0.5045,0.4764,0.6711
3.771,1.8757,0.6095,-0.1895,1.2722,0.887,1.3761,-0.5045,0.4764,0.6711
3.775,1.9228,0.78,-0.1844,1.2722,0.887,1.3761,-0.5045,0.4764,0.6711
3.776,1.9334,0.9503,-0.1707,1.2722,0.887,1.3761,-0.5045,0.4764,0.6711
3.779,1.9067,1.1103,-0.1416,1.2722,0.887,1.3761,-0.5045,0.4764,0.6711
3.78,1.8332,1.2581,-0.1096,1.2722,0.887,1.3761,-0.5045,0.4764,0.6711
3.785,1.712,1.3842,-0.08,1.2722,0.887,1.3761,-0.5045,0.4764,0.6711
3.786,1.5518,1.4919,-0.0532,1.2722,0.887,1.3761,-0.5045,0.4764,0.6711
3.79,1.3605,1.5735,-0.0278,1.2722,0.887,1.3761,-0.5045,0.4764,0.6711
3.791,1.3605,1.5735,-0.0278,1.2722,0.887,1.3761,-0.118,-0.8043,-0.017
3.792,1.1418,1.6321,-0.0048,1.2722,0.887,1.3761,-0.118,-0.8043,-0.017
3.795,0.9159,1.6614,0.0289,1.2722,0.887,1.3761,-0.118,-0.8043,-0.017
3.796,0.6992,1.6673,0.0812,1.2722,0.887,1.3761,-0.118,-0.8043,-0.017
3.799,0.5062,1.6502,0.1408,1.2722,0.887,1.3761,-0.118,-0.8043,-0.017
3.8,0.5062,1.6502,0.1408,-0.4729,2.6046,1.2157,-0.118,-0.8043,-0.017
3.8,0.3528,1.6096,0.2075,-0.4729,2.6046,1.2157,-0.118,-0.8043,-0.017
3.804,0.2379,1.5566,0.2717,-0.4729,2.6046,1.2157,-0.118,-0.8043,-0.017
3.804,0.1666,1.487,0.3274,-0.4729,2.6046,1.2157,-0.118,-0.8043,-0.017
3.809,0.1339,1.4047,0.3792,-0.4729,2.6046,1.2157,-0.118,-0.8043,-0.017
3.811,0.1324,1.3162,0.422,-0.4729,2.6046,1.2157,-0.118,-0.8043,-0.017
3.815,0.1534,1.2249,0.454,-0.4729,2.6046,1.2157,-0.118,-0.8043,-0.017
3.815,0.1786,1.1338,0.4875,-0.4729,2.6046,1.2157,-0.118,-0.8043,-0.017
3.819,0.2094,1.0505,0.5131,-0.4729,2.6046,1.2157,-0.118,-0.8043,-0.017
3.82,0.2389,0.9757,0.5305,-0.4729,2.6046,1.2157,-0.118,-0.8043,-0.017
3.824,0.2663,0.9046,0.5375,-0.4729,2.6046,1.2157,-0.118,-0.8043,-0.017
3.825,0.2954,0.8435,0.5378,-0.4729,2.6046,1.2157,-0.118,-0.8043,-0.017
3.829,0.3205,0.792,0.5402,-0.4729,2.6046,1.2157,-0.118,-0.8043,-0.017
3.83,0.3471,0.7451,0.5485,-0.4729,2.6046,1.2157,-0.118,-0.8043,-0.017
3.835,0.373,0.7087,0.5622,-0.4729,2.6046,1.2157,-0.118,-0.8043,-0.017
3.835,0.3992,0.6847,0.5713,-0.4729,2.6046,1.2157,-0.118,-0.8043,-0.017
3.839,0.4212,0.6676,0.5849,-0.4729,2.6046,1.2157,-0.118,-0.8043,-0.017
3.84,0.4422,0.6588,0.5884,-0.4729,2.6046,1.2157,-0.118,-0.8043,-0.017
3.843,0.4651,0.6532,0.5864,-0.4729,2.6046,1.2157,-0.118,-0.8043,-0.017
3.844,0.4861,0.6562,0.5771,-0.4729,2.6046,1.2157,-0.118,-0.8043,-0.017
3.848,0.5076,0.6647,0.5598,-0.4729,2.6046,1.2157,-0.118,-0.8043,-0.017
3.849,0.5309,0.6767,0.5336,-0.4729,2.6046,1.2157,-0.118,-0.8043,-0.017
3.853,0.5492,0.6923,0.495,-0.4729,2.6046,1.2157,-0.118,-0.8043,-0.017
3.854,0.5724,0.7104,0.4547,-0.4729,2.6046,1.2157,-0.118,-0.8043,-0.017
3.858,0.6005,0.7282,0.4071,-0.4729,2.6046,1.2157,-0.118,-0.8043,-0.017
3.859,0.6005,0.7282,0.4071,-0.4729,2.6046,1.2157,-0.0857,0.1534,-0.7356
3.859,0.6286,0.7487,0.3663,-0.4729,2.6046,1.2157,-0.0857,0.1534,-0.7356
3.862,0.663,0.7663,0.3223,-0.4729,2.6046,1.2157,-0.0857,0.1534,-0.7356
3.863,0.696,0.7849,0.2771,-0.4729,2.6046,1.2157,-0.0857,0.1534,-0.7356
3.867,0.696,0.7849,0.2771,8.8115,-3.2923,-0.7531,-0.0857,0.1534,-0.7356
3.868,0.7324,0.8008,0.2275,8.8115,-3.2923,-0.7531,-0.0857,0.1534,-0.7356
3.869,0.7634,0.8159,0.1748,8.8115,-3.2923,-0.7531,-0.0857,0.1534,-0.7356
3.872,0.7925,0.8355,0.131,8.8115,-3.2923,-0.7531,-0.0857,0.1534,-0.7356
3.873,0.8125,0.8577,0.0856,8.8115,-3.2923,-0.7531,-0.0857,0.1534,-0.7356
3.877,0.8218,0.879,0.0419,8.8115,-3.2923,-0.7531,-0.0857,0.1534,-0.7356
3.878,0.8296,0.9029,0.0106,8.8115,-3.2923,-0.7531,-0.0857,0.1534,-0.7356
3.882,0.8284,0.9244,-0.0094,8.8115,-3.2923,-0.7531,-0.0857,0.1534,-0.7356
3.882,0.825,0.9415,-0.019,8.8115,-3.2923,-0.7531,-0.0857,0.1534,-0.7356
3.886,0.8145,0.9593,-0.0158,8.8115,-3.2923,-0.7531,-0.0857,0.1534,-0.7356
3.887,0.7988,0.9733,0.0035,8.8115,-3.2923,-0.7531,-0.0857,0.1534,-0.7356
3.892,0.7791,0.9816,0.0274,8.8115,-3.2923,-0.7531,-0.0857,0.1534,-0.7356
3.893,0.7532,0.9896,0.0458,8.8115,-3.2923,-0.7531,-0.0857,0.1534,-0.7356
3.896,0.7238,0.994,0.0663,8.8115,-3.2923,-0.7531,-0.0857,0.1534,-0.7356
3.897,0.6955,0.9987,0.0853,8.8115,-3.2923,-0.7531,-0.0857,0.1534,-0.7356
3.902,0.6655,1.0016,0.1044,8.8115,-3.2923,-0.7531,-0.0857,0.1534,-0.7356
3.903,0.6273,1.0023,0.123,8.8115,-3.2923,-0.7531,-0.0857,0.1534,-0.7356
3.907,0.5873,1.0043,0.132,8.8115,-3.2923,-0.7531,-0.0857,0.1534,-0.7356
3.908,0.5502,0.9999,0.1398,8.8115,-3.2923,-0.7531,-0.0857,0.1534,-0.7356
3.911,0.5174,0.993,0.1574,8.8115,-3.2923,-0.7531,-0.0857,0.1534,-0.7356
3.912,0.4876,0.9855,0.176,8.8115,-3.2923,-0.7531,-0.0857,0.1534,-0.7356
3.918,0.4649,0.9742,0.1867,8.8115,-3.2923,-0.7531,-0.0857,0.1534,-0.7356
3.919,0.4441,0.9664,0.1894,8.8115,-3.2923,-0.7531,-0.0857,0.1534,-0.7356
3.922,0.4278,0.9574,0.1836,8.8115,-3.2923,-0.7531,-0.0857,0.1534,-0.7356
3.923,0.4094,0.9508,0.1779,8.8115,-3.2923,-0.7531,-0.0857,0.1534,-0.7356
3.926,0.4094,0.9508,0.1779,8.8115,-3.2923,-0.7531,0.3791,0.1014,-0.8461
3.926,0.3948,0.9459,0.1667,8.8115,-3.2923,-0.7531,0.3791,0.1014,-0.8461
3.927,0.3779,0.9476,0.1577,8.8115,-3.2923,-0.7531,0.3791,0.1014,-0.8461
3.931,0.366,0.9537,0.1528,8.8115,-3.2923,-0.7531,0.3791,0.1014,-0.8461
3.932,0.3569,0.9596,0.1481,8.8115,-3.2923,-0.7531,0.3791,0.1014,-0.8461
3.937,0.3474,0.9652,0.1457,8.8115,-3.2923,-0.7531,0.3791,0.1014,-0.8461
3.938,0.3474,0.9652,0.1457,0.5076,-0.2027,3.538,0.3791,0.1014,-0.8461
3.938,0.3435,0.965,0.1408,0.5076,-0.2027,3.538,0.3791,0.1014,-0.8461
3.942,0.3447,0.9625,0.1362,0.5076,-0.2027,3.538,0.3791,0.1014,-0.8461
3.943,0.3435,0.9603,0.1266,0.5076,-0.2027,3.538,0.3791,0.1014,-0.8461
3.947,0.341,0.9628,0.1127,0.5076,-0.2027,3.538,0.3791,0.1014,-0.8461
3.947,0.3376,0.9598,0.1012,0.5076,-0.2027,3.538,0.3791,0.1014,-0.8461
3.951,0.3315,0.9591,0.0932,0.5076,-0.2027,3.538,0.3791,0.1014,-0.8461
3.952,0.3271,0.9566,0.0856,0.5076,-0.2027,3.538,0.3791,0.1014,-0.8461
3.956,0.3181,0.9579,0.0768,0.5076,-0.2027,3.538,0.3791,0.1014,-0.8461
