time,gFx,gFy,gFz,ax,ay,az,wx,wy,wz
0.042,-0.0779,0.9867,-0.1076,0,0,0,0,0,0
0.042,-0.0806,0.9884,-0.1067,0,0,0,0,0,0
0.042,-0.0818,0.9899,-0.1072,0,0,0,0,0,0
0.042,-0.0836,0.9884,-0.1042,0,0,0,0,0,0
0.042,-0.0867,0.9913,-0.1042,0,0,0,0,0,0
0.043,-0.0853,0.9913,-0.1069,0,0,0,0,0,0
0.043,-0.0897,0.9906,-0.1045,0,0,0,0,0,0
0.043,-0.0892,0.9901,-0.1062,0,0,0,0,0,0
0.058,-0.085,0.9852,-0.0993,0,0,0,0,0,0
0.059,-0.0845,0.9874,-0.0991,0,0,0,0,0,0
0.059,-0.0833,0.985,-0.0998,0,0,0,0,0,0
0.06,-0.0809,0.9838,-0.1023,0,0,0,0,0,0
0.06,-0.0801,0.9855,-0.1003,0,0,0,0,0,0
0.066,-0.0804,0.9862,-0.1028,0,0,0,0,0,0
0.067,-0.0828,0.9882,-0.1028,0,0,0,0,0,0
0.071,-0.0811,0.9872,-0.103,0,0,0,0,0,0
0.071,-0.0711,0.9772,-0.104,0,0,0,0,0,0
0.074,-0.0657,0.9652,-0.0964,0,0,0,0,0,0
0.075,-0.087,0.9791,-0.0971,0,0,0,0,0,0
0.08,-0.1053,0.9872,-0.1008,0,0,0,0,0,0
0.081,-0.1099,0.9913,-0.0998,0,0,0,0,0,0
0.085,-0.1077,0.9923,-0.0996,0,0,0,0,0,0
0.086,-0.1104,0.995,-0.0976,0,0,0,0,0,0
0.09,-0.1119,0.9955,-0.1011,0,0,0,0,0,0
0.091,-0.1136,0.9948,-0.1035,0,0,0,0,0,0
0.095,-0.1163,0.994,-0.1047,0,0,0,0,0,0
0.096,-0.1104,0.9872,-0.1069,0,0,0,0,0,0
0.101,-0.1092,0.9864,-0.105,0,0,0,0,0,0
0.101,-0.1126,0.9916,-0.1062,0,0,0,0,0,0
0.106,-0.1102,1.0021,-0.1047,0,0,0,0,0,0
0.106,-0.1058,1.0048,-0.1103,0,0,0,0,0,0
0.109,-0.1014,1.0062,-0.1135,0,0,0,0,0,0
0.109,-0.0963,1.0026,-0.114,0,0,0,0,0,0
0.113,-0.0941,1.0011,-0.1138,0,0,0,0,0,0
0.114,-0.0955,0.9948,-0.113,0,0,0,0,0,0
0.12,-0.0921,0.9935,-0.1125,0,0,0,0,0,0
0.121,-0.0931,0.9926,-0.1123,0,0,0,0,0,0
0.124,-0.0882,0.9906,-0.1059,0,0,0,0,0,0
0.125,-0.0879,0.9908,-0.105,0,0,0,0,0,0
0.129,-0.0853,0.9894,-0.1003,0,0,0,0,0,0
0.129,-0.0831,0.9899,-0.1015,0,0,0,0,0,0
0.136,-0.0821,0.9882,-0.1006,0,0,0,0,0,0
0.137,-0.0833,0.9891,-0.102,0,0,0,0,0,0
0.139,-0.0862,0.9899,-0.1067,0,0,0,0,0,0
0.139,-0.0887,0.9884,-0.1079,0,0,0,0,0,0
0.143,-0.0911,0.9896,-0.1091,0,0,0,0,0,0
0.144,-0.0904,0.9911,-0.1113,0,0,0,0,0,0
0.148,-0.0879,0.9891,-0.1118,0,0,0,0,0,0
0.149,-0.0848,0.9884,-0.1138,0,0,0,0,0,0
0.152,-0.085,0.9916,-0.1142,0,0,0,0,0,0
0.153,-0.0858,0.9908,-0.1172,0,0,0,0,0,0
0.158,-0.087,0.9901,-0.116,0,0,0,0,0,0
0.158,-0.084,0.9896,-0.1138,0,0,0,0,0,0
0.162,-0.0777,0.9877,-0.113,0,0,0,0,0,0
0.163,-0.0796,0.9872,-0.1101,0,0,0,0,0,0
0.169,-0.077,0.9869,-0.1096,0,0,0,0,0,0
0.169,-0.0784,0.9862,-0.1128,0,0,0,0,0,0
0.174,-0.0801,0.9884,-0.1135,0,0,0,0,0,0
0.174,-0.0801,0.9884,-0.1135,0,0,0,0.0028,0.0215,-0.0271
0.175,-0.0816,0.9891,-0.1118,0,0,0,0.0028,0.0215,-0.0271
0.179,-0.0806,0.9908,-0.1125,0,0,0,0.0028,0.0215,-0.0271
0.179,-0.0838,0.9886,-0.1128,0,0,0,0.0028,0.0215,-0.0271
0.183,-0.0814,0.9904,-0.1145,0,0,0,0.0028,0.0215,-0.0271
0.184,-0.0823,0.9891,-0.1155,0,0,0,0.0028,0.0215,-0.0271
0.188,-0.0823,0.9928,-0.113,0,0,0,0.0028,0.0215,-0.0271
0.188,-0.0792,0.9906,-0.1128,0,0,0,0.0028,0.0215,-0.0271
0.192,-0.0767,0.9874,-0.1155,0,0,0,0.0028,0.0215,-0.0271
0.192,-0.0794,0.9847,-0.1162,0,0,0,0.0028,0.0215,-0.0271
0.197,-0.0794,0.9845,-0.1186,0,0,0,0.0028,0.0215,-0.0271
0.198,-0.0843,0.985,-0.1267,0,0,0,0.0028,0.0215,-0.0271
0.202,-0.0816,0.9843,-0.1326,0,0,0,0.0028,0.0215,-0.0271
0.202,-0.075,0.9833,-0.1318,0,0,0,0.0028,0.0215,-0.0271
0.207,-0.0689,0.9818,-0.1313,0,0,0,0.0028,0.0215,-0.0271
0.207,-0.064,0.9806,-0.1267,0,0,0,0.0028,0.0215,-0.0271
0.213,-0.0652,0.9821,-0.1218,0,0,0,0.0028,0.0215,-0.0271
0.214,-0.0718,0.9828,-0.1182,0,0,0,0.0028,0.0215,-0.0271
0.217,-0.0755,0.9821,-0.1145,0,0,0,0.0028,0.0215,-0.0271
0.218,-0.0782,0.9811,-0.1164,0,0,0,0.0028,0.0215,-0.0271
0.222,-0.0792,0.9799,-0.1206,0,0,0,0.0028,0.0215,-0.0271
0.223,-0.0796,0.9813,-0.1267,0,0,0,0.0028,0.0215,-0.0271
0.226,-0.0821,0.984,-0.1262,0,0,0,0.0028,0.0215,-0.0271
0.227,-0.0845,0.9838,-0.1279,0,0,0,0.0028,0.0215,-0.0271
0.232,-0.0833,0.9864,-0.1262,0,0,0,0.0028,0.0215,-0.0271
0.233,-0.0804,0.9852,-0.1228,0,0,0,0.0028,0.0215,-0.0271
0.236,-0.0752,0.9874,-0.1206,0,0,0,0.0028,0.0215,-0.0271
0.237,-0.0733,0.9877,-0.1184,0,0,0,0.0028,0.0215,-0.0271
0.241,-0.0701,0.9838,-0.1196,0,0,0,0.0028,0.0215,-0.0271
0.241,-0.0701,0.9838,-0.1196,0,0,0,0.0075,0.1055,-0.0339
0.242,-0.0691,0.9835,-0.1203,0,0,0,0.0075,0.1055,-0.0339
0.247,-0.0713,0.9821,-0.1282,0,0,0,0.0075,0.1055,-0.0339
0.248,-0.0748,0.9828,-0.1335,0,0,0,0.0075,0.1055,-0.0339
0.248,-0.0748,0.9828,-0.1335,0.0597,0.0034,-0.0332,0.0075,0.1055,-0.0339
0.25,-0.075,0.984,-0.1365,0.0597,0.0034,-0.0332,0.0075,0.1055,-0.0339
0.251,-0.0738,0.986,-0.1382,0.0597,0.0034,-0.0332,0.0075,0.1055,-0.0339
0.256,-0.0716,0.983,-0.134,0.0597,0.0034,-0.0332,0.0075,0.1055,-0.0339
0.257,-0.0684,0.9847,-0.1328,0.0597,0.0034,-0.0332,0.0075,0.1055,-0.0339
0.26,-0.0674,0.9884,-0.1313,0.0597,0.0034,-0.0332,0.0075,0.1055,-0.0339
0.261,-0.0674,0.9862,-0.1301,0.0597,0.0034,-0.0332,0.0075,0.1055,-0.0339
0.266,-0.0662,0.9874,-0.1277,0.0597,0.0034,-0.0332,0.0075,0.1055,-0.0339
0.267,-0.0674,0.985,-0.1233,0.0597,0.0034,-0.0332,0.0075,0.1055,-0.0339
0.27,-0.0679,0.9882,-0.1182,0.0597,0.0034,-0.0332,0.0075,0.1055,-0.0339
0.271,-0.0718,0.9884,-0.1133,0.0597,0.0034,-0.0332,0.0075,0.1055,-0.0339
0.275,-0.0691,0.9884,-0.1108,0.0597,0.0034,-0.0332,0.0075,0.1055,-0.0339
0.276,-0.0723,0.9889,-0.1111,0.0597,0.0034,-0.0332,0.0075,0.1055,-0.0339
0.28,-0.0735,0.9894,-0.1133,0.0597,0.0034,-0.0332,0.0075,0.1055,-0.0339
0.281,-0.0787,0.9908,-0.1096,0.0597,0.0034,-0.0332,0.0075,0.1055,-0.0339
0.285,-0.0809,0.9916,-0.1094,0.0597,0.0034,-0.0332,0.0075,0.1055,-0.0339
0.286,-0.0867,0.9918,-0.1084,0.0597,0.0034,-0.0332,0.0075,0.1055,-0.0339
0.291,-0.0887,0.9908,-0.1094,0.0597,0.0034,-0.0332,0.0075,0.1055,-0.0339
0.292,-0.0889,0.9928,-0.1101,0.0597,0.0034,-0.0332,0.0075,0.1055,-0.0339
0.295,-0.0892,0.9921,-0.1089,0.0597,0.0034,-0.0332,0.0075,0.1055,-0.0339
0.296,-0.0875,0.9896,-0.1064,0.0597,0.0034,-0.0332,0.0075,0.1055,-0.0339
0.302,-0.0906,0.9891,-0.1084,0.0597,0.0034,-0.0332,0.0075,0.1055,-0.0339
0.303,-0.0877,0.9894,-0.1101,0.0597,0.0034,-0.0332,0.0075,0.1055,-0.0339
0.305,-0.0892,0.9906,-0.112,0.0597,0.0034,-0.0332,0.0075,0.1055,-0.0339
0.305,-0.0904,0.9913,-0.1147,0.0597,0.0034,-0.0332,0.0075,0.1055,-0.0339
0.31,-0.0904,0.9913,-0.1147,0.0597,0.0034,-0.0332,-0.0057,0.1394,-0.0674
0.311,-0.0919,0.9928,-0.1147,0.0597,0.0034,-0.0332,-0.0057,0.1394,-0.0674
0.312,-0.0933,0.9928,-0.114,0.0597,0.0034,-0.0332,-0.0057,0.1394,-0.0674
0.314,-0.0967,0.9896,-0.1138,0.0597,0.0034,-0.0332,-0.0057,0.1394,-0.0674
0.315,-0.0992,0.9894,-0.1135,0.0597,0.0034,-0.0332,-0.0057,0.1394,-0.0674
0.315,-0.0992,0.9894,-0.1135,0.1084,-0.0316,-0.0915,-0.0057,0.1394,-0.0674
0.319,-0.1026,0.9899,-0.1133,0.1084,-0.0316,-0.0915,-0.0057,0.1394,-0.0674
0.32,-0.1048,0.9901,-0.1094,0.1084,-0.0316,-0.0915,-0.0057,0.1394,-0.0674
0.325,-0.106,0.9901,-0.1062,0.1084,-0.0316,-0.0915,-0.0057,0.1394,-0.0674
0.326,-0.1072,0.9894,-0.1062,0.1084,-0.0316,-0.0915,-0.0057,0.1394,-0.0674
0.329,-0.107,0.9874,-0.102,0.1084,-0.0316,-0.0915,-0.0057,0.1394,-0.0674
0.33,-0.1082,0.9908,-0.1011,0.1084,-0.0316,-0.0915,-0.0057,0.1394,-0.0674
0.334,-0.1075,0.9913,-0.1028,0.1084,-0.0316,-0.0915,-0.0057,0.1394,-0.0674
0.335,-0.1107,0.9926,-0.1015,0.1084,-0.0316,-0.0915,-0.0057,0.1394,-0.0674
0.34,-0.1126,0.9933,-0.1025,0.1084,-0.0316,-0.0915,-0.0057,0.1394,-0.0674
0.341,-0.1165,0.995,-0.102,0.1084,-0.0316,-0.0915,-0.0057,0.1394,-0.0674
0.344,-0.1173,0.9962,-0.1057,0.1084,-0.0316,-0.0915,-0.0057,0.1394,-0.0674
0.344,-0.1209,0.9974,-0.1089,0.1084,-0.0316,-0.0915,-0.0057,0.1394,-0.0674
0.349,-0.1204,0.9967,-0.1037,0.1084,-0.0316,-0.0915,-0.0057,0.1394,-0.0674
0.35,-0.1182,0.9945,-0.1011,0.1084,-0.0316,-0.0915,-0.0057,0.1394,-0.0674
0.353,-0.117,0.9928,-0.0967,0.1084,-0.0316,-0.0915,-0.0057,0.1394,-0.0674
0.353,-0.1156,0.993,-0.0954,0.1084,-0.0316,-0.0915,-0.0057,0.1394,-0.0674
0.358,-0.1121,0.9926,-0.0947,0.1084,-0.0316,-0.0915,-0.0057,0.1394,-0.0674
0.359,-0.1114,0.9918,-0.0974,0.1084,-0.0316,-0.0915,-0.0057,0.1394,-0.0674
0.363,-0.1107,0.9928,-0.105,0.1084,-0.0316,-0.0915,-0.0057,0.1394,-0.0674
0.364,-0.1082,0.9957,-0.1052,0.1084,-0.0316,-0.0915,-0.0057,0.1394,-0.0674
0.369,-0.1068,0.9957,-0.1052,0.1084,-0.0316,-0.0915,-0.0057,0.1394,-0.0674
0.37,-0.106,0.9957,-0.1023,0.1084,-0.0316,-0.0915,-0.0057,0.1394,-0.0674
0.373,-0.1011,0.997,-0.103,0.1084,-0.0316,-0.0915,-0.0057,0.1394,-0.0674
0.373,-0.1004,0.9965,-0.1025,0.1084,-0.0316,-0.0915,-0.0057,0.1394,-0.0674
0.377,-0.1004,0.9965,-0.1025,0.1084,-0.0316,-0.0915,-0.0102,0.0681,-0.0702
0.378,-0.098,0.9943,-0.1032,0.1084,-0.0316,-0.0915,-0.0102,0.0681,-0.0702
0.379,-0.0992,0.9943,-0.1057,0.1084,-0.0316,-0.0915,-0.0102,0.0681,-0.0702
0.383,-0.0994,0.9952,-0.1081,0.1084,-0.0316,-0.0915,-0.0102,0.0681,-0.0702
0.384,-0.0999,0.9935,-0.1072,0.1084,-0.0316,-0.0915,-0.0102,0.0681,-0.0702
0.384,-0.0999,0.9935,-0.1072,0.0826,0.0112,-0.0322,-0.0102,0.0681,-0.0702
0.388,-0.0982,0.9943,-0.1091,0.0826,0.0112,-0.0322,-0.0102,0.0681,-0.0702
0.389,-0.098,0.9972,-0.1094,0.0826,0.0112,-0.0322,-0.0102,0.0681,-0.0702
0.392,-0.0994,0.996,-0.1086,0.0826,0.0112,-0.0322,-0.0102,0.0681,-0.0702
0.393,-0.0963,0.9955,-0.1094,0.0826,0.0112,-0.0322,-0.0102,0.0681,-0.0702
0.397,-0.0982,0.9965,-0.1096,0.0826,0.0112,-0.0322,-0.0102,0.0681,-0.0702
0.398,-0.0982,0.997,-0.112,0.0826,0.0112,-0.0322,-0.0102,0.0681,-0.0702
0.402,-0.1019,0.9945,-0.1133,0.0826,0.0112,-0.0322,-0.0102,0.0681,-0.0702
0.402,-0.1016,0.9952,-0.1108,0.0826,0.0112,-0.0322,-0.0102,0.0681,-0.0702
0.407,-0.1041,0.996,-0.1108,0.0826,0.0112,-0.0322,-0.0102,0.0681,-0.0702
0.408,-0.1036,0.9948,-0.113,0.0826,0.0112,-0.0322,-0.0102,0.0681,-0.0702
0.412,-0.1038,0.993,-0.1106,0.0826,0.0112,-0.0322,-0.0102,0.0681,-0.0702
0.412,-0.1026,0.9921,-0.114,0.0826,0.0112,-0.0322,-0.0102,0.0681,-0.0702
0.418,-0.1031,0.9935,-0.1108,0.0826,0.0112,-0.0322,-0.0102,0.0681,-0.0702
0.419,-0.1019,0.9913,-0.112,0.0826,0.0112,-0.0322,-0.0102,0.0681,-0.0702
0.422,-0.1004,0.9896,-0.1113,0.0826,0.0112,-0.0322,-0.0102,0.0681,-0.0702
0.423,-0.1009,0.9908,-0.1091,0.0826,0.0112,-0.0322,-0.0102,0.0681,-0.0702
0.427,-0.105,0.9872,-0.1076,0.0826,0.0112,-0.0322,-0.0102,0.0681,-0.0702
0.428,-0.106,0.9877,-0.1094,0.0826,0.0112,-0.0322,-0.0102,0.0681,-0.0702
0.431,-0.1058,0.986,-0.1094,0.0826,0.0112,-0.0322,-0.0102,0.0681,-0.0702
0.432,-0.109,0.9864,-0.1123,0.0826,0.0112,-0.0322,-0.0102,0.0681,-0.0702
0.436,-0.1116,0.9877,-0.1106,0.0826,0.0112,-0.0322,-0.0102,0.0681,-0.0702
0.437,-0.1099,0.9867,-0.1089,0.0826,0.0112,-0.0322,-0.0102,0.0681,-0.0702
0.442,-0.1114,0.9857,-0.1052,0.0826,0.0112,-0.0322,-0.0102,0.0681,-0.0702
0.443,-0.1134,0.9862,-0.1032,0.0826,0.0112,-0.0322,-0.0102,0.0681,-0.0702
0.447,-0.1134,0.9862,-0.1032,0.0826,0.0112,-0.0322,-0.0098,0.0112,-0.0547
0.448,-0.1136,0.9877,-0.1037,0.0826,0.0112,-0.0322,-0.0098,0.0112,-0.0547
0.448,-0.1126,0.9879,-0.1035,0.0826,0.0112,-0.0322,-0.0098,0.0112,-0.0547
0.453,-0.1129,0.9894,-0.1052,0.0826,0.0112,-0.0322,-0.0098,0.0112,-0.0547
0.453,-0.1129,0.9894,-0.1052,-0.1245,0.0461,0.0803,-0.0098,0.0112,-0.0547
0.454,-0.1141,0.9918,-0.1089,-0.1245,0.0461,0.0803,-0.0098,0.0112,-0.0547
0.458,-0.1112,0.9906,-0.1128,-0.1245,0.0461,0.0803,-0.0098,0.0112,-0.0547
0.459,-0.1092,0.9906,-0.1155,-0.1245,0.0461,0.0803,-0.0098,0.0112,-0.0547
0.461,-0.1053,0.9918,-0.113,-0.1245,0.0461,0.0803,-0.0098,0.0112,-0.0547
0.461,-0.1046,0.9899,-0.1079,-0.1245,0.0461,0.0803,-0.0098,0.0112,-0.0547
0.465,-0.1026,0.9882,-0.1045,-0.1245,0.0461,0.0803,-0.0098,0.0112,-0.0547
0.467,-0.1021,0.986,-0.104,-0.1245,0.0461,0.0803,-0.0098,0.0112,-0.0547
0.471,-0.1021,0.9867,-0.1047,-0.1245,0.0461,0.0803,-0.0098,0.0112,-0.0547
0.472,-0.1036,0.9879,-0.1062,-0.1245,0.0461,0.0803,-0.0098,0.0112,-0.0547
0.475,-0.1029,0.9886,-0.1098,-0.1245,0.0461,0.0803,-0.0098,0.0112,-0.0547
0.476,-0.1046,0.9904,-0.1116,-0.1245,0.0461,0.0803,-0.0098,0.0112,-0.0547
0.48,-0.1075,0.9921,-0.1103,-0.1245,0.0461,0.0803,-0.0098,0.0112,-0.0547
0.481,-0.1102,0.9938,-0.1096,-0.1245,0.0461,0.0803,-0.0098,0.0112,-0.0547
0.485,-0.1109,0.9938,-0.105,-0.1245,0.0461,0.0803,-0.0098,0.0112,-0.0547
0.485,-0.1114,0.9918,-0.1037,-0.1245,0.0461,0.0803,-0.0098,0.0112,-0.0547
0.492,-0.1109,0.9928,-0.1013,-0.1245,0.0461,0.0803,-0.0098,0.0112,-0.0547
0.493,-0.1075,0.9904,-0.1003,-0.1245,0.0461,0.0803,-0.0098,0.0112,-0.0547
0.496,-0.1055,0.9906,-0.0991,-0.1245,0.0461,0.0803,-0.0098,0.0112,-0.0547
0.496,-0.106,0.9896,-0.1006,-0.1245,0.0461,0.0803,-0.0098,0.0112,-0.0547
0.5,-0.1043,0.9906,-0.103,-0.1245,0.0461,0.0803,-0.0098,0.0112,-0.0547
0.501,-0.105,0.9894,-0.1076,-0.1245,0.0461,0.0803,-0.0098,0.0112,-0.0547
0.505,-0.1026,0.986,-0.1045,-0.1245,0.0461,0.0803,-0.0098,0.0112,-0.0547
0.505,-0.0985,0.9857,-0.1015,-0.1245,0.0461,0.0803,-0.0098,0.0112,-0.0547
0.51,-0.0987,0.9847,-0.0979,-0.1245,0.0461,0.0803,-0.0098,0.0112,-0.0547
0.511,-0.0958,0.9838,-0.0925,-0.1245,0.0461,0.0803,-0.0098,0.0112,-0.0547
0.514,-0.0958,0.9838,-0.0925,-0.1245,0.0461,0.0803,-0.0017,-0.0039,-0.0421
0.515,-0.0975,0.984,-0.0959,-0.1245,0.0461,0.0803,-0.0017,-0.0039,-0.0421
0.515,-0.0975,0.9816,-0.0984,-0.1245,0.0461,0.0803,-0.0017,-0.0039,-0.0421
0.519,-0.096,0.9811,-0.1035,-0.1245,0.0461,0.0803,-0.0017,-0.0039,-0.0421
0.52,-0.096,0.9811,-0.1035,-0.0432,0.0238,0.014,-0.0017,-0.0039,-0.0421
0.52,-0.0953,0.984,-0.1069,-0.0432,0.0238,0.014,-0.0017,-0.0039,-0.0421
0.524,-0.0916,0.9867,-0.1108,-0.0432,0.0238,0.014,-0.0017,-0.0039,-0.0421
0.525,-0.0899,0.9877,-0.1133,-0.0432,0.0238,0.014,-0.0017,-0.0039,-0.0421
0.529,-0.0887,0.9882,-0.1125,-0.0432,0.0238,0.014,-0.0017,-0.0039,-0.0421
0.529,-0.0867,0.9869,-0.1101,-0.0432,0.0238,0.014,-0.0017,-0.0039,-0.0421
0.535,-0.087,0.9867,-0.1106,-0.0432,0.0238,0.014,-0.0017,-0.0039,-0.0421
0.535,-0.0872,0.9877,-0.1103,-0.0432,0.0238,0.014,-0.0017,-0.0039,-0.0421
0.54,-0.0879,0.9869,-0.1081,-0.0432,0.0238,0.014,-0.0017,-0.0039,-0.0421
0.541,-0.0928,0.9852,-0.1062,-0.0432,0.0238,0.014,-0.0017,-0.0039,-0.0421
0.544,-0.0931,0.9852,-0.1054,-0.0432,0.0238,0.014,-0.0017,-0.0039,-0.0421
0.545,-0.0955,0.984,-0.1045,-0.0432,0.0238,0.014,-0.0017,-0.0039,-0.0421
0.549,-0.1009,0.9838,-0.1074,-0.0432,0.0238,0.014,-0.0017,-0.0039,-0.0421
0.55,-0.1038,0.9838,-0.1111,-0.0432,0.0238,0.014,-0.0017,-0.0039,-0.0421
0.553,-0.1031,0.9843,-0.1089,-0.0432,0.0238,0.014,-0.0017,-0.0039,-0.0421
0.554,-0.1053,0.9843,-0.104,-0.0432,0.0238,0.014,-0.0017,-0.0039,-0.0421
0.559,-0.1036,0.9823,-0.1015,-0.0432,0.0238,0.014,-0.0017,-0.0039,-0.0421
0.56,-0.1058,0.9825,-0.1023,-0.0432,0.0238,0.014,-0.0017,-0.0039,-0.0421
0.563,-0.1077,0.9843,-0.1032,-0.0432,0.0238,0.014,-0.0017,-0.0039,-0.0421
0.564,-0.1094,0.985,-0.1054,-0.0432,0.0238,0.014,-0.0017,-0.0039,-0.0421
0.57,-0.1129,0.9862,-0.1059,-0.0432,0.0238,0.014,-0.0017,-0.0039,-0.0421
0.571,-0.1143,0.9872,-0.1079,-0.0432,0.0238,0.014,-0.0017,-0.0039,-0.0421
0.573,-0.1138,0.9894,-0.1098,-0.0432,0.0238,0.014,-0.0017,-0.0039,-0.0421
0.574,-0.1104,0.9867,-0.1081,-0.0432,0.0238,0.014,-0.0017,-0.0039,-0.0421
0.578,-0.1055,0.9855,-0.1054,-0.0432,0.0238,0.014,-0.0017,-0.0039,-0.0421
0.579,-0.105,0.9855,-0.1045,-0.0432,0.0238,0.014,-0.0017,-0.0039,-0.0421
0.583,-0.105,0.9855,-0.1045,-0.0432,0.0238,0.014,0.0099,0.0523,-0.0455
0.583,-0.1031,0.9843,-0.1025,-0.0432,0.0238,0.014,0.0099,0.0523,-0.0455
0.584,-0.1011,0.985,-0.1045,-0.0432,0.0238,0.014,0.0099,0.0523,-0.0455
0.589,-0.1024,0.986,-0.1032,-0.0432,0.0238,0.014,0.0099,0.0523,-0.0455
0.59,-0.1024,0.986,-0.1032,-0.0059,-0.0016,0.0517,0.0099,0.0523,-0.0455
0.59,-0.0994,0.9847,-0.1035,-0.0059,-0.0016,0.0517,0.0099,0.0523,-0.0455
0.593,-0.1011,0.9862,-0.1059,-0.0059,-0.0016,0.0517,0.0099,0.0523,-0.0455
0.594,-0.1004,0.9867,-0.1089,-0.0059,-0.0016,0.0517,0.0099,0.0523,-0.0455
0.597,-0.1024,0.9845,-0.1067,-0.0059,-0.0016,0.0517,0.0099,0.0523,-0.0455
0.598,-0.1007,0.9867,-0.1028,-0.0059,-0.0016,0.0517,0.0099,0.0523,-0.0455
0.602,-0.0999,0.9862,-0.0979,-0.0059,-0.0016,0.0517,0.0099,0.0523,-0.0455
0.603,-0.098,0.9835,-0.0935,-0.0059,-0.0016,0.0517,0.0099,0.0523,-0.0455
0.607,-0.0994,0.9845,-0.0908,-0.0059,-0.0016,0.0517,0.0099,0.0523,-0.0455
0.608,-0.1002,0.9864,-0.0879,-0.0059,-0.0016,0.0517,0.0099,0.0523,-0.0455
0.613,-0.0997,0.9835,-0.0876,-0.0059,-0.0016,0.0517,0.0099,0.0523,-0.0455
0.614,-0.0999,0.985,-0.0871,-0.0059,-0.0016,0.0517,0.0099,0.0523,-0.0455
0.617,-0.0963,0.9835,-0.0888,-0.0059,-0.0016,0.0517,0.0099,0.0523,-0.0455
0.618,-0.0955,0.9825,-0.0886,-0.0059,-0.0016,0.0517,0.0099,0.0523,-0.0455
0.623,-0.0916,0.9825,-0.0927,-0.0059,-0.0016,0.0517,0.0099,0.0523,-0.0455
0.623,-0.0906,0.985,-0.0974,-0.0059,-0.0016,0.0517,0.0099,0.0523,-0.0455
0.627,-0.087,0.9857,-0.1032,-0.0059,-0.0016,0.0517,0.0099,0.0523,-0.0455
0.627,-0.0872,0.986,-0.1089,-0.0059,-0.0016,0.0517,0.0099,0.0523,-0.0455
0.632,-0.0843,0.9904,-0.1164,-0.0059,-0.0016,0.0517,0.0099,0.0523,-0.0455
0.632,-0.0789,0.9894,-0.1213,-0.0059,-0.0016,0.0517,0.0099,0.0523,-0.0455
0.636,-0.0789,0.9886,-0.1211,-0.0059,-0.0016,0.0517,0.0099,0.0523,-0.0455
0.637,-0.076,0.9896,-0.1247,-0.0059,-0.0016,0.0517,0.0099,0.0523,-0.0455
0.642,-0.0767,0.9886,-0.1272,-0.0059,-0.0016,0.0517,0.0099,0.0523,-0.0455
0.643,-0.0748,0.9908,-0.1316,-0.0059,-0.0016,0.0517,0.0099,0.0523,-0.0455
0.646,-0.0765,0.9889,-0.1318,-0.0059,-0.0016,0.0517,0.0099,0.0523,-0.0455
0.647,-0.0777,0.9872,-0.134,-0.0059,-0.0016,0.0517,0.0099,0.0523,-0.0455
0.652,-0.0777,0.9872,-0.134,-0.0059,-0.0016,0.0517,0.0247,0.0862,-0.0552
0.653,-0.0804,0.9843,-0.1335,-0.0059,-0.0016,0.0517,0.0247,0.0862,-0.0552
0.653,-0.0814,0.9835,-0.1353,-0.0059,-0.0016,0.0517,0.0247,0.0862,-0.0552
0.657,-0.0855,0.9838,-0.1313,-0.0059,-0.0016,0.0517,0.0247,0.0862,-0.0552
0.657,-0.0897,0.9823,-0.1313,-0.0059,-0.0016,0.0517,0.0247,0.0862,-0.0552
0.658,-0.0897,0.9823,-0.1313,0.0495,-0.0224,0.0376,0.0247,0.0862,-0.0552
0.661,-0.0931,0.9803,-0.1306,0.0495,-0.0224,0.0376,0.0247,0.0862,-0.0552
0.661,-0.0963,0.9801,-0.1289,0.0495,-0.0224,0.0376,0.0247,0.0862,-0.0552
0.666,-0.0955,0.9806,-0.1228,0.0495,-0.0224,0.0376,0.0247,0.0862,-0.0552
0.667,-0.096,0.9828,-0.1142,0.0495,-0.0224,0.0376,0.0247,0.0862,-0.0552
0.67,-0.0931,0.9823,-0.1067,0.0495,-0.0224,0.0376,0.0247,0.0862,-0.0552
0.671,-0.0941,0.9818,-0.1025,0.0495,-0.0224,0.0376,0.0247,0.0862,-0.0552
0.676,-0.0911,0.9813,-0.0981,0.0495,-0.0224,0.0376,0.0247,0.0862,-0.0552
0.677,-0.0884,0.9828,-0.0986,0.0495,-0.0224,0.0376,0.0247,0.0862,-0.0552
0.681,-0.0858,0.9845,-0.0967,0.0495,-0.0224,0.0376,0.0247,0.0862,-0.0552
0.681,-0.0838,0.9899,-0.0959,0.0495,-0.0224,0.0376,0.0247,0.0862,-0.0552
0.685,-0.0799,0.9948,-0.0996,0.0495,-0.0224,0.0376,0.0247,0.0862,-0.0552
0.686,-0.0814,0.9974,-0.1008,0.0495,-0.0224,0.0376,0.0247,0.0862,-0.0552
0.692,-0.0796,1.0021,-0.102,0.0495,-0.0224,0.0376,0.0247,0.0862,-0.0552
0.693,-0.0789,1.0045,-0.1037,0.0495,-0.0224,0.0376,0.0247,0.0862,-0.0552
0.695,-0.0767,1.0077,-0.1081,0.0495,-0.0224,0.0376,0.0247,0.0862,-0.0552
0.696,-0.0782,1.0097,-0.1113,0.0495,-0.0224,0.0376,0.0247,0.0862,-0.0552
0.701,-0.0777,1.0099,-0.1203,0.0495,-0.0224,0.0376,0.0247,0.0862,-0.0552
0.702,-0.0806,1.0077,-0.1228,0.0495,-0.0224,0.0376,0.0247,0.0862,-0.0552
0.706,-0.0872,1.0065,-0.1272,0.0495,-0.0224,0.0376,0.0247,0.0862,-0.0552
0.707,-0.0899,0.9982,-0.1265,0.0495,-0.0224,0.0376,0.0247,0.0862,-0.0552
0.709,-0.0958,0.9955,-0.1243,0.0495,-0.0224,0.0376,0.0247,0.0862,-0.0552
0.71,-0.1014,0.9889,-0.1233,0.0495,-0.0224,0.0376,0.0247,0.0862,-0.0552
0.715,-0.108,0.9838,-0.1235,0.0495,-0.0224,0.0376,0.0247,0.0862,-0.0552
0.716,-0.1107,0.9821,-0.1238,0.0495,-0.0224,0.0376,0.0247,0.0862,-0.0552
0.72,-0.1156,0.9818,-0.1238,0.0495,-0.0224,0.0376,0.0247,0.0862,-0.0552
0.72,-0.1156,0.9818,-0.1238,0.0495,-0.0224,0.0376,0.022,0.1246,-0.0927
0.721,-0.1217,0.9803,-0.1287,0.0495,-0.0224,0.0376,0.022,0.1246,-0.0927
0.725,-0.1305,0.9823,-0.1289,0.0495,-0.0224,0.0376,0.022,0.1246,-0.0927
0.725,-0.1305,0.9823,-0.1289,0.1653,-0.0112,0.0246,0.022,0.1246,-0.0927
0.726,-0.1393,0.9852,-0.1296,0.1653,-0.0112,0.0246,0.022,0.1246,-0.0927
0.73,-0.1473,0.9891,-0.1316,0.1653,-0.0112,0.0246,0.022,0.1246,-0.0927
0.73,-0.1546,0.9935,-0.1296,0.1653,-0.0112,0.0246,0.022,0.1246,-0.0927
0.736,-0.1568,0.9984,-0.1196,0.1653,-0.0112,0.0246,0.022,0.1246,-0.0927
0.736,-0.1625,1.0028,-0.1123,0.1653,-0.0112,0.0246,0.022,0.1246,-0.0927
0.74,-0.1632,1.0075,-0.1059,0.1653,-0.0112,0.0246,0.022,0.1246,-0.0927
0.741,-0.1661,1.0114,-0.1003,0.1653,-0.0112,0.0246,0.022,0.1246,-0.0927
0.744,-0.1671,1.0187,-0.1013,0.1653,-0.0112,0.0246,0.022,0.1246,-0.0927
0.745,-0.1642,1.0199,-0.1008,0.1653,-0.0112,0.0246,0.022,0.1246,-0.0927
0.748,-0.162,1.0202,-0.1023,0.1653,-0.0112,0.0246,0.022,0.1246,-0.0927
0.749,-0.1588,1.018,-0.0986,0.1653,-0.0112,0.0246,0.022,0.1246,-0.0927
0.754,-0.1524,1.0141,-0.0954,0.1653,-0.0112,0.0246,0.022,0.1246,-0.0927
0.755,-0.1493,1.0099,-0.0901,0.1653,-0.0112,0.0246,0.022,0.1246,-0.0927
0.759,-0.1407,1.0021,-0.0927,0.1653,-0.0112,0.0246,0.022,0.1246,-0.0927
0.76,-0.1329,0.9974,-0.0959,0.1653,-0.0112,0.0246,0.022,0.1246,-0.0927
0.764,-0.1241,0.9882,-0.0945,0.1653,-0.0112,0.0246,0.022,0.1246,-0.0927
0.764,-0.1112,0.9781,-0.0947,0.1653,-0.0112,0.0246,0.022,0.1246,-0.0927
0.768,-0.0965,0.9659,-0.0991,0.1653,-0.0112,0.0246,0.022,0.1246,-0.0927
0.769,-0.0816,0.9606,-0.1047,0.1653,-0.0112,0.0246,0.022,0.1246,-0.0927
0.774,-0.0699,0.9564,-0.1076,0.1653,-0.0112,0.0246,0.022,0.1246,-0.0927
0.775,-0.0623,0.9549,-0.113,0.1653,-0.0112,0.0246,0.022,0.1246,-0.0927
0.779,-0.0555,0.9527,-0.1174,0.1653,-0.0112,0.0246,0.022,0.1246,-0.0927
0.779,-0.054,0.9532,-0.1201,0.1653,-0.0112,0.0246,0.022,0.1246,-0.0927
0.783,-0.0515,0.9559,-0.1247,0.1653,-0.0112,0.0246,0.022,0.1246,-0.0927
0.784,-0.0542,0.9581,-0.1335,0.1653,-0.0112,0.0246,0.022,0.1246,-0.0927
0.788,-0.0542,0.9581,-0.1335,0.1653,-0.0112,0.0246,0.0121,-0.0455,-0.1157
0.79,-0.0555,0.9601,-0.1394,0.1653,-0.0112,0.0246,0.0121,-0.0455,-0.1157
0.791,-0.0638,0.9628,-0.1453,0.1653,-0.0112,0.0246,0.0121,-0.0455,-0.1157
0.793,-0.0755,0.9674,-0.1484,0.1653,-0.0112,0.0246,0.0121,-0.0455,-0.1157
0.794,-0.0755,0.9674,-0.1484,0.1535,0.041,-0.0008,0.0121,-0.0455,-0.1157
0.794,-0.086,0.9691,-0.1502,0.1535,0.041,-0.0008,0.0121,-0.0455,-0.1157
0.798,-0.0992,0.9784,-0.1543,0.1535,0.041,-0.0008,0.0121,-0.0455,-0.1157
0.798,-0.1126,0.9825,-0.1585,0.1535,0.041,-0.0008,0.0121,-0.0455,-0.1157
0.804,-0.1256,0.9913,-0.1575,0.1535,0.041,-0.0008,0.0121,-0.0455,-0.1157
0.805,-0.14,0.9996,-0.157,0.1535,0.041,-0.0008,0.0121,-0.0455,-0.1157
0.808,-0.1554,1.0087,-0.155,0.1535,0.041,-0.0008,0.0121,-0.0455,-0.1157
0.809,-0.1715,1.0167,-0.1553,0.1535,0.041,-0.0008,0.0121,-0.0455,-0.1157
0.812,-0.1866,1.0189,-0.1528,0.1535,0.041,-0.0008,0.0121,-0.0455,-0.1157
0.813,-0.2015,1.0197,-0.1504,0.1535,0.041,-0.0008,0.0121,-0.0455,-0.1157
0.819,-0.215,1.0207,-0.1499,0.1535,0.041,-0.0008,0.0121,-0.0455,-0.1157
0.819,-0.2174,1.0177,-0.1509,0.1535,0.041,-0.0008,0.0121,-0.0455,-0.1157
0.824,-0.2184,1.0101,-0.1499,0.1535,0.041,-0.0008,0.0121,-0.0455,-0.1157
0.825,-0.2133,1.0023,-0.1511,0.1535,0.041,-0.0008,0.0121,-0.0455,-0.1157
0.827,-0.2018,0.9957,-0.147,0.1535,0.041,-0.0008,0.0121,-0.0455,-0.1157
0.828,-0.1884,0.9886,-0.1399,0.1535,0.041,-0.0008,0.0121,-0.0455,-0.1157
0.832,-0.1759,0.984,-0.1335,0.1535,0.041,-0.0008,0.0121,-0.0455,-0.1157
0.832,-0.16,0.9828,-0.1289,0.1535,0.041,-0.0008,0.0121,-0.0455,-0.1157
0.837,-0.1436,0.9825,-0.1313,0.1535,0.041,-0.0008,0.0121,-0.0455,-0.1157
0.838,-0.1273,0.9869,-0.1355,0.1535,0.041,-0.0008,0.0121,-0.0455,-0.1157
0.843,-0.1112,0.9935,-0.1416,0.1535,0.041,-0.0008,0.0121,-0.0455,-0.1157
0.843,-0.0941,0.9994,-0.147,0.1535,0.041,-0.0008,0.0121,-0.0455,-0.1157
0.847,-0.0772,1.0057,-0.1433,0.1535,0.041,-0.0008,0.0121,-0.0455,-0.1157
0.848,-0.0567,1.0092,-0.1365,0.1535,0.041,-0.0008,0.0121,-0.0455,-0.1157
0.852,-0.0376,1.0065,-0.1218,0.1535,0.041,-0.0008,0.0121,-0.0455,-0.1157
0.852,-0.0213,1.0036,-0.1133,0.1535,0.041,-0.0008,0.0121,-0.0455,-0.1157
0.857,-0.01,1.0001,-0.1084,0.1535,0.041,-0.0008,0.0121,-0.0455,-0.1157
0.858,-0.01,1.0001,-0.1084,0.1535,0.041,-0.0008,-0.0074,-0.0133,-0.1125
0.859,-0.0093,0.9945,-0.1047,0.1535,0.041,-0.0008,-0.0074,-0.0133,-0.1125
0.862,-0.0093,0.9945,-0.1047,0.0329,-0.0039,0.019,-0.0074,-0.0133,-0.1125
0.863,-0.0115,0.9918,-0.1025,0.0329,-0.0039,0.019,-0.0074,-0.0133,-0.1125
0.863,-0.0134,0.9867,-0.1098,0.0329,-0.0039,0.019,-0.0074,-0.0133,-0.1125
0.867,-0.023,0.9869,-0.114,0.0329,-0.0039,0.019,-0.0074,-0.0133,-0.1125
0.867,-0.0322,0.9862,-0.1191,0.0329,-0.0039,0.019,-0.0074,-0.0133,-0.1125
0.871,-0.0413,0.9891,-0.1211,0.0329,-0.0039,0.019,-0.0074,-0.0133,-0.1125
0.872,-0.0552,0.9913,-0.1203,0.0329,-0.0039,0.019,-0.0074,-0.0133,-0.1125
0.876,-0.073,0.9926,-0.1167,0.0329,-0.0039,0.019,-0.0074,-0.0133,-0.1125
0.877,-0.0889,0.9933,-0.1101,0.0329,-0.0039,0.019,-0.0074,-0.0133,-0.1125
0.881,-0.1031,0.9913,-0.1118,0.0329,-0.0039,0.019,-0.0074,-0.0133,-0.1125
0.882,-0.1204,0.9862,-0.1194,0.0329,-0.0039,0.019,-0.0074,-0.0133,-0.1125
0.886,-0.1314,0.985,-0.1282,0.0329,-0.0039,0.019,-0.0074,-0.0133,-0.1125
0.887,-0.14,0.9825,-0.1389,0.0329,-0.0039,0.019,-0.0074,-0.0133,-0.1125
0.892,-0.1468,0.9825,-0.1489,0.0329,-0.0039,0.019,-0.0074,-0.0133,-0.1125
0.893,-0.149,0.9818,-0.1502,0.0329,-0.0039,0.019,-0.0074,-0.0133,-0.1125
0.895,-0.1512,0.9796,-0.1472,0.0329,-0.0039,0.019,-0.0074,-0.0133,-0.1125
0.896,-0.1529,0.9803,-0.1401,0.0329,-0.0039,0.019,-0.0074,-0.0133,-0.1125
0.902,-0.1539,0.9811,-0.1335,0.0329,-0.0039,0.019,-0.0074,-0.0133,-0.1125
0.902,-0.1546,0.9838,-0.1284,0.0329,-0.0039,0.019,-0.0074,-0.0133,-0.1125
0.906,-0.1551,0.9847,-0.1333,0.0329,-0.0039,0.019,-0.0074,-0.0133,-0.1125
0.907,-0.1595,0.9894,-0.1353,0.0329,-0.0039,0.019,-0.0074,-0.0133,-0.1125
0.912,-0.1549,0.9928,-0.1411,0.0329,-0.0039,0.019,-0.0074,-0.0133,-0.1125
0.913,-0.1537,0.9987,-0.1423,0.0329,-0.0039,0.019,-0.0074,-0.0133,-0.1125
0.916,-0.1463,1.0016,-0.1418,0.0329,-0.0039,0.019,-0.0074,-0.0133,-0.1125
0.916,-0.1366,1.0072,-0.1406,0.0329,-0.0039,0.019,-0.0074,-0.0133,-0.1125
0.92,-0.1253,1.0092,-0.136,0.0329,-0.0039,0.019,-0.0074,-0.0133,-0.1125
0.921,-0.1114,1.0121,-0.1304,0.0329,-0.0039,0.019,-0.0074,-0.0133,-0.1125
0.925,-0.1024,1.0119,-0.1277,0.0329,-0.0039,0.019,-0.0074,-0.0133,-0.1125
0.925,-0.0953,1.0131,-0.1189,0.0329,-0.0039,0.019,-0.0074,-0.0133,-0.1125
0.926,-0.0953,1.0131,-0.1189,0.0329,-0.0039,0.019,-0.0562,-0.0185,-0.15
0.93,-0.0889,1.0128,-0.1167,0.0329,-0.0039,0.019,-0.0562,-0.0185,-0.15
0.93,-0.0818,1.0133,-0.1162,0.0329,-0.0039,0.019,-0.0562,-0.0185,-0.15
0.931,-0.0818,1.0133,-0.1162,0.0096,0.1254,-0.218,-0.0562,-0.0185,-0.15
0.935,-0.0767,1.0106,-0.1225,0.0096,0.1254,-0.218,-0.0562,-0.0185,-0.15
0.935,-0.0716,1.0092,-0.126,0.0096,0.1254,-0.218,-0.0562,-0.0185,-0.15
0.94,-0.0677,1.0089,-0.1304,0.0096,0.1254,-0.218,-0.0562,-0.0185,-0.15
0.941,-0.0638,1.0053,-0.1235,0.0096,0.1254,-0.218,-0.0562,-0.0185,-0.15
0.946,-0.0621,0.9992,-0.1133,0.0096,0.1254,-0.218,-0.0562,-0.0185,-0.15
0.947,-0.0655,0.9918,-0.1091,0.0096,0.1254,-0.218,-0.0562,-0.0185,-0.15
0.95,-0.0711,0.9877,-0.1052,0.0096,0.1254,-0.218,-0.0562,-0.0185,-0.15
0.95,-0.0828,0.9852,-0.1045,0.0096,0.1254,-0.218,-0.0562,-0.0185,-0.15
0.955,-0.0943,0.9855,-0.1011,0.0096,0.1254,-0.218,-0.0562,-0.0185,-0.15
0.955,-0.1036,0.985,-0.0964,0.0096,0.1254,-0.218,-0.0562,-0.0185,-0.15
0.959,-0.1087,0.9867,-0.0952,0.0096,0.1254,-0.218,-0.0562,-0.0185,-0.15
0.96,-0.1112,0.9867,-0.0981,0.0096,0.1254,-0.218,-0.0562,-0.0185,-0.15
0.965,-0.1102,0.9862,-0.1023,0.0096,0.1254,-0.218,-0.0562,-0.0185,-0.15
0.965,-0.1112,0.9852,-0.1094,0.0096,0.1254,-0.218,-0.0562,-0.0185,-0.15
0.969,-0.109,0.9803,-0.116,0.0096,0.1254,-0.218,-0.0562,-0.0185,-0.15
0.969,-0.1075,0.975,-0.1211,0.0096,0.1254,-0.218,-0.0562,-0.0185,-0.15
0.974,-0.1058,0.9728,-0.1201,0.0096,0.1254,-0.218,-0.0562,-0.0185,-0.15
0.974,-0.106,0.9696,-0.1182,0.0096,0.1254,-0.218,-0.0562,-0.0185,-0.15
0.98,-0.107,0.9664,-0.1157,0.0096,0.1254,-0.218,-0.0562,-0.0185,-0.15
0.98,-0.1102,0.9669,-0.1116,0.0096,0.1254,-0.218,-0.0562,-0.0185,-0.15
0.984,-0.1148,0.9671,-0.1116,0.0096,0.1254,-0.218,-0.0562,-0.0185,-0.15
0.984,-0.1146,0.9681,-0.1177,0.0096,0.1254,-0.218,-0.0562,-0.0185,-0.15
0.99,-0.1153,0.9708,-0.1287,0.0096,0.1254,-0.218,-0.0562,-0.0185,-0.15
0.99,-0.1163,0.9708,-0.1362,0.0096,0.1254,-0.218,-0.0562,-0.0185,-0.15
0.993,-0.1163,0.9708,-0.1362,0.0096,0.1254,-0.218,-0.1036,-0.1153,-0.1872
0.994,-0.1234,0.9762,-0.1506,0.0096,0.1254,-0.218,-0.1036,-0.1153,-0.1872
0.994,-0.1317,0.9789,-0.1575,0.0096,0.1254,-0.218,-0.1036,-0.1153,-0.1872
0.999,-0.1436,0.9789,-0.1616,0.0096,0.1254,-0.218,-0.1036,-0.1153,-0.1872
1,-0.1568,0.9772,-0.157,0.0096,0.1254,-0.218,-0.1036,-0.1153,-0.1872
1,-0.1568,0.9772,-0.157,0.187,0.0701,-0.1553,-0.1036,-0.1153,-0.1872
1.003,-0.1654,0.9759,-0.1462,0.187,0.0701,-0.1553,-0.1036,-0.1153,-0.1872
1.004,-0.1757,0.9703,-0.1355,0.187,0.0701,-0.1553,-0.1036,-0.1153,-0.1872
1.008,-0.1879,0.9676,-0.1294,0.187,0.0701,-0.1553,-0.1036,-0.1153,-0.1872
1.009,-0.1984,0.9664,-0.1294,0.187,0.0701,-0.1553,-0.1036,-0.1153,-0.1872
1.014,-0.2067,0.9659,-0.1362,0.187,0.0701,-0.1553,-0.1036,-0.1153,-0.1872
1.014,-0.2157,0.9679,-0.1428,0.187,0.0701,-0.1553,-0.1036,-0.1153,-0.1872
1.017,-0.2226,0.9715,-0.1467,0.187,0.0701,-0.1553,-0.1036,-0.1153,-0.1872
1.018,-0.2274,0.974,-0.1462,0.187,0.0701,-0.1553,-0.1036,-0.1153,-0.1872
1.024,-0.2328,0.9786,-0.1477,0.187,0.0701,-0.1553,-0.1036,-0.1153,-0.1872
1.025,-0.2274,0.9801,-0.145,0.187,0.0701,-0.1553,-0.1036,-0.1153,-0.1872
1.028,-0.2206,0.9833,-0.1362,0.187,0.0701,-0.1553,-0.1036,-0.1153,-0.1872
1.028,-0.2128,0.986,-0.1375,0.187,0.0701,-0.1553,-0.1036,-0.1153,-0.1872
1.033,-0.1996,0.9864,-0.1321,0.187,0.0701,-0.1553,-0.1036,-0.1153,-0.1872
1.034,-0.1906,0.986,-0.1335,0.187,0.0701,-0.1553,-0.1036,-0.1153,-0.1872
1.037,-0.1781,0.986,-0.1353,0.187,0.0701,-0.1553,-0.1036,-0.1153,-0.1872
1.038,-0.1651,0.9874,-0.1389,0.187,0.0701,-0.1553,-0.1036,-0.1153,-0.1872
1.042,-0.1532,0.9884,-0.1399,0.187,0.0701,-0.1553,-0.1036,-0.1153,-0.1872
1.042,-0.1385,0.9886,-0.134,0.187,0.0701,-0.1553,-0.1036,-0.1153,-0.1872
1.047,-0.1192,0.9926,-0.1274,0.187,0.0701,-0.1553,-0.1036,-0.1153,-0.1872
1.047,-0.1011,0.995,-0.1196,0.187,0.0701,-0.1553,-0.1036,-0.1153,-0.1872
1.052,-0.0872,0.9989,-0.1199,0.187,0.0701,-0.1553,-0.1036,-0.1153,-0.1872
1.052,-0.077,1.0018,-0.1189,0.187,0.0701,-0.1553,-0.1036,-0.1153,-0.1872
1.059,-0.0684,1.0031,-0.1201,0.187,0.0701,-0.1553,-0.1036,-0.1153,-0.1872
1.06,-0.0623,1.0023,-0.123,0.187,0.0701,-0.1553,-0.1036,-0.1153,-0.1872
1.062,-0.0623,1.0023,-0.123,0.187,0.0701,-0.1553,-0.1294,-0.1195,-0.2503
1.063,-0.0537,0.9994,-0.1213,0.187,0.0701,-0.1553,-0.1294,-0.1195,-0.2503
1.064,-0.0464,0.9979,-0.1182,0.187,0.0701,-0.1553,-0.1294,-0.1195,-0.2503
1.069,-0.0379,0.9945,-0.1147,0.187,0.0701,-0.1553,-0.1294,-0.1195,-0.2503
1.07,-0.0379,0.9945,-0.1147,0.4062,-0.0173,-0.1267,-0.1294,-0.1195,-0.2503
1.07,-0.0276,0.9884,-0.1089,0.4062,-0.0173,-0.1267,-0.1294,-0.1195,-0.2503
1.072,-0.0213,0.9796,-0.1076,0.4062,-0.0173,-0.1267,-0.1294,-0.1195,-0.2503
1.072,-0.0188,0.9769,-0.1133,0.4062,-0.0173,-0.1267,-0.1294,-0.1195,-0.2503
1.077,-0.0205,0.9777,-0.1206,0.4062,-0.0173,-0.1267,-0.1294,-0.1195,-0.2503
1.077,-0.0208,0.9791,-0.1257,0.4062,-0.0173,-0.1267,-0.1294,-0.1195,-0.2503
1.081,-0.0252,0.9803,-0.1296,0.4062,-0.0173,-0.1267,-0.1294,-0.1195,-0.2503
1.082,-0.0269,0.9794,-0.1301,0.4062,-0.0173,-0.1267,-0.1294,-0.1195,-0.2503
1.087,-0.0254,0.9801,-0.1348,0.4062,-0.0173,-0.1267,-0.1294,-0.1195,-0.2503
1.087,-0.0269,0.9811,-0.1438,0.4062,-0.0173,-0.1267,-0.1294,-0.1195,-0.2503
1.09,-0.0305,0.9818,-0.1592,0.4062,-0.0173,-0.1267,-0.1294,-0.1195,-0.2503
1.091,-0.0359,0.984,-0.1763,0.4062,-0.0173,-0.1267,-0.1294,-0.1195,-0.2503
1.096,-0.044,0.9862,-0.1836,0.4062,-0.0173,-0.1267,-0.1294,-0.1195,-0.2503
1.097,-0.0574,0.9867,-0.1812,0.4062,-0.0173,-0.1267,-0.1294,-0.1195,-0.2503
1.103,-0.0701,0.9906,-0.1746,0.4062,-0.0173,-0.1267,-0.1294,-0.1195,-0.2503
1.104,-0.0823,0.9889,-0.1692,0.4062,-0.0173,-0.1267,-0.1294,-0.1195,-0.2503
1.106,-0.0997,0.9904,-0.1646,0.4062,-0.0173,-0.1267,-0.1294,-0.1195,-0.2503
1.106,-0.1175,0.9906,-0.1587,0.4062,-0.0173,-0.1267,-0.1294,-0.1195,-0.2503
1.11,-0.1327,0.9938,-0.1548,0.4062,-0.0173,-0.1267,-0.1294,-0.1195,-0.2503
1.112,-0.1432,0.9955,-0.1484,0.4062,-0.0173,-0.1267,-0.1294,-0.1195,-0.2503
1.115,-0.1515,0.9938,-0.1431,0.4062,-0.0173,-0.1267,-0.1294,-0.1195,-0.2503
1.116,-0.1517,0.996,-0.1401,0.4062,-0.0173,-0.1267,-0.1294,-0.1195,-0.2503
1.12,-0.1502,0.9994,-0.1387,0.4062,-0.0173,-0.1267,-0.1294,-0.1195,-0.2503
1.121,-0.1471,1.0067,-0.1328,0.4062,-0.0173,-0.1267,-0.1294,-0.1195,-0.2503
1.126,-0.1432,1.0101,-0.1274,0.4062,-0.0173,-0.1267,-0.1294,-0.1195,-0.2503
1.127,-0.1385,1.0138,-0.1196,0.4062,-0.0173,-0.1267,-0.1294,-0.1195,-0.2503
1.13,-0.1385,1.0138,-0.1196,0.4062,-0.0173,-0.1267,-0.2015,0.0684,-0.3475
1.131,-0.1349,1.0165,-0.1035,0.4062,-0.0173,-0.1267,-0.2015,0.0684,-0.3475
1.131,-0.1261,1.0182,-0.0925,0.4062,-0.0173,-0.1267,-0.2015,0.0684,-0.3475
1.137,-0.1219,1.0165,-0.0842,0.4062,-0.0173,-0.1267,-0.2015,0.0684,-0.3475
1.137,-0.1219,1.0165,-0.0842,0.1025,0.0158,-0.3051,-0.2015,0.0684,-0.3475
1.138,-0.1126,1.0165,-0.0752,0.1025,0.0158,-0.3051,-0.2015,0.0684,-0.3475
1.14,-0.106,1.0123,-0.0686,0.1025,0.0158,-0.3051,-0.2015,0.0684,-0.3475
1.14,-0.1019,1.0092,-0.0605,0.1025,0.0158,-0.3051,-0.2015,0.0684,-0.3475
1.146,-0.0936,1.0043,-0.0551,0.1025,0.0158,-0.3051,-0.2015,0.0684,-0.3475
1.147,-0.0843,1.0006,-0.0449,0.1025,0.0158,-0.3051,-0.2015,0.0684,-0.3475
1.149,-0.0669,0.9994,-0.0339,0.1025,0.0158,-0.3051,-0.2015,0.0684,-0.3475
1.15,-0.0489,0.9994,-0.0307,0.1025,0.0158,-0.3051,-0.2015,0.0684,-0.3475
1.155,-0.0418,1.0053,-0.028,0.1025,0.0158,-0.3051,-0.2015,0.0684,-0.3475
1.157,-0.0371,1.0131,-0.0295,0.1025,0.0158,-0.3051,-0.2015,0.0684,-0.3475
1.16,-0.0408,1.0211,-0.0434,0.1025,0.0158,-0.3051,-0.2015,0.0684,-0.3475
1.161,-0.0486,1.0297,-0.0559,0.1025,0.0158,-0.3051,-0.2015,0.0684,-0.3475
1.165,-0.0621,1.0392,-0.0678,0.1025,0.0158,-0.3051,-0.2015,0.0684,-0.3475
1.166,-0.0765,1.0456,-0.072,0.1025,0.0158,-0.3051,-0.2015,0.0684,-0.3475
1.169,-0.0877,1.0483,-0.0781,0.1025,0.0158,-0.3051,-0.2015,0.0684,-0.3475
1.169,-0.1014,1.0485,-0.0778,0.1025,0.0158,-0.3051,-0.2015,0.0684,-0.3475
1.174,-0.1165,1.0468,-0.0744,0.1025,0.0158,-0.3051,-0.2015,0.0684,-0.3475
1.175,-0.1329,1.0441,-0.07,0.1025,0.0158,-0.3051,-0.2015,0.0684,-0.3475
1.18,-0.1495,1.0373,-0.0644,0.1025,0.0158,-0.3051,-0.2015,0.0684,-0.3475
1.18,-0.1654,1.0309,-0.0617,0.1025,0.0158,-0.3051,-0.2015,0.0684,-0.3475
1.184,-0.182,1.0255,-0.0585,0.1025,0.0158,-0.3051,-0.2015,0.0684,-0.3475
1.185,-0.204,1.0211,-0.0559,0.1025,0.0158,-0.3051,-0.2015,0.0684,-0.3475
1.189,-0.2238,1.0148,-0.0556,0.1025,0.0158,-0.3051,-0.2015,0.0684,-0.3475
1.19,-0.2404,1.0094,-0.0566,0.1025,0.0158,-0.3051,-0.2015,0.0684,-0.3475
1.193,-0.2528,1.0045,-0.0522,0.1025,0.0158,-0.3051,-0.2015,0.0684,-0.3475
1.194,-0.2668,1.004,-0.0432,0.1025,0.0158,-0.3051,-0.2015,0.0684,-0.3475
1.199,-0.2668,1.004,-0.0432,0.1025,0.0158,-0.3051,-0.2924,-0.1564,-0.5249
1.2,-0.2721,1.0016,-0.0419,0.1025,0.0158,-0.3051,-0.2924,-0.1564,-0.5249
1.202,-0.2841,0.9996,-0.0461,0.1025,0.0158,-0.3051,-0.2924,-0.1564,-0.5249
1.205,-0.2841,0.9996,-0.0461,0.8771,0.1113,-0.4389,-0.2924,-0.1564,-0.5249
1.206,-0.2905,0.997,-0.0517,0.8771,0.1113,-0.4389,-0.2924,-0.1564,-0.5249
1.206,-0.2956,0.9943,-0.0563,0.8771,0.1113,-0.4389,-0.2924,-0.1564,-0.5249
1.208,-0.2934,0.9884,-0.0566,0.8771,0.1113,-0.4389,-0.2924,-0.1564,-0.5249
1.209,-0.2883,0.9835,-0.0607,0.8771,0.1113,-0.4389,-0.2924,-0.1564,-0.5249
1.214,-0.2827,0.9789,-0.0603,0.8771,0.1113,-0.4389,-0.2924,-0.1564,-0.5249
1.215,-0.2731,0.9715,-0.0622,0.8771,0.1113,-0.4389,-0.2924,-0.1564,-0.5249
1.218,-0.2641,0.9713,-0.0671,0.8771,0.1113,-0.4389,-0.2924,-0.1564,-0.5249
1.219,-0.2519,0.9718,-0.0725,0.8771,0.1113,-0.4389,-0.2924,-0.1564,-0.5249
1.223,-0.2379,0.975,-0.0759,0.8771,0.1113,-0.4389,-0.2924,-0.1564,-0.5249
1.224,-0.2257,0.9779,-0.0774,0.8771,0.1113,-0.4389,-0.2924,-0.1564,-0.5249
1.227,-0.2169,0.9772,-0.0776,0.8771,0.1113,-0.4389,-0.2924,-0.1564,-0.5249
1.228,-0.2069,0.9789,-0.082,0.8771,0.1113,-0.4389,-0.2924,-0.1564,-0.5249
1.233,-0.1979,0.9772,-0.0818,0.8771,0.1113,-0.4389,-0.2924,-0.1564,-0.5249
1.234,-0.1908,0.973,-0.082,0.8771,0.1113,-0.4389,-0.2924,-0.1564,-0.5249
1.238,-0.1852,0.9703,-0.0808,0.8771,0.1113,-0.4389,-0.2924,-0.1564,-0.5249
1.239,-0.183,0.9679,-0.0783,0.8771,0.1113,-0.4389,-0.2924,-0.1564,-0.5249
1.242,-0.1842,0.964,-0.0732,0.8771,0.1113,-0.4389,-0.2924,-0.1564,-0.5249
1.243,-0.1864,0.9603,-0.0705,0.8771,0.1113,-0.4389,-0.2924,-0.1564,-0.5249
1.247,-0.1945,0.9562,-0.072,0.8771,0.1113,-0.4389,-0.2924,-0.1564,-0.5249
1.248,-0.2086,0.9557,-0.069,0.8771,0.1113,-0.4389,-0.2924,-0.1564,-0.5249
1.253,-0.2323,0.9522,-0.0649,0.8771,0.1113,-0.4389,-0.2924,-0.1564,-0.5249
1.253,-0.2599,0.9518,-0.0515,0.8771,0.1113,-0.4389,-0.2924,-0.1564,-0.5249
1.257,-0.2912,0.9464,-0.0446,0.8771,0.1113,-0.4389,-0.2924,-0.1564,-0.5249
1.258,-0.3235,0.943,-0.041,0.8771,0.1113,-0.4389,-0.2924,-0.1564,-0.5249
1.262,-0.3579,0.9405,-0.0436,0.8771,0.1113,-0.4389,-0.2924,-0.1564,-0.5249
1.263,-0.3926,0.9388,-0.0512,0.8771,0.1113,-0.4389,-0.2924,-0.1564,-0.5249
1.267,-0.3926,0.9388,-0.0512,0.8771,0.1113,-0.4389,-0.3149,-0.3637,-0.6241
1.269,-0.4207,0.9373,-0.0583,0.8771,0.1113,-0.4389,-0.3149,-0.3637,-0.6241
1.269,-0.4446,0.9325,-0.06,0.8771,0.1113,-0.4389,-0.3149,-0.3637,-0.6241
1.272,-0.4598,0.9281,-0.0571,0.8771,0.1113,-0.4389,-0.3149,-0.3637,-0.6241
1.273,-0.4598,0.9281,-0.0571,0.582,0.3646,0.1273,-0.3149,-0.3637,-0.6241
1.273,-0.4649,0.9237,-0.0485,0.582,0.3646,0.1273,-0.3149,-0.3637,-0.6241
1.277,-0.4656,0.9176,-0.0397,0.582,0.3646,0.1273,-0.3149,-0.3637,-0.6241
1.278,-0.4629,0.9056,-0.0341,0.582,0.3646,0.1273,-0.3149,-0.3637,-0.6241
1.281,-0.4585,0.8975,-0.0368,0.582,0.3646,0.1273,-0.3149,-0.3637,-0.6241
1.281,-0.4519,0.8943,-0.0395,0.582,0.3646,0.1273,-0.3149,-0.3637,-0.6241
1.286,-0.4429,0.8924,-0.0407,0.582,0.3646,0.1273,-0.3149,-0.3637,-0.6241
1.287,-0.4361,0.8946,-0.0366,0.582,0.3646,0.1273,-0.3149,-0.3637,-0.6241
1.291,-0.4292,0.9012,-0.0334,0.582,0.3646,0.1273,-0.3149,-0.3637,-0.6241
1.292,-0.4207,0.9078,-0.0317,0.582,0.3646,0.1273,-0.3149,-0.3637,-0.6241
1.296,-0.4141,0.9154,-0.0307,0.582,0.3646,0.1273,-0.3149,-0.3637,-0.6241
1.297,-0.409,0.9268,-0.0312,0.582,0.3646,0.1273,-0.3149,-0.3637,-0.6241
1.301,-0.4009,0.9381,-0.0221,0.582,0.3646,0.1273,-0.3149,-0.3637,-0.6241
1.301,-0.3919,0.9449,-0.0153,0.582,0.3646,0.1273,-0.3149,-0.3637,-0.6241
1.305,-0.3789,0.9476,-0.0146,0.582,0.3646,0.1273,-0.3149,-0.3637,-0.6241
1.306,-0.3642,0.9496,-0.0229,0.582,0.3646,0.1273,-0.3149,-0.3637,-0.6241
1.311,-0.3508,0.9542,-0.0302,0.582,0.3646,0.1273,-0.3149,-0.3637,-0.6241
1.312,-0.3437,0.9608,-0.0307,0.582,0.3646,0.1273,-0.3149,-0.3637,-0.6241
1.315,-0.3391,0.9628,-0.0258,0.582,0.3646,0.1273,-0.3149,-0.3637,-0.6241
1.316,-0.3384,0.964,-0.0146,0.582,0.3646,0.1273,-0.3149,-0.3637,-0.6241
1.32,-0.3396,0.9647,-0.0065,0.582,0.3646,0.1273,-0.3149,-0.3637,-0.6241
1.321,-0.3398,0.9581,0.0006,0.582,0.3646,0.1273,-0.3149,-0.3637,-0.6241
1.324,-0.342,0.9535,0.004,0.582,0.3646,0.1273,-0.3149,-0.3637,-0.6241
1.325,-0.3459,0.9481,0.0001,0.582,0.3646,0.1273,-0.3149,-0.3637,-0.6241
1.33,-0.3486,0.9479,-0.0019,0.582,0.3646,0.1273,-0.3149,-0.3637,-0.6241
1.331,-0.3518,0.9515,-0.0033,0.582,0.3646,0.1273,-0.3149,-0.3637,-0.6241
1.335,-0.3518,0.9515,-0.0033,0.582,0.3646,0.1273,-0.3031,-0.2647,-0.5001
1.336,-0.3608,0.9574,-0.0068,0.582,0.3646,0.1273,-0.3031,-0.2647,-0.5001
1.336,-0.3691,0.963,-0.019,0.582,0.3646,0.1273,-0.3031,-0.2647,-0.5001
1.34,-0.3765,0.972,-0.0297,0.582,0.3646,0.1273,-0.3031,-0.2647,-0.5001
1.341,-0.3791,0.9835,-0.03,0.582,0.3646,0.1273,-0.3031,-0.2647,-0.5001
1.341,-0.3791,0.9835,-0.03,-0.2594,-0.1111,-0.2194,-0.3031,-0.2647,-0.5001
1.347,-0.3867,0.9962,-0.0202,-0.2594,-0.1111,-0.2194,-0.3031,-0.2647,-0.5001
1.348,-0.3909,1.0084,-0.0077,-0.2594,-0.1111,-0.2194,-0.3031,-0.2647,-0.5001
1.35,-0.3926,1.0121,-0.0016,-0.2594,-0.1111,-0.2194,-0.3031,-0.2647,-0.5001
1.35,-0.3909,1.0175,-0.0004,-0.2594,-0.1111,-0.2194,-0.3031,-0.2647,-0.5001
1.357,-0.3831,1.0202,-0.0116,-0.2594,-0.1111,-0.2194,-0.3031,-0.2647,-0.5001
1.357,-0.3735,1.0312,-0.0317,-0.2594,-0.1111,-0.2194,-0.3031,-0.2647,-0.5001
1.36,-0.3686,1.0458,-0.0454,-0.2594,-0.1111,-0.2194,-0.3031,-0.2647,-0.5001
1.361,-0.3616,1.0636,-0.0483,-0.2594,-0.1111,-0.2194,-0.3031,-0.2647,-0.5001
1.365,-0.3508,1.0827,-0.0395,-0.2594,-0.1111,-0.2194,-0.3031,-0.2647,-0.5001
1.366,-0.3352,1.0959,-0.0307,-0.2594,-0.1111,-0.2194,-0.3031,-0.2647,-0.5001
1.37,-0.3132,1.1074,-0.029,-0.2594,-0.1111,-0.2194,-0.3031,-0.2647,-0.5001
1.371,-0.2961,1.1176,-0.0285,-0.2594,-0.1111,-0.2194,-0.3031,-0.2647,-0.5001
1.375,-0.2829,1.1313,-0.0226,-0.2594,-0.1111,-0.2194,-0.3031,-0.2647,-0.5001
1.375,-0.2802,1.1426,-0.0107,-0.2594,-0.1111,-0.2194,-0.3031,-0.2647,-0.5001
1.379,-0.2756,1.1592,0.0082,-0.2594,-0.1111,-0.2194,-0.3031,-0.2647,-0.5001
1.38,-0.269,1.1702,0.0318,-0.2594,-0.1111,-0.2194,-0.3031,-0.2647,-0.5001
1.385,-0.255,1.1753,0.0499,-0.2594,-0.1111,-0.2194,-0.3031,-0.2647,-0.5001
1.386,-0.236,1.1763,0.0504,-0.2594,-0.1111,-0.2194,-0.3031,-0.2647,-0.5001
1.389,-0.2233,1.1782,0.0389,-0.2594,-0.1111,-0.2194,-0.3031,-0.2647,-0.5001
1.39,-0.2162,1.1787,0.0157,-0.2594,-0.1111,-0.2194,-0.3031,-0.2647,-0.5001
1.394,-0.2099,1.1831,-0.0082,-0.2594,-0.1111,-0.2194,-0.3031,-0.2647,-0.5001
1.394,-0.2052,1.1929,-0.0043,-0.2594,-0.1111,-0.2194,-0.3031,-0.2647,-0.5001
1.398,-0.2084,1.2039,0.0196,-0.2594,-0.1111,-0.2194,-0.3031,-0.2647,-0.5001
1.399,-0.2199,1.2088,0.0497,-0.2594,-0.1111,-0.2194,-0.3031,-0.2647,-0.5001
1.403,-0.2199,1.2088,0.0497,-0.2594,-0.1111,-0.2194,-0.2782,-0.1428,-0.3391
1.404,-0.2399,1.2044,0.067,-0.2594,-0.1111,-0.2194,-0.2782,-0.1428,-0.3391
1.405,-0.2658,1.1958,0.0587,-0.2594,-0.1111,-0.2194,-0.2782,-0.1428,-0.3391
1.409,-0.2658,1.1958,0.0587,-0.9949,-0.238,-0.0358,-0.2782,-0.1428,-0.3391
1.41,-0.2868,1.1873,0.0365,-0.9949,-0.238,-0.0358,-0.2782,-0.1428,-0.3391
1.41,-0.3054,1.1887,0.0235,-0.9949,-0.238,-0.0358,-0.2782,-0.1428,-0.3391
1.414,-0.3205,1.1902,0.0218,-0.9949,-0.238,-0.0358,-0.2782,-0.1428,-0.3391
1.415,-0.3408,1.1953,0.0304,-0.9949,-0.238,-0.0358,-0.2782,-0.1428,-0.3391
1.418,-0.3613,1.1997,0.0353,-0.9949,-0.238,-0.0358,-0.2782,-0.1428,-0.3391
1.419,-0.387,1.2088,0.0338,-0.9949,-0.238,-0.0358,-0.2782,-0.1428,-0.3391
1.424,-0.4058,1.2183,0.0443,-0.9949,-0.238,-0.0358,-0.2782,-0.1428,-0.3391
1.424,-0.417,1.2171,0.0529,-0.9949,-0.238,-0.0358,-0.2782,-0.1428,-0.3391
1.429,-0.4146,1.2097,0.0499,-0.9949,-0.238,-0.0358,-0.2782,-0.1428,-0.3391
1.43,-0.4043,1.1978,0.0384,-0.9949,-0.238,-0.0358,-0.2782,-0.1428,-0.3391
1.433,-0.3818,1.1919,0.0223,-0.9949,-0.238,-0.0358,-0.2782,-0.1428,-0.3391
1.435,-0.3711,1.1939,0.0111,-0.9949,-0.238,-0.0358,-0.2782,-0.1428,-0.3391
1.438,-0.3691,1.2005,-0.0028,-0.9949,-0.238,-0.0358,-0.2782,-0.1428,-0.3391
1.439,-0.3728,1.2061,-0.0116,-0.9949,-0.238,-0.0358,-0.2782,-0.1428,-0.3391
1.442,-0.3813,1.2163,-0.0028,-0.9949,-0.238,-0.0358,-0.2782,-0.1428,-0.3391
1.443,-0.3821,1.2217,0.0072,-0.9949,-0.238,-0.0358,-0.2782,-0.1428,-0.3391
1.447,-0.3843,1.2229,0.006,-0.9949,-0.238,-0.0358,-0.2782,-0.1428,-0.3391
1.448,-0.3813,1.2254,-0.0028,-0.9949,-0.238,-0.0358,-0.2782,-0.1428,-0.3391
1.452,-0.3799,1.2254,0.0025,-0.9949,-0.238,-0.0358,-0.2782,-0.1428,-0.3391
1.452,-0.3784,1.2285,0.0128,-0.9949,-0.238,-0.0358,-0.2782,-0.1428,-0.3391
1.457,-0.3767,1.2371,0.0147,-0.9949,-0.238,-0.0358,-0.2782,-0.1428,-0.3391
1.458,-0.3706,1.2491,0.0025,-0.9949,-0.238,-0.0358,-0.2782,-0.1428,-0.3391
1.463,-0.3647,1.2603,-0.0068,-0.9949,-0.238,-0.0358,-0.2782,-0.1428,-0.3391
1.464,-0.3623,1.2718,-0.0141,-0.9949,-0.238,-0.0358,-0.2782,-0.1428,-0.3391
1.467,-0.3628,1.2845,-0.019,-0.9949,-0.238,-0.0358,-0.2782,-0.1428,-0.3391
1.468,-0.3667,1.293,-0.0158,-0.9949,-0.238,-0.0358,-0.2782,-0.1428,-0.3391
1.472,-0.3716,1.3006,-0.0224,-0.9949,-0.238,-0.0358,-0.2782,-0.1428,-0.3391
1.473,-0.3716,1.3006,-0.0224,-0.9949,-0.238,-0.0358,-0.293,-0.0983,-0.2689
1.474,-0.3752,1.3133,-0.0153,-0.9949,-0.238,-0.0358,-0.293,-0.0983,-0.2689
1.477,-0.3848,1.3287,0.0064,-0.9949,-0.238,-0.0358,-0.293,-0.0983,-0.2689
1.478,-0.3848,1.3287,0.0064,0.0955,1.563,0.0196,-0.293,-0.0983,-0.2689
1.478,-0.3938,1.338,0.0184,0.0955,1.563,0.0196,-0.293,-0.0983,-0.2689
1.481,-0.3965,1.3402,0.0211,0.0955,1.563,0.0196,-0.293,-0.0983,-0.2689
1.482,-0.3901,1.3434,0.0316,0.0955,1.563,0.0196,-0.293,-0.0983,-0.2689
1.486,-0.3743,1.3487,0.0438,0.0955,1.563,0.0196,-0.293,-0.0983,-0.2689
1.487,-0.3579,1.3566,0.0531,0.0955,1.563,0.0196,-0.293,-0.0983,-0.2689
1.491,-0.3413,1.3654,0.0553,0.0955,1.563,0.0196,-0.293,-0.0983,-0.2689
1.492,-0.3266,1.3719,0.0531,0.0955,1.563,0.0196,-0.293,-0.0983,-0.2689
1.496,-0.3063,1.3785,0.0555,0.0955,1.563,0.0196,-0.293,-0.0983,-0.2689
1.497,-0.288,1.3837,0.0607,0.0955,1.563,0.0196,-0.293,-0.0983,-0.2689
1.502,-0.2761,1.3881,0.0665,0.0955,1.563,0.0196,-0.293,-0.0983,-0.2689
1.503,-0.2648,1.3944,0.0748,0.0955,1.563,0.0196,-0.293,-0.0983,-0.2689
1.508,-0.2482,1.3969,0.0819,0.0955,1.563,0.0196,-0.293,-0.0983,-0.2689
1.508,-0.2321,1.4,0.0827,0.0955,1.563,0.0196,-0.293,-0.0983,-0.2689
1.51,-0.2135,1.3998,0.0734,0.0955,1.563,0.0196,-0.293,-0.0983,-0.2689
1.511,-0.1979,1.3937,0.0695,0.0955,1.563,0.0196,-0.293,-0.0983,-0.2689
1.515,-0.1815,1.3793,0.0746,0.0955,1.563,0.0196,-0.293,-0.0983,-0.2689
1.516,-0.1581,1.3602,0.0868,0.0955,1.563,0.0196,-0.293,-0.0983,-0.2689
1.521,-0.1322,1.3382,0.1078,0.0955,1.563,0.0196,-0.293,-0.0983,-0.2689
1.521,-0.107,1.3162,0.1227,0.0955,1.563,0.0196,-0.293,-0.0983,-0.2689
1.525,-0.087,1.2945,0.1271,0.0955,1.563,0.0196,-0.293,-0.0983,-0.2689
1.526,-0.0691,1.2747,0.1169,0.0955,1.563,0.0196,-0.293,-0.0983,-0.2689
1.532,-0.0542,1.2596,0.0976,0.0955,1.563,0.0196,-0.293,-0.0983,-0.2689
1.533,-0.041,1.2464,0.0783,0.0955,1.563,0.0196,-0.293,-0.0983,-0.2689
1.535,-0.0237,1.2361,0.0612,0.0955,1.563,0.0196,-0.293,-0.0983,-0.2689
1.536,-0.0066,1.232,0.0538,0.0955,1.563,0.0196,-0.293,-0.0983,-0.2689
1.541,-0.0066,1.232,0.0538,0.0955,1.563,0.0196,-0.2369,-0.4381,-0.1527
1.542,0.0095,1.2278,0.0597,0.0955,1.563,0.0196,-0.2369,-0.4381,-0.1527
1.542,0.0298,1.2303,0.0736,0.0955,1.563,0.0196,-0.2369,-0.4381,-0.1527
1.547,0.0476,1.2366,0.0824,0.0955,1.563,0.0196,-0.2369,-0.4381,-0.1527
1.547,0.0476,1.2366,0.0824,-0.5057,2.5975,-0.1282,-0.2369,-0.4381,-0.1527
1.548,0.0594,1.251,0.0868,-0.5057,2.5975,-0.1282,-0.2369,-0.4381,-0.1527
1.551,0.0608,1.2659,0.0748,-0.5057,2.5975,-0.1282,-0.2369,-0.4381,-0.1527
1.552,0.0493,1.2813,0.0585,-0.5057,2.5975,-0.1282,-0.2369,-0.4381,-0.1527
1.555,0.0366,1.296,0.0424,-0.5057,2.5975,-0.1282,-0.2369,-0.4381,-0.1527
1.557,0.0213,1.3035,0.0316,-0.5057,2.5975,-0.1282,-0.2369,-0.4381,-0.1527
1.56,0.0095,1.3065,0.0279,-0.5057,2.5975,-0.1282,-0.2369,-0.4381,-0.1527
1.561,0.0005,1.3009,0.0301,-0.5057,2.5975,-0.1282,-0.2369,-0.4381,-0.1527
1.564,-0.0066,1.2921,0.0321,-0.5057,2.5975,-0.1282,-0.2369,-0.4381,-0.1527
1.565,-0.013,1.2808,0.037,-0.5057,2.5975,-0.1282,-0.2369,-0.4381,-0.1527
1.57,-0.0205,1.2637,0.0372,-0.5057,2.5975,-0.1282,-0.2369,-0.4381,-0.1527
1.57,-0.0269,1.2461,0.0338,-0.5057,2.5975,-0.1282,-0.2369,-0.4381,-0.1527
1.575,-0.0349,1.2342,0.0235,-0.5057,2.5975,-0.1282,-0.2369,-0.4381,-0.1527
1.575,-0.043,1.2212,0.0155,-0.5057,2.5975,-0.1282,-0.2369,-0.4381,-0.1527
1.579,-0.0491,1.2114,0.0064,-0.5057,2.5975,-0.1282,-0.2369,-0.4381,-0.1527
1.58,-0.0569,1.2083,-0.0016,-0.5057,2.5975,-0.1282,-0.2369,-0.4381,-0.1527
1.585,-0.0633,1.207,-0.0119,-0.5057,2.5975,-0.1282,-0.2369,-0.4381,-0.1527
1.586,-0.0686,1.2066,-0.0241,-0.5057,2.5975,-0.1282,-0.2369,-0.4381,-0.1527
1.589,-0.0699,1.2014,-0.0344,-0.5057,2.5975,-0.1282,-0.2369,-0.4381,-0.1527
1.591,-0.0677,1.1953,-0.0461,-0.5057,2.5975,-0.1282,-0.2369,-0.4381,-0.1527
1.594,-0.0621,1.1895,-0.0544,-0.5057,2.5975,-0.1282,-0.2369,-0.4381,-0.1527
1.594,-0.0496,1.1821,-0.0544,-0.5057,2.5975,-0.1282,-0.2369,-0.4381,-0.1527
1.599,-0.0347,1.1724,-0.0505,-0.5057,2.5975,-0.1282,-0.2369,-0.4381,-0.1527
1.601,-0.0142,1.1663,-0.0454,-0.5057,2.5975,-0.1282,-0.2369,-0.4381,-0.1527
1.605,0.012,1.1619,-0.0405,-0.5057,2.5975,-0.1282,-0.2369,-0.4381,-0.1527
1.605,0.0379,1.155,-0.0383,-0.5057,2.5975,-0.1282,-0.2369,-0.4381,-0.1527
1.609,0.065,1.1499,-0.0353,-0.5057,2.5975,-0.1282,-0.2369,-0.4381,-0.1527
1.609,0.0894,1.1472,-0.0339,-0.5057,2.5975,-0.1282,-0.2369,-0.4381,-0.1527
1.61,0.0894,1.1472,-0.0339,-0.5057,2.5975,-0.1282,-0.1116,-0.6443,-0.271
1.613,0.1097,1.1504,-0.0295,-0.5057,2.5975,-0.1282,-0.1116,-0.6443,-0.271
1.614,0.1097,1.1504,-0.0295,1.4798,3.3504,0.2225,-0.1116,-0.6443,-0.271
1.615,0.1195,1.1535,-0.0239,1.4798,3.3504,0.2225,-0.1116,-0.6443,-0.271
1.619,0.116,1.1623,-0.0175,1.4798,3.3504,0.2225,-0.1116,-0.6443,-0.271
1.62,0.0997,1.1719,-0.0204,1.4798,3.3504,0.2225,-0.1116,-0.6443,-0.271
1.624,0.0711,1.1926,-0.0234,1.4798,3.3504,0.2225,-0.1116,-0.6443,-0.271
1.625,0.0266,1.222,-0.0155,1.4798,3.3504,0.2225,-0.1116,-0.6443,-0.271
1.629,-0.0362,1.2554,-0.0031,1.4798,3.3504,0.2225,-0.1116,-0.6443,-0.271
1.63,-0.1109,1.2916,0.013,1.4798,3.3504,0.2225,-0.1116,-0.6443,-0.271
1.634,-0.1937,1.3241,0.0316,1.4798,3.3504,0.2225,-0.1116,-0.6443,-0.271
1.634,-0.2775,1.3446,0.0507,1.4798,3.3504,0.2225,-0.1116,-0.6443,-0.271
1.637,-0.3581,1.3531,0.0599,1.4798,3.3504,0.2225,-0.1116,-0.6443,-0.271
1.638,-0.4295,1.3497,0.0617,1.4798,3.3504,0.2225,-0.1116,-0.6443,-0.271
1.643,-0.4898,1.338,0.0516,1.4798,3.3504,0.2225,-0.1116,-0.6443,-0.271
1.644,-0.5284,1.3153,0.0443,1.4798,3.3504,0.2225,-0.1116,-0.6443,-0.271
1.647,-0.5504,1.2938,0.0389,1.4798,3.3504,0.2225,-0.1116,-0.6443,-0.271
1.648,-0.5546,1.272,0.0375,1.4798,3.3504,0.2225,-0.1116,-0.6443,-0.271
1.652,-0.5436,1.2522,0.0438,1.4798,3.3504,0.2225,-0.1116,-0.6443,-0.271
1.653,-0.5189,1.2354,0.058,1.4798,3.3504,0.2225,-0.1116,-0.6443,-0.271
1.659,-0.4783,1.2176,0.0785,1.4798,3.3504,0.2225,-0.1116,-0.6443,-0.271
1.66,-0.4287,1.1985,0.0954,1.4798,3.3504,0.2225,-0.1116,-0.6443,-0.271
1.662,-0.3669,1.1816,0.1068,1.4798,3.3504,0.2225,-0.1116,-0.6443,-0.271
1.662,-0.3005,1.1604,0.113,1.4798,3.3504,0.2225,-0.1116,-0.6443,-0.271
1.667,-0.2343,1.1355,0.1098,1.4798,3.3504,0.2225,-0.1116,-0.6443,-0.271
1.668,-0.1778,1.1128,0.1112,1.4798,3.3504,0.2225,-0.1116,-0.6443,-0.271
1.671,-0.1414,1.0871,0.113,1.4798,3.3504,0.2225,-0.1116,-0.6443,-0.271
1.672,-0.1297,1.0715,0.1203,1.4798,3.3504,0.2225,-0.1116,-0.6443,-0.271
1.678,-0.1378,1.0583,0.1269,1.4798,3.3504,0.2225,-0.1116,-0.6443,-0.271
1.678,-0.1378,1.0583,0.1269,1.4798,3.3504,0.2225,-0.1498,-0.5399,-1.4252
1.679,-0.1593,1.0595,0.1261,1.4798,3.3504,0.2225,-0.1498,-0.5399,-1.4252
1.682,-0.195,1.0658,0.1183,1.4798,3.3504,0.2225,-0.1498,-0.5399,-1.4252
1.682,-0.2314,1.0839,0.1005,1.4798,3.3504,0.2225,-0.1498,-0.5399,-1.4252
1.683,-0.2314,1.0839,0.1005,3.253,2.287,-0.6881,-0.1498,-0.5399,-1.4252
1.687,-0.2592,1.1025,0.0788,3.253,2.287,-0.6881,-0.1498,-0.5399,-1.4252
1.687,-0.2748,1.1193,0.056,3.253,2.287,-0.6881,-0.1498,-0.5399,-1.4252
1.691,-0.2809,1.135,0.0389,3.253,2.287,-0.6881,-0.1498,-0.5399,-1.4252
1.692,-0.2768,1.1421,0.0233,3.253,2.287,-0.6881,-0.1498,-0.5399,-1.4252
1.696,-0.2699,1.1484,0.0077,3.253,2.287,-0.6881,-0.1498,-0.5399,-1.4252
1.697,-0.2646,1.1482,-0.007,3.253,2.287,-0.6881,-0.1498,-0.5399,-1.4252
1.702,-0.2619,1.1401,-0.0185,3.253,2.287,-0.6881,-0.1498,-0.5399,-1.4252
1.703,-0.2619,1.1284,-0.0219,3.253,2.287,-0.6881,-0.1498,-0.5399,-1.4252
1.706,-0.2702,1.1149,-0.0209,3.253,2.287,-0.6881,-0.1498,-0.5399,-1.4252
1.707,-0.2824,1.1013,-0.0165,3.253,2.287,-0.6881,-0.1498,-0.5399,-1.4252
1.71,-0.2941,1.0849,-0.0053,3.253,2.287,-0.6881,-0.1498,-0.5399,-1.4252
1.711,-0.3085,1.07,0.0135,3.253,2.287,-0.6881,-0.1498,-0.5399,-1.4252
1.716,-0.3225,1.0558,0.035,3.253,2.287,-0.6881,-0.1498,-0.5399,-1.4252
1.717,-0.33,1.0419,0.0563,3.253,2.287,-0.6881,-0.1498,-0.5399,-1.4252
1.721,-0.334,1.0253,0.0746,3.253,2.287,-0.6881,-0.1498,-0.5399,-1.4252
1.721,-0.3369,1.0067,0.0912,3.253,2.287,-0.6881,-0.1498,-0.5399,-1.4252
1.726,-0.3425,0.9891,0.0995,3.253,2.287,-0.6881,-0.1498,-0.5399,-1.4252
1.726,-0.3523,0.9774,0.1051,3.253,2.287,-0.6881,-0.1498,-0.5399,-1.4252
1.73,-0.3603,0.9681,0.1034,3.253,2.287,-0.6881,-0.1498,-0.5399,-1.4252
1.731,-0.3738,0.9591,0.101,3.253,2.287,-0.6881,-0.1498,-0.5399,-1.4252
1.738,-0.3843,0.9554,0.0985,3.253,2.287,-0.6881,-0.1498,-0.5399,-1.4252
1.739,-0.4004,0.9557,0.0988,3.253,2.287,-0.6881,-0.1498,-0.5399,-1.4252
1.741,-0.4177,0.9591,0.0993,3.253,2.287,-0.6881,-0.1498,-0.5399,-1.4252
1.742,-0.437,0.9674,0.0961,3.253,2.287,-0.6881,-0.1498,-0.5399,-1.4252
1.745,-0.4544,0.9767,0.0927,3.253,2.287,-0.6881,-0.1498,-0.5399,-1.4252
1.745,-0.4544,0.9767,0.0927,3.253,2.287,-0.6881,-0.0989,-1.0103,-1.7254
1.746,-0.4744,0.986,0.0853,3.253,2.287,-0.6881,-0.0989,-1.0103,-1.7254
1.751,-0.4744,0.986,0.0853,1.6785,2.4891,-0.3273,-0.0989,-1.0103,-1.7254
1.752,-0.4918,0.9916,0.0734,1.6785,2.4891,-0.3273,-0.0989,-1.0103,-1.7254
1.753,-0.5057,0.9933,0.0638,1.6785,2.4891,-0.3273,-0.0989,-1.0103,-1.7254
1.755,-0.5138,0.9908,0.0541,1.6785,2.4891,-0.3273,-0.0989,-1.0103,-1.7254
1.756,-0.5208,0.9813,0.0533,1.6785,2.4891,-0.3273,-0.0989,-1.0103,-1.7254
1.761,-0.5247,0.9664,0.0651,1.6785,2.4891,-0.3273,-0.0989,-1.0103,-1.7254
1.761,-0.5262,0.9505,0.0831,1.6785,2.4891,-0.3273,-0.0989,-1.0103,-1.7254
1.765,-0.5269,0.9334,0.0968,1.6785,2.4891,-0.3273,-0.0989,-1.0103,-1.7254
1.765,-0.5289,0.92,0.1152,1.6785,2.4891,-0.3273,-0.0989,-1.0103,-1.7254
1.771,-0.5316,0.9115,0.1296,1.6785,2.4891,-0.3273,-0.0989,-1.0103,-1.7254
1.772,-0.5333,0.9014,0.1413,1.6785,2.4891,-0.3273,-0.0989,-1.0103,-1.7254
1.774,-0.5375,0.8948,0.1432,1.6785,2.4891,-0.3273,-0.0989,-1.0103,-1.7254
1.775,-0.5416,0.8939,0.1393,1.6785,2.4891,-0.3273,-0.0989,-1.0103,-1.7254
1.78,-0.5411,0.8939,0.1259,1.6785,2.4891,-0.3273,-0.0989,-1.0103,-1.7254
1.78,-0.5387,0.8924,0.1147,1.6785,2.4891,-0.3273,-0.0989,-1.0103,-1.7254
1.784,-0.5345,0.8931,0.1125,1.6785,2.4891,-0.3273,-0.0989,-1.0103,-1.7254
1.784,-0.5269,0.8958,0.1105,1.6785,2.4891,-0.3273,-0.0989,-1.0103,-1.7254
1.789,-0.515,0.9002,0.1122,1.6785,2.4891,-0.3273,-0.0989,-1.0103,-1.7254
1.789,-0.5025,0.9034,0.112,1.6785,2.4891,-0.3273,-0.0989,-1.0103,-1.7254
1.793,-0.4881,0.9063,0.1093,1.6785,2.4891,-0.3273,-0.0989,-1.0103,-1.7254
1.794,-0.4747,0.9115,0.1068,1.6785,2.4891,-0.3273,-0.0989,-1.0103,-1.7254
1.798,-0.4642,0.9122,0.1066,1.6785,2.4891,-0.3273,-0.0989,-1.0103,-1.7254
1.799,-0.4478,0.9136,0.1061,1.6785,2.4891,-0.3273,-0.0989,-1.0103,-1.7254
1.803,-0.4361,0.9124,0.1061,1.6785,2.4891,-0.3273,-0.0989,-1.0103,-1.7254
1.803,-0.4224,0.9112,0.109,1.6785,2.4891,-0.3273,-0.0989,-1.0103,-1.7254
1.809,-0.4038,0.9071,0.1154,1.6785,2.4891,-0.3273,-0.0989,-1.0103,-1.7254
1.809,-0.385,0.9022,0.1159,1.6785,2.4891,-0.3273,-0.0989,-1.0103,-1.7254
1.813,-0.3696,0.8941,0.1161,1.6785,2.4891,-0.3273,-0.0989,-1.0103,-1.7254
1.814,-0.3559,0.888,0.1242,1.6785,2.4891,-0.3273,-0.0989,-1.0103,-1.7254
1.814,-0.3559,0.888,0.1242,1.6785,2.4891,-0.3273,0.2158,-0.9026,-1.3273
1.818,-0.3559,0.888,0.1242,1.7452,1.3767,-0.713,0.2158,-0.9026,-1.3273
1.819,-0.3489,0.8814,0.1213,1.7452,1.3767,-0.713,0.2158,-0.9026,-1.3273
1.819,-0.3379,0.8733,0.1232,1.7452,1.3767,-0.713,0.2158,-0.9026,-1.3273
1.823,-0.3325,0.8621,0.1293,1.7452,1.3767,-0.713,0.2158,-0.9026,-1.3273
1.823,-0.3308,0.8504,0.1418,1.7452,1.3767,-0.713,0.2158,-0.9026,-1.3273
1.828,-0.3305,0.8374,0.1572,1.7452,1.3767,-0.713,0.2158,-0.9026,-1.3273
1.829,-0.3298,0.8255,0.1762,1.7452,1.3767,-0.713,0.2158,-0.9026,-1.3273
1.833,-0.3396,0.8093,0.1889,1.7452,1.3767,-0.713,0.2158,-0.9026,-1.3273
1.834,-0.352,0.7979,0.1919,1.7452,1.3767,-0.713,0.2158,-0.9026,-1.3273
1.837,-0.3738,0.7869,0.1909,1.7452,1.3767,-0.713,0.2158,-0.9026,-1.3273
1.838,-0.3938,0.7751,0.1919,1.7452,1.3767,-0.713,0.2158,-0.9026,-1.3273
1.843,-0.4182,0.7661,0.1892,1.7452,1.3767,-0.713,0.2158,-0.9026,-1.3273
1.844,-0.4458,0.7563,0.1804,1.7452,1.3767,-0.713,0.2158,-0.9026,-1.3273
1.847,-0.4691,0.7524,0.165,1.7452,1.3767,-0.713,0.2158,-0.9026,-1.3273
1.848,-0.4876,0.7505,0.1503,1.7452,1.3767,-0.713,0.2158,-0.9026,-1.3273
1.853,-0.503,0.7527,0.1364,1.7452,1.3767,-0.713,0.2158,-0.9026,-1.3273
1.853,-0.5194,0.7497,0.1244,1.7452,1.3767,-0.713,0.2158,-0.9026,-1.3273
1.857,-0.5333,0.7527,0.1103,1.7452,1.3767,-0.713,0.2158,-0.9026,-1.3273
1.858,-0.5492,0.7522,0.0971,1.7452,1.3767,-0.713,0.2158,-0.9026,-1.3273
1.862,-0.5599,0.748,0.0824,1.7452,1.3767,-0.713,0.2158,-0.9026,-1.3273
1.863,-0.5677,0.7468,0.0712,1.7452,1.3767,-0.713,0.2158,-0.9026,-1.3273
1.867,-0.5778,0.7392,0.0709,1.7452,1.3767,-0.713,0.2158,-0.9026,-1.3273
1.868,-0.5875,0.7287,0.0748,1.7452,1.3767,-0.713,0.2158,-0.9026,-1.3273
1.872,-0.6015,0.7177,0.0714,1.7452,1.3767,-0.713,0.2158,-0.9026,-1.3273
1.872,-0.6168,0.7087,0.0668,1.7452,1.3767,-0.713,0.2158,-0.9026,-1.3273
1.877,-0.6339,0.7014,0.0531,1.7452,1.3767,-0.713,0.2158,-0.9026,-1.3273
1.877,-0.6467,0.6938,0.037,1.7452,1.3767,-0.713,0.2158,-0.9026,-1.3273
1.882,-0.6596,0.6894,0.0287,1.7452,1.3767,-0.713,0.2158,-0.9026,-1.3273
1.883,-0.6596,0.6894,0.0287,1.7452,1.3767,-0.713,0.4991,0.432,-0.6165
1.883,-0.6713,0.6862,0.0262,1.7452,1.3767,-0.713,0.4991,0.432,-0.6165
1.886,-0.6713,0.6862,0.0262,1.0326,0.4906,-0.3264,0.4991,0.432,-0.6165
1.887,-0.6843,0.6843,0.0179,1.0326,0.4906,-0.3264,0.4991,0.432,-0.6165
1.888,-0.7028,0.6847,0.0069,1.0326,0.4906,-0.3264,0.4991,0.432,-0.6165
1.891,-0.7214,0.686,-0.009,1.0326,0.4906,-0.3264,0.4991,0.432,-0.6165
1.892,-0.7361,0.6857,-0.0212,1.0326,0.4906,-0.3264,0.4991,0.432,-0.6165
1.897,-0.7468,0.684,-0.0334,1.0326,0.4906,-0.3264,0.4991,0.432,-0.6165
1.897,-0.7563,0.6808,-0.0468,1.0326,0.4906,-0.3264,0.4991,0.432,-0.6165
1.902,-0.7629,0.6752,-0.0605,1.0326,0.4906,-0.3264,0.4991,0.432,-0.6165
1.902,-0.7661,0.6647,-0.0668,1.0326,0.4906,-0.3264,0.4991,0.432,-0.6165
1.906,-0.769,0.6552,-0.0708,1.0326,0.4906,-0.3264,0.4991,0.432,-0.6165
1.907,-0.7668,0.6466,-0.0744,1.0326,0.4906,-0.3264,0.4991,0.432,-0.6165
1.912,-0.7622,0.6349,-0.0778,1.0326,0.4906,-0.3264,0.4991,0.432,-0.6165
1.912,-0.7571,0.62,-0.0761,1.0326,0.4906,-0.3264,0.4991,0.432,-0.6165
1.916,-0.7497,0.6039,-0.0783,1.0326,0.4906,-0.3264,0.4991,0.432,-0.6165
1.917,-0.7405,0.586,-0.0818,1.0326,0.4906,-0.3264,0.4991,0.432,-0.6165
1.921,-0.7278,0.5667,-0.0818,1.0326,0.4906,-0.3264,0.4991,0.432,-0.6165
1.921,-0.7187,0.5511,-0.0769,1.0326,0.4906,-0.3264,0.4991,0.432,-0.6165
1.925,-0.7092,0.5338,-0.0739,1.0326,0.4906,-0.3264,0.4991,0.432,-0.6165
1.927,-0.7011,0.5198,-0.0661,1.0326,0.4906,-0.3264,0.4991,0.432,-0.6165
1.93,-0.6936,0.5093,-0.0588,1.0326,0.4906,-0.3264,0.4991,0.432,-0.6165
1.931,-0.6911,0.4976,-0.0541,1.0326,0.4906,-0.3264,0.4991,0.432,-0.6165
1.937,-0.6896,0.4871,-0.0532,1.0326,0.4906,-0.3264,0.4991,0.432,-0.6165
1.938,-0.6877,0.4808,-0.0559,1.0326,0.4906,-0.3264,0.4991,0.432,-0.6165
1.94,-0.6916,0.4746,-0.0495,1.0326,0.4906,-0.3264,0.4991,0.432,-0.6165
1.941,-0.6945,0.4681,-0.0427,1.0326,0.4906,-0.3264,0.4991,0.432,-0.6165
1.946,-0.6989,0.4597,-0.0339,1.0326,0.4906,-0.3264,0.4991,0.432,-0.6165
1.947,-0.7089,0.4507,-0.0217,1.0326,0.4906,-0.3264,0.4991,0.432,-0.6165
1.95,-0.7141,0.4446,-0.0192,1.0326,0.4906,-0.3264,0.4991,0.432,-0.6165
1.951,-0.7141,0.4446,-0.0192,1.0326,0.4906,-0.3264,0.6323,1.2403,0.7126
1.951,-0.7214,0.4395,-0.0187,1.0326,0.4906,-0.3264,0.6323,1.2403,0.7126
1.955,-0.7229,0.4341,-0.0207,1.0326,0.4906,-0.3264,0.6323,1.2403,0.7126
1.957,-0.7229,0.4341,-0.0207,0.9974,-0.9001,0.3227,0.6323,1.2403,0.7126
1.958,-0.7195,0.4319,-0.0275,0.9974,-0.9001,0.3227,0.6323,1.2403,0.7126
1.96,-0.7143,0.4317,-0.0326,0.9974,-0.9001,0.3227,0.6323,1.2403,0.7126
1.961,-0.7024,0.4321,-0.0388,0.9974,-0.9001,0.3227,0.6323,1.2403,0.7126
1.965,-0.6879,0.4331,-0.041,0.9974,-0.9001,0.3227,0.6323,1.2403,0.7126
1.966,-0.6699,0.4346,-0.0439,0.9974,-0.9001,0.3227,0.6323,1.2403,0.7126
1.969,-0.6493,0.4346,-0.0434,0.9974,-0.9001,0.3227,0.6323,1.2403,0.7126
1.97,-0.6274,0.4353,-0.038,0.9974,-0.9001,0.3227,0.6323,1.2403,0.7126
1.975,-0.6039,0.4319,-0.0319,0.9974,-0.9001,0.3227,0.6323,1.2403,0.7126
1.975,-0.5844,0.4277,-0.0246,0.9974,-0.9001,0.3227,0.6323,1.2403,0.7126
1.982,-0.5638,0.4251,-0.0229,0.9974,-0.9001,0.3227,0.6323,1.2403,0.7126
1.983,-0.5467,0.4211,-0.0182,0.9974,-0.9001,0.3227,0.6323,1.2403,0.7126
1.984,-0.5287,0.4172,-0.0146,0.9974,-0.9001,0.3227,0.6323,1.2403,0.7126
1.985,-0.5152,0.417,-0.0087,0.9974,-0.9001,0.3227,0.6323,1.2403,0.7126
1.99,-0.5067,0.418,0.0008,0.9974,-0.9001,0.3227,0.6323,1.2403,0.7126
1.991,-0.5035,0.4202,0.0118,0.9974,-0.9001,0.3227,0.6323,1.2403,0.7126
1.994,-0.5015,0.4216,0.0194,0.9974,-0.9001,0.3227,0.6323,1.2403,0.7126
1.995,-0.5045,0.4233,0.0253,0.9974,-0.9001,0.3227,0.6323,1.2403,0.7126
1.999,-0.5074,0.4253,0.0296,0.9974,-0.9001,0.3227,0.6323,1.2403,0.7126
2,-0.5103,0.4241,0.0311,0.9974,-0.9001,0.3227,0.6323,1.2403,0.7126
2.004,-0.5155,0.4251,0.0355,0.9974,-0.9001,0.3227,0.6323,1.2403,0.7126
2.004,-0.5174,0.4255,0.0348,0.9974,-0.9001,0.3227,0.6323,1.2403,0.7126
2.009,-0.5167,0.4268,0.0306,0.9974,-0.9001,0.3227,0.6323,1.2403,0.7126
2.01,-0.5167,0.4248,0.0292,0.9974,-0.9001,0.3227,0.6323,1.2403,0.7126
2.013,-0.5142,0.4233,0.0292,0.9974,-0.9001,0.3227,0.6323,1.2403,0.7126
2.014,-0.5111,0.4172,0.0292,0.9974,-0.9001,0.3227,0.6323,1.2403,0.7126
2.018,-0.5111,0.4172,0.0292,0.9974,-0.9001,0.3227,0.3037,1.3828,1.9926
2.019,-0.5074,0.4111,0.0326,0.9974,-0.9001,0.3227,0.3037,1.3828,1.9926
2.02,-0.515,0.4072,0.0362,0.9974,-0.9001,0.3227,0.3037,1.3828,1.9926
2.024,-0.5179,0.405,0.035,0.9974,-0.9001,0.3227,0.3037,1.3828,1.9926
2.025,-0.5221,0.4009,0.0323,0.9974,-0.9001,0.3227,0.3037,1.3828,1.9926
2.025,-0.5221,0.4009,0.0323,-1.6154,-3.1162,-0.4435,0.3037,1.3828,1.9926
2.029,-0.5235,0.3989,0.0309,-1.6154,-3.1162,-0.4435,0.3037,1.3828,1.9926
2.029,-0.5272,0.3989,0.0299,-1.6154,-3.1162,-0.4435,0.3037,1.3828,1.9926
2.033,-0.5296,0.3989,0.024,-1.6154,-3.1162,-0.4435,0.3037,1.3828,1.9926
2.035,-0.5316,0.4021,0.0191,-1.6154,-3.1162,-0.4435,0.3037,1.3828,1.9926
2.038,-0.5372,0.4045,0.016,-1.6154,-3.1162,-0.4435,0.3037,1.3828,1.9926
2.039,-0.5428,0.408,0.0165,-1.6154,-3.1162,-0.4435,0.3037,1.3828,1.9926
2.043,-0.5506,0.4121,0.0167,-1.6154,-3.1162,-0.4435,0.3037,1.3828,1.9926
2.043,-0.5604,0.4138,0.0199,-1.6154,-3.1162,-0.4435,0.3037,1.3828,1.9926
2.048,-0.5687,0.4109,0.0201,-1.6154,-3.1162,-0.4435,0.3037,1.3828,1.9926
2.049,-0.5765,0.4116,0.0213,-1.6154,-3.1162,-0.4435,0.3037,1.3828,1.9926
2.054,-0.5878,0.415,0.0182,-1.6154,-3.1162,-0.4435,0.3037,1.3828,1.9926
2.054,-0.5973,0.4177,0.0172,-1.6154,-3.1162,-0.4435,0.3037,1.3828,1.9926
2.059,-0.6015,0.4219,0.0113,-1.6154,-3.1162,-0.4435,0.3037,1.3828,1.9926
2.06,-0.5995,0.4238,0.0108,-1.6154,-3.1162,-0.4435,0.3037,1.3828,1.9926
2.063,-0.5968,0.4221,0.0123,-1.6154,-3.1162,-0.4435,0.3037,1.3828,1.9926
2.064,-0.5905,0.4238,0.0138,-1.6154,-3.1162,-0.4435,0.3037,1.3828,1.9926
2.067,-0.5839,0.4275,0.0152,-1.6154,-3.1162,-0.4435,0.3037,1.3828,1.9926
2.068,-0.5773,0.4324,0.0106,-1.6154,-3.1162,-0.4435,0.3037,1.3828,1.9926
2.073,-0.5673,0.4417,0.0045,-1.6154,-3.1162,-0.4435,0.3037,1.3828,1.9926
2.074,-0.5553,0.45,0.0006,-1.6154,-3.1162,-0.4435,0.3037,1.3828,1.9926
2.077,-0.5401,0.4571,-0.0053,-1.6154,-3.1162,-0.4435,0.3037,1.3828,1.9926
2.077,-0.5235,0.4661,-0.0087,-1.6154,-3.1162,-0.4435,0.3037,1.3828,1.9926
2.082,-0.5079,0.4737,-0.0163,-1.6154,-3.1162,-0.4435,0.3037,1.3828,1.9926
2.083,-0.4942,0.4832,-0.0243,-1.6154,-3.1162,-0.4435,0.3037,1.3828,1.9926
2.087,-0.4942,0.4832,-0.0243,-1.6154,-3.1162,-0.4435,-0.1751,1.4566,2.4575
2.088,-0.4776,0.4925,-0.0324,-1.6154,-3.1162,-0.4435,-0.1751,1.4566,2.4575
2.088,-0.4642,0.5013,-0.038,-1.6154,-3.1162,-0.4435,-0.1751,1.4566,2.4575
2.092,-0.4483,0.5067,-0.0417,-1.6154,-3.1162,-0.4435,-0.1751,1.4566,2.4575
2.093,-0.4388,0.514,-0.0405,-1.6154,-3.1162,-0.4435,-0.1751,1.4566,2.4575
2.094,-0.4388,0.514,-0.0405,-1.2566,-4.9478,0.6922,-0.1751,1.4566,2.4575
2.096,-0.4307,0.5123,-0.0366,-1.2566,-4.9478,0.6922,-0.1751,1.4566,2.4575
2.097,-0.4324,0.5159,-0.0324,-1.2566,-4.9478,0.6922,-0.1751,1.4566,2.4575
2.102,-0.4312,0.5172,-0.028,-1.2566,-4.9478,0.6922,-0.1751,1.4566,2.4575
2.102,-0.4385,0.5189,-0.0268,-1.2566,-4.9478,0.6922,-0.1751,1.4566,2.4575
2.107,-0.4434,0.5194,-0.027,-1.2566,-4.9478,0.6922,-0.1751,1.4566,2.4575
2.107,-0.4468,0.5196,-0.0236,-1.2566,-4.9478,0.6922,-0.1751,1.4566,2.4575
2.112,-0.4505,0.5206,-0.0202,-1.2566,-4.9478,0.6922,-0.1751,1.4566,2.4575
2.113,-0.451,0.5211,-0.0138,-1.2566,-4.9478,0.6922,-0.1751,1.4566,2.4575
2.116,-0.4505,0.5223,-0.0138,-1.2566,-4.9478,0.6922,-0.1751,1.4566,2.4575
2.117,-0.448,0.5247,-0.0109,-1.2566,-4.9478,0.6922,-0.1751,1.4566,2.4575
2.121,-0.4454,0.5313,-0.0126,-1.2566,-4.9478,0.6922,-0.1751,1.4566,2.4575
2.122,-0.4417,0.5384,-0.0126,-1.2566,-4.9478,0.6922,-0.1751,1.4566,2.4575
2.126,-0.439,0.5435,-0.0148,-1.2566,-4.9478,0.6922,-0.1751,1.4566,2.4575
2.127,-0.4339,0.5494,-0.0175,-1.2566,-4.9478,0.6922,-0.1751,1.4566,2.4575
2.131,-0.4236,0.5553,-0.0229,-1.2566,-4.9478,0.6922,-0.1751,1.4566,2.4575
2.132,-0.4177,0.5633,-0.029,-1.2566,-4.9478,0.6922,-0.1751,1.4566,2.4575
2.135,-0.4102,0.5697,-0.0351,-1.2566,-4.9478,0.6922,-0.1751,1.4566,2.4575
2.136,-0.4036,0.5773,-0.0363,-1.2566,-4.9478,0.6922,-0.1751,1.4566,2.4575
2.142,-0.3921,0.5863,-0.0378,-1.2566,-4.9478,0.6922,-0.1751,1.4566,2.4575
2.142,-0.3816,0.5944,-0.0334,-1.2566,-4.9478,0.6922,-0.1751,1.4566,2.4575
2.147,-0.3708,0.6002,-0.028,-1.2566,-4.9478,0.6922,-0.1751,1.4566,2.4575
2.148,-0.3647,0.6085,-0.0258,-1.2566,-4.9478,0.6922,-0.1751,1.4566,2.4575
2.152,-0.3606,0.6144,-0.0253,-1.2566,-4.9478,0.6922,-0.1751,1.4566,2.4575
2.152,-0.3579,0.62,-0.0209,-1.2566,-4.9478,0.6922,-0.1751,1.4566,2.4575
2.156,-0.3579,0.62,-0.0209,-1.2566,-4.9478,0.6922,-0.7588,1.3684,2.0894
2.157,-0.3572,0.6237,-0.019,-1.2566,-4.9478,0.6922,-0.7588,1.3684,2.0894
2.157,-0.3574,0.6264,-0.0155,-1.2566,-4.9478,0.6922,-0.7588,1.3684,2.0894
2.16,-0.3581,0.6273,-0.0138,-1.2566,-4.9478,0.6922,-0.7588,1.3684,2.0894
2.16,-0.3581,0.6273,-0.0138,-2.6847,-5.2148,0.8198,-0.7588,1.3684,2.0894
2.161,-0.362,0.6254,-0.0126,-2.6847,-5.2148,0.8198,-0.7588,1.3684,2.0894
2.165,-0.365,0.6234,-0.0075,-2.6847,-5.2148,0.8198,-0.7588,1.3684,2.0894
2.165,-0.3723,0.6222,-0.0021,-2.6847,-5.2148,0.8198,-0.7588,1.3684,2.0894
2.17,-0.3818,0.6207,0.0064,-2.6847,-5.2148,0.8198,-0.7588,1.3684,2.0894
2.17,-0.3914,0.6232,0.0162,-2.6847,-5.2148,0.8198,-0.7588,1.3684,2.0894
2.175,-0.4014,0.621,0.0226,-2.6847,-5.2148,0.8198,-0.7588,1.3684,2.0894
2.176,-0.4097,0.6234,0.0289,-2.6847,-5.2148,0.8198,-0.7588,1.3684,2.0894
2.179,-0.4151,0.6222,0.037,-2.6847,-5.2148,0.8198,-0.7588,1.3684,2.0894
2.18,-0.4192,0.621,0.0436,-2.6847,-5.2148,0.8198,-0.7588,1.3684,2.0894
2.185,-0.4214,0.6212,0.0492,-2.6847,-5.2148,0.8198,-0.7588,1.3684,2.0894
2.186,-0.4187,0.6217,0.0565,-2.6847,-5.2148,0.8198,-0.7588,1.3684,2.0894
2.191,-0.4155,0.6229,0.0543,-2.6847,-5.2148,0.8198,-0.7588,1.3684,2.0894
2.192,-0.4116,0.6268,0.0592,-2.6847,-5.2148,0.8198,-0.7588,1.3684,2.0894
2.195,-0.406,0.6286,0.0536,-2.6847,-5.2148,0.8198,-0.7588,1.3684,2.0894
2.196,-0.3982,0.631,0.0516,-2.6847,-5.2148,0.8198,-0.7588,1.3684,2.0894
2.199,-0.3906,0.632,0.0497,-2.6847,-5.2148,0.8198,-0.7588,1.3684,2.0894
2.199,-0.3857,0.6322,0.0524,-2.6847,-5.2148,0.8198,-0.7588,1.3684,2.0894
2.204,-0.3791,0.632,0.0573,-2.6847,-5.2148,0.8198,-0.7588,1.3684,2.0894
2.205,-0.3765,0.6349,0.0585,-2.6847,-5.2148,0.8198,-0.7588,1.3684,2.0894
2.21,-0.3765,0.633,0.0612,-2.6847,-5.2148,0.8198,-0.7588,1.3684,2.0894
2.211,-0.3784,0.6339,0.0607,-2.6847,-5.2148,0.8198,-0.7588,1.3684,2.0894
2.214,-0.3813,0.6303,0.0634,-2.6847,-5.2148,0.8198,-0.7588,1.3684,2.0894
2.214,-0.3823,0.6273,0.0619,-2.6847,-5.2148,0.8198,-0.7588,1.3684,2.0894
2.219,-0.3833,0.6227,0.0558,-2.6847,-5.2148,0.8198,-0.7588,1.3684,2.0894
2.22,-0.384,0.6205,0.0482,-2.6847,-5.2148,0.8198,-0.7588,1.3684,2.0894
2.224,-0.3816,0.6146,0.0399,-2.6847,-5.2148,0.8198,-0.7588,1.3684,2.0894
2.225,-0.3816,0.6146,0.0399,-2.6847,-5.2148,0.8198,-0.9401,1.5447,1.2002
2.225,-0.3855,0.6122,0.0296,-2.6847,-5.2148,0.8198,-0.9401,1.5447,1.2002
2.229,-0.3855,0.6122,0.0296,-2.6564,-4.1435,0.1792,-0.9401,1.5447,1.2002
2.23,-0.3867,0.6095,0.0272,-2.6564,-4.1435,0.1792,-0.9401,1.5447,1.2002
2.231,-0.3926,0.6073,0.0309,-2.6564,-4.1435,0.1792,-0.9401,1.5447,1.2002
2.233,-0.3972,0.6044,0.0321,-2.6564,-4.1435,0.1792,-0.9401,1.5447,1.2002
2.233,-0.4021,0.6007,0.0353,-2.6564,-4.1435,0.1792,-0.9401,1.5447,1.2002
2.238,-0.4053,0.5988,0.0387,-2.6564,-4.1435,0.1792,-0.9401,1.5447,1.2002
2.239,-0.4114,0.5951,0.0428,-2.6564,-4.1435,0.1792,-0.9401,1.5447,1.2002
2.243,-0.4143,0.5958,0.0453,-2.6564,-4.1435,0.1792,-0.9401,1.5447,1.2002
2.243,-0.419,0.5973,0.0428,-2.6564,-4.1435,0.1792,-0.9401,1.5447,1.2002
2.249,-0.4243,0.5992,0.0384,-2.6564,-4.1435,0.1792,-0.9401,1.5447,1.2002
2.249,-0.4268,0.6019,0.0294,-2.6564,-4.1435,0.1792,-0.9401,1.5447,1.2002
2.254,-0.4329,0.611,0.0206,-2.6564,-4.1435,0.1792,-0.9401,1.5447,1.2002
2.255,-0.4368,0.6202,0.0143,-2.6564,-4.1435,0.1792,-0.9401,1.5447,1.2002
2.258,-0.4336,0.6334,0.0113,-2.6564,-4.1435,0.1792,-0.9401,1.5447,1.2002
2.258,-0.418,0.643,0.0074,-2.6564,-4.1435,0.1792,-0.9401,1.5447,1.2002
2.263,-0.3848,0.6496,-0.005,-2.6564,-4.1435,0.1792,-0.9401,1.5447,1.2002
2.264,-0.344,0.6591,-0.0248,-2.6564,-4.1435,0.1792,-0.9401,1.5447,1.2002
2.269,-0.3139,0.6708,-0.0407,-2.6564,-4.1435,0.1792,-0.9401,1.5447,1.2002
2.27,-0.3017,0.6928,-0.0385,-2.6564,-4.1435,0.1792,-0.9401,1.5447,1.2002
2.272,-0.3093,0.7226,-0.0153,-2.6564,-4.1435,0.1792,-0.9401,1.5447,1.2002
2.273,-0.3454,0.7764,0.0296,-2.6564,-4.1435,0.1792,-0.9401,1.5447,1.2002
2.277,-0.4124,0.8558,0.0873,-2.6564,-4.1435,0.1792,-0.9401,1.5447,1.2002
2.278,-0.5162,0.9674,0.1435,-2.6564,-4.1435,0.1792,-0.9401,1.5447,1.2002
2.282,-0.6427,1.1015,0.1936,-2.6564,-4.1435,0.1792,-0.9401,1.5447,1.2002
2.283,-0.8015,1.273,0.1853,-2.6564,-4.1435,0.1792,-0.9401,1.5447,1.2002
2.289,-0.983,1.4821,0.1073,-2.6564,-4.1435,0.1792,-0.9401,1.5447,1.2002
2.289,-1.1829,1.7071,-0.0568,-2.6564,-4.1435,0.1792,-0.9401,1.5447,1.2002
2.293,-1.3725,1.904,-0.2975,-2.6564,-4.1435,0.1792,-0.9401,1.5447,1.2002
2.294,-1.3725,1.904,-0.2975,-2.6564,-4.1435,0.1792,-0.1903,1.439,-0.3352
2.294,-1.5066,2.0538,-0.5342,-2.6564,-4.1435,0.1792,-0.1903,1.439,-0.3352
2.298,-1.551,2.1527,-0.6883,-2.6564,-4.1435,0.1792,-0.1903,1.439,-0.3352
2.299,-1.5102,2.2035,-0.7106,-2.6564,-4.1435,0.1792,-0.1903,1.439,-0.3352
2.3,-1.5102,2.2035,-0.7106,-3.0572,-3.5066,0.3094,-0.1903,1.439,-0.3352
2.302,-1.4018,2.2035,-0.6109,-3.0572,-3.5066,0.3094,-0.1903,1.439,-0.3352
2.303,-1.2418,2.1473,-0.3952,-3.0572,-3.5066,0.3094,-0.1903,1.439,-0.3352
2.307,-1.0312,2.035,-0.082,-3.0572,-3.5066,0.3094,-0.1903,1.439,-0.3352
2.308,-0.7659,1.8808,0.2859,-3.0572,-3.5066,0.3094,-0.1903,1.439,-0.3352
2.311,-0.4576,1.7123,0.626,-3.0572,-3.5066,0.3094,-0.1903,1.439,-0.3352
2.312,-0.12,1.5581,0.8766,-3.0572,-3.5066,0.3094,-0.1903,1.439,-0.3352
2.317,0.2216,1.4404,1.0012,-3.0572,-3.5066,0.3094,-0.1903,1.439,-0.3352
2.317,0.5313,1.369,1.0029,-3.0572,-3.5066,0.3094,-0.1903,1.439,-0.3352
2.321,0.801,1.3426,0.8971,-3.0572,-3.5066,0.3094,-0.1903,1.439,-0.3352
2.322,1.0219,1.3451,0.7266,-3.0572,-3.5066,0.3094,-0.1903,1.439,-0.3352
2.327,1.1934,1.3683,0.5353,-3.0572,-3.5066,0.3094,-0.1903,1.439,-0.3352
2.328,1.3211,1.391,0.3558,-3.0572,-3.5066,0.3094,-0.1903,1.439,-0.3352
2.332,1.4001,1.4125,0.2033,-3.0572,-3.5066,0.3094,-0.1903,1.439,-0.3352
2.332,1.4225,1.4157,0.0905,-3.0572,-3.5066,0.3094,-0.1903,1.439,-0.3352
2.336,1.3837,1.39,0.0191,-3.0572,-3.5066,0.3094,-0.1903,1.439,-0.3352
2.336,1.2874,1.3375,-0.0153,-3.0572,-3.5066,0.3094,-0.1903,1.439,-0.3352
2.341,1.1438,1.2481,-0.0229,-3.0572,-3.5066,0.3094,-0.1903,1.439,-0.3352
2.342,0.9659,1.1328,-0.006,-3.0572,-3.5066,0.3094,-0.1903,1.439,-0.3352
2.346,0.7598,1.0101,0.0199,-3.0572,-3.5066,0.3094,-0.1903,1.439,-0.3352
2.347,0.5406,0.9009,0.0402,-3.0572,-3.5066,0.3094,-0.1903,1.439,-0.3352
2.35,0.3217,0.8113,0.0553,-3.0572,-3.5066,0.3094,-0.1903,1.439,-0.3352
2.351,0.117,0.7451,0.0573,-3.0572,-3.5066,0.3094,-0.1903,1.439,-0.3352
2.356,-0.0652,0.6992,0.0499,-3.0572,-3.5066,0.3094,-0.1903,1.439,-0.3352
2.358,-0.2277,0.6728,0.0411,-3.0572,-3.5066,0.3094,-0.1903,1.439,-0.3352
2.36,-0.365,0.6588,0.0365,-3.0572,-3.5066,0.3094,-0.1903,1.439,-0.3352
2.361,-0.365,0.6588,0.0365,-3.0572,-3.5066,0.3094,-0.2733,-0.4239,-1.1842
2.362,-0.4847,0.6564,0.0326,-3.0572,-3.5066,0.3094,-0.2733,-0.4239,-1.1842
2.365,-0.587,0.6606,0.0367,-3.0572,-3.5066,0.3094,-0.2733,-0.4239,-1.1842
2.366,-0.587,0.6606,0.0367,-4.6423,-0.0494,-0.4376,-0.2733,-0.4239,-1.1842
2.367,-0.6743,0.6698,0.0428,-4.6423,-0.0494,-0.4376,-0.2733,-0.4239,-1.1842
2.37,-0.7502,0.6803,0.0612,-4.6423,-0.0494,-0.4376,-0.2733,-0.4239,-1.1842
2.371,-0.8157,0.6904,0.0756,-4.6423,-0.0494,-0.4376,-0.2733,-0.4239,-1.1842
2.377,-0.8707,0.6955,0.0927,-4.6423,-0.0494,-0.4376,-0.2733,-0.4239,-1.1842
2.377,-0.9193,0.7001,0.1139,-4.6423,-0.0494,-0.4376,-0.2733,-0.4239,-1.1842
2.38,-0.9569,0.7021,0.1347,-4.6423,-0.0494,-0.4376,-0.2733,-0.4239,-1.1842
2.381,-0.9801,0.6984,0.1596,-4.6423,-0.0494,-0.4376,-0.2733,-0.4239,-1.1842
2.386,-0.9884,0.6955,0.1814,-4.6423,-0.0494,-0.4376,-0.2733,-0.4239,-1.1842
2.387,-0.9821,0.6877,0.196,-4.6423,-0.0494,-0.4376,-0.2733,-0.4239,-1.1842
2.39,-0.9645,0.6769,0.1987,-4.6423,-0.0494,-0.4376,-0.2733,-0.4239,-1.1842
2.391,-0.9381,0.6654,0.1848,-4.6423,-0.0494,-0.4376,-0.2733,-0.4239,-1.1842
2.395,-0.9054,0.6586,0.1545,-4.6423,-0.0494,-0.4376,-0.2733,-0.4239,-1.1842
2.396,-0.8768,0.6554,0.1081,-4.6423,-0.0494,-0.4376,-0.2733,-0.4239,-1.1842
2.399,-0.8467,0.6569,0.0526,-4.6423,-0.0494,-0.4376,-0.2733,-0.4239,-1.1842
2.4,-0.8194,0.663,-0.0002,-4.6423,-0.0494,-0.4376,-0.2733,-0.4239,-1.1842
2.405,-0.791,0.6757,-0.0483,-4.6423,-0.0494,-0.4376,-0.2733,-0.4239,-1.1842
2.406,-0.7632,0.6918,-0.0891,-4.6423,-0.0494,-0.4376,-0.2733,-0.4239,-1.1842
2.41,-0.7344,0.7094,-0.1199,-4.6423,-0.0494,-0.4376,-0.2733,-0.4239,-1.1842
2.41,-0.7009,0.7265,-0.137,-4.6423,-0.0494,-0.4376,-0.2733,-0.4239,-1.1842
2.414,-0.663,0.7419,-0.1431,-4.6423,-0.0494,-0.4376,-0.2733,-0.4239,-1.1842
2.414,-0.6205,0.749,-0.1309,-4.6423,-0.0494,-0.4376,-0.2733,-0.4239,-1.1842
2.42,-0.58,0.7539,-0.104,-4.6423,-0.0494,-0.4376,-0.2733,-0.4239,-1.1842
2.421,-0.5445,0.75,-0.0727,-4.6423,-0.0494,-0.4376,-0.2733,-0.4239,-1.1842
2.424,-0.512,0.7468,-0.0434,-4.6423,-0.0494,-0.4376,-0.2733,-0.4239,-1.1842
2.425,-0.4847,0.7478,-0.0165,-4.6423,-0.0494,-0.4376,-0.2733,-0.4239,-1.1842
2.428,-0.4847,0.7478,-0.0165,-4.6423,-0.0494,-0.4376,0.1369,0.6714,-0.9425
2.429,-0.4595,0.7573,0.0116,-4.6423,-0.0494,-0.4376,0.1369,0.6714,-0.9425
2.43,-0.4295,0.7798,0.045,-4.6423,-0.0494,-0.4376,0.1369,0.6714,-0.9425
2.434,-0.4295,0.7798,0.045,4.4434,2.8037,1.8367,0.1369,0.6714,-0.9425
2.436,-0.3928,0.814,0.0648,4.4434,2.8037,1.8367,0.1369,0.6714,-0.9425
2.437,-0.3425,0.8562,0.0682,4.4434,2.8037,1.8367,0.1369,0.6714,-0.9425
2.439,-0.2841,0.9093,0.0477,4.4434,2.8037,1.8367,0.1369,0.6714,-0.9425
2.44,-0.2162,0.9591,0.0157,4.4434,2.8037,1.8367,0.1369,0.6714,-0.9425
2.443,-0.1502,1.0055,-0.0209,4.4434,2.8037,1.8367,0.1369,0.6714,-0.9425
2.444,-0.0931,1.037,-0.0532,4.4434,2.8037,1.8367,0.1369,0.6714,-0.9425
2.448,-0.0518,1.06,-0.0766,4.4434,2.8037,1.8367,0.1369,0.6714,-0.9425
2.449,-0.0349,1.0673,-0.083,4.4434,2.8037,1.8367,0.1369,0.6714,-0.9425
2.453,-0.0484,1.0658,-0.0766,4.4434,2.8037,1.8367,0.1369,0.6714,-0.9425
2.454,-0.0948,1.0649,-0.0644,4.4434,2.8037,1.8367,0.1369,0.6714,-0.9425
2.458,-0.1713,1.0658,-0.0522,4.4434,2.8037,1.8367,0.1369,0.6714,-0.9425
2.459,-0.2663,1.0754,-0.0446,4.4434,2.8037,1.8367,0.1369,0.6714,-0.9425
2.463,-0.3706,1.0898,-0.0451,4.4434,2.8037,1.8367,0.1369,0.6714,-0.9425
2.463,-0.4693,1.1096,-0.06,4.4434,2.8037,1.8367,0.1369,0.6714,-0.9425
2.468,-0.5577,1.1291,-0.0832,4.4434,2.8037,1.8367,0.1369,0.6714,-0.9425
2.469,-0.6325,1.1496,-0.0969,4.4434,2.8037,1.8367,0.1369,0.6714,-0.9425
2.472,-0.6972,1.1636,-0.1032,4.4434,2.8037,1.8367,0.1369,0.6714,-0.9425
2.473,-0.76,1.1768,-0.1076,4.4434,2.8037,1.8367,0.1369,0.6714,-0.9425
2.477,-0.8311,1.1831,-0.1059,4.4434,2.8037,1.8367,0.1369,0.6714,-0.9425
2.478,-0.9015,1.1846,-0.0969,4.4434,2.8037,1.8367,0.1369,0.6714,-0.9425
2.482,-0.9637,1.178,-0.083,4.4434,2.8037,1.8367,0.1369,0.6714,-0.9425
2.483,-1.0138,1.1604,-0.0659,4.4434,2.8037,1.8367,0.1369,0.6714,-0.9425
2.488,-1.0453,1.135,-0.0451,4.4434,2.8037,1.8367,0.1369,0.6714,-0.9425
2.489,-1.0488,1.1008,-0.0302,4.4434,2.8037,1.8367,0.1369,0.6714,-0.9425
2.493,-1.0292,1.0666,-0.0133,4.4434,2.8037,1.8367,0.1369,0.6714,-0.9425
2.494,-0.9962,1.0365,0.0001,4.4434,2.8037,1.8367,0.1369,0.6714,-0.9425
2.497,-0.9962,1.0365,0.0001,4.4434,2.8037,1.8367,-0.0929,0.8384,-0.3019
2.498,-0.9506,1.0126,0.025,4.4434,2.8037,1.8367,-0.0929,0.8384,-0.3019
2.498,-0.8966,0.9933,0.0502,4.4434,2.8037,1.8367,-0.0929,0.8384,-0.3019
2.505,-0.8311,0.9777,0.0741,4.4434,2.8037,1.8367,-0.0929,0.8384,-0.3019
2.505,-0.8311,0.9777,0.0741,-4.5489,-2.3139,0.1667,-0.0929,0.8384,-0.3019
2.506,-0.7649,0.9654,0.0929,-4.5489,-2.3139,0.1667,-0.0929,0.8384,-0.3019
2.507,-0.6962,0.954,0.0983,-4.5489,-2.3139,0.1667,-0.0929,0.8384,-0.3019
2.507,-0.631,0.9452,0.0983,-4.5489,-2.3139,0.1667,-0.0929,0.8384,-0.3019
2.513,-0.5702,0.9364,0.0934,-4.5489,-2.3139,0.1667,-0.0929,0.8384,-0.3019
2.513,-0.5108,0.9268,0.0956,-4.5489,-2.3139,0.1667,-0.0929,0.8384,-0.3019
2.516,-0.4612,0.9151,0.0981,-4.5489,-2.3139,0.1667,-0.0929,0.8384,-0.3019
2.517,-0.4214,0.9012,0.1032,-4.5489,-2.3139,0.1667,-0.0929,0.8384,-0.3019
2.523,-0.3855,0.8878,0.1137,-4.5489,-2.3139,0.1667,-0.0929,0.8384,-0.3019
2.524,-0.362,0.8753,0.1239,-4.5489,-2.3139,0.1667,-0.0929,0.8384,-0.3019
2.527,-0.3481,0.8675,0.1342,-4.5489,-2.3139,0.1667,-0.0929,0.8384,-0.3019
2.528,-0.342,0.866,0.1442,-4.5489,-2.3139,0.1667,-0.0929,0.8384,-0.3019
2.533,-0.3437,0.8711,0.1503,-4.5489,-2.3139,0.1667,-0.0929,0.8384,-0.3019
2.533,-0.3518,0.8841,0.1542,-4.5489,-2.3139,0.1667,-0.0929,0.8384,-0.3019
2.536,-0.3613,0.9027,0.1528,-4.5489,-2.3139,0.1667,-0.0929,0.8384,-0.3019
2.537,-0.3733,0.9244,0.1498,-4.5489,-2.3139,0.1667,-0.0929,0.8384,-0.3019
2.541,-0.384,0.9508,0.152,-4.5489,-2.3139,0.1667,-0.0929,0.8384,-0.3019
2.542,-0.398,0.9799,0.1518,-4.5489,-2.3139,0.1667,-0.0929,0.8384,-0.3019
2.548,-0.4075,1.0123,0.1486,-4.5489,-2.3139,0.1667,-0.0929,0.8384,-0.3019
2.548,-0.417,1.0395,0.1398,-4.5489,-2.3139,0.1667,-0.0929,0.8384,-0.3019
2.552,-0.4219,1.0668,0.1291,-4.5489,-2.3139,0.1667,-0.0929,0.8384,-0.3019
2.553,-0.4239,1.0869,0.1198,-4.5489,-2.3139,0.1667,-0.0929,0.8384,-0.3019
2.556,-0.4268,1.1059,0.1071,-4.5489,-2.3139,0.1667,-0.0929,0.8384,-0.3019
2.557,-0.4317,1.1198,0.0919,-4.5489,-2.3139,0.1667,-0.0929,0.8384,-0.3019
2.56,-0.4331,1.1301,0.0805,-4.5489,-2.3139,0.1667,-0.0929,0.8384,-0.3019
2.561,-0.43,1.1347,0.0719,-4.5489,-2.3139,0.1667,-0.0929,0.8384,-0.3019
2.565,-0.4273,1.1386,0.0665,-4.5489,-2.3139,0.1667,-0.0929,0.8384,-0.3019
2.566,-0.4273,1.1386,0.0665,-4.5489,-2.3139,0.1667,-0.0235,0.4272,0.1062
2.567,-0.4273,1.1394,0.0582,-4.5489,-2.3139,0.1667,-0.0235,0.4272,0.1062
2.571,-0.4273,1.1394,0.0582,-2.7738,1.2228,-0.4404,-0.0235,0.4272,0.1062
2.572,-0.4243,1.1352,0.056,-2.7738,1.2228,-0.4404,-0.0235,0.4272,0.1062
2.572,-0.4192,1.1269,0.0511,-2.7738,1.2228,-0.4404,-0.0235,0.4272,0.1062
2.577,-0.4177,1.1145,0.0507,-2.7738,1.2228,-0.4404,-0.0235,0.4272,0.1062
2.577,-0.4187,1.0983,0.0524,-2.7738,1.2228,-0.4404,-0.0235,0.4272,0.1062
2.58,-0.4253,1.0768,0.0582,-2.7738,1.2228,-0.4404,-0.0235,0.4272,0.1062
2.581,-0.4363,1.0553,0.0629,-2.7738,1.2228,-0.4404,-0.0235,0.4272,0.1062
2.585,-0.4473,1.0336,0.0629,-2.7738,1.2228,-0.4404,-0.0235,0.4272,0.1062
2.586,-0.4656,1.0114,0.0631,-2.7738,1.2228,-0.4404,-0.0235,0.4272,0.1062
2.59,-0.4815,0.9899,0.0653,-2.7738,1.2228,-0.4404,-0.0235,0.4272,0.1062
2.591,-0.4981,0.9796,0.0697,-2.7738,1.2228,-0.4404,-0.0235,0.4272,0.1062
2.595,-0.5174,0.9693,0.0734,-2.7738,1.2228,-0.4404,-0.0235,0.4272,0.1062
2.596,-0.534,0.9671,0.077,-2.7738,1.2228,-0.4404,-0.0235,0.4272,0.1062
2.601,-0.5477,0.9671,0.0792,-2.7738,1.2228,-0.4404,-0.0235,0.4272,0.1062
2.602,-0.5548,0.9671,0.0766,-2.7738,1.2228,-0.4404,-0.0235,0.4272,0.1062
2.605,-0.5575,0.9674,0.0673,-2.7738,1.2228,-0.4404,-0.0235,0.4272,0.1062
2.605,-0.5536,0.9691,0.0638,-2.7738,1.2228,-0.4404,-0.0235,0.4272,0.1062
2.61,-0.5516,0.9696,0.0592,-2.7738,1.2228,-0.4404,-0.0235,0.4272,0.1062
2.61,-0.5453,0.975,0.0516,-2.7738,1.2228,-0.4404,-0.0235,0.4272,0.1062
2.614,-0.5365,0.9779,0.0409,-2.7738,1.2228,-0.4404,-0.0235,0.4272,0.1062
2.615,-0.5304,0.9816,0.0267,-2.7738,1.2228,-0.4404,-0.0235,0.4272,0.1062
2.62,-0.5226,0.9869,0.0177,-2.7738,1.2228,-0.4404,-0.0235,0.4272,0.1062
2.621,-0.5194,0.9921,0.0074,-2.7738,1.2228,-0.4404,-0.0235,0.4272,0.1062
2.624,-0.5128,0.995,-0.0033,-2.7738,1.2228,-0.4404,-0.0235,0.4272,0.1062
2.624,-0.5074,0.993,-0.016,-2.7738,1.2228,-0.4404,-0.0235,0.4272,0.1062
2.629,-0.5003,0.9901,-0.0273,-2.7738,1.2228,-0.4404,-0.0235,0.4272,0.1062
2.63,-0.4923,0.9894,-0.0378,-2.7738,1.2228,-0.4404,-0.0235,0.4272,0.1062
2.633,-0.4849,0.9864,-0.0458,-2.7738,1.2228,-0.4404,-0.0235,0.4272,0.1062
2.634,-0.4849,0.9864,-0.0458,-2.7738,1.2228,-0.4404,0.2192,0.1339,0.3609
2.635,-0.4783,0.9847,-0.0458,-2.7738,1.2228,-0.4404,0.2192,0.1339,0.3609
2.639,-0.4783,0.9847,-0.0458,-1.3871,0.3773,1.1279,0.2192,0.1339,0.3609
2.64,-0.4717,0.9833,-0.0478,-1.3871,0.3773,1.1279,0.2192,0.1339,0.3609
2.64,-0.4659,0.9828,-0.0493,-1.3871,0.3773,1.1279,0.2192,0.1339,0.3609
2.643,-0.4607,0.9845,-0.048,-1.3871,0.3773,1.1279,0.2192,0.1339,0.3609
2.644,-0.4585,0.9835,-0.0463,-1.3871,0.3773,1.1279,0.2192,0.1339,0.3609
2.648,-0.4517,0.9835,-0.049,-1.3871,0.3773,1.1279,0.2192,0.1339,0.3609
2.649,-0.4515,0.9838,-0.0556,-1.3871,0.3773,1.1279,0.2192,0.1339,0.3609
2.653,-0.4515,0.9808,-0.0617,-1.3871,0.3773,1.1279,0.2192,0.1339,0.3609
2.654,-0.4507,0.9806,-0.0656,-1.3871,0.3773,1.1279,0.2192,0.1339,0.3609
2.66,-0.4532,0.9816,-0.0678,-1.3871,0.3773,1.1279,0.2192,0.1339,0.3609
2.661,-0.4549,0.9791,-0.0661,-1.3871,0.3773,1.1279,0.2192,0.1339,0.3609
2.663,-0.4554,0.9762,-0.0639,-1.3871,0.3773,1.1279,0.2192,0.1339,0.3609
2.664,-0.4568,0.9725,-0.0617,-1.3871,0.3773,1.1279,0.2192,0.1339,0.3609
2.668,-0.4583,0.9718,-0.0607,-1.3871,0.3773,1.1279,0.2192,0.1339,0.3609
2.669,-0.4605,0.9706,-0.0571,-1.3871,0.3773,1.1279,0.2192,0.1339,0.3609
2.673,-0.4588,0.9671,-0.0583,-1.3871,0.3773,1.1279,0.2192,0.1339,0.3609
2.674,-0.4515,0.9601,-0.0581,-1.3871,0.3773,1.1279,0.2192,0.1339,0.3609
2.678,-0.4456,0.952,-0.0559,-1.3871,0.3773,1.1279,0.2192,0.1339,0.3609
2.679,-0.4331,0.9469,-0.0512,-1.3871,0.3773,1.1279,0.2192,0.1339,0.3609
2.682,-0.4209,0.9422,-0.048,-1.3871,0.3773,1.1279,0.2192,0.1339,0.3609
2.683,-0.4063,0.9457,-0.0456,-1.3871,0.3773,1.1279,0.2192,0.1339,0.3609
2.688,-0.3855,0.9525,-0.0461,-1.3871,0.3773,1.1279,0.2192,0.1339,0.3609
2.688,-0.366,0.965,-0.0466,-1.3871,0.3773,1.1279,0.2192,0.1339,0.3609
2.692,-0.3454,0.9784,-0.0485,-1.3871,0.3773,1.1279,0.2192,0.1339,0.3609
2.693,-0.3222,0.9896,-0.0483,-1.3871,0.3773,1.1279,0.2192,0.1339,0.3609
2.699,-0.301,0.9996,-0.0493,-1.3871,0.3773,1.1279,0.2192,0.1339,0.3609
2.699,-0.2751,1.0018,-0.0505,-1.3871,0.3773,1.1279,0.2192,0.1339,0.3609
2.703,-0.2506,0.9987,-0.0495,-1.3871,0.3773,1.1279,0.2192,0.1339,0.3609
2.703,-0.2506,0.9987,-0.0495,-1.3871,0.3773,1.1279,0.2016,-0.107,0.6351
2.704,-0.2365,0.9967,-0.0495,-1.3871,0.3773,1.1279,0.2016,-0.107,0.6351
2.707,-0.2243,0.9896,-0.0466,-1.3871,0.3773,1.1279,0.2016,-0.107,0.6351
2.708,-0.2243,0.9896,-0.0466,-2.2673,0.3408,0.4743,0.2016,-0.107,0.6351
2.709,-0.2152,0.9835,-0.0475,-2.2673,0.3408,0.4743,0.2016,-0.107,0.6351
2.712,-0.2111,0.9813,-0.0502,-2.2673,0.3408,0.4743,0.2016,-0.107,0.6351
2.713,-0.2074,0.9799,-0.0519,-2.2673,0.3408,0.4743,0.2016,-0.107,0.6351
2.717,-0.2089,0.9843,-0.05,-2.2673,0.3408,0.4743,0.2016,-0.107,0.6351
2.718,-0.2052,0.9896,-0.0451,-2.2673,0.3408,0.4743,0.2016,-0.107,0.6351
2.722,-0.2025,0.9962,-0.0424,-2.2673,0.3408,0.4743,0.2016,-0.107,0.6351
2.722,-0.2025,1.0026,-0.0473,-2.2673,0.3408,0.4743,0.2016,-0.107,0.6351
2.727,-0.2018,1.0084,-0.05,-2.2673,0.3408,0.4743,0.2016,-0.107,0.6351
2.728,-0.2025,1.0163,-0.0551,-2.2673,0.3408,0.4743,0.2016,-0.107,0.6351
2.732,-0.2001,1.0185,-0.0554,-2.2673,0.3408,0.4743,0.2016,-0.107,0.6351
2.732,-0.1932,1.0185,-0.0603,-2.2673,0.3408,0.4743,0.2016,-0.107,0.6351
2.736,-0.1893,1.017,-0.0688,-2.2673,0.3408,0.4743,0.2016,-0.107,0.6351
2.737,-0.1813,1.0114,-0.0771,-2.2673,0.3408,0.4743,0.2016,-0.107,0.6351
2.742,-0.1737,1.0033,-0.0854,-2.2673,0.3408,0.4743,0.2016,-0.107,0.6351
2.742,-0.1678,0.994,-0.094,-2.2673,0.3408,0.4743,0.2016,-0.107,0.6351
2.749,-0.1627,0.9825,-0.1008,-2.2673,0.3408,0.4743,0.2016,-0.107,0.6351
2.749,-0.1649,0.9711,-0.1042,-2.2673,0.3408,0.4743,0.2016,-0.107,0.6351
2.752,-0.1659,0.9576,-0.1072,-2.2673,0.3408,0.4743,0.2016,-0.107,0.6351
2.753,-0.1683,0.9435,-0.1067,-2.2673,0.3408,0.4743,0.2016,-0.107,0.6351
2.757,-0.1713,0.9256,-0.1059,-2.2673,0.3408,0.4743,0.2016,-0.107,0.6351
2.757,-0.1693,0.9063,-0.102,-2.2673,0.3408,0.4743,0.2016,-0.107,0.6351
2.76,-0.1659,0.8922,-0.0959,-2.2673,0.3408,0.4743,0.2016,-0.107,0.6351
2.761,-0.1649,0.8775,-0.0886,-2.2673,0.3408,0.4743,0.2016,-0.107,0.6351
2.765,-0.1649,0.8687,-0.0854,-2.2673,0.3408,0.4743,0.2016,-0.107,0.6351
2.766,-0.1642,0.8626,-0.0786,-2.2673,0.3408,0.4743,0.2016,-0.107,0.6351
2.77,-0.1625,0.8641,-0.0695,-2.2673,0.3408,0.4743,0.2016,-0.107,0.6351
2.771,-0.1625,0.8641,-0.0695,-2.2673,0.3408,0.4743,0.1488,-0.1374,0.7233
2.772,-0.1615,0.8711,-0.0673,-2.2673,0.3408,0.4743,0.1488,-0.1374,0.7233
2.775,-0.1593,0.8838,-0.0583,-2.2673,0.3408,0.4743,0.1488,-0.1374,0.7233
2.776,-0.1593,0.8838,-0.0583,-1.6209,0.0095,-0.2418,0.1488,-0.1374,0.7233
2.777,-0.1551,0.8978,-0.0541,-1.6209,0.0095,-0.2418,0.1488,-0.1374,0.7233
2.782,-0.1449,0.9132,-0.0519,-1.6209,0.0095,-0.2418,0.1488,-0.1374,0.7233
2.782,-0.1368,0.9256,-0.0539,-1.6209,0.0095,-0.2418,0.1488,-0.1374,0.7233
2.785,-0.1295,0.9398,-0.0561,-1.6209,0.0095,-0.2418,0.1488,-0.1374,0.7233
2.785,-0.1153,0.9527,-0.0625,-1.6209,0.0095,-0.2418,0.1488,-0.1374,0.7233
2.79,-0.0987,0.9584,-0.0661,-1.6209,0.0095,-0.2418,0.1488,-0.1374,0.7233
2.791,-0.0779,0.9637,-0.0717,-1.6209,0.0095,-0.2418,0.1488,-0.1374,0.7233
2.795,-0.0555,0.9647,-0.0732,-1.6209,0.0095,-0.2418,0.1488,-0.1374,0.7233
2.795,-0.0366,0.9637,-0.0732,-1.6209,0.0095,-0.2418,0.1488,-0.1374,0.7233
2.8,-0.0147,0.9586,-0.0732,-1.6209,0.0095,-0.2418,0.1488,-0.1374,0.7233
2.801,0.0024,0.9505,-0.0739,-1.6209,0.0095,-0.2418,0.1488,-0.1374,0.7233
2.804,0.0173,0.9403,-0.0676,-1.6209,0.0095,-0.2418,0.1488,-0.1374,0.7233
2.805,0.0308,0.9266,-0.0642,-1.6209,0.0095,-0.2418,0.1488,-0.1374,0.7233
2.81,0.041,0.9119,-0.0578,-1.6209,0.0095,-0.2418,0.1488,-0.1374,0.7233
2.811,0.0501,0.8997,-0.0578,-1.6209,0.0095,-0.2418,0.1488,-0.1374,0.7233
2.814,0.0523,0.8843,-0.0566,-1.6209,0.0095,-0.2418,0.1488,-0.1374,0.7233
2.815,0.053,0.8733,-0.0639,-1.6209,0.0095,-0.2418,0.1488,-0.1374,0.7233
2.82,0.0496,0.868,-0.0781,-1.6209,0.0095,-0.2418,0.1488,-0.1374,0.7233
2.821,0.0476,0.8719,-0.091,-1.6209,0.0095,-0.2418,0.1488,-0.1374,0.7233
2.824,0.0415,0.8787,-0.0986,-1.6209,0.0095,-0.2418,0.1488,-0.1374,0.7233
2.825,0.0327,0.8939,-0.0998,-1.6209,0.0095,-0.2418,0.1488,-0.1374,0.7233
2.829,0.0256,0.9071,-0.0923,-1.6209,0.0095,-0.2418,0.1488,-0.1374,0.7233
2.829,0.0139,0.9249,-0.0805,-1.6209,0.0095,-0.2418,0.1488,-0.1374,0.7233
2.833,0.0051,0.9432,-0.0642,-1.6209,0.0095,-0.2418,0.1488,-0.1374,0.7233
2.834,-0.0039,0.9508,-0.0576,-1.6209,0.0095,-0.2418,0.1488,-0.1374,0.7233
2.839,-0.0039,0.9508,-0.0576,-1.6209,0.0095,-0.2418,0.1174,-0.0903,0.576
2.84,-0.0191,0.9623,-0.0568,-1.6209,0.0095,-0.2418,0.1174,-0.0903,0.576
2.84,-0.0257,0.9701,-0.0603,-1.6209,0.0095,-0.2418,0.1174,-0.0903,0.576
2.845,-0.0257,0.9701,-0.0603,0.0026,-0.284,-0.3529,0.1174,-0.0903,0.576
2.845,-0.0322,0.9759,-0.0632,0.0026,-0.284,-0.3529,0.1174,-0.0903,0.576
2.846,-0.0279,0.9806,-0.0727,0.0026,-0.284,-0.3529,0.1174,-0.0903,0.576
2.848,-0.0215,0.9877,-0.0742,0.0026,-0.284,-0.3529,0.1174,-0.0903,0.576
2.849,-0.0105,0.9884,-0.0742,0.0026,-0.284,-0.3529,0.1174,-0.0903,0.576
2.854,0.0024,0.9877,-0.0732,0.0026,-0.284,-0.3529,0.1174,-0.0903,0.576
2.854,0.0188,0.9833,-0.0727,0.0026,-0.284,-0.3529,0.1174,-0.0903,0.576
2.859,0.0288,0.9767,-0.0712,0.0026,-0.284,-0.3529,0.1174,-0.0903,0.576
2.859,0.0322,0.9681,-0.0671,0.0026,-0.284,-0.3529,0.1174,-0.0903,0.576
2.864,0.0332,0.9574,-0.0649,0.0026,-0.284,-0.3529,0.1174,-0.0903,0.576
2.865,0.0318,0.9444,-0.0625,0.0026,-0.284,-0.3529,0.1174,-0.0903,0.576
2.871,0.0283,0.9344,-0.0615,0.0026,-0.284,-0.3529,0.1174,-0.0903,0.576
2.871,0.0225,0.9254,-0.0629,0.0026,-0.284,-0.3529,0.1174,-0.0903,0.576
2.873,0.0205,0.9205,-0.0651,0.0026,-0.284,-0.3529,0.1174,-0.0903,0.576
2.874,0.0166,0.9188,-0.0734,0.0026,-0.284,-0.3529,0.1174,-0.0903,0.576
2.877,0.01,0.9259,-0.0849,0.0026,-0.284,-0.3529,0.1174,-0.0903,0.576
2.878,0.0059,0.932,-0.093,0.0026,-0.284,-0.3529,0.1174,-0.0903,0.576
2.883,0.0017,0.9417,-0.0981,0.0026,-0.284,-0.3529,0.1174,-0.0903,0.576
2.883,-0.0022,0.9513,-0.093,0.0026,-0.284,-0.3529,0.1174,-0.0903,0.576
2.888,-0.0071,0.9549,-0.0832,0.0026,-0.284,-0.3529,0.1174,-0.0903,0.576
2.888,-0.0112,0.9576,-0.0732,0.0026,-0.284,-0.3529,0.1174,-0.0903,0.576
2.893,-0.0161,0.9586,-0.0651,0.0026,-0.284,-0.3529,0.1174,-0.0903,0.576
2.894,-0.0176,0.9559,-0.0588,0.0026,-0.284,-0.3529,0.1174,-0.0903,0.576
2.898,-0.0186,0.9562,-0.0563,0.0026,-0.284,-0.3529,0.1174,-0.0903,0.576
2.899,-0.0193,0.9581,-0.0605,0.0026,-0.284,-0.3529,0.1174,-0.0903,0.576
2.903,-0.0203,0.9642,-0.07,0.0026,-0.284,-0.3529,0.1174,-0.0903,0.576
2.903,-0.0156,0.9742,-0.0827,0.0026,-0.284,-0.3529,0.1174,-0.0903,0.576
2.908,-0.0078,0.9882,-0.0947,0.0026,-0.284,-0.3529,0.1174,-0.0903,0.576
2.908,-0.0078,0.9882,-0.0947,0.0026,-0.284,-0.3529,0.0805,-0.0287,0.2858
2.909,0.0103,1.006,-0.0991,0.0026,-0.284,-0.3529,0.0805,-0.0287,0.2858
2.912,0.0286,1.0194,-0.0947,0.0026,-0.284,-0.3529,0.0805,-0.0287,0.2858
2.912,0.0286,1.0194,-0.0947,1.2295,-0.5597,-0.2352,0.0805,-0.0287,0.2858
2.914,0.0476,1.0348,-0.0901,1.2295,-0.5597,-0.2352,0.0805,-0.0287,0.2858
2.917,0.0652,1.0436,-0.0854,1.2295,-0.5597,-0.2352,0.0805,-0.0287,0.2858
2.918,0.0833,1.0473,-0.0805,1.2295,-0.5597,-0.2352,0.0805,-0.0287,0.2858
2.923,0.0977,1.0448,-0.0808,1.2295,-0.5597,-0.2352,0.0805,-0.0287,0.2858
2.925,0.1055,1.0407,-0.0932,1.2295,-0.5597,-0.2352,0.0805,-0.0287,0.2858
2.925,0.1072,1.0343,-0.1025,1.2295,-0.5597,-0.2352,0.0805,-0.0287,0.2858
2.929,0.1085,1.0275,-0.114,1.2295,-0.5597,-0.2352,0.0805,-0.0287,0.2858
2.93,0.1104,1.0228,-0.1218,1.2295,-0.5597,-0.2352,0.0805,-0.0287,0.2858
2.934,0.1068,1.0148,-0.1291,1.2295,-0.5597,-0.2352,0.0805,-0.0287,0.2858
2.936,0.1016,1.0128,-0.134,1.2295,-0.5597,-0.2352,0.0805,-0.0287,0.2858
2.939,0.0963,1.0111,-0.1348,1.2295,-0.5597,-0.2352,0.0805,-0.0287,0.2858
2.939,0.0872,1.0099,-0.1287,1.2295,-0.5597,-0.2352,0.0805,-0.0287,0.2858
2.945,0.0801,1.0077,-0.1186,1.2295,-0.5597,-0.2352,0.0805,-0.0287,0.2858
2.945,0.0716,1.0021,-0.1103,1.2295,-0.5597,-0.2352,0.0805,-0.0287,0.2858
2.949,0.0608,1.0014,-0.1047,1.2295,-0.5597,-0.2352,0.0805,-0.0287,0.2858
2.95,0.0454,0.9974,-0.1072,1.2295,-0.5597,-0.2352,0.0805,-0.0287,0.2858
2.954,0.0264,0.997,-0.1157,1.2295,-0.5597,-0.2352,0.0805,-0.0287,0.2858
2.954,0.0059,0.9996,-0.1252,1.2295,-0.5597,-0.2352,0.0805,-0.0287,0.2858
2.959,-0.0166,1.004,-0.1348,1.2295,-0.5597,-0.2352,0.0805,-0.0287,0.2858
2.96,-0.0384,1.0109,-0.134,1.2295,-0.5597,-0.2352,0.0805,-0.0287,0.2858
2.965,-0.0572,1.0167,-0.1313,1.2295,-0.5597,-0.2352,0.0805,-0.0287,0.2858
2.965,-0.0723,1.0182,-0.1282,1.2295,-0.5597,-0.2352,0.0805,-0.0287,0.2858
2.968,-0.0879,1.0187,-0.1223,1.2295,-0.5597,-0.2352,0.0805,-0.0287,0.2858
2.969,-0.0985,1.0145,-0.1169,1.2295,-0.5597,-0.2352,0.0805,-0.0287,0.2858
2.974,-0.1046,1.0148,-0.1152,1.2295,-0.5597,-0.2352,0.0805,-0.0287,0.2858
2.975,-0.1068,1.0094,-0.1164,1.2295,-0.5597,-0.2352,0.0805,-0.0287,0.2858
2.975,-0.1068,1.0094,-0.1164,1.2295,-0.5597,-0.2352,0.0061,-0.0338,0.0158
2.978,-0.1055,1.0077,-0.1162,1.2295,-0.5597,-0.2352,0.0061,-0.0338,0.0158
2.978,-0.1029,1.0065,-0.116,1.2295,-0.5597,-0.2352,0.0061,-0.0338,0.0158
2.983,-0.0941,1.0065,-0.1162,1.2295,-0.5597,-0.2352,0.0061,-0.0338,0.0158
2.984,-0.0941,1.0065,-0.1162,1.2668,-0.2511,-0.2527,0.0061,-0.0338,0.0158
2.984,-0.0855,1.0065,-0.1182,1.2668,-0.2511,-0.2527,0.0061,-0.0338,0.0158
2.988,-0.0721,1.0055,-0.1157,1.2668,-0.2511,-0.2527,0.0061,-0.0338,0.0158
2.989,-0.0603,1.0006,-0.1155,1.2668,-0.2511,-0.2527,0.0061,-0.0338,0.0158
2.993,-0.0457,0.9972,-0.1162,1.2668,-0.2511,-0.2527,0.0061,-0.0338,0.0158
2.994,-0.034,0.9933,-0.1133,1.2668,-0.2511,-0.2527,0.0061,-0.0338,0.0158
2.998,-0.0232,0.9916,-0.1167,1.2668,-0.2511,-0.2527,0.0061,-0.0338,0.0158
2.999,-0.0186,0.9935,-0.1179,1.2668,-0.2511,-0.2527,0.0061,-0.0338,0.0158
3.003,-0.0188,0.9967,-0.1218,1.2668,-0.2511,-0.2527,0.0061,-0.0338,0.0158
3.004,-0.0261,1.0004,-0.1247,1.2668,-0.2511,-0.2527,0.0061,-0.0338,0.0158
3.007,-0.0374,1.0087,-0.1252,1.2668,-0.2511,-0.2527,0.0061,-0.0338,0.0158
3.007,-0.0555,1.0131,-0.1172,1.2668,-0.2511,-0.2527,0.0061,-0.0338,0.0158
3.012,-0.0667,1.0136,-0.1103,1.2668,-0.2511,-0.2527,0.0061,-0.0338,0.0158
3.013,-0.0779,1.0153,-0.104,1.2668,-0.2511,-0.2527,0.0061,-0.0338,0.0158
3.017,-0.0858,1.0143,-0.0964,1.2668,-0.2511,-0.2527,0.0061,-0.0338,0.0158
3.018,-0.0909,1.0136,-0.0832,1.2668,-0.2511,-0.2527,0.0061,-0.0338,0.0158
3.023,-0.0916,1.0106,-0.0688,1.2668,-0.2511,-0.2527,0.0061,-0.0338,0.0158
3.024,-0.0919,1.0111,-0.0651,1.2668,-0.2511,-0.2527,0.0061,-0.0338,0.0158
3.028,-0.0921,1.0136,-0.0541,1.2668,-0.2511,-0.2527,0.0061,-0.0338,0.0158
3.028,-0.0933,1.017,-0.0485,1.2668,-0.2511,-0.2527,0.0061,-0.0338,0.0158
3.031,-0.098,1.0211,-0.0417,1.2668,-0.2511,-0.2527,0.0061,-0.0338,0.0158
3.032,-0.1029,1.0268,-0.0427,1.2668,-0.2511,-0.2527,0.0061,-0.0338,0.0158
3.036,-0.1011,1.0302,-0.0439,1.2668,-0.2511,-0.2527,0.0061,-0.0338,0.0158
3.037,-0.1011,1.0365,-0.0432,1.2668,-0.2511,-0.2527,0.0061,-0.0338,0.0158
3.043,-0.097,1.0373,-0.0493,1.2668,-0.2511,-0.2527,0.0061,-0.0338,0.0158
3.044,-0.097,1.0373,-0.0493,1.2668,-0.2511,-0.2527,-0.0721,0.0376,-0.1336
3.044,-0.0867,1.0414,-0.0554,1.2668,-0.2511,-0.2527,-0.0721,0.0376,-0.1336
3.048,-0.0828,1.0434,-0.0519,1.2668,-0.2511,-0.2527,-0.0721,0.0376,-0.1336
3.048,-0.0735,1.0412,-0.0458,1.2668,-0.2511,-0.2527,-0.0721,0.0376,-0.1336
3.051,-0.0638,1.0375,-0.0395,1.2668,-0.2511,-0.2527,-0.0721,0.0376,-0.1336
3.052,-0.0638,1.0375,-0.0395,1.3559,0.2591,-0.6369,-0.0721,0.0376,-0.1336
3.053,-0.0569,1.027,-0.0302,1.3559,0.2591,-0.6369,-0.0721,0.0376,-0.1336
3.056,-0.052,1.0133,-0.0204,1.3559,0.2591,-0.6369,-0.0721,0.0376,-0.1336
3.057,-0.0486,0.997,-0.016,1.3559,0.2591,-0.6369,-0.0721,0.0376,-0.1336
3.062,-0.0508,0.9786,-0.0138,1.3559,0.2591,-0.6369,-0.0721,0.0376,-0.1336
3.062,-0.0562,0.9647,-0.0199,1.3559,0.2591,-0.6369,-0.0721,0.0376,-0.1336
3.066,-0.0701,0.9549,-0.0261,1.3559,0.2591,-0.6369,-0.0721,0.0376,-0.1336
3.067,-0.0875,0.9483,-0.0317,1.3559,0.2591,-0.6369,-0.0721,0.0376,-0.1336
3.072,-0.1099,0.9464,-0.038,1.3559,0.2591,-0.6369,-0.0721,0.0376,-0.1336
3.073,-0.1349,0.9471,-0.0395,1.3559,0.2591,-0.6369,-0.0721,0.0376,-0.1336
3.076,-0.1647,0.952,-0.041,1.3559,0.2591,-0.6369,-0.0721,0.0376,-0.1336
3.077,-0.1928,0.9591,-0.041,1.3559,0.2591,-0.6369,-0.0721,0.0376,-0.1336
3.082,-0.2199,0.9718,-0.039,1.3559,0.2591,-0.6369,-0.0721,0.0376,-0.1336
3.083,-0.2455,0.9779,-0.0407,1.3559,0.2591,-0.6369,-0.0721,0.0376,-0.1336
3.086,-0.2653,0.983,-0.0414,1.3559,0.2591,-0.6369,-0.0721,0.0376,-0.1336
3.087,-0.2778,0.9872,-0.0449,1.3559,0.2591,-0.6369,-0.0721,0.0376,-0.1336
3.09,-0.2868,0.9918,-0.0458,1.3559,0.2591,-0.6369,-0.0721,0.0376,-0.1336
3.092,-0.2895,0.9879,-0.0432,1.3559,0.2591,-0.6369,-0.0721,0.0376,-0.1336
3.096,-0.2892,0.986,-0.0422,1.3559,0.2591,-0.6369,-0.0721,0.0376,-0.1336
3.096,-0.2822,0.9821,-0.0407,1.3559,0.2591,-0.6369,-0.0721,0.0376,-0.1336
3.1,-0.2678,0.9825,-0.04,1.3559,0.2591,-0.6369,-0.0721,0.0376,-0.1336
3.101,-0.2475,0.9879,-0.0427,1.3559,0.2591,-0.6369,-0.0721,0.0376,-0.1336
3.105,-0.223,0.9904,-0.041,1.3559,0.2591,-0.6369,-0.0721,0.0376,-0.1336
3.105,-0.192,0.9999,-0.0483,1.3559,0.2591,-0.6369,-0.0721,0.0376,-0.1336
3.11,-0.1532,1.0104,-0.049,1.3559,0.2591,-0.6369,-0.0721,0.0376,-0.1336
3.111,-0.1532,1.0104,-0.049,1.3559,0.2591,-0.6369,-0.0893,0.0336,-0.1816
3.111,-0.1097,1.0197,-0.0559,1.3559,0.2591,-0.6369,-0.0893,0.0336,-0.1816
3.116,-0.0655,1.0277,-0.062,1.3559,0.2591,-0.6369,-0.0893,0.0336,-0.1816
3.117,-0.0259,1.0365,-0.0698,1.3559,0.2591,-0.6369,-0.0893,0.0336,-0.1816
3.121,0.0147,1.0397,-0.0749,1.3559,0.2591,-0.6369,-0.0893,0.0336,-0.1816
3.122,0.054,1.0395,-0.0739,1.3559,0.2591,-0.6369,-0.0893,0.0336,-0.1816
3.122,0.054,1.0395,-0.0739,0.5813,0.2589,-0.3672,-0.0893,0.0336,-0.1816
3.126,0.0875,1.0351,-0.0766,0.5813,0.2589,-0.3672,-0.0893,0.0336,-0.1816
3.127,0.1116,1.0312,-0.0793,0.5813,0.2589,-0.3672,-0.0893,0.0336,-0.1816
3.13,0.1307,1.0265,-0.0813,0.5813,0.2589,-0.3672,-0.0893,0.0336,-0.1816
3.131,0.1432,1.0219,-0.0788,0.5813,0.2589,-0.3672,-0.0893,0.0336,-0.1816
3.134,0.1476,1.016,-0.0761,0.5813,0.2589,-0.3672,-0.0893,0.0336,-0.1816
3.134,0.1439,1.0116,-0.0715,0.5813,0.2589,-0.3672,-0.0893,0.0336,-0.1816
3.14,0.1302,1.0065,-0.072,0.5813,0.2589,-0.3672,-0.0893,0.0336,-0.1816
3.141,0.1119,0.9984,-0.0698,0.5813,0.2589,-0.3672,-0.0893,0.0336,-0.1816
3.145,0.0867,0.9857,-0.0612,0.5813,0.2589,-0.3672,-0.0893,0.0336,-0.1816
3.145,0.0589,0.9755,-0.051,0.5813,0.2589,-0.3672,-0.0893,0.0336,-0.1816
3.149,0.0256,0.9659,-0.0368,0.5813,0.2589,-0.3672,-0.0893,0.0336,-0.1816
3.15,-0.0078,0.9574,-0.0278,0.5813,0.2589,-0.3672,-0.0893,0.0336,-0.1816
3.154,-0.0447,0.9542,-0.0234,0.5813,0.2589,-0.3672,-0.0893,0.0336,-0.1816
3.155,-0.0853,0.9559,-0.0219,0.5813,0.2589,-0.3672,-0.0893,0.0336,-0.1816
3.16,-0.1229,0.9652,-0.0295,0.5813,0.2589,-0.3672,-0.0893,0.0336,-0.1816
3.16,-0.1642,0.9764,-0.0373,0.5813,0.2589,-0.3672,-0.0893,0.0336,-0.1816
3.164,-0.1947,0.9891,-0.0424,0.5813,0.2589,-0.3672,-0.0893,0.0336,-0.1816
3.164,-0.2211,0.9999,-0.0395,0.5813,0.2589,-0.3672,-0.0893,0.0336,-0.1816
3.169,-0.2389,1.0075,-0.0326,0.5813,0.2589,-0.3672,-0.0893,0.0336,-0.1816
3.169,-0.2514,1.0109,-0.0292,0.5813,0.2589,-0.3672,-0.0893,0.0336,-0.1816
3.173,-0.2541,1.0101,-0.0273,0.5813,0.2589,-0.3672,-0.0893,0.0336,-0.1816
3.174,-0.2519,1.0101,-0.0317,0.5813,0.2589,-0.3672,-0.0893,0.0336,-0.1816
3.178,-0.2519,1.0101,-0.0317,0.5813,0.2589,-0.3672,-0.1362,-0.0497,-0.2987
3.179,-0.2448,1.0163,-0.0331,0.5813,0.2589,-0.3672,-0.1362,-0.0497,-0.2987
3.18,-0.234,1.0246,-0.0346,0.5813,0.2589,-0.3672,-0.1362,-0.0497,-0.2987
3.183,-0.2186,1.0294,-0.0375,0.5813,0.2589,-0.3672,-0.1362,-0.0497,-0.2987
3.183,-0.1989,1.0375,-0.0436,0.5813,0.2589,-0.3672,-0.1362,-0.0497,-0.2987
3.187,-0.1796,1.0465,-0.0527,0.5813,0.2589,-0.3672,-0.1362,-0.0497,-0.2987
3.188,-0.1796,1.0465,-0.0527,-0.1593,-0.0001,-0.0054,-0.1362,-0.0497,-0.2987
3.189,-0.1556,1.0556,-0.0561,-0.1593,-0.0001,-0.0054,-0.1362,-0.0497,-0.2987
3.193,-0.1349,1.0639,-0.0493,-0.1593,-0.0001,-0.0054,-0.1362,-0.0497,-0.2987
3.193,-0.1187,1.0683,-0.0366,-0.1593,-0.0001,-0.0054,-0.1362,-0.0497,-0.2987
3.199,-0.1011,1.0698,-0.0219,-0.1593,-0.0001,-0.0054,-0.1362,-0.0497,-0.2987
3.199,-0.0804,1.0663,-0.0141,-0.1593,-0.0001,-0.0054,-0.1362,-0.0497,-0.2987
3.203,-0.0596,1.0639,-0.0185,-0.1593,-0.0001,-0.0054,-0.1362,-0.0497,-0.2987
3.204,-0.0435,1.0658,-0.0363,-0.1593,-0.0001,-0.0054,-0.1362,-0.0497,-0.2987
3.207,-0.0288,1.0729,-0.0603,-0.1593,-0.0001,-0.0054,-0.1362,-0.0497,-0.2987
3.208,-0.0249,1.0842,-0.0805,-0.1593,-0.0001,-0.0054,-0.1362,-0.0497,-0.2987
3.213,-0.0301,1.0969,-0.0849,-0.1593,-0.0001,-0.0054,-0.1362,-0.0497,-0.2987
3.214,-0.0435,1.1054,-0.0786,-0.1593,-0.0001,-0.0054,-0.1362,-0.0497,-0.2987
3.217,-0.0625,1.112,-0.0568,-0.1593,-0.0001,-0.0054,-0.1362,-0.0497,-0.2987
3.218,-0.0894,1.1118,-0.0295,-0.1593,-0.0001,-0.0054,-0.1362,-0.0497,-0.2987
3.223,-0.117,1.1027,-0.0119,-0.1593,-0.0001,-0.0054,-0.1362,-0.0497,-0.2987
3.224,-0.141,1.0876,-0.0077,-0.1593,-0.0001,-0.0054,-0.1362,-0.0497,-0.2987
3.228,-0.1693,1.0771,-0.0104,-0.1593,-0.0001,-0.0054,-0.1362,-0.0497,-0.2987
3.228,-0.2033,1.0668,-0.0104,-0.1593,-0.0001,-0.0054,-0.1362,-0.0497,-0.2987
3.233,-0.2399,1.0583,-0.0072,-0.1593,-0.0001,-0.0054,-0.1362,-0.0497,-0.2987
3.233,-0.2707,1.0553,-0.0011,-0.1593,-0.0001,-0.0054,-0.1362,-0.0497,-0.2987
3.238,-0.3024,1.0546,0.0138,-0.1593,-0.0001,-0.0054,-0.1362,-0.0497,-0.2987
3.238,-0.3281,1.0566,0.0294,-0.1593,-0.0001,-0.0054,-0.1362,-0.0497,-0.2987
3.243,-0.3459,1.0595,0.0426,-0.1593,-0.0001,-0.0054,-0.1362,-0.0497,-0.2987
3.244,-0.3484,1.0619,0.0477,-0.1593,-0.0001,-0.0054,-0.1362,-0.0497,-0.2987
3.247,-0.3393,1.0661,0.0563,-0.1593,-0.0001,-0.0054,-0.1362,-0.0497,-0.2987
3.248,-0.3393,1.0661,0.0563,-0.1593,-0.0001,-0.0054,-0.1885,-0.2073,-0.3577
3.248,-0.3169,1.068,0.0529,-0.1593,-0.0001,-0.0054,-0.1885,-0.2073,-0.3577
3.252,-0.2802,1.0693,0.0392,-0.1593,-0.0001,-0.0054,-0.1885,-0.2073,-0.3577
3.253,-0.2404,1.0729,0.0299,-0.1593,-0.0001,-0.0054,-0.1885,-0.2073,-0.3577
3.257,-0.1998,1.0749,0.0082,-0.1593,-0.0001,-0.0054,-0.1885,-0.2073,-0.3577
3.258,-0.1998,1.0749,0.0082,1.006,0.1851,-0.1855,-0.1885,-0.2073,-0.3577
3.259,-0.1654,1.0815,-0.0192,1.006,0.1851,-0.1855,-0.1885,-0.2073,-0.3577
3.262,-0.1292,1.0898,-0.0361,1.006,0.1851,-0.1855,-0.1885,-0.2073,-0.3577
3.263,-0.0989,1.0974,-0.0395,1.006,0.1851,-0.1855,-0.1885,-0.2073,-0.3577
3.266,-0.0787,1.0988,-0.0522,1.006,0.1851,-0.1855,-0.1885,-0.2073,-0.3577
3.267,-0.0701,1.0974,-0.0732,1.006,0.1851,-0.1855,-0.1885,-0.2073,-0.3577
3.272,-0.0792,1.1003,-0.093,1.006,0.1851,-0.1855,-0.1885,-0.2073,-0.3577
3.272,-0.1038,1.1069,-0.1074,1.006,0.1851,-0.1855,-0.1885,-0.2073,-0.3577
3.276,-0.1287,1.111,-0.1084,1.006,0.1851,-0.1855,-0.1885,-0.2073,-0.3577
3.277,-0.1612,1.1132,-0.1001,1.006,0.1851,-0.1855,-0.1885,-0.2073,-0.3577
3.282,-0.1957,1.114,-0.0866,1.006,0.1851,-0.1855,-0.1885,-0.2073,-0.3577
3.283,-0.2304,1.1142,-0.0815,1.006,0.1851,-0.1855,-0.1885,-0.2073,-0.3577
3.287,-0.2643,1.1164,-0.073,1.006,0.1851,-0.1855,-0.1885,-0.2073,-0.3577
3.288,-0.298,1.1169,-0.0642,1.006,0.1851,-0.1855,-0.1885,-0.2073,-0.3577
3.291,-0.3359,1.1162,-0.0588,1.006,0.1851,-0.1855,-0.1885,-0.2073,-0.3577
3.292,-0.3728,1.1123,-0.0493,1.006,0.1851,-0.1855,-0.1885,-0.2073,-0.3577
3.296,-0.4016,1.1069,-0.0473,1.006,0.1851,-0.1855,-0.1885,-0.2073,-0.3577
3.297,-0.4283,1.1047,-0.0493,1.006,0.1851,-0.1855,-0.1885,-0.2073,-0.3577
3.3,-0.4471,1.104,-0.0598,1.006,0.1851,-0.1855,-0.1885,-0.2073,-0.3577
3.3,-0.4639,1.1101,-0.0791,1.006,0.1851,-0.1855,-0.1885,-0.2073,-0.3577
3.306,-0.4793,1.1154,-0.0896,1.006,0.1851,-0.1855,-0.1885,-0.2073,-0.3577
3.307,-0.492,1.1159,-0.073,1.006,0.1851,-0.1855,-0.1885,-0.2073,-0.3577
3.31,-0.5003,1.1084,-0.0578,1.006,0.1851,-0.1855,-0.1885,-0.2073,-0.3577
3.31,-0.4974,1.1003,-0.0703,1.006,0.1851,-0.1855,-0.1885,-0.2073,-0.3577
3.315,-0.4876,1.0993,-0.0832,1.006,0.1851,-0.1855,-0.1885,-0.2073,-0.3577
3.315,-0.4876,1.0993,-0.0832,1.006,0.1851,-0.1855,-0.238,-0.278,-0.2703
3.316,-0.4752,1.103,-0.0788,1.006,0.1851,-0.1855,-0.238,-0.278,-0.2703
3.32,-0.4612,1.1081,-0.0744,1.006,0.1851,-0.1855,-0.238,-0.278,-0.2703
3.321,-0.4373,1.1137,-0.0681,1.006,0.1851,-0.1855,-0.238,-0.278,-0.2703
3.325,-0.4046,1.1169,-0.0554,1.006,0.1851,-0.1855,-0.238,-0.278,-0.2703
3.325,-0.4046,1.1169,-0.0554,0.1417,0.8914,0.0153,-0.238,-0.278,-0.2703
3.326,-0.3691,1.1218,-0.0439,0.1417,0.8914,0.0153,-0.238,-0.278,-0.2703
3.33,-0.3467,1.1272,-0.0375,0.1417,0.8914,0.0153,-0.238,-0.278,-0.2703
3.331,-0.3359,1.1333,-0.0454,0.1417,0.8914,0.0153,-0.238,-0.278,-0.2703
3.335,-0.3256,1.1404,-0.048,0.1417,0.8914,0.0153,-0.238,-0.278,-0.2703
3.337,-0.3071,1.1435,-0.0414,0.1417,0.8914,0.0153,-0.238,-0.278,-0.2703
3.339,-0.2792,1.1408,-0.0241,0.1417,0.8914,0.0153,-0.238,-0.278,-0.2703
3.34,-0.2392,1.1413,-0.0295,0.1417,0.8914,0.0153,-0.238,-0.278,-0.2703
3.344,-0.2006,1.1501,-0.0182,0.1417,0.8914,0.0153,-0.238,-0.278,-0.2703
3.345,-0.1783,1.1633,-0.0324,0.1417,0.8914,0.0153,-0.238,-0.278,-0.2703
3.35,-0.1698,1.176,-0.06,0.1417,0.8914,0.0153,-0.238,-0.278,-0.2703
3.351,-0.1669,1.187,-0.071,0.1417,0.8914,0.0153,-0.238,-0.278,-0.2703
3.355,-0.1671,1.2027,-0.0764,0.1417,0.8914,0.0153,-0.238,-0.278,-0.2703
3.356,-0.1691,1.2259,-0.0903,0.1417,0.8914,0.0153,-0.238,-0.278,-0.2703
3.359,-0.1781,1.2469,-0.0849,0.1417,0.8914,0.0153,-0.238,-0.278,-0.2703
3.36,-0.1928,1.2559,-0.0603,0.1417,0.8914,0.0153,-0.238,-0.278,-0.2703
3.364,-0.2033,1.2515,-0.0358,0.1417,0.8914,0.0153,-0.238,-0.278,-0.2703
3.364,-0.2086,1.2347,-0.0317,0.1417,0.8914,0.0153,-0.238,-0.278,-0.2703
3.369,-0.2138,1.2227,-0.0432,0.1417,0.8914,0.0153,-0.238,-0.278,-0.2703
3.37,-0.2218,1.2158,-0.0615,0.1417,0.8914,0.0153,-0.238,-0.278,-0.2703
3.374,-0.2296,1.2154,-0.0778,0.1417,0.8914,0.0153,-0.238,-0.278,-0.2703
3.375,-0.2392,1.2222,-0.0967,0.1417,0.8914,0.0153,-0.238,-0.278,-0.2703
3.378,-0.2528,1.2366,-0.1216,0.1417,0.8914,0.0153,-0.238,-0.278,-0.2703
3.379,-0.2748,1.2513,-0.1257,0.1417,0.8914,0.0153,-0.238,-0.278,-0.2703
3.383,-0.298,1.2679,-0.0991,0.1417,0.8914,0.0153,-0.238,-0.278,-0.2703
3.384,-0.298,1.2679,-0.0991,0.1417,0.8914,0.0153,-0.3283,-0.3151,-0.0139
3.385,-0.3081,1.2786,-0.0712,0.1417,0.8914,0.0153,-0.3283,-0.3151,-0.0139
3.389,-0.3039,1.286,-0.0473,0.1417,0.8914,0.0153,-0.3283,-0.3151,-0.0139
3.39,-0.2895,1.2879,-0.0275,0.1417,0.8914,0.0153,-0.3283,-0.3151,-0.0139
3.395,-0.2895,1.2879,-0.0275,-1.0426,1.2177,-0.7242,-0.3283,-0.3151,-0.0139
3.396,-0.278,1.2904,-0.0116,-1.0426,1.2177,-0.7242,-0.3283,-0.3151,-0.0139
3.397,-0.2729,1.2965,-0.0026,-1.0426,1.2177,-0.7242,-0.3283,-0.3151,-0.0139
3.398,-0.2687,1.2989,-0.0126,-1.0426,1.2177,-0.7242,-0.3283,-0.3151,-0.0139
3.398,-0.2582,1.2952,-0.0119,-1.0426,1.2177,-0.7242,-0.3283,-0.3151,-0.0139
3.403,-0.2367,1.2918,0.002,-1.0426,1.2177,-0.7242,-0.3283,-0.3151,-0.0139
3.404,-0.2067,1.2886,0.0135,-1.0426,1.2177,-0.7242,-0.3283,-0.3151,-0.0139
3.408,-0.1754,1.2889,0.0077,-1.0426,1.2177,-0.7242,-0.3283,-0.3151,-0.0139
3.408,-0.149,1.294,0.003,-1.0426,1.2177,-0.7242,-0.3283,-0.3151,-0.0139
3.414,-0.1268,1.2991,0.0033,-1.0426,1.2177,-0.7242,-0.3283,-0.3151,-0.0139
3.415,-0.1053,1.3023,0.0094,-1.0426,1.2177,-0.7242,-0.3283,-0.3151,-0.0139
3.418,-0.0887,1.3045,0.0086,-1.0426,1.2177,-0.7242,-0.3283,-0.3151,-0.0139
3.419,-0.0723,1.307,0.006,-1.0426,1.2177,-0.7242,-0.3283,-0.3151,-0.0139
3.423,-0.0555,1.3092,0.0082,-1.0426,1.2177,-0.7242,-0.3283,-0.3151,-0.0139
3.424,-0.0381,1.3077,0.0108,-1.0426,1.2177,-0.7242,-0.3283,-0.3151,-0.0139
3.427,-0.0161,1.3077,0.0182,-1.0426,1.2177,-0.7242,-0.3283,-0.3151,-0.0139
3.428,0.0078,1.3016,0.0284,-1.0426,1.2177,-0.7242,-0.3283,-0.3151,-0.0139
3.432,0.0288,1.296,0.0355,-1.0426,1.2177,-0.7242,-0.3283,-0.3151,-0.0139
3.433,0.0464,1.2945,0.0355,-1.0426,1.2177,-0.7242,-0.3283,-0.3151,-0.0139
3.439,0.0586,1.2945,0.0314,-1.0426,1.2177,-0.7242,-0.3283,-0.3151,-0.0139
3.44,0.0625,1.2908,0.025,-1.0426,1.2177,-0.7242,-0.3283,-0.3151,-0.0139
3.442,0.0591,1.2886,0.0128,-1.0426,1.2177,-0.7242,-0.3283,-0.3151,-0.0139
3.443,0.055,1.2842,0.0069,-1.0426,1.2177,-0.7242,-0.3283,-0.3151,-0.0139
3.448,0.0474,1.2767,0.0082,-1.0426,1.2177,-0.7242,-0.3283,-0.3151,-0.0139
3.449,0.0447,1.2662,0.0084,-1.0426,1.2177,-0.7242,-0.3283,-0.3151,-0.0139
3.452,0.0423,1.2566,0.0201,-1.0426,1.2177,-0.7242,-0.3283,-0.3151,-0.0139
3.453,0.0423,1.2566,0.0201,-1.0426,1.2177,-0.7242,-0.3898,-0.6963,0.0235
3.454,0.0408,1.2442,0.0338,-1.0426,1.2177,-0.7242,-0.3898,-0.6963,0.0235
3.457,0.0386,1.2283,0.0433,-1.0426,1.2177,-0.7242,-0.3898,-0.6963,0.0235
3.457,0.0376,1.2122,0.0441,-1.0426,1.2177,-0.7242,-0.3898,-0.6963,0.0235
3.462,0.0381,1.1995,0.0406,-1.0426,1.2177,-0.7242,-0.3898,-0.6963,0.0235
3.463,0.0381,1.1995,0.0406,-0.434,2.1644,-0.872,-0.3898,-0.6963,0.0235
3.464,0.0423,1.1926,0.0394,-0.434,2.1644,-0.872,-0.3898,-0.6963,0.0235
3.467,0.0489,1.1865,0.0419,-0.434,2.1644,-0.872,-0.3898,-0.6963,0.0235
3.468,0.0586,1.1868,0.0485,-0.434,2.1644,-0.872,-0.3898,-0.6963,0.0235
3.472,0.0674,1.1829,0.0551,-0.434,2.1644,-0.872,-0.3898,-0.6963,0.0235
3.473,0.0772,1.1831,0.0638,-0.434,2.1644,-0.872,-0.3898,-0.6963,0.0235
3.477,0.0914,1.1824,0.0621,-0.434,2.1644,-0.872,-0.3898,-0.6963,0.0235
3.478,0.108,1.1816,0.0511,-0.434,2.1644,-0.872,-0.3898,-0.6963,0.0235
3.483,0.1309,1.1812,0.0411,-0.434,2.1644,-0.872,-0.3898,-0.6963,0.0235
3.484,0.1578,1.1797,0.0284,-0.434,2.1644,-0.872,-0.3898,-0.6963,0.0235
3.486,0.1937,1.1819,0.0096,-0.434,2.1644,-0.872,-0.3898,-0.6963,0.0235
3.487,0.2299,1.1836,-0.0129,-0.434,2.1644,-0.872,-0.3898,-0.6963,0.0235
3.491,0.2731,1.1882,-0.0344,-0.434,2.1644,-0.872,-0.3898,-0.6963,0.0235
3.492,0.32,1.1995,-0.0532,-0.434,2.1644,-0.872,-0.3898,-0.6963,0.0235
3.496,0.3672,1.2083,-0.0666,-0.434,2.1644,-0.872,-0.3898,-0.6963,0.0235
3.497,0.4151,1.2229,-0.0783,-0.434,2.1644,-0.872,-0.3898,-0.6963,0.0235
3.501,0.4615,1.2381,-0.091,-0.434,2.1644,-0.872,-0.3898,-0.6963,0.0235
3.501,0.502,1.2552,-0.0996,-0.434,2.1644,-0.872,-0.3898,-0.6963,0.0235
3.505,0.5418,1.2718,-0.1098,-0.434,2.1644,-0.872,-0.3898,-0.6963,0.0235
3.506,0.5699,1.2862,-0.1133,-0.434,2.1644,-0.872,-0.3898,-0.6963,0.0235
3.51,0.5931,1.3016,-0.1145,-0.434,2.1644,-0.872,-0.3898,-0.6963,0.0235
3.511,0.61,1.3133,-0.1118,-0.434,2.1644,-0.872,-0.3898,-0.6963,0.0235
3.517,0.6166,1.3199,-0.1098,-0.434,2.1644,-0.872,-0.3898,-0.6963,0.0235
3.518,0.6195,1.3248,-0.1111,-0.434,2.1644,-0.872,-0.3898,-0.6963,0.0235
3.521,0.6142,1.3253,-0.1164,-0.434,2.1644,-0.872,-0.3898,-0.6963,0.0235
3.521,0.6142,1.3253,-0.1164,-0.434,2.1644,-0.872,-0.1953,-1.0159,-0.3684
3.522,0.6024,1.3287,-0.1196,-0.434,2.1644,-0.872,-0.1953,-1.0159,-0.3684
3.526,0.5802,1.3355,-0.1245,-0.434,2.1644,-0.872,-0.1953,-1.0159,-0.3684
3.527,0.5428,1.3509,-0.1238,-0.434,2.1644,-0.872,-0.1953,-1.0159,-0.3684
3.53,0.4832,1.3737,-0.1116,-0.434,2.1644,-0.872,-0.1953,-1.0159,-0.3684
3.53,0.4832,1.3737,-0.1116,1.4258,2.8553,-0.4943,-0.1953,-1.0159,-0.3684
3.531,0.3997,1.4018,-0.0976,1.4258,2.8553,-0.4943,-0.1953,-1.0159,-0.3684
3.534,0.2968,1.4338,-0.0857,1.4258,2.8553,-0.4943,-0.1953,-1.0159,-0.3684
3.535,0.1859,1.467,-0.0761,1.4258,2.8553,-0.4943,-0.1953,-1.0159,-0.3684
3.54,0.0655,1.4929,-0.0708,1.4258,2.8553,-0.4943,-0.1953,-1.0159,-0.3684
3.541,-0.053,1.5173,-0.0703,1.4258,2.8553,-0.4943,-0.1953,-1.0159,-0.3684
3.544,-0.1627,1.5349,-0.0656,1.4258,2.8553,-0.4943,-0.1953,-1.0159,-0.3684
3.545,-0.2626,1.5486,-0.0505,1.4258,2.8553,-0.4943,-0.1953,-1.0159,-0.3684
3.549,-0.3459,1.5549,-0.0322,1.4258,2.8553,-0.4943,-0.1953,-1.0159,-0.3684
3.55,-0.4092,1.5581,-0.0165,1.4258,2.8553,-0.4943,-0.1953,-1.0159,-0.3684
3.555,-0.4559,1.5525,-0.0136,1.4258,2.8553,-0.4943,-0.1953,-1.0159,-0.3684
3.556,-0.481,1.5395,-0.0177,1.4258,2.8553,-0.4943,-0.1953,-1.0159,-0.3684
3.559,-0.4945,1.5232,-0.028,1.4258,2.8553,-0.4943,-0.1953,-1.0159,-0.3684
3.56,-0.4908,1.5022,-0.0392,1.4258,2.8553,-0.4943,-0.1953,-1.0159,-0.3684
3.564,-0.4791,1.4765,-0.0534,1.4258,2.8553,-0.4943,-0.1953,-1.0159,-0.3684
3.565,-0.4581,1.4445,-0.0563,1.4258,2.8553,-0.4943,-0.1953,-1.0159,-0.3684
3.57,-0.4361,1.4127,-0.0339,1.4258,2.8553,-0.4943,-0.1953,-1.0159,-0.3684
3.571,-0.4104,1.382,-0.0021,1.4258,2.8553,-0.4943,-0.1953,-1.0159,-0.3684
3.574,-0.3892,1.3546,0.0482,1.4258,2.8553,-0.4943,-0.1953,-1.0159,-0.3684
3.575,-0.3762,1.3292,0.1081,1.4258,2.8553,-0.4943,-0.1953,-1.0159,-0.3684
3.579,-0.377,1.3104,0.1643,1.4258,2.8553,-0.4943,-0.1953,-1.0159,-0.3684
3.58,-0.3867,1.2955,0.2185,1.4258,2.8553,-0.4943,-0.1953,-1.0159,-0.3684
3.583,-0.4087,1.2864,0.2612,1.4258,2.8553,-0.4943,-0.1953,-1.0159,-0.3684
3.584,-0.4407,1.2789,0.2869,1.4258,2.8553,-0.4943,-0.1953,-1.0159,-0.3684
3.588,-0.4781,1.2767,0.2967,1.4258,2.8553,-0.4943,-0.1953,-1.0159,-0.3684
3.589,-0.4781,1.2767,0.2967,1.4258,2.8553,-0.4943,-0.4761,-0.7468,-2.3839
3.59,-0.5152,1.2769,0.2808,1.4258,2.8553,-0.4943,-0.4761,-0.7468,-2.3839
3.593,-0.5443,1.2755,0.2449,1.4258,2.8553,-0.4943,-0.4761,-0.7468,-2.3839
3.594,-0.5624,1.2733,0.2043,1.4258,2.8553,-0.4943,-0.4761,-0.7468,-2.3839
3.599,-0.5624,1.2733,0.2043,5.6507,2.5307,-1.3048,-0.4761,-0.7468,-2.3839
3.6,-0.5646,1.2654,0.1645,5.6507,2.5307,-1.3048,-0.4761,-0.7468,-2.3839
3.601,-0.5558,1.2576,0.1393,5.6507,2.5307,-1.3048,-0.4761,-0.7468,-2.3839
3.605,-0.5379,1.242,0.1305,5.6507,2.5307,-1.3048,-0.4761,-0.7468,-2.3839
3.606,-0.513,1.2259,0.1347,5.6507,2.5307,-1.3048,-0.4761,-0.7468,-2.3839
3.608,-0.4886,1.2068,0.1552,5.6507,2.5307,-1.3048,-0.4761,-0.7468,-2.3839
3.608,-0.4642,1.188,0.1801,5.6507,2.5307,-1.3048,-0.4761,-0.7468,-2.3839
3.612,-0.4473,1.166,0.2073,5.6507,2.5307,-1.3048,-0.4761,-0.7468,-2.3839
3.613,-0.437,1.1467,0.238,5.6507,2.5307,-1.3048,-0.4761,-0.7468,-2.3839
3.618,-0.428,1.1255,0.2564,5.6507,2.5307,-1.3048,-0.4761,-0.7468,-2.3839
3.619,-0.417,1.1042,0.2647,5.6507,2.5307,-1.3048,-0.4761,-0.7468,-2.3839
3.623,-0.4033,1.0827,0.2639,5.6507,2.5307,-1.3048,-0.4761,-0.7468,-2.3839
3.624,-0.3857,1.0644,0.2527,5.6507,2.5307,-1.3048,-0.4761,-0.7468,-2.3839
3.628,-0.3677,1.05,0.2383,5.6507,2.5307,-1.3048,-0.4761,-0.7468,-2.3839
3.629,-0.3447,1.0373,0.2295,5.6507,2.5307,-1.3048,-0.4761,-0.7468,-2.3839
3.633,-0.3225,1.0272,0.227,5.6507,2.5307,-1.3048,-0.4761,-0.7468,-2.3839
3.633,-0.3032,1.0226,0.2336,5.6507,2.5307,-1.3048,-0.4761,-0.7468,-2.3839
3.638,-0.2878,1.0199,0.2429,5.6507,2.5307,-1.3048,-0.4761,-0.7468,-2.3839
3.639,-0.2682,1.0187,0.2561,5.6507,2.5307,-1.3048,-0.4761,-0.7468,-2.3839
3.642,-0.2575,1.0099,0.2708,5.6507,2.5307,-1.3048,-0.4761,-0.7468,-2.3839
3.643,-0.2475,1.0043,0.2866,5.6507,2.5307,-1.3048,-0.4761,-0.7468,-2.3839
3.65,-0.2441,0.997,0.3003,5.6507,2.5307,-1.3048,-0.4761,-0.7468,-2.3839
3.651,-0.2406,0.9879,0.3096,5.6507,2.5307,-1.3048,-0.4761,-0.7468,-2.3839
3.652,-0.2419,0.9801,0.3101,5.6507,2.5307,-1.3048,-0.4761,-0.7468,-2.3839
3.652,-0.2433,0.9696,0.3089,5.6507,2.5307,-1.3048,-0.4761,-0.7468,-2.3839
3.657,-0.2433,0.9696,0.3089,5.6507,2.5307,-1.3048,-0.7065,-1.2205,-2.9212
3.658,-0.2423,0.9601,0.3035,5.6507,2.5307,-1.3048,-0.7065,-1.2205,-2.9212
3.658,-0.2458,0.9439,0.3008,5.6507,2.5307,-1.3048,-0.7065,-1.2205,-2.9212
3.661,-0.247,0.9288,0.2986,5.6507,2.5307,-1.3048,-0.7065,-1.2205,-2.9212
3.662,-0.2497,0.9105,0.3006,5.6507,2.5307,-1.3048,-0.7065,-1.2205,-2.9212
3.667,-0.2497,0.9105,0.3006,0.651,4.6798,-0.8957,-0.7065,-1.2205,-2.9212
3.668,-0.2524,0.8904,0.3023,0.651,4.6798,-0.8957,-0.7065,-1.2205,-2.9212
3.668,-0.2621,0.8694,0.3089,0.651,4.6798,-0.8957,-0.7065,-1.2205,-2.9212
3.671,-0.2736,0.847,0.3184,0.651,4.6798,-0.8957,-0.7065,-1.2205,-2.9212
3.672,-0.2895,0.8235,0.3289,0.651,4.6798,-0.8957,-0.7065,-1.2205,-2.9212
3.677,-0.311,0.7986,0.3336,0.651,4.6798,-0.8957,-0.7065,-1.2205,-2.9212
3.678,-0.3315,0.7788,0.3367,0.651,4.6798,-0.8957,-0.7065,-1.2205,-2.9212
3.681,-0.3533,0.7568,0.3362,0.651,4.6798,-0.8957,-0.7065,-1.2205,-2.9212
3.682,-0.374,0.738,0.3343,0.651,4.6798,-0.8957,-0.7065,-1.2205,-2.9212
3.687,-0.3967,0.7241,0.3358,0.651,4.6798,-0.8957,-0.7065,-1.2205,-2.9212
3.688,-0.4185,0.7116,0.3365,0.651,4.6798,-0.8957,-0.7065,-1.2205,-2.9212
3.691,-0.4395,0.6962,0.3355,0.651,4.6798,-0.8957,-0.7065,-1.2205,-2.9212
3.691,-0.4537,0.683,0.3311,0.651,4.6798,-0.8957,-0.7065,-1.2205,-2.9212
3.696,-0.4722,0.6694,0.3255,0.651,4.6798,-0.8957,-0.7065,-1.2205,-2.9212
3.698,-0.4866,0.6574,0.3182,0.651,4.6798,-0.8957,-0.7065,-1.2205,-2.9212
3.701,-0.5013,0.6488,0.3155,0.651,4.6798,-0.8957,-0.7065,-1.2205,-2.9212
3.701,-0.512,0.6388,0.3135,0.651,4.6798,-0.8957,-0.7065,-1.2205,-2.9212
3.706,-0.5213,0.6278,0.3062,0.651,4.6798,-0.8957,-0.7065,-1.2205,-2.9212
3.707,-0.5277,0.6173,0.2979,0.651,4.6798,-0.8957,-0.7065,-1.2205,-2.9212
3.711,-0.5335,0.6068,0.2832,0.651,4.6798,-0.8957,-0.7065,-1.2205,-2.9212
3.712,-0.5357,0.5958,0.2757,0.651,4.6798,-0.8957,-0.7065,-1.2205,-2.9212
3.716,-0.5365,0.5853,0.271,0.651,4.6798,-0.8957,-0.7065,-1.2205,-2.9212
3.717,-0.535,0.5726,0.263,0.651,4.6798,-0.8957,-0.7065,-1.2205,-2.9212
3.722,-0.535,0.5641,0.259,0.651,4.6798,-0.8957,-0.7065,-1.2205,-2.9212
3.722,-0.5348,0.555,0.2507,0.651,4.6798,-0.8957,-0.7065,-1.2205,-2.9212
3.726,-0.5348,0.5504,0.2446,0.651,4.6798,-0.8957,-0.7065,-1.2205,-2.9212
3.728,-0.5348,0.5504,0.2446,0.651,4.6798,-0.8957,-0.0721,0.4503,-2.0511
3.728,-0.535,0.5465,0.2327,0.651,4.6798,-0.8957,-0.0721,0.4503,-2.0511
3.73,-0.5338,0.5462,0.2134,0.651,4.6798,-0.8957,-0.0721,0.4503,-2.0511
3.731,-0.5272,0.5474,0.1941,0.651,4.6798,-0.8957,-0.0721,0.4503,-2.0511
3.735,-0.5184,0.5492,0.1745,0.651,4.6798,-0.8957,-0.0721,0.4503,-2.0511
3.735,-0.5184,0.5492,0.1745,1.9656,2.1154,0.3321,-0.0721,0.4503,-2.0511
3.736,-0.5062,0.5496,0.1601,1.9656,2.1154,0.3321,-0.0721,0.4503,-2.0511
3.74,-0.4923,0.5509,0.1511,1.9656,2.1154,0.3321,-0.0721,0.4503,-2.0511
3.741,-0.4776,0.5518,0.1464,1.9656,2.1154,0.3321,-0.0721,0.4503,-2.0511
3.745,-0.4669,0.5533,0.1435,1.9656,2.1154,0.3321,-0.0721,0.4503,-2.0511
3.745,-0.4585,0.5543,0.1379,1.9656,2.1154,0.3321,-0.0721,0.4503,-2.0511
3.749,-0.4534,0.5577,0.1401,1.9656,2.1154,0.3321,-0.0721,0.4503,-2.0511
3.75,-0.4532,0.5619,0.1501,1.9656,2.1154,0.3321,-0.0721,0.4503,-2.0511
3.755,-0.4571,0.5602,0.1569,1.9656,2.1154,0.3321,-0.0721,0.4503,-2.0511
3.755,-0.4661,0.5597,0.1581,1.9656,2.1154,0.3321,-0.0721,0.4503,-2.0511
3.76,-0.4774,0.5584,0.1518,1.9656,2.1154,0.3321,-0.0721,0.4503,-2.0511
3.761,-0.4871,0.5565,0.1476,1.9656,2.1154,0.3321,-0.0721,0.4503,-2.0511
3.764,-0.4979,0.5538,0.145,1.9656,2.1154,0.3321,-0.0721,0.4503,-2.0511
3.765,-0.5064,0.5494,0.1386,1.9656,2.1154,0.3321,-0.0721,0.4503,-2.0511
3.769,-0.5147,0.5448,0.1303,1.9656,2.1154,0.3321,-0.0721,0.4503,-2.0511
3.77,-0.5199,0.5428,0.1254,1.9656,2.1154,0.3321,-0.0721,0.4503,-2.0511
3.774,-0.5238,0.5409,0.1269,1.9656,2.1154,0.3321,-0.0721,0.4503,-2.0511
3.775,-0.5291,0.5377,0.1347,1.9656,2.1154,0.3321,-0.0721,0.4503,-2.0511
3.779,-0.5348,0.5369,0.1435,1.9656,2.1154,0.3321,-0.0721,0.4503,-2.0511
3.78,-0.5421,0.5362,0.141,1.9656,2.1154,0.3321,-0.0721,0.4503,-2.0511
3.784,-0.5514,0.5335,0.1359,1.9656,2.1154,0.3321,-0.0721,0.4503,-2.0511
3.785,-0.5602,0.5313,0.1291,1.9656,2.1154,0.3321,-0.0721,0.4503,-2.0511
3.789,-0.569,0.5284,0.12,1.9656,2.1154,0.3321,-0.0721,0.4503,-2.0511
3.79,-0.5731,0.5247,0.1095,1.9656,2.1154,0.3321,-0.0721,0.4503,-2.0511
3.793,-0.5763,0.5216,0.099,1.9656,2.1154,0.3321,-0.0721,0.4503,-2.0511
3.795,-0.5763,0.5216,0.099,1.9656,2.1154,0.3321,0.6036,0.6899,-0.5942
3.795,-0.578,0.5235,0.0968,1.9656,2.1154,0.3321,0.6036,0.6899,-0.5942
3.799,-0.5814,0.5233,0.0988,1.9656,2.1154,0.3321,0.6036,0.6899,-0.5942
3.8,-0.5839,0.5225,0.1066,1.9656,2.1154,0.3321,0.6036,0.6899,-0.5942
3.804,-0.5902,0.525,0.1044,1.9656,2.1154,0.3321,0.6036,0.6899,-0.5942
3.805,-0.5902,0.525,0.1044,1.8926,-1.0238,1.0209,0.6036,0.6899,-0.5942
3.806,-0.5929,0.525,0.1,1.8926,-1.0238,1.0209,0.6036,0.6899,-0.5942
3.809,-0.5968,0.5264,0.0946,1.8926,-1.0238,1.0209,0.6036,0.6899,-0.5942
3.81,-0.6012,0.5257,0.0905,1.8926,-1.0238,1.0209,0.6036,0.6899,-0.5942
3.812,-0.6046,0.525,0.0858,1.8926,-1.0238,1.0209,0.6036,0.6899,-0.5942
3.813,-0.6063,0.5238,0.0861,1.8926,-1.0238,1.0209,0.6036,0.6899,-0.5942
3.818,-0.6103,0.5216,0.0846,1.8926,-1.0238,1.0209,0.6036,0.6899,-0.5942
3.819,-0.6125,0.5206,0.0844,1.8926,-1.0238,1.0209,0.6036,0.6899,-0.5942
3.824,-0.6103,0.5196,0.0819,1.8926,-1.0238,1.0209,0.6036,0.6899,-0.5942
3.824,-0.6066,0.5147,0.079,1.8926,-1.0238,1.0209,0.6036,0.6899,-0.5942
3.828,-0.5997,0.5089,0.0795,1.8926,-1.0238,1.0209,0.6036,0.6899,-0.5942
3.829,-0.5936,0.5067,0.0756,1.8926,-1.0238,1.0209,0.6036,0.6899,-0.5942
3.833,-0.5897,0.5052,0.0692,1.8926,-1.0238,1.0209,0.6036,0.6899,-0.5942
3.834,-0.5814,0.5076,0.0575,1.8926,-1.0238,1.0209,0.6036,0.6899,-0.5942
3.838,-0.5726,0.5096,0.0443,1.8926,-1.0238,1.0209,0.6036,0.6899,-0.5942
3.839,-0.5597,0.5128,0.0348,1.8926,-1.0238,1.0209,0.6036,0.6899,-0.5942
3.844,-0.5436,0.5137,0.0257,1.8926,-1.0238,1.0209,0.6036,0.6899,-0.5942
3.845,-0.5255,0.5132,0.0228,1.8926,-1.0238,1.0209,0.6036,0.6899,-0.5942
3.847,-0.5069,0.5103,0.0187,1.8926,-1.0238,1.0209,0.6036,0.6899,-0.5942
3.848,-0.4935,0.5037,0.0191,1.8926,-1.0238,1.0209,0.6036,0.6899,-0.5942
3.852,-0.4815,0.4954,0.0172,1.8926,-1.0238,1.0209,0.6036,0.6899,-0.5942
3.854,-0.4715,0.4903,0.013,1.8926,-1.0238,1.0209,0.6036,0.6899,-0.5942
3.857,-0.4669,0.4808,0.0113,1.8926,-1.0238,1.0209,0.6036,0.6899,-0.5942
3.858,-0.4627,0.4698,0.0077,1.8926,-1.0238,1.0209,0.6036,0.6899,-0.5942
3.862,-0.4627,0.4698,0.0077,1.8926,-1.0238,1.0209,1.0248,0.5999,0.7648
