time,gFx,gFy,gFz,ax,ay,az,wx,wy,wz
0.037,-0.15,0.996,-0.0947,0,0,0,0,0,0
0.038,-0.1478,0.9962,-0.0942,0,0,0,0,0,0
0.038,-0.15,0.9948,-0.0952,0,0,0,0,0,0
0.038,-0.1527,0.9965,-0.0942,0,0,0,0,0,0
0.038,-0.1617,1.0001,-0.0927,0,0,0,0,0,0
0.038,-0.1737,1.0021,-0.0896,0,0,0,0,0,0
0.038,-0.1837,1.0021,-0.0866,0,0,0,0,0,0
0.038,-0.191,1.0021,-0.0857,0,0,0,0,0,0
0.051,-0.0989,0.983,-0.105,0,0,0,0,0,0
0.051,-0.0909,0.9845,-0.113,0,0,0,0,0,0
0.051,-0.0875,0.986,-0.1211,0,0,0,0,0,0
0.057,-0.0816,0.9872,-0.1272,0,0,0,0,0,0
0.057,-0.076,0.9857,-0.1267,0,0,0,0,0,0
0.061,-0.0711,0.9857,-0.1255,0,0,0,0,0,0
0.061,-0.0689,0.9813,-0.1223,0,0,0,0,0,0
0.067,-0.0645,0.9796,-0.1172,0,0,0,0,0,0
0.067,-0.0628,0.9774,-0.1138,0,0,0,0,0,0
0.071,-0.066,0.9733,-0.1135,0,0,0,0,0,0
0.072,-0.0696,0.9706,-0.1108,0,0,0,0,0,0
0.076,-0.0777,0.9691,-0.1135,0,0,0,0,0,0
0.076,-0.0875,0.9713,-0.1147,0,0,0,0,0,0
0.081,-0.0972,0.9715,-0.1152,0,0,0,0,0,0
0.081,-0.1094,0.9742,-0.1172,0,0,0,0,0,0
0.086,-0.1175,0.9799,-0.1162,0,0,0,0,0,0
0.087,-0.127,0.984,-0.113,0,0,0,0,0,0
0.092,-0.138,0.9838,-0.1086,0,0,0,0,0,0
0.093,-0.1446,0.9857,-0.104,0,0,0,0,0,0
0.097,-0.1542,0.9857,-0.1001,0,0,0,0,0,0
0.097,-0.1578,0.9838,-0.1001,0,0,0,0,0,0
0.102,-0.1637,0.9808,-0.0989,0,0,0,0,0,0
0.102,-0.1664,0.9813,-0.0984,0,0,0,0,0,0
0.105,-0.1708,0.9821,-0.1025,0,0,0,0,0,0
0.106,-0.1705,0.9821,-0.1057,0,0,0,0,0,0
0.11,-0.1678,0.9843,-0.1032,0,0,0,0,0,0
0.111,-0.1634,0.984,-0.1042,0,0,0,0,0,0
0.116,-0.1561,0.985,-0.1042,0,0,0,0,0,0
0.117,-0.1527,0.9838,-0.1032,0,0,0,0,0,0
0.121,-0.1441,0.9835,-0.1032,0,0,0,0,0,0
0.122,-0.1397,0.984,-0.105,0,0,0,0,0,0
0.126,-0.1358,0.9838,-0.0998,0,0,0,0,0,0
0.126,-0.13,0.9833,-0.0986,0,0,0,0,0,0
0.13,-0.1248,0.9813,-0.0949,0,0,0,0,0,0
0.13,-0.12,0.9816,-0.0957,0,0,0,0,0,0
0.137,-0.1192,0.9777,-0.0935,0,0,0,0,0,0
0.137,-0.1165,0.9774,-0.0923,0,0,0,0,0,0
0.14,-0.1173,0.9777,-0.0923,0,0,0,0,0,0
0.141,-0.1175,0.9786,-0.092,0,0,0,0,0,0
0.145,-0.1209,0.9806,-0.0901,0,0,0,0,0,0
0.145,-0.1231,0.9821,-0.0876,0,0,0,0,0,0
0.149,-0.1256,0.983,-0.0854,0,0,0,0,0,0
0.149,-0.1268,0.984,-0.0832,0,0,0,0,0,0
0.154,-0.1336,0.9828,-0.0832,0,0,0,0,0,0
0.155,-0.1378,0.9845,-0.0837,0,0,0,0,0,0
0.16,-0.1432,0.9867,-0.0805,0,0,0,0,0,0
0.161,-0.1405,0.9874,-0.0832,0,0,0,0,0,0
0.165,-0.1436,0.9882,-0.0886,0,0,0,0,0,0
0.166,-0.1402,0.9896,-0.0967,0,0,0,0,0,0
0.169,-0.1402,0.9896,-0.0967,0,0,0,0.0255,-0.0181,0.026
0.17,-0.1368,0.9943,-0.1047,0,0,0,0.0255,-0.0181,0.026
0.17,-0.1358,0.996,-0.1064,0,0,0,0.0255,-0.0181,0.026
0.174,-0.1314,0.9955,-0.1079,0,0,0,0.0255,-0.0181,0.026
0.175,-0.1239,0.9979,-0.1074,0,0,0,0.0255,-0.0181,0.026
0.175,-0.1239,0.9979,-0.1074,0,0,0,0.0255,-0.0181,0.026
0.18,-0.1217,0.9935,-0.1106,0,0,0,0.0255,-0.0181,0.026
0.18,-0.1173,0.9904,-0.1101,0,0,0,0.0255,-0.0181,0.026
0.184,-0.1153,0.9894,-0.1074,0,0,0,0.0255,-0.0181,0.026
0.185,-0.1143,0.9882,-0.1086,0,0,0,0.0255,-0.0181,0.026
0.188,-0.1119,0.9882,-0.1069,0,0,0,0.0255,-0.0181,0.026
0.189,-0.1085,0.986,-0.1103,0,0,0,0.0255,-0.0181,0.026
0.193,-0.1055,0.9864,-0.1125,0,0,0,0.0255,-0.0181,0.026
0.194,-0.1036,0.9864,-0.116,0,0,0,0.0255,-0.0181,0.026
0.199,-0.1043,0.9867,-0.1174,0,0,0,0.0255,-0.0181,0.026
0.199,-0.108,0.9874,-0.116,0,0,0,0.0255,-0.0181,0.026
0.204,-0.1141,0.9891,-0.113,0,0,0,0.0255,-0.0181,0.026
0.205,-0.1178,0.9879,-0.1116,0,0,0,0.0255,-0.0181,0.026
0.208,-0.1217,0.9869,-0.1054,0,0,0,0.0255,-0.0181,0.026
0.208,-0.1246,0.986,-0.104,0,0,0,0.0255,-0.0181,0.026
0.213,-0.1261,0.9825,-0.1008,0,0,0,0.0255,-0.0181,0.026
0.214,-0.1251,0.9835,-0.102,0,0,0,0.0255,-0.0181,0.026
0.219,-0.1246,0.983,-0.1006,0,0,0,0.0255,-0.0181,0.026
0.219,-0.127,0.985,-0.1006,0,0,0,0.0255,-0.0181,0.026
0.223,-0.1246,0.9874,-0.0998,0,0,0,0.0255,-0.0181,0.026
0.224,-0.1248,0.9864,-0.103,0,0,0,0.0255,-0.0181,0.026
0.227,-0.1241,0.9864,-0.1067,0,0,0,0.0255,-0.0181,0.026
0.228,-0.1202,0.9847,-0.1086,0,0,0,0.0255,-0.0181,0.026
0.233,-0.1202,0.9833,-0.1128,0,0,0,0.0255,-0.0181,0.026
0.233,-0.1185,0.9818,-0.1138,0,0,0,0.0255,-0.0181,0.026
0.238,-0.1165,0.9803,-0.1145,0,0,0,0.0255,-0.0181,0.026
0.238,-0.1165,0.9803,-0.1145,0,0,0,0.0225,-0.0172,0.0284
0.239,-0.1168,0.9794,-0.1157,0,0,0,0.0225,-0.0172,0.0284
0.243,-0.1168,0.9794,-0.1157,-0.1348,0.0222,0.0892,0.0225,-0.0172,0.0284
0.243,-0.1165,0.9789,-0.1191,-0.1348,0.0222,0.0892,0.0225,-0.0172,0.0284
0.243,-0.119,0.9794,-0.1167,-0.1348,0.0222,0.0892,0.0225,-0.0172,0.0284
0.248,-0.1202,0.9791,-0.1208,-0.1348,0.0222,0.0892,0.0225,-0.0172,0.0284
0.249,-0.1236,0.9823,-0.1235,-0.1348,0.0222,0.0892,0.0225,-0.0172,0.0284
0.252,-0.1248,0.984,-0.1228,-0.1348,0.0222,0.0892,0.0225,-0.0172,0.0284
0.252,-0.1273,0.9857,-0.1255,-0.1348,0.0222,0.0892,0.0225,-0.0172,0.0284
0.26,-0.1305,0.9872,-0.1233,-0.1348,0.0222,0.0892,0.0225,-0.0172,0.0284
0.261,-0.1317,0.9872,-0.125,-0.1348,0.0222,0.0892,0.0225,-0.0172,0.0284
0.262,-0.1324,0.9879,-0.1201,-0.1348,0.0222,0.0892,0.0225,-0.0172,0.0284
0.263,-0.1317,0.9879,-0.1157,-0.1348,0.0222,0.0892,0.0225,-0.0172,0.0284
0.266,-0.1353,0.9833,-0.1138,-0.1348,0.0222,0.0892,0.0225,-0.0172,0.0284
0.267,-0.1373,0.9845,-0.1133,-0.1348,0.0222,0.0892,0.0225,-0.0172,0.0284
0.271,-0.138,0.9835,-0.1128,-0.1348,0.0222,0.0892,0.0225,-0.0172,0.0284
0.272,-0.1371,0.9821,-0.1103,-0.1348,0.0222,0.0892,0.0225,-0.0172,0.0284
0.277,-0.1363,0.983,-0.1118,-0.1348,0.0222,0.0892,0.0225,-0.0172,0.0284
0.277,-0.1331,0.9867,-0.1133,-0.1348,0.0222,0.0892,0.0225,-0.0172,0.0284
0.282,-0.1251,0.9877,-0.1167,-0.1348,0.0222,0.0892,0.0225,-0.0172,0.0284
0.283,-0.1222,0.9904,-0.1186,-0.1348,0.0222,0.0892,0.0225,-0.0172,0.0284
0.286,-0.1156,0.9933,-0.1196,-0.1348,0.0222,0.0892,0.0225,-0.0172,0.0284
0.287,-0.1143,0.9918,-0.1201,-0.1348,0.0222,0.0892,0.0225,-0.0172,0.0284
0.292,-0.1112,0.994,-0.1194,-0.1348,0.0222,0.0892,0.0225,-0.0172,0.0284
0.292,-0.1046,0.9891,-0.1196,-0.1348,0.0222,0.0892,0.0225,-0.0172,0.0284
0.297,-0.1016,0.9891,-0.1203,-0.1348,0.0222,0.0892,0.0225,-0.0172,0.0284
0.297,-0.095,0.9838,-0.1189,-0.1348,0.0222,0.0892,0.0225,-0.0172,0.0284
0.302,-0.0926,0.9803,-0.1172,-0.1348,0.0222,0.0892,0.0225,-0.0172,0.0284
0.303,-0.0892,0.9767,-0.116,-0.1348,0.0222,0.0892,0.0225,-0.0172,0.0284
0.305,-0.0892,0.9767,-0.116,-0.1348,0.0222,0.0892,0.0241,0.0038,0.0119
0.306,-0.0889,0.9757,-0.1152,-0.1348,0.0222,0.0892,0.0241,0.0038,0.0119
0.306,-0.0914,0.9747,-0.1145,-0.1348,0.0222,0.0892,0.0241,0.0038,0.0119
0.31,-0.0975,0.9777,-0.1135,-0.1348,0.0222,0.0892,0.0241,0.0038,0.0119
0.311,-0.0975,0.9777,-0.1135,0.0168,0.0192,-0.0217,0.0241,0.0038,0.0119
0.311,-0.1046,0.9781,-0.1135,0.0168,0.0192,-0.0217,0.0241,0.0038,0.0119
0.315,-0.1094,0.983,-0.1128,0.0168,0.0192,-0.0217,0.0241,0.0038,0.0119
0.316,-0.1151,0.9845,-0.1106,0.0168,0.0192,-0.0217,0.0241,0.0038,0.0119
0.321,-0.1236,0.9872,-0.1108,0.0168,0.0192,-0.0217,0.0241,0.0038,0.0119
0.321,-0.1287,0.9855,-0.1064,0.0168,0.0192,-0.0217,0.0241,0.0038,0.0119
0.327,-0.1361,0.984,-0.1042,0.0168,0.0192,-0.0217,0.0241,0.0038,0.0119
0.328,-0.1393,0.983,-0.104,0.0168,0.0192,-0.0217,0.0241,0.0038,0.0119
0.33,-0.1434,0.9823,-0.1011,0.0168,0.0192,-0.0217,0.0241,0.0038,0.0119
0.331,-0.1451,0.9818,-0.102,0.0168,0.0192,-0.0217,0.0241,0.0038,0.0119
0.336,-0.1493,0.9823,-0.103,0.0168,0.0192,-0.0217,0.0241,0.0038,0.0119
0.337,-0.148,0.9825,-0.1064,0.0168,0.0192,-0.0217,0.0241,0.0038,0.0119
0.34,-0.1483,0.9835,-0.113,0.0168,0.0192,-0.0217,0.0241,0.0038,0.0119
0.34,-0.1463,0.9852,-0.1182,0.0168,0.0192,-0.0217,0.0241,0.0038,0.0119
0.345,-0.1439,0.9872,-0.1182,0.0168,0.0192,-0.0217,0.0241,0.0038,0.0119
0.345,-0.1412,0.9884,-0.1194,0.0168,0.0192,-0.0217,0.0241,0.0038,0.0119
0.35,-0.1378,0.9918,-0.1177,0.0168,0.0192,-0.0217,0.0241,0.0038,0.0119
0.351,-0.1339,0.9928,-0.1199,0.0168,0.0192,-0.0217,0.0241,0.0038,0.0119
0.355,-0.1268,0.9923,-0.1223,0.0168,0.0192,-0.0217,0.0241,0.0038,0.0119
0.355,-0.1234,0.9899,-0.1238,0.0168,0.0192,-0.0217,0.0241,0.0038,0.0119
0.36,-0.1185,0.9882,-0.1267,0.0168,0.0192,-0.0217,0.0241,0.0038,0.0119
0.361,-0.1126,0.9911,-0.1309,0.0168,0.0192,-0.0217,0.0241,0.0038,0.0119
0.365,-0.1121,0.9904,-0.1318,0.0168,0.0192,-0.0217,0.0241,0.0038,0.0119
0.365,-0.1134,0.9928,-0.1287,0.0168,0.0192,-0.0217,0.0241,0.0038,0.0119
0.37,-0.1146,0.9938,-0.124,0.0168,0.0192,-0.0217,0.0241,0.0038,0.0119
0.37,-0.1168,0.995,-0.1174,0.0168,0.0192,-0.0217,0.0241,0.0038,0.0119
0.374,-0.1195,0.996,-0.1125,0.0168,0.0192,-0.0217,0.0241,0.0038,0.0119
0.374,-0.1195,0.996,-0.1125,0.0168,0.0192,-0.0217,0.0188,-0.0054,-0.004
0.374,-0.1236,0.9928,-0.1108,0.0168,0.0192,-0.0217,0.0188,-0.0054,-0.004
0.379,-0.1236,0.9928,-0.1108,0.0144,0.0082,-0.0687,0.0188,-0.0054,-0.004
0.38,-0.1283,0.9899,-0.1091,0.0144,0.0082,-0.0687,0.0188,-0.0054,-0.004
0.38,-0.1292,0.9896,-0.1069,0.0144,0.0082,-0.0687,0.0188,-0.0054,-0.004
0.383,-0.1339,0.9899,-0.1059,0.0144,0.0082,-0.0687,0.0188,-0.0054,-0.004
0.384,-0.1349,0.9889,-0.1057,0.0144,0.0082,-0.0687,0.0188,-0.0054,-0.004
0.389,-0.1405,0.9889,-0.1032,0.0144,0.0082,-0.0687,0.0188,-0.0054,-0.004
0.389,-0.1427,0.9894,-0.1023,0.0144,0.0082,-0.0687,0.0188,-0.0054,-0.004
0.393,-0.1449,0.9906,-0.1006,0.0144,0.0082,-0.0687,0.0188,-0.0054,-0.004
0.394,-0.1478,0.9906,-0.0964,0.0144,0.0082,-0.0687,0.0188,-0.0054,-0.004
0.399,-0.149,0.9906,-0.0949,0.0144,0.0082,-0.0687,0.0188,-0.0054,-0.004
0.399,-0.1456,0.9896,-0.0932,0.0144,0.0082,-0.0687,0.0188,-0.0054,-0.004
0.403,-0.1461,0.9894,-0.0971,0.0144,0.0082,-0.0687,0.0188,-0.0054,-0.004
0.404,-0.1436,0.9882,-0.0974,0.0144,0.0082,-0.0687,0.0188,-0.0054,-0.004
0.408,-0.1388,0.9896,-0.0981,0.0144,0.0082,-0.0687,0.0188,-0.0054,-0.004
0.408,-0.1368,0.9889,-0.102,0.0144,0.0082,-0.0687,0.0188,-0.0054,-0.004
0.413,-0.1349,0.9894,-0.1035,0.0144,0.0082,-0.0687,0.0188,-0.0054,-0.004
0.414,-0.1297,0.9884,-0.1081,0.0144,0.0082,-0.0687,0.0188,-0.0054,-0.004
0.418,-0.1273,0.9884,-0.1069,0.0144,0.0082,-0.0687,0.0188,-0.0054,-0.004
0.418,-0.1224,0.9882,-0.1062,0.0144,0.0082,-0.0687,0.0188,-0.0054,-0.004
0.422,-0.1212,0.986,-0.1094,0.0144,0.0082,-0.0687,0.0188,-0.0054,-0.004
0.423,-0.116,0.9845,-0.1118,0.0144,0.0082,-0.0687,0.0188,-0.0054,-0.004
0.427,-0.1121,0.9828,-0.1142,0.0144,0.0082,-0.0687,0.0188,-0.0054,-0.004
0.428,-0.1099,0.9801,-0.1106,0.0144,0.0082,-0.0687,0.0188,-0.0054,-0.004
0.433,-0.1097,0.9801,-0.1147,0.0144,0.0082,-0.0687,0.0188,-0.0054,-0.004
0.434,-0.1087,0.9781,-0.1138,0.0144,0.0082,-0.0687,0.0188,-0.0054,-0.004
0.438,-0.1129,0.9786,-0.1152,0.0144,0.0082,-0.0687,0.0188,-0.0054,-0.004
0.438,-0.1165,0.9774,-0.112,0.0144,0.0082,-0.0687,0.0188,-0.0054,-0.004
0.443,-0.1165,0.9774,-0.112,0.0144,0.0082,-0.0687,0.0146,-0.002,0.0094
0.443,-0.1209,0.9784,-0.1125,0.0144,0.0082,-0.0687,0.0146,-0.002,0.0094
0.443,-0.1256,0.9784,-0.1113,0.0144,0.0082,-0.0687,0.0146,-0.002,0.0094
0.448,-0.1309,0.9806,-0.1076,0.0144,0.0082,-0.0687,0.0146,-0.002,0.0094
0.448,-0.1356,0.9818,-0.1098,0.0144,0.0082,-0.0687,0.0146,-0.002,0.0094
0.448,-0.1356,0.9818,-0.1098,-0.0875,0.0349,-0.0233,0.0146,-0.002,0.0094
0.453,-0.141,0.9838,-0.1069,-0.0875,0.0349,-0.0233,0.0146,-0.002,0.0094
0.454,-0.1434,0.9877,-0.1028,-0.0875,0.0349,-0.0233,0.0146,-0.002,0.0094
0.459,-0.1498,0.986,-0.104,-0.0875,0.0349,-0.0233,0.0146,-0.002,0.0094
0.46,-0.1512,0.9867,-0.1025,-0.0875,0.0349,-0.0233,0.0146,-0.002,0.0094
0.462,-0.15,0.9908,-0.1032,-0.0875,0.0349,-0.0233,0.0146,-0.002,0.0094
0.462,-0.1515,0.9916,-0.1059,-0.0875,0.0349,-0.0233,0.0146,-0.002,0.0094
0.466,-0.1515,0.9913,-0.1037,-0.0875,0.0349,-0.0233,0.0146,-0.002,0.0094
0.467,-0.1463,0.9923,-0.1042,-0.0875,0.0349,-0.0233,0.0146,-0.002,0.0094
0.472,-0.1405,0.9906,-0.1072,-0.0875,0.0349,-0.0233,0.0146,-0.002,0.0094
0.472,-0.1346,0.9899,-0.1084,-0.0875,0.0349,-0.0233,0.0146,-0.002,0.0094
0.478,-0.1278,0.9882,-0.1116,-0.0875,0.0349,-0.0233,0.0146,-0.002,0.0094
0.478,-0.1202,0.9899,-0.112,-0.0875,0.0349,-0.0233,0.0146,-0.002,0.0094
0.481,-0.1146,0.9889,-0.1162,-0.0875,0.0349,-0.0233,0.0146,-0.002,0.0094
0.482,-0.107,0.9904,-0.1223,-0.0875,0.0349,-0.0233,0.0146,-0.002,0.0094
0.487,-0.0999,0.9899,-0.1257,-0.0875,0.0349,-0.0233,0.0146,-0.002,0.0094
0.487,-0.0928,0.9884,-0.1284,-0.0875,0.0349,-0.0233,0.0146,-0.002,0.0094
0.494,-0.0914,0.9901,-0.1309,-0.0875,0.0349,-0.0233,0.0146,-0.002,0.0094
0.494,-0.0862,0.9884,-0.1296,-0.0875,0.0349,-0.0233,0.0146,-0.002,0.0094
0.497,-0.0831,0.9864,-0.1282,-0.0875,0.0349,-0.0233,0.0146,-0.002,0.0094
0.498,-0.0821,0.9862,-0.126,-0.0875,0.0349,-0.0233,0.0146,-0.002,0.0094
0.502,-0.085,0.986,-0.1221,-0.0875,0.0349,-0.0233,0.0146,-0.002,0.0094
0.503,-0.0887,0.983,-0.1201,-0.0875,0.0349,-0.0233,0.0146,-0.002,0.0094
0.505,-0.0975,0.9833,-0.1152,-0.0875,0.0349,-0.0233,0.0146,-0.002,0.0094
0.506,-0.1077,0.9828,-0.1098,-0.0875,0.0349,-0.0233,0.0146,-0.002,0.0094
0.512,-0.1077,0.9828,-0.1098,-0.0875,0.0349,-0.0233,0.0195,-0.0139,0.0086
0.512,-0.1165,0.9821,-0.1062,-0.0875,0.0349,-0.0233,0.0195,-0.0139,0.0086
0.513,-0.1261,0.9828,-0.104,-0.0875,0.0349,-0.0233,0.0195,-0.0139,0.0086
0.516,-0.1319,0.9823,-0.1052,-0.0875,0.0349,-0.0233,0.0195,-0.0139,0.0086
0.517,-0.1319,0.9823,-0.1052,-0.08,0.0089,0.0621,0.0195,-0.0139,0.0086
0.517,-0.1397,0.9872,-0.1032,-0.08,0.0089,0.0621,0.0195,-0.0139,0.0086
0.522,-0.1458,0.9918,-0.103,-0.08,0.0089,0.0621,0.0195,-0.0139,0.0086
0.522,-0.1505,0.995,-0.1018,-0.08,0.0089,0.0621,0.0195,-0.0139,0.0086
0.525,-0.1537,0.9955,-0.0986,-0.08,0.0089,0.0621,0.0195,-0.0139,0.0086
0.526,-0.1559,0.995,-0.0984,-0.08,0.0089,0.0621,0.0195,-0.0139,0.0086
0.531,-0.1566,0.9972,-0.0991,-0.08,0.0089,0.0621,0.0195,-0.0139,0.0086
0.531,-0.1544,0.9965,-0.0962,-0.08,0.0089,0.0621,0.0195,-0.0139,0.0086
0.536,-0.1522,0.9977,-0.0976,-0.08,0.0089,0.0621,0.0195,-0.0139,0.0086
0.537,-0.1515,0.9955,-0.0986,-0.08,0.0089,0.0621,0.0195,-0.0139,0.0086
0.54,-0.1495,0.9955,-0.0996,-0.08,0.0089,0.0621,0.0195,-0.0139,0.0086
0.541,-0.1454,0.9948,-0.1064,-0.08,0.0089,0.0621,0.0195,-0.0139,0.0086
0.544,-0.1424,0.9921,-0.1076,-0.08,0.0089,0.0621,0.0195,-0.0139,0.0086
0.545,-0.1375,0.9889,-0.1111,-0.08,0.0089,0.0621,0.0195,-0.0139,0.0086
0.55,-0.1319,0.9877,-0.1116,-0.08,0.0089,0.0621,0.0195,-0.0139,0.0086
0.551,-0.1229,0.983,-0.1103,-0.08,0.0089,0.0621,0.0195,-0.0139,0.0086
0.555,-0.116,0.9821,-0.1094,-0.08,0.0089,0.0621,0.0195,-0.0139,0.0086
0.556,-0.1129,0.9764,-0.1108,-0.08,0.0089,0.0621,0.0195,-0.0139,0.0086
0.56,-0.1082,0.9759,-0.1096,-0.08,0.0089,0.0621,0.0195,-0.0139,0.0086
0.56,-0.1068,0.9772,-0.1106,-0.08,0.0089,0.0621,0.0195,-0.0139,0.0086
0.565,-0.1046,0.9808,-0.1142,-0.08,0.0089,0.0621,0.0195,-0.0139,0.0086
0.565,-0.1043,0.9799,-0.116,-0.08,0.0089,0.0621,0.0195,-0.0139,0.0086
0.57,-0.1043,0.9818,-0.1155,-0.08,0.0089,0.0621,0.0195,-0.0139,0.0086
0.57,-0.1031,0.9821,-0.1152,-0.08,0.0089,0.0621,0.0195,-0.0139,0.0086
0.575,-0.0999,0.9816,-0.1118,-0.08,0.0089,0.0621,0.0195,-0.0139,0.0086
0.576,-0.1019,0.9796,-0.1059,-0.08,0.0089,0.0621,0.0195,-0.0139,0.0086
0.579,-0.1019,0.9796,-0.1059,-0.08,0.0089,0.0621,0.014,0.0014,0.0178
0.579,-0.1029,0.9772,-0.1045,-0.08,0.0089,0.0621,0.014,0.0014,0.0178
0.58,-0.0997,0.9764,-0.103,-0.08,0.0089,0.0621,0.014,0.0014,0.0178
0.584,-0.0997,0.9764,-0.103,0.0058,0.0227,0.0014,0.014,0.0014,0.0178
0.585,-0.1011,0.973,-0.1028,0.0058,0.0227,0.0014,0.014,0.0014,0.0178
0.585,-0.1072,0.9733,-0.1025,0.0058,0.0227,0.0014,0.014,0.0014,0.0178
0.59,-0.1082,0.9706,-0.104,0.0058,0.0227,0.0014,0.014,0.0014,0.0178
0.59,-0.1131,0.9762,-0.1045,0.0058,0.0227,0.0014,0.014,0.0014,0.0178
0.594,-0.1151,0.9821,-0.1069,0.0058,0.0227,0.0014,0.014,0.0014,0.0178
0.594,-0.1192,0.9872,-0.1101,0.0058,0.0227,0.0014,0.014,0.0014,0.0178
0.598,-0.12,0.9901,-0.112,0.0058,0.0227,0.0014,0.014,0.0014,0.0178
0.599,-0.1209,0.9957,-0.1108,0.0058,0.0227,0.0014,0.014,0.0014,0.0178
0.605,-0.1187,0.997,-0.1157,0.0058,0.0227,0.0014,0.014,0.0014,0.0178
0.606,-0.117,0.9982,-0.1152,0.0058,0.0227,0.0014,0.014,0.0014,0.0178
0.608,-0.1107,0.996,-0.116,0.0058,0.0227,0.0014,0.014,0.0014,0.0178
0.609,-0.1068,0.9943,-0.1201,0.0058,0.0227,0.0014,0.014,0.0014,0.0178
0.615,-0.1058,0.9952,-0.1243,0.0058,0.0227,0.0014,0.014,0.0014,0.0178
0.615,-0.1075,0.9955,-0.1247,0.0058,0.0227,0.0014,0.014,0.0014,0.0178
0.618,-0.1107,0.9972,-0.1228,0.0058,0.0227,0.0014,0.014,0.0014,0.0178
0.618,-0.1146,0.9989,-0.1199,0.0058,0.0227,0.0014,0.014,0.0014,0.0178
0.624,-0.1146,0.9957,-0.1155,0.0058,0.0227,0.0014,0.014,0.0014,0.0178
0.625,-0.116,0.9962,-0.116,0.0058,0.0227,0.0014,0.014,0.0014,0.0178
0.628,-0.1119,0.9933,-0.1164,0.0058,0.0227,0.0014,0.014,0.0014,0.0178
0.629,-0.1065,0.9933,-0.1191,0.0058,0.0227,0.0014,0.014,0.0014,0.0178
0.633,-0.1031,0.9928,-0.1196,0.0058,0.0227,0.0014,0.014,0.0014,0.0178
0.633,-0.1007,0.9928,-0.1208,0.0058,0.0227,0.0014,0.014,0.0014,0.0178
0.638,-0.1053,0.993,-0.1164,0.0058,0.0227,0.0014,0.014,0.0014,0.0178
0.638,-0.1109,0.994,-0.1125,0.0058,0.0227,0.0014,0.014,0.0014,0.0178
0.643,-0.119,0.995,-0.104,0.0058,0.0227,0.0014,0.014,0.0014,0.0178
0.643,-0.1243,0.9972,-0.1042,0.0058,0.0227,0.0014,0.014,0.0014,0.0178
0.65,-0.1273,0.9974,-0.1081,0.0058,0.0227,0.0014,0.014,0.0014,0.0178
0.65,-0.1273,0.9974,-0.1081,0.0058,0.0227,0.0014,0.0145,0.0069,0.0135
0.651,-0.1241,0.994,-0.1086,0.0058,0.0227,0.0014,0.0145,0.0069,0.0135
0.653,-0.1241,0.994,-0.1086,-0.0541,0.0064,0.0687,0.0145,0.0069,0.0135
0.653,-0.1182,0.9943,-0.1118,-0.0541,0.0064,0.0687,0.0145,0.0069,0.0135
0.654,-0.1126,0.9906,-0.1098,-0.0541,0.0064,0.0687,0.0145,0.0069,0.0135
0.659,-0.105,0.9904,-0.1101,-0.0541,0.0064,0.0687,0.0145,0.0069,0.0135
0.66,-0.1004,0.9899,-0.1123,-0.0541,0.0064,0.0687,0.0145,0.0069,0.0135
0.663,-0.1024,0.9867,-0.113,-0.0541,0.0064,0.0687,0.0145,0.0069,0.0135
0.663,-0.1077,0.9874,-0.1128,-0.0541,0.0064,0.0687,0.0145,0.0069,0.0135
0.667,-0.1126,0.9862,-0.1162,-0.0541,0.0064,0.0687,0.0145,0.0069,0.0135
0.667,-0.1173,0.9862,-0.1167,-0.0541,0.0064,0.0687,0.0145,0.0069,0.0135
0.672,-0.1178,0.9845,-0.1179,-0.0541,0.0064,0.0687,0.0145,0.0069,0.0135
0.673,-0.1187,0.9828,-0.1174,-0.0541,0.0064,0.0687,0.0145,0.0069,0.0135
0.677,-0.1231,0.9823,-0.115,-0.0541,0.0064,0.0687,0.0145,0.0069,0.0135
0.677,-0.1239,0.9786,-0.1147,-0.0541,0.0064,0.0687,0.0145,0.0069,0.0135
0.683,-0.1243,0.9789,-0.1167,-0.0541,0.0064,0.0687,0.0145,0.0069,0.0135
0.683,-0.1265,0.9818,-0.1184,-0.0541,0.0064,0.0687,0.0145,0.0069,0.0135
0.687,-0.1317,0.9823,-0.1164,-0.0541,0.0064,0.0687,0.0145,0.0069,0.0135
0.687,-0.1334,0.9847,-0.1125,-0.0541,0.0064,0.0687,0.0145,0.0069,0.0135
0.694,-0.1412,0.9838,-0.1072,-0.0541,0.0064,0.0687,0.0145,0.0069,0.0135
0.694,-0.1478,0.9864,-0.1096,-0.0541,0.0064,0.0687,0.0145,0.0069,0.0135
0.697,-0.1505,0.9906,-0.1094,-0.0541,0.0064,0.0687,0.0145,0.0069,0.0135
0.697,-0.1493,0.9928,-0.1072,-0.0541,0.0064,0.0687,0.0145,0.0069,0.0135
0.703,-0.1429,0.9955,-0.1072,-0.0541,0.0064,0.0687,0.0145,0.0069,0.0135
0.703,-0.1378,0.9938,-0.1079,-0.0541,0.0064,0.0687,0.0145,0.0069,0.0135
0.706,-0.1305,0.9928,-0.112,-0.0541,0.0064,0.0687,0.0145,0.0069,0.0135
0.706,-0.1268,0.9906,-0.1164,-0.0541,0.0064,0.0687,0.0145,0.0069,0.0135
0.712,-0.1246,0.9901,-0.1218,-0.0541,0.0064,0.0687,0.0145,0.0069,0.0135
0.713,-0.1197,0.986,-0.1228,-0.0541,0.0064,0.0687,0.0145,0.0069,0.0135
0.717,-0.1197,0.986,-0.1228,-0.0541,0.0064,0.0687,0.0043,-0.021,0.0135
0.717,-0.1178,0.986,-0.1199,-0.0541,0.0064,0.0687,0.0043,-0.021,0.0135
0.718,-0.1158,0.9857,-0.1216,-0.0541,0.0064,0.0687,0.0043,-0.021,0.0135
0.719,-0.1138,0.9872,-0.1194,-0.0541,0.0064,0.0687,0.0043,-0.021,0.0135
0.725,-0.1138,0.9872,-0.1194,0.052,0.0643,-0.0066,0.0043,-0.021,0.0135
0.726,-0.1121,0.9884,-0.1196,0.052,0.0643,-0.0066,0.0043,-0.021,0.0135
0.727,-0.1153,0.9884,-0.1206,0.052,0.0643,-0.0066,0.0043,-0.021,0.0135
0.73,-0.1158,0.9891,-0.1223,0.052,0.0643,-0.0066,0.0043,-0.021,0.0135
0.731,-0.1185,0.9877,-0.1213,0.052,0.0643,-0.0066,0.0043,-0.021,0.0135
0.733,-0.1151,0.9843,-0.1235,0.052,0.0643,-0.0066,0.0043,-0.021,0.0135
0.734,-0.1146,0.9789,-0.1182,0.052,0.0643,-0.0066,0.0043,-0.021,0.0135
0.738,-0.1138,0.9779,-0.1216,0.052,0.0643,-0.0066,0.0043,-0.021,0.0135
0.739,-0.1121,0.9774,-0.1182,0.052,0.0643,-0.0066,0.0043,-0.021,0.0135
0.743,-0.1114,0.9801,-0.1218,0.052,0.0643,-0.0066,0.0043,-0.021,0.0135
0.743,-0.1151,0.9825,-0.126,0.052,0.0643,-0.0066,0.0043,-0.021,0.0135
0.748,-0.1173,0.9894,-0.1262,0.052,0.0643,-0.0066,0.0043,-0.021,0.0135
0.749,-0.1209,0.9913,-0.1216,0.052,0.0643,-0.0066,0.0043,-0.021,0.0135
0.753,-0.1226,0.9921,-0.1211,0.052,0.0643,-0.0066,0.0043,-0.021,0.0135
0.754,-0.1224,0.9911,-0.1221,0.052,0.0643,-0.0066,0.0043,-0.021,0.0135
0.757,-0.1168,0.9835,-0.1238,0.052,0.0643,-0.0066,0.0043,-0.021,0.0135
0.758,-0.1165,0.9786,-0.1274,0.052,0.0643,-0.0066,0.0043,-0.021,0.0135
0.763,-0.1173,0.9752,-0.1265,0.052,0.0643,-0.0066,0.0043,-0.021,0.0135
0.763,-0.1209,0.9725,-0.1255,0.052,0.0643,-0.0066,0.0043,-0.021,0.0135
0.768,-0.1265,0.9713,-0.124,0.052,0.0643,-0.0066,0.0043,-0.021,0.0135
0.768,-0.1368,0.9735,-0.1191,0.052,0.0643,-0.0066,0.0043,-0.021,0.0135
0.773,-0.1495,0.9759,-0.1177,0.052,0.0643,-0.0066,0.0043,-0.021,0.0135
0.773,-0.1603,0.9789,-0.1128,0.052,0.0643,-0.0066,0.0043,-0.021,0.0135
0.778,-0.1691,0.9791,-0.1096,0.052,0.0643,-0.0066,0.0043,-0.021,0.0135
0.778,-0.1725,0.9791,-0.1074,0.052,0.0643,-0.0066,0.0043,-0.021,0.0135
0.782,-0.1725,0.9791,-0.1074,0.052,0.0643,-0.0066,0.0082,-0.0366,0.0044
0.783,-0.1754,0.9799,-0.1086,0.052,0.0643,-0.0066,0.0082,-0.0366,0.0044
0.783,-0.1774,0.9742,-0.103,0.052,0.0643,-0.0066,0.0082,-0.0366,0.0044
0.787,-0.18,0.9767,-0.1003,0.052,0.0643,-0.0066,0.0082,-0.0366,0.0044
0.787,-0.1776,0.9737,-0.0976,0.052,0.0643,-0.0066,0.0082,-0.0366,0.0044
0.792,-0.1769,0.9759,-0.0952,0.052,0.0643,-0.0066,0.0082,-0.0366,0.0044
0.793,-0.1769,0.9759,-0.0952,-0.0451,0.0073,-0.0094,0.0082,-0.0366,0.0044
0.793,-0.1737,0.9786,-0.0969,-0.0451,0.0073,-0.0094,0.0082,-0.0366,0.0044
0.796,-0.1678,0.9835,-0.0993,-0.0451,0.0073,-0.0094,0.0082,-0.0366,0.0044
0.797,-0.1632,0.986,-0.105,-0.0451,0.0073,-0.0094,0.0082,-0.0366,0.0044
0.801,-0.1573,0.9923,-0.1116,-0.0451,0.0073,-0.0094,0.0082,-0.0366,0.0044
0.802,-0.1539,0.994,-0.1199,-0.0451,0.0073,-0.0094,0.0082,-0.0366,0.0044
0.807,-0.1458,0.9989,-0.1203,-0.0451,0.0073,-0.0094,0.0082,-0.0366,0.0044
0.807,-0.1373,1.0004,-0.1245,-0.0451,0.0073,-0.0094,0.0082,-0.0366,0.0044
0.811,-0.1253,1.0009,-0.1225,-0.0451,0.0073,-0.0094,0.0082,-0.0366,0.0044
0.812,-0.1119,0.9987,-0.1252,-0.0451,0.0073,-0.0094,0.0082,-0.0366,0.0044
0.816,-0.1031,0.9972,-0.1257,-0.0451,0.0073,-0.0094,0.0082,-0.0366,0.0044
0.817,-0.0945,0.9938,-0.1272,-0.0451,0.0073,-0.0094,0.0082,-0.0366,0.0044
0.821,-0.0919,0.9918,-0.1291,-0.0451,0.0073,-0.0094,0.0082,-0.0366,0.0044
0.822,-0.0911,0.9891,-0.1316,-0.0451,0.0073,-0.0094,0.0082,-0.0366,0.0044
0.826,-0.0901,0.9855,-0.1311,-0.0451,0.0073,-0.0094,0.0082,-0.0366,0.0044
0.827,-0.0926,0.9843,-0.1287,-0.0451,0.0073,-0.0094,0.0082,-0.0366,0.0044
0.832,-0.0967,0.9821,-0.1265,-0.0451,0.0073,-0.0094,0.0082,-0.0366,0.0044
0.833,-0.0999,0.9838,-0.1257,-0.0451,0.0073,-0.0094,0.0082,-0.0366,0.0044
0.837,-0.1014,0.9806,-0.1272,-0.0451,0.0073,-0.0094,0.0082,-0.0366,0.0044
0.837,-0.1048,0.9816,-0.1269,-0.0451,0.0073,-0.0094,0.0082,-0.0366,0.0044
0.84,-0.1107,0.9818,-0.1257,-0.0451,0.0073,-0.0094,0.0082,-0.0366,0.0044
0.841,-0.1143,0.9806,-0.1284,-0.0451,0.0073,-0.0094,0.0082,-0.0366,0.0044
0.846,-0.1165,0.9823,-0.1257,-0.0451,0.0073,-0.0094,0.0082,-0.0366,0.0044
0.847,-0.1195,0.9816,-0.1208,-0.0451,0.0073,-0.0094,0.0082,-0.0366,0.0044
0.85,-0.1214,0.9833,-0.1203,-0.0451,0.0073,-0.0094,0.0082,-0.0366,0.0044
0.851,-0.1214,0.9833,-0.1203,-0.0451,0.0073,-0.0094,0.0158,-0.0359,0.0155
0.851,-0.1263,0.9847,-0.1243,-0.0451,0.0073,-0.0094,0.0158,-0.0359,0.0155
0.855,-0.1319,0.9862,-0.1282,-0.0451,0.0073,-0.0094,0.0158,-0.0359,0.0155
0.856,-0.1353,0.9923,-0.1323,-0.0451,0.0073,-0.0094,0.0158,-0.0359,0.0155
0.86,-0.141,0.9933,-0.1301,-0.0451,0.0073,-0.0094,0.0158,-0.0359,0.0155
0.86,-0.141,0.9933,-0.1301,-0.1441,-0.0477,-0.0243,0.0158,-0.0359,0.0155
0.861,-0.1432,0.9957,-0.1238,-0.1441,-0.0477,-0.0243,0.0158,-0.0359,0.0155
0.865,-0.1385,0.9967,-0.1199,-0.1441,-0.0477,-0.0243,0.0158,-0.0359,0.0155
0.865,-0.1341,0.9965,-0.1191,-0.1441,-0.0477,-0.0243,0.0158,-0.0359,0.0155
0.87,-0.1319,0.9938,-0.1208,-0.1441,-0.0477,-0.0243,0.0158,-0.0359,0.0155
0.871,-0.1261,0.9923,-0.1223,-0.1441,-0.0477,-0.0243,0.0158,-0.0359,0.0155
0.874,-0.1187,0.9889,-0.1267,-0.1441,-0.0477,-0.0243,0.0158,-0.0359,0.0155
0.875,-0.1121,0.9879,-0.1316,-0.1441,-0.0477,-0.0243,0.0158,-0.0359,0.0155
0.88,-0.1058,0.9872,-0.1353,-0.1441,-0.0477,-0.0243,0.0158,-0.0359,0.0155
0.88,-0.1004,0.9874,-0.1328,-0.1441,-0.0477,-0.0243,0.0158,-0.0359,0.0155
0.885,-0.0987,0.9838,-0.1284,-0.1441,-0.0477,-0.0243,0.0158,-0.0359,0.0155
0.885,-0.0948,0.9828,-0.1255,-0.1441,-0.0477,-0.0243,0.0158,-0.0359,0.0155
0.89,-0.0933,0.9813,-0.125,-0.1441,-0.0477,-0.0243,0.0158,-0.0359,0.0155
0.89,-0.0916,0.9779,-0.1274,-0.1441,-0.0477,-0.0243,0.0158,-0.0359,0.0155
0.894,-0.0965,0.9764,-0.1291,-0.1441,-0.0477,-0.0243,0.0158,-0.0359,0.0155
0.894,-0.0936,0.9742,-0.1284,-0.1441,-0.0477,-0.0243,0.0158,-0.0359,0.0155
0.899,-0.0919,0.9713,-0.1289,-0.1441,-0.0477,-0.0243,0.0158,-0.0359,0.0155
0.899,-0.097,0.973,-0.1272,-0.1441,-0.0477,-0.0243,0.0158,-0.0359,0.0155
0.906,-0.0997,0.9735,-0.126,-0.1441,-0.0477,-0.0243,0.0158,-0.0359,0.0155
0.907,-0.1036,0.9757,-0.1225,-0.1441,-0.0477,-0.0243,0.0158,-0.0359,0.0155
0.909,-0.108,0.9767,-0.1233,-0.1441,-0.0477,-0.0243,0.0158,-0.0359,0.0155
0.91,-0.1143,0.9791,-0.1213,-0.1441,-0.0477,-0.0243,0.0158,-0.0359,0.0155
0.914,-0.1209,0.9789,-0.1203,-0.1441,-0.0477,-0.0243,0.0158,-0.0359,0.0155
0.915,-0.1278,0.9801,-0.1203,-0.1441,-0.0477,-0.0243,0.0158,-0.0359,0.0155
0.919,-0.1312,0.9801,-0.1211,-0.1441,-0.0477,-0.0243,0.0158,-0.0359,0.0155
0.919,-0.1312,0.9801,-0.1211,-0.1441,-0.0477,-0.0243,0.0026,-0.031,-0.0004
0.92,-0.1346,0.9803,-0.1225,-0.1441,-0.0477,-0.0243,0.0026,-0.031,-0.0004
0.924,-0.1366,0.9811,-0.125,-0.1441,-0.0477,-0.0243,0.0026,-0.031,-0.0004
0.925,-0.1395,0.9796,-0.1255,-0.1441,-0.0477,-0.0243,0.0026,-0.031,-0.0004
0.929,-0.1393,0.9789,-0.1255,-0.1441,-0.0477,-0.0243,0.0026,-0.031,-0.0004
0.929,-0.1393,0.9789,-0.1255,-0.0097,0.0234,-0.072,0.0026,-0.031,-0.0004
0.93,-0.1393,0.9772,-0.1243,-0.0097,0.0234,-0.072,0.0026,-0.031,-0.0004
0.933,-0.1366,0.9786,-0.1243,-0.0097,0.0234,-0.072,0.0026,-0.031,-0.0004
0.934,-0.1341,0.9799,-0.1262,-0.0097,0.0234,-0.072,0.0026,-0.031,-0.0004
0.938,-0.1331,0.9786,-0.1252,-0.0097,0.0234,-0.072,0.0026,-0.031,-0.0004
0.938,-0.1312,0.9772,-0.1225,-0.0097,0.0234,-0.072,0.0026,-0.031,-0.0004
0.944,-0.1265,0.9789,-0.1252,-0.0097,0.0234,-0.072,0.0026,-0.031,-0.0004
0.945,-0.1219,0.9789,-0.1228,-0.0097,0.0234,-0.072,0.0026,-0.031,-0.0004
0.95,-0.1134,0.9779,-0.1211,-0.0097,0.0234,-0.072,0.0026,-0.031,-0.0004
0.95,-0.107,0.9806,-0.1245,-0.0097,0.0234,-0.072,0.0026,-0.031,-0.0004
0.954,-0.1031,0.9811,-0.1287,-0.0097,0.0234,-0.072,0.0026,-0.031,-0.0004
0.955,-0.0982,0.983,-0.1272,-0.0097,0.0234,-0.072,0.0026,-0.031,-0.0004
0.959,-0.0948,0.9845,-0.1257,-0.0097,0.0234,-0.072,0.0026,-0.031,-0.0004
0.96,-0.0901,0.9847,-0.1255,-0.0097,0.0234,-0.072,0.0026,-0.031,-0.0004
0.963,-0.0882,0.9838,-0.1282,-0.0097,0.0234,-0.072,0.0026,-0.031,-0.0004
0.963,-0.086,0.9843,-0.1284,-0.0097,0.0234,-0.072,0.0026,-0.031,-0.0004
0.967,-0.0882,0.9843,-0.1279,-0.0097,0.0234,-0.072,0.0026,-0.031,-0.0004
0.967,-0.0894,0.9872,-0.1262,-0.0097,0.0234,-0.072,0.0026,-0.031,-0.0004
0.973,-0.0931,0.9872,-0.126,-0.0097,0.0234,-0.072,0.0026,-0.031,-0.0004
0.974,-0.098,0.9877,-0.125,-0.0097,0.0234,-0.072,0.0026,-0.031,-0.0004
0.978,-0.1019,0.9872,-0.1213,-0.0097,0.0234,-0.072,0.0026,-0.031,-0.0004
0.979,-0.1072,0.9862,-0.1189,-0.0097,0.0234,-0.072,0.0026,-0.031,-0.0004
0.982,-0.1158,0.9882,-0.116,-0.0097,0.0234,-0.072,0.0026,-0.031,-0.0004
0.983,-0.1253,0.9874,-0.114,-0.0097,0.0234,-0.072,0.0026,-0.031,-0.0004
0.987,-0.1371,0.9891,-0.1113,-0.0097,0.0234,-0.072,0.0026,-0.031,-0.0004
0.988,-0.1371,0.9891,-0.1113,-0.0097,0.0234,-0.072,-0.0066,-0.0065,-0.02
0.988,-0.1434,0.9926,-0.1111,-0.0097,0.0234,-0.072,-0.0066,-0.0065,-0.02
0.992,-0.1532,0.9938,-0.1059,-0.0097,0.0234,-0.072,-0.0066,-0.0065,-0.02
0.993,-0.1581,0.9962,-0.103,-0.0097,0.0234,-0.072,-0.0066,-0.0065,-0.02
0.998,-0.1598,0.9979,-0.1057,-0.0097,0.0234,-0.072,-0.0066,-0.0065,-0.02
0.998,-0.1632,1.0004,-0.1072,-0.0097,0.0234,-0.072,-0.0066,-0.0065,-0.02
0.999,-0.1632,1.0004,-0.1072,0.0641,-0.0274,-0.0886,-0.0066,-0.0065,-0.02
1.003,-0.1656,0.9972,-0.1069,0.0641,-0.0274,-0.0886,-0.0066,-0.0065,-0.02
1.003,-0.1676,0.9948,-0.1079,0.0641,-0.0274,-0.0886,-0.0066,-0.0065,-0.02
1.006,-0.1686,0.994,-0.1089,0.0641,-0.0274,-0.0886,-0.0066,-0.0065,-0.02
1.007,-0.1703,0.9901,-0.1086,0.0641,-0.0274,-0.0886,-0.0066,-0.0065,-0.02
1.011,-0.1695,0.9899,-0.1081,0.0641,-0.0274,-0.0886,-0.0066,-0.0065,-0.02
1.012,-0.1698,0.9896,-0.1091,0.0641,-0.0274,-0.0886,-0.0066,-0.0065,-0.02
1.016,-0.1669,0.9879,-0.1062,0.0641,-0.0274,-0.0886,-0.0066,-0.0065,-0.02
1.017,-0.161,0.9911,-0.1089,0.0641,-0.0274,-0.0886,-0.0066,-0.0065,-0.02
1.022,-0.1529,0.9886,-0.112,0.0641,-0.0274,-0.0886,-0.0066,-0.0065,-0.02
1.022,-0.1429,0.9869,-0.1182,0.0641,-0.0274,-0.0886,-0.0066,-0.0065,-0.02
1.026,-0.1353,0.9862,-0.1186,0.0641,-0.0274,-0.0886,-0.0066,-0.0065,-0.02
1.026,-0.1285,0.9843,-0.1199,0.0641,-0.0274,-0.0886,-0.0066,-0.0065,-0.02
1.031,-0.1236,0.9838,-0.1211,0.0641,-0.0274,-0.0886,-0.0066,-0.0065,-0.02
1.032,-0.1195,0.9811,-0.1194,0.0641,-0.0274,-0.0886,-0.0066,-0.0065,-0.02
1.037,-0.1151,0.9803,-0.1208,0.0641,-0.0274,-0.0886,-0.0066,-0.0065,-0.02
1.037,-0.1119,0.9823,-0.1184,0.0641,-0.0274,-0.0886,-0.0066,-0.0065,-0.02
1.041,-0.1112,0.9803,-0.1182,0.0641,-0.0274,-0.0886,-0.0066,-0.0065,-0.02
1.042,-0.1075,0.983,-0.1189,0.0641,-0.0274,-0.0886,-0.0066,-0.0065,-0.02
1.045,-0.1024,0.9823,-0.1199,0.0641,-0.0274,-0.0886,-0.0066,-0.0065,-0.02
1.046,-0.0992,0.9808,-0.1216,0.0641,-0.0274,-0.0886,-0.0066,-0.0065,-0.02
1.051,-0.0955,0.9816,-0.1191,0.0641,-0.0274,-0.0886,-0.0066,-0.0065,-0.02
1.051,-0.0911,0.9811,-0.1225,0.0641,-0.0274,-0.0886,-0.0066,-0.0065,-0.02
1.056,-0.0887,0.9789,-0.1225,0.0641,-0.0274,-0.0886,-0.0066,-0.0065,-0.02
1.057,-0.0889,0.9789,-0.1203,0.0641,-0.0274,-0.0886,-0.0066,-0.0065,-0.02
1.057,-0.0889,0.9789,-0.1203,0.0641,-0.0274,-0.0886,-0.0089,-0.0033,-0.0073
1.061,-0.0901,0.9784,-0.1208,0.0641,-0.0274,-0.0886,-0.0089,-0.0033,-0.0073
1.062,-0.0899,0.9784,-0.1218,0.0641,-0.0274,-0.0886,-0.0089,-0.0033,-0.0073
1.066,-0.0911,0.9786,-0.1223,0.0641,-0.0274,-0.0886,-0.0089,-0.0033,-0.0073
1.067,-0.0938,0.9786,-0.1203,0.0641,-0.0274,-0.0886,-0.0089,-0.0033,-0.0073
1.067,-0.0938,0.9786,-0.1203,0.0466,-0.0048,-0.0493,-0.0089,-0.0033,-0.0073
1.07,-0.0985,0.9796,-0.1213,0.0466,-0.0048,-0.0493,-0.0089,-0.0033,-0.0073
1.071,-0.0989,0.9786,-0.1206,0.0466,-0.0048,-0.0493,-0.0089,-0.0033,-0.0073
1.075,-0.1016,0.9821,-0.1221,0.0466,-0.0048,-0.0493,-0.0089,-0.0033,-0.0073
1.075,-0.106,0.9835,-0.1216,0.0466,-0.0048,-0.0493,-0.0089,-0.0033,-0.0073
1.08,-0.1121,0.9862,-0.123,0.0466,-0.0048,-0.0493,-0.0089,-0.0033,-0.0073
1.081,-0.1175,0.9916,-0.1233,0.0466,-0.0048,-0.0493,-0.0089,-0.0033,-0.0073
1.084,-0.1256,0.9904,-0.123,0.0466,-0.0048,-0.0493,-0.0089,-0.0033,-0.0073
1.085,-0.1317,0.9926,-0.1235,0.0466,-0.0048,-0.0493,-0.0089,-0.0033,-0.0073
1.089,-0.1373,0.9955,-0.1196,0.0466,-0.0048,-0.0493,-0.0089,-0.0033,-0.0073
1.09,-0.1424,0.9943,-0.1162,0.0466,-0.0048,-0.0493,-0.0089,-0.0033,-0.0073
1.094,-0.1419,0.9938,-0.1135,0.0466,-0.0048,-0.0493,-0.0089,-0.0033,-0.0073
1.095,-0.1363,0.9891,-0.1123,0.0466,-0.0048,-0.0493,-0.0089,-0.0033,-0.0073
1.1,-0.1356,0.9938,-0.113,0.0466,-0.0048,-0.0493,-0.0089,-0.0033,-0.0073
1.1,-0.1383,0.9935,-0.1191,0.0466,-0.0048,-0.0493,-0.0089,-0.0033,-0.0073
1.105,-0.141,0.9962,-0.1203,0.0466,-0.0048,-0.0493,-0.0089,-0.0033,-0.0073
1.106,-0.1458,0.9982,-0.1211,0.0466,-0.0048,-0.0493,-0.0089,-0.0033,-0.0073
1.109,-0.15,1.0018,-0.1191,0.0466,-0.0048,-0.0493,-0.0089,-0.0033,-0.0073
1.109,-0.1488,0.9996,-0.1177,0.0466,-0.0048,-0.0493,-0.0089,-0.0033,-0.0073
1.114,-0.1451,1.0018,-0.1113,0.0466,-0.0048,-0.0493,-0.0089,-0.0033,-0.0073
1.115,-0.1424,0.9982,-0.1059,0.0466,-0.0048,-0.0493,-0.0089,-0.0033,-0.0073
1.119,-0.1383,0.9948,-0.1052,0.0466,-0.0048,-0.0493,-0.0089,-0.0033,-0.0073
1.12,-0.1373,0.9908,-0.1057,0.0466,-0.0048,-0.0493,-0.0089,-0.0033,-0.0073
1.123,-0.1356,0.986,-0.1045,0.0466,-0.0048,-0.0493,-0.0089,-0.0033,-0.0073
1.124,-0.1336,0.9867,-0.103,0.0466,-0.0048,-0.0493,-0.0089,-0.0033,-0.0073
1.125,-0.1336,0.9867,-0.103,0.0466,-0.0048,-0.0493,-0.0154,0.017,-0.015
1.129,-0.1358,0.9855,-0.1096,0.0466,-0.0048,-0.0493,-0.0154,0.017,-0.015
1.129,-0.1329,0.985,-0.1064,0.0466,-0.0048,-0.0493,-0.0154,0.017,-0.015
1.134,-0.1329,0.985,-0.1064,-0.0497,0.0008,-0.0073,-0.0154,0.017,-0.015
1.135,-0.1351,0.9889,-0.1059,-0.0497,0.0008,-0.0073,-0.0154,0.017,-0.015
1.136,-0.1327,0.9891,-0.1008,-0.0497,0.0008,-0.0073,-0.0154,0.017,-0.015
1.139,-0.129,0.9889,-0.102,-0.0497,0.0008,-0.0073,-0.0154,0.017,-0.015
1.14,-0.127,0.9896,-0.0986,-0.0497,0.0008,-0.0073,-0.0154,0.017,-0.015
1.144,-0.1251,0.9869,-0.102,-0.0497,0.0008,-0.0073,-0.0154,0.017,-0.015
1.145,-0.1236,0.9867,-0.1023,-0.0497,0.0008,-0.0073,-0.0154,0.017,-0.015
1.148,-0.1248,0.986,-0.1057,-0.0497,0.0008,-0.0073,-0.0154,0.017,-0.015
1.149,-0.1248,0.983,-0.103,-0.0497,0.0008,-0.0073,-0.0154,0.017,-0.015
1.153,-0.1295,0.9796,-0.1052,-0.0497,0.0008,-0.0073,-0.0154,0.017,-0.015
1.154,-0.1324,0.9777,-0.1069,-0.0497,0.0008,-0.0073,-0.0154,0.017,-0.015
1.159,-0.1339,0.9769,-0.1084,-0.0497,0.0008,-0.0073,-0.0154,0.017,-0.015
1.16,-0.1378,0.9752,-0.1081,-0.0497,0.0008,-0.0073,-0.0154,0.017,-0.015
1.162,-0.1393,0.975,-0.1079,-0.0497,0.0008,-0.0073,-0.0154,0.017,-0.015
1.163,-0.14,0.9757,-0.1094,-0.0497,0.0008,-0.0073,-0.0154,0.017,-0.015
1.168,-0.1441,0.9752,-0.1123,-0.0497,0.0008,-0.0073,-0.0154,0.017,-0.015
1.168,-0.1488,0.9752,-0.1138,-0.0497,0.0008,-0.0073,-0.0154,0.017,-0.015
1.172,-0.1466,0.9747,-0.1138,-0.0497,0.0008,-0.0073,-0.0154,0.017,-0.015
1.173,-0.1498,0.9764,-0.1138,-0.0497,0.0008,-0.0073,-0.0154,0.017,-0.015
1.177,-0.1502,0.9767,-0.1167,-0.0497,0.0008,-0.0073,-0.0154,0.017,-0.015
1.178,-0.15,0.9777,-0.1162,-0.0497,0.0008,-0.0073,-0.0154,0.017,-0.015
1.183,-0.1502,0.9777,-0.1164,-0.0497,0.0008,-0.0073,-0.0154,0.017,-0.015
1.184,-0.151,0.9796,-0.1162,-0.0497,0.0008,-0.0073,-0.0154,0.017,-0.015
1.188,-0.1488,0.9821,-0.1196,-0.0497,0.0008,-0.0073,-0.0154,0.017,-0.015
1.189,-0.1483,0.9833,-0.1182,-0.0497,0.0008,-0.0073,-0.0154,0.017,-0.015
1.192,-0.1468,0.9843,-0.1179,-0.0497,0.0008,-0.0073,-0.0154,0.017,-0.015
1.193,-0.1468,0.9843,-0.1179,-0.0497,0.0008,-0.0073,-0.0073,0.0031,0.0017
1.193,-0.1405,0.9852,-0.1191,-0.0497,0.0008,-0.0073,-0.0073,0.0031,0.0017
1.197,-0.1346,0.9877,-0.1199,-0.0497,0.0008,-0.0073,-0.0073,0.0031,0.0017
1.197,-0.1314,0.9894,-0.1189,-0.0497,0.0008,-0.0073,-0.0073,0.0031,0.0017
1.203,-0.1263,0.9904,-0.1218,-0.0497,0.0008,-0.0073,-0.0073,0.0031,0.0017
1.204,-0.1263,0.9904,-0.1218,-0.062,0.0455,-0.0037,-0.0073,0.0031,0.0017
1.204,-0.118,0.9923,-0.1186,-0.062,0.0455,-0.0037,-0.0073,0.0031,0.0017
1.207,-0.1141,0.9884,-0.1206,-0.062,0.0455,-0.0037,-0.0073,0.0031,0.0017
1.207,-0.1112,0.9879,-0.1221,-0.062,0.0455,-0.0037,-0.0073,0.0031,0.0017
1.213,-0.1065,0.9845,-0.1203,-0.062,0.0455,-0.0037,-0.0073,0.0031,0.0017
1.214,-0.1046,0.9835,-0.1201,-0.062,0.0455,-0.0037,-0.0073,0.0031,0.0017
1.216,-0.1009,0.9811,-0.1213,-0.062,0.0455,-0.0037,-0.0073,0.0031,0.0017
1.217,-0.1024,0.9803,-0.1228,-0.062,0.0455,-0.0037,-0.0073,0.0031,0.0017
1.222,-0.1063,0.9781,-0.1208,-0.062,0.0455,-0.0037,-0.0073,0.0031,0.0017
1.222,-0.1082,0.9799,-0.1189,-0.062,0.0455,-0.0037,-0.0073,0.0031,0.0017
1.226,-0.1173,0.9803,-0.1172,-0.062,0.0455,-0.0037,-0.0073,0.0031,0.0017
1.227,-0.1251,0.9796,-0.1142,-0.062,0.0455,-0.0037,-0.0073,0.0031,0.0017
1.232,-0.1295,0.9813,-0.1116,-0.062,0.0455,-0.0037,-0.0073,0.0031,0.0017
1.233,-0.1363,0.983,-0.1103,-0.062,0.0455,-0.0037,-0.0073,0.0031,0.0017
1.236,-0.139,0.9835,-0.1084,-0.062,0.0455,-0.0037,-0.0073,0.0031,0.0017
1.237,-0.1395,0.9823,-0.1074,-0.062,0.0455,-0.0037,-0.0073,0.0031,0.0017
1.241,-0.1393,0.9835,-0.1081,-0.062,0.0455,-0.0037,-0.0073,0.0031,0.0017
1.241,-0.1444,0.9813,-0.1054,-0.062,0.0455,-0.0037,-0.0073,0.0031,0.0017
1.246,-0.1476,0.9823,-0.1035,-0.062,0.0455,-0.0037,-0.0073,0.0031,0.0017
1.247,-0.1532,0.9833,-0.1035,-0.062,0.0455,-0.0037,-0.0073,0.0031,0.0017
1.251,-0.1573,0.985,-0.1045,-0.062,0.0455,-0.0037,-0.0073,0.0031,0.0017
1.252,-0.1576,0.9857,-0.1096,-0.062,0.0455,-0.0037,-0.0073,0.0031,0.0017
1.256,-0.1573,0.9864,-0.1091,-0.062,0.0455,-0.0037,-0.0073,0.0031,0.0017
1.257,-0.1542,0.9882,-0.1084,-0.062,0.0455,-0.0037,-0.0073,0.0031,0.0017
1.261,-0.1507,0.9891,-0.1091,-0.062,0.0455,-0.0037,-0.0073,0.0031,0.0017
1.262,-0.1507,0.9891,-0.1091,-0.062,0.0455,-0.0037,-0.0048,0.0086,0.0113
1.262,-0.1471,0.9877,-0.1076,-0.062,0.0455,-0.0037,-0.0048,0.0086,0.0113
1.265,-0.1422,0.9857,-0.1086,-0.062,0.0455,-0.0037,-0.0048,0.0086,0.0113
1.266,-0.1356,0.9869,-0.1081,-0.062,0.0455,-0.0037,-0.0048,0.0086,0.0113
1.271,-0.1329,0.9884,-0.1098,-0.062,0.0455,-0.0037,-0.0048,0.0086,0.0113
1.271,-0.1287,0.9886,-0.1138,-0.062,0.0455,-0.0037,-0.0048,0.0086,0.0113
1.272,-0.1287,0.9886,-0.1138,-0.1339,-0.0389,0.03,-0.0048,0.0086,0.0113
1.275,-0.1258,0.9889,-0.1169,-0.1339,-0.0389,0.03,-0.0048,0.0086,0.0113
1.276,-0.1207,0.9872,-0.1206,-0.1339,-0.0389,0.03,-0.0048,0.0086,0.0113
1.28,-0.1114,0.9896,-0.1221,-0.1339,-0.0389,0.03,-0.0048,0.0086,0.0113
1.281,-0.1063,0.9886,-0.1243,-0.1339,-0.0389,0.03,-0.0048,0.0086,0.0113
1.285,-0.1007,0.9874,-0.1223,-0.1339,-0.0389,0.03,-0.0048,0.0086,0.0113
1.285,-0.0933,0.9843,-0.123,-0.1339,-0.0389,0.03,-0.0048,0.0086,0.0113
1.29,-0.0916,0.986,-0.1213,-0.1339,-0.0389,0.03,-0.0048,0.0086,0.0113
1.29,-0.0872,0.9828,-0.1206,-0.1339,-0.0389,0.03,-0.0048,0.0086,0.0113
1.294,-0.0867,0.9838,-0.1191,-0.1339,-0.0389,0.03,-0.0048,0.0086,0.0113
1.295,-0.0865,0.9857,-0.1194,-0.1339,-0.0389,0.03,-0.0048,0.0086,0.0113
1.299,-0.0858,0.9855,-0.1208,-0.1339,-0.0389,0.03,-0.0048,0.0086,0.0113
1.3,-0.0872,0.9864,-0.1228,-0.1339,-0.0389,0.03,-0.0048,0.0086,0.0113
1.304,-0.0914,0.9884,-0.125,-0.1339,-0.0389,0.03,-0.0048,0.0086,0.0113
1.305,-0.095,0.9896,-0.1252,-0.1339,-0.0389,0.03,-0.0048,0.0086,0.0113
1.31,-0.0941,0.9879,-0.1245,-0.1339,-0.0389,0.03,-0.0048,0.0086,0.0113
1.31,-0.0953,0.9867,-0.1216,-0.1339,-0.0389,0.03,-0.0048,0.0086,0.0113
1.315,-0.0933,0.9843,-0.1213,-0.1339,-0.0389,0.03,-0.0048,0.0086,0.0113
1.315,-0.0955,0.9833,-0.1194,-0.1339,-0.0389,0.03,-0.0048,0.0086,0.0113
1.319,-0.098,0.9816,-0.1221,-0.1339,-0.0389,0.03,-0.0048,0.0086,0.0113
1.319,-0.1036,0.984,-0.126,-0.1339,-0.0389,0.03,-0.0048,0.0086,0.0113
1.324,-0.1068,0.985,-0.1269,-0.1339,-0.0389,0.03,-0.0048,0.0086,0.0113
1.324,-0.1099,0.9813,-0.1257,-0.1339,-0.0389,0.03,-0.0048,0.0086,0.0113
1.329,-0.1148,0.9801,-0.125,-0.1339,-0.0389,0.03,-0.0048,0.0086,0.0113
1.329,-0.1148,0.9801,-0.125,-0.1339,-0.0389,0.03,-0.0064,-0.0032,0.0065
1.33,-0.1185,0.9799,-0.1228,-0.1339,-0.0389,0.03,-0.0064,-0.0032,0.0065
1.335,-0.1207,0.9781,-0.1213,-0.1339,-0.0389,0.03,-0.0064,-0.0032,0.0065
1.337,-0.1239,0.9789,-0.1157,-0.1339,-0.0389,0.03,-0.0064,-0.0032,0.0065
1.339,-0.1239,0.9789,-0.1157,-0.0624,-0.0123,0.0115,-0.0064,-0.0032,0.0065
1.34,-0.128,0.9808,-0.116,-0.0624,-0.0123,0.0115,-0.0064,-0.0032,0.0065
1.34,-0.1312,0.9808,-0.1138,-0.0624,-0.0123,0.0115,-0.0064,-0.0032,0.0065
1.344,-0.1319,0.9838,-0.1147,-0.0624,-0.0123,0.0115,-0.0064,-0.0032,0.0065
1.345,-0.1324,0.9833,-0.1162,-0.0624,-0.0123,0.0115,-0.0064,-0.0032,0.0065
1.349,-0.138,0.9852,-0.1179,-0.0624,-0.0123,0.0115,-0.0064,-0.0032,0.0065
1.349,-0.1388,0.9886,-0.116,-0.0624,-0.0123,0.0115,-0.0064,-0.0032,0.0065
1.353,-0.1353,0.9894,-0.1184,-0.0624,-0.0123,0.0115,-0.0064,-0.0032,0.0065
1.354,-0.1351,0.9916,-0.1169,-0.0624,-0.0123,0.0115,-0.0064,-0.0032,0.0065
1.36,-0.1327,0.9908,-0.1157,-0.0624,-0.0123,0.0115,-0.0064,-0.0032,0.0065
1.36,-0.1307,0.9901,-0.1138,-0.0624,-0.0123,0.0115,-0.0064,-0.0032,0.0065
1.364,-0.1285,0.9901,-0.1133,-0.0624,-0.0123,0.0115,-0.0064,-0.0032,0.0065
1.365,-0.128,0.9877,-0.1108,-0.0624,-0.0123,0.0115,-0.0064,-0.0032,0.0065
1.368,-0.127,0.9904,-0.1111,-0.0624,-0.0123,0.0115,-0.0064,-0.0032,0.0065
1.368,-0.1261,0.9911,-0.113,-0.0624,-0.0123,0.0115,-0.0064,-0.0032,0.0065
1.373,-0.1256,0.9913,-0.1079,-0.0624,-0.0123,0.0115,-0.0064,-0.0032,0.0065
1.374,-0.1234,0.9921,-0.1084,-0.0624,-0.0123,0.0115,-0.0064,-0.0032,0.0065
1.378,-0.1219,0.9899,-0.1096,-0.0624,-0.0123,0.0115,-0.0064,-0.0032,0.0065
1.378,-0.1182,0.9882,-0.1086,-0.0624,-0.0123,0.0115,-0.0064,-0.0032,0.0065
1.383,-0.116,0.986,-0.1091,-0.0624,-0.0123,0.0115,-0.0064,-0.0032,0.0065
1.383,-0.1136,0.9867,-0.1062,-0.0624,-0.0123,0.0115,-0.0064,-0.0032,0.0065
1.388,-0.1121,0.9874,-0.1089,-0.0624,-0.0123,0.0115,-0.0064,-0.0032,0.0065
1.388,-0.1114,0.9896,-0.1074,-0.0624,-0.0123,0.0115,-0.0064,-0.0032,0.0065
1.394,-0.1102,0.9882,-0.1103,-0.0624,-0.0123,0.0115,-0.0064,-0.0032,0.0065
1.395,-0.1146,0.9889,-0.1101,-0.0624,-0.0123,0.0115,-0.0064,-0.0032,0.0065
1.398,-0.1146,0.9889,-0.1101,-0.0624,-0.0123,0.0115,-0.0068,0.0061,-0.0111
1.398,-0.1156,0.9904,-0.1089,-0.0624,-0.0123,0.0115,-0.0068,0.0061,-0.0111
1.399,-0.1156,0.9899,-0.1079,-0.0624,-0.0123,0.0115,-0.0068,0.0061,-0.0111
1.402,-0.1141,0.9874,-0.1067,-0.0624,-0.0123,0.0115,-0.0068,0.0061,-0.0111
1.403,-0.1134,0.9813,-0.1042,-0.0624,-0.0123,0.0115,-0.0068,0.0061,-0.0111
1.408,-0.1104,0.9799,-0.1054,-0.0624,-0.0123,0.0115,-0.0068,0.0061,-0.0111
1.409,-0.1104,0.9801,-0.1069,-0.0624,-0.0123,0.0115,-0.0068,0.0061,-0.0111
1.409,-0.1104,0.9801,-0.1069,0.1929,-0.0058,-0.0725,-0.0068,0.0061,-0.0111
1.412,-0.1107,0.9801,-0.1101,0.1929,-0.0058,-0.0725,-0.0068,0.0061,-0.0111
1.413,-0.1156,0.9813,-0.113,0.1929,-0.0058,-0.0725,-0.0068,0.0061,-0.0111
1.417,-0.1226,0.9813,-0.1142,0.1929,-0.0058,-0.0725,-0.0068,0.0061,-0.0111
1.417,-0.1285,0.9843,-0.113,0.1929,-0.0058,-0.0725,-0.0068,0.0061,-0.0111
1.422,-0.1373,0.9869,-0.1111,0.1929,-0.0058,-0.0725,-0.0068,0.0061,-0.0111
1.422,-0.141,0.9847,-0.1094,0.1929,-0.0058,-0.0725,-0.0068,0.0061,-0.0111
1.427,-0.1456,0.983,-0.1067,0.1929,-0.0058,-0.0725,-0.0068,0.0061,-0.0111
1.428,-0.149,0.9794,-0.1074,0.1929,-0.0058,-0.0725,-0.0068,0.0061,-0.0111
1.433,-0.1522,0.9811,-0.1094,0.1929,-0.0058,-0.0725,-0.0068,0.0061,-0.0111
1.433,-0.1544,0.9786,-0.1084,0.1929,-0.0058,-0.0725,-0.0068,0.0061,-0.0111
1.437,-0.1564,0.9789,-0.1091,0.1929,-0.0058,-0.0725,-0.0068,0.0061,-0.0111
1.438,-0.1581,0.9811,-0.1091,0.1929,-0.0058,-0.0725,-0.0068,0.0061,-0.0111
1.443,-0.1612,0.9852,-0.1059,0.1929,-0.0058,-0.0725,-0.0068,0.0061,-0.0111
1.443,-0.1637,0.9899,-0.1013,0.1929,-0.0058,-0.0725,-0.0068,0.0061,-0.0111
1.447,-0.161,0.9938,-0.0979,0.1929,-0.0058,-0.0725,-0.0068,0.0061,-0.0111
1.447,-0.1605,0.9938,-0.0989,0.1929,-0.0058,-0.0725,-0.0068,0.0061,-0.0111
1.451,-0.1583,0.9943,-0.0998,0.1929,-0.0058,-0.0725,-0.0068,0.0061,-0.0111
1.452,-0.1527,0.994,-0.102,0.1929,-0.0058,-0.0725,-0.0068,0.0061,-0.0111
1.456,-0.148,0.9948,-0.1045,0.1929,-0.0058,-0.0725,-0.0068,0.0061,-0.0111
1.457,-0.1395,0.9957,-0.1084,0.1929,-0.0058,-0.0725,-0.0068,0.0061,-0.0111
1.46,-0.1363,0.9977,-0.1108,0.1929,-0.0058,-0.0725,-0.0068,0.0061,-0.0111
1.461,-0.1295,0.9984,-0.1096,0.1929,-0.0058,-0.0725,-0.0068,0.0061,-0.0111
1.467,-0.1204,1.0004,-0.1074,0.1929,-0.0058,-0.0725,-0.0068,0.0061,-0.0111
1.467,-0.1204,1.0004,-0.1074,0.1929,-0.0058,-0.0725,-0.0006,0.0197,-0.0086
1.468,-0.1185,1.0028,-0.1025,0.1929,-0.0058,-0.0725,-0.0006,0.0197,-0.0086
1.47,-0.1102,1.0009,-0.102,0.1929,-0.0058,-0.0725,-0.0006,0.0197,-0.0086
1.471,-0.1043,0.9992,-0.103,0.1929,-0.0058,-0.0725,-0.0006,0.0197,-0.0086
1.476,-0.0965,0.997,-0.1045,0.1929,-0.0058,-0.0725,-0.0006,0.0197,-0.0086
1.477,-0.0965,0.997,-0.1045,0.0023,0.0217,0.0281,-0.0006,0.0197,-0.0086
1.478,-0.0936,0.9957,-0.1062,0.0023,0.0217,0.0281,-0.0006,0.0197,-0.0086
1.481,-0.0914,0.9945,-0.1089,0.0023,0.0217,0.0281,-0.0006,0.0197,-0.0086
1.481,-0.0889,0.9899,-0.1062,0.0023,0.0217,0.0281,-0.0006,0.0197,-0.0086
1.485,-0.0867,0.9879,-0.105,0.0023,0.0217,0.0281,-0.0006,0.0197,-0.0086
1.486,-0.0904,0.984,-0.1086,0.0023,0.0217,0.0281,-0.0006,0.0197,-0.0086
1.491,-0.0963,0.9857,-0.1045,0.0023,0.0217,0.0281,-0.0006,0.0197,-0.0086
1.491,-0.1033,0.9838,-0.1064,0.0023,0.0217,0.0281,-0.0006,0.0197,-0.0086
1.494,-0.1102,0.984,-0.1079,0.0023,0.0217,0.0281,-0.0006,0.0197,-0.0086
1.495,-0.1185,0.9838,-0.1067,0.0023,0.0217,0.0281,-0.0006,0.0197,-0.0086
1.5,-0.1273,0.9838,-0.1062,0.0023,0.0217,0.0281,-0.0006,0.0197,-0.0086
1.501,-0.1331,0.9835,-0.1062,0.0023,0.0217,0.0281,-0.0006,0.0197,-0.0086
1.507,-0.14,0.9803,-0.1042,0.0023,0.0217,0.0281,-0.0006,0.0197,-0.0086
1.507,-0.1444,0.9806,-0.1054,0.0023,0.0217,0.0281,-0.0006,0.0197,-0.0086
1.51,-0.1485,0.9811,-0.105,0.0023,0.0217,0.0281,-0.0006,0.0197,-0.0086
1.51,-0.1488,0.9796,-0.1057,0.0023,0.0217,0.0281,-0.0006,0.0197,-0.0086
1.515,-0.1507,0.9811,-0.1098,0.0023,0.0217,0.0281,-0.0006,0.0197,-0.0086
1.516,-0.1507,0.9843,-0.113,0.0023,0.0217,0.0281,-0.0006,0.0197,-0.0086
1.519,-0.1502,0.9847,-0.1182,0.0023,0.0217,0.0281,-0.0006,0.0197,-0.0086
1.519,-0.1498,0.986,-0.1223,0.0023,0.0217,0.0281,-0.0006,0.0197,-0.0086
1.525,-0.1451,0.9874,-0.1274,0.0023,0.0217,0.0281,-0.0006,0.0197,-0.0086
1.527,-0.14,0.9884,-0.1287,0.0023,0.0217,0.0281,-0.0006,0.0197,-0.0086
1.53,-0.1349,0.9879,-0.1265,0.0023,0.0217,0.0281,-0.0006,0.0197,-0.0086
1.53,-0.1307,0.9877,-0.1272,0.0023,0.0217,0.0281,-0.0006,0.0197,-0.0086
1.535,-0.1307,0.9877,-0.1272,0.0023,0.0217,0.0281,-0.0016,0.0154,0.0075
1.535,-0.1226,0.9896,-0.1284,0.0023,0.0217,0.0281,-0.0016,0.0154,0.0075
1.537,-0.1175,0.9891,-0.1269,0.0023,0.0217,0.0281,-0.0016,0.0154,0.0075
1.539,-0.1104,0.9886,-0.1225,0.0023,0.0217,0.0281,-0.0016,0.0154,0.0075
1.54,-0.1016,0.9874,-0.1225,0.0023,0.0217,0.0281,-0.0016,0.0154,0.0075
1.544,-0.1016,0.9874,-0.1225,-0.1244,0.0307,0.0636,-0.0016,0.0154,0.0075
1.545,-0.095,0.9847,-0.1274,-0.1244,0.0307,0.0636,-0.0016,0.0154,0.0075
1.545,-0.0916,0.9864,-0.1277,-0.1244,0.0307,0.0636,-0.0016,0.0154,0.0075
1.549,-0.0865,0.9867,-0.1301,-0.1244,0.0307,0.0636,-0.0016,0.0154,0.0075
1.55,-0.0855,0.9901,-0.1299,-0.1244,0.0307,0.0636,-0.0016,0.0154,0.0075
1.554,-0.0809,0.9908,-0.1321,-0.1244,0.0307,0.0636,-0.0016,0.0154,0.0075
1.555,-0.0804,0.9913,-0.1299,-0.1244,0.0307,0.0636,-0.0016,0.0154,0.0075
1.559,-0.0799,0.9916,-0.1235,-0.1244,0.0307,0.0636,-0.0016,0.0154,0.0075
1.559,-0.0811,0.9911,-0.1189,-0.1244,0.0307,0.0636,-0.0016,0.0154,0.0075
1.563,-0.0833,0.9889,-0.1098,-0.1244,0.0307,0.0636,-0.0016,0.0154,0.0075
1.564,-0.0855,0.985,-0.103,-0.1244,0.0307,0.0636,-0.0016,0.0154,0.0075
1.568,-0.0897,0.9803,-0.1013,-0.1244,0.0307,0.0636,-0.0016,0.0154,0.0075
1.568,-0.0945,0.9784,-0.1067,-0.1244,0.0307,0.0636,-0.0016,0.0154,0.0075
1.573,-0.0982,0.9769,-0.1142,-0.1244,0.0307,0.0636,-0.0016,0.0154,0.0075
1.574,-0.1021,0.9806,-0.1191,-0.1244,0.0307,0.0636,-0.0016,0.0154,0.0075
1.578,-0.1065,0.9796,-0.1201,-0.1244,0.0307,0.0636,-0.0016,0.0154,0.0075
1.578,-0.1138,0.9857,-0.1155,-0.1244,0.0307,0.0636,-0.0016,0.0154,0.0075
1.583,-0.1219,0.9894,-0.1089,-0.1244,0.0307,0.0636,-0.0016,0.0154,0.0075
1.584,-0.1283,0.9899,-0.1079,-0.1244,0.0307,0.0636,-0.0016,0.0154,0.0075
1.588,-0.1371,0.9891,-0.1037,-0.1244,0.0307,0.0636,-0.0016,0.0154,0.0075
1.588,-0.1454,0.9901,-0.1018,-0.1244,0.0307,0.0636,-0.0016,0.0154,0.0075
1.594,-0.1529,0.9891,-0.1018,-0.1244,0.0307,0.0636,-0.0016,0.0154,0.0075
1.595,-0.1564,0.9872,-0.104,-0.1244,0.0307,0.0636,-0.0016,0.0154,0.0075
1.597,-0.1578,0.9872,-0.1025,-0.1244,0.0307,0.0636,-0.0016,0.0154,0.0075
1.598,-0.1561,0.9843,-0.1028,-0.1244,0.0307,0.0636,-0.0016,0.0154,0.0075
1.602,-0.1554,0.9835,-0.104,-0.1244,0.0307,0.0636,-0.0016,0.0154,0.0075
1.603,-0.1554,0.9835,-0.104,-0.1244,0.0307,0.0636,-0.0105,-0.008,-0.0055
1.603,-0.152,0.9833,-0.1072,-0.1244,0.0307,0.0636,-0.0105,-0.008,-0.0055
1.607,-0.1478,0.9811,-0.1064,-0.1244,0.0307,0.0636,-0.0105,-0.008,-0.0055
1.608,-0.1449,0.9838,-0.1037,-0.1244,0.0307,0.0636,-0.0105,-0.008,-0.0055
1.613,-0.1449,0.9838,-0.1037,0.0247,-0.002,-0.0146,-0.0105,-0.008,-0.0055
1.613,-0.1439,0.9835,-0.1052,0.0247,-0.002,-0.0146,-0.0105,-0.008,-0.0055
1.613,-0.1414,0.9835,-0.1069,0.0247,-0.002,-0.0146,-0.0105,-0.008,-0.0055
1.617,-0.1402,0.983,-0.1054,0.0247,-0.002,-0.0146,-0.0105,-0.008,-0.0055
1.618,-0.1378,0.9821,-0.1059,0.0247,-0.002,-0.0146,-0.0105,-0.008,-0.0055
1.622,-0.1346,0.9806,-0.1072,0.0247,-0.002,-0.0146,-0.0105,-0.008,-0.0055
1.622,-0.1331,0.9818,-0.1101,0.0247,-0.002,-0.0146,-0.0105,-0.008,-0.0055
1.627,-0.129,0.9821,-0.1116,0.0247,-0.002,-0.0146,-0.0105,-0.008,-0.0055
1.628,-0.1258,0.9855,-0.112,0.0247,-0.002,-0.0146,-0.0105,-0.008,-0.0055
1.633,-0.1229,0.9862,-0.1096,0.0247,-0.002,-0.0146,-0.0105,-0.008,-0.0055
1.634,-0.1207,0.9852,-0.1081,0.0247,-0.002,-0.0146,-0.0105,-0.008,-0.0055
1.636,-0.1182,0.9869,-0.1091,0.0247,-0.002,-0.0146,-0.0105,-0.008,-0.0055
1.637,-0.1163,0.9872,-0.1108,0.0247,-0.002,-0.0146,-0.0105,-0.008,-0.0055
1.642,-0.1158,0.9874,-0.113,0.0247,-0.002,-0.0146,-0.0105,-0.008,-0.0055
1.642,-0.1178,0.9891,-0.1135,0.0247,-0.002,-0.0146,-0.0105,-0.008,-0.0055
1.647,-0.1175,0.9889,-0.115,0.0247,-0.002,-0.0146,-0.0105,-0.008,-0.0055
1.648,-0.1141,0.9894,-0.1189,0.0247,-0.002,-0.0146,-0.0105,-0.008,-0.0055
1.651,-0.1112,0.9913,-0.1189,0.0247,-0.002,-0.0146,-0.0105,-0.008,-0.0055
1.651,-0.1099,0.9908,-0.1199,0.0247,-0.002,-0.0146,-0.0105,-0.008,-0.0055
1.656,-0.1043,0.9882,-0.1162,0.0247,-0.002,-0.0146,-0.0105,-0.008,-0.0055
1.656,-0.1002,0.9862,-0.1172,0.0247,-0.002,-0.0146,-0.0105,-0.008,-0.0055
1.662,-0.1002,0.9833,-0.1172,0.0247,-0.002,-0.0146,-0.0105,-0.008,-0.0055
1.662,-0.1024,0.9811,-0.1152,0.0247,-0.002,-0.0146,-0.0105,-0.008,-0.0055
1.666,-0.1063,0.9828,-0.1196,0.0247,-0.002,-0.0146,-0.0105,-0.008,-0.0055
1.666,-0.1131,0.9843,-0.116,0.0247,-0.002,-0.0146,-0.0105,-0.008,-0.0055
1.671,-0.1212,0.9891,-0.112,0.0247,-0.002,-0.0146,-0.0105,-0.008,-0.0055
1.671,-0.1212,0.9891,-0.112,0.0247,-0.002,-0.0146,-0.0093,-0.0107,-0.0047
1.672,-0.1283,0.9891,-0.112,0.0247,-0.002,-0.0146,-0.0093,-0.0107,-0.0047
1.675,-0.1341,0.9879,-0.1096,0.0247,-0.002,-0.0146,-0.0093,-0.0107,-0.0047
1.676,-0.1368,0.9882,-0.1057,0.0247,-0.002,-0.0146,-0.0093,-0.0107,-0.0047
1.681,-0.1373,0.9884,-0.1069,0.0247,-0.002,-0.0146,-0.0093,-0.0107,-0.0047
1.683,-0.1383,0.9843,-0.112,0.0247,-0.002,-0.0146,-0.0093,-0.0107,-0.0047
1.683,-0.1383,0.9843,-0.112,0.0753,-0.0021,-0.0027,-0.0093,-0.0107,-0.0047
1.686,-0.1412,0.9833,-0.1167,0.0753,-0.0021,-0.0027,-0.0093,-0.0107,-0.0047
1.687,-0.1439,0.9852,-0.116,0.0753,-0.0021,-0.0027,-0.0093,-0.0107,-0.0047
1.691,-0.1488,0.9884,-0.1147,0.0753,-0.0021,-0.0027,-0.0093,-0.0107,-0.0047
1.691,-0.1551,0.9894,-0.1113,0.0753,-0.0021,-0.0027,-0.0093,-0.0107,-0.0047
1.695,-0.161,0.9935,-0.1072,0.0753,-0.0021,-0.0027,-0.0093,-0.0107,-0.0047
1.696,-0.1708,0.994,-0.1045,0.0753,-0.0021,-0.0027,-0.0093,-0.0107,-0.0047
1.7,-0.1749,0.9945,-0.1052,0.0753,-0.0021,-0.0027,-0.0093,-0.0107,-0.0047
1.701,-0.1769,0.9943,-0.1042,0.0753,-0.0021,-0.0027,-0.0093,-0.0107,-0.0047
1.705,-0.1725,0.9911,-0.1057,0.0753,-0.0021,-0.0027,-0.0093,-0.0107,-0.0047
1.706,-0.1669,0.9872,-0.1042,0.0753,-0.0021,-0.0027,-0.0093,-0.0107,-0.0047
1.71,-0.1571,0.9862,-0.0998,0.0753,-0.0021,-0.0027,-0.0093,-0.0107,-0.0047
1.711,-0.1522,0.9828,-0.0986,0.0753,-0.0021,-0.0027,-0.0093,-0.0107,-0.0047
1.715,-0.1441,0.9821,-0.1003,0.0753,-0.0021,-0.0027,-0.0093,-0.0107,-0.0047
1.716,-0.1383,0.9801,-0.1008,0.0753,-0.0021,-0.0027,-0.0093,-0.0107,-0.0047
1.719,-0.1331,0.9789,-0.1023,0.0753,-0.0021,-0.0027,-0.0093,-0.0107,-0.0047
1.72,-0.1317,0.9799,-0.1062,0.0753,-0.0021,-0.0027,-0.0093,-0.0107,-0.0047
1.724,-0.129,0.9813,-0.1079,0.0753,-0.0021,-0.0027,-0.0093,-0.0107,-0.0047
1.725,-0.1309,0.984,-0.1069,0.0753,-0.0021,-0.0027,-0.0093,-0.0107,-0.0047
1.729,-0.1268,0.9845,-0.1047,0.0753,-0.0021,-0.0027,-0.0093,-0.0107,-0.0047
1.73,-0.1241,0.9843,-0.1045,0.0753,-0.0021,-0.0027,-0.0093,-0.0107,-0.0047
1.735,-0.1209,0.9818,-0.1035,0.0753,-0.0021,-0.0027,-0.0093,-0.0107,-0.0047
1.735,-0.1204,0.9825,-0.1018,0.0753,-0.0021,-0.0027,-0.0093,-0.0107,-0.0047
1.739,-0.116,0.9816,-0.1052,0.0753,-0.0021,-0.0027,-0.0093,-0.0107,-0.0047
1.739,-0.116,0.9816,-0.1052,0.0753,-0.0021,-0.0027,-0.006,-0.0229,0.01
1.74,-0.1163,0.9811,-0.1069,0.0753,-0.0021,-0.0027,-0.006,-0.0229,0.01
1.744,-0.1173,0.9823,-0.1057,0.0753,-0.0021,-0.0027,-0.006,-0.0229,0.01
1.744,-0.1158,0.9838,-0.1072,0.0753,-0.0021,-0.0027,-0.006,-0.0229,0.01
1.749,-0.1165,0.984,-0.1084,0.0753,-0.0021,-0.0027,-0.006,-0.0229,0.01
1.749,-0.1134,0.985,-0.1108,0.0753,-0.0021,-0.0027,-0.006,-0.0229,0.01
1.75,-0.1134,0.985,-0.1108,0.0212,-0.0017,-0.0084,-0.006,-0.0229,0.01
1.754,-0.1151,0.9862,-0.1101,0.0212,-0.0017,-0.0084,-0.006,-0.0229,0.01
1.754,-0.1129,0.9857,-0.1142,0.0212,-0.0017,-0.0084,-0.006,-0.0229,0.01
1.76,-0.1134,0.9857,-0.1179,0.0212,-0.0017,-0.0084,-0.006,-0.0229,0.01
1.76,-0.1134,0.9857,-0.1184,0.0212,-0.0017,-0.0084,-0.006,-0.0229,0.01
1.764,-0.1126,0.983,-0.1199,0.0212,-0.0017,-0.0084,-0.006,-0.0229,0.01
1.765,-0.1151,0.983,-0.1191,0.0212,-0.0017,-0.0084,-0.006,-0.0229,0.01
1.769,-0.1163,0.9818,-0.1186,0.0212,-0.0017,-0.0084,-0.006,-0.0229,0.01
1.769,-0.1143,0.9816,-0.1199,0.0212,-0.0017,-0.0084,-0.006,-0.0229,0.01
1.773,-0.1178,0.9811,-0.1213,0.0212,-0.0017,-0.0084,-0.006,-0.0229,0.01
1.774,-0.1204,0.9818,-0.124,0.0212,-0.0017,-0.0084,-0.006,-0.0229,0.01
1.778,-0.1204,0.9813,-0.1265,0.0212,-0.0017,-0.0084,-0.006,-0.0229,0.01
1.779,-0.1217,0.984,-0.1243,0.0212,-0.0017,-0.0084,-0.006,-0.0229,0.01
1.784,-0.1197,0.9835,-0.1206,0.0212,-0.0017,-0.0084,-0.006,-0.0229,0.01
1.784,-0.1192,0.9828,-0.1221,0.0212,-0.0017,-0.0084,-0.006,-0.0229,0.01
1.789,-0.1212,0.984,-0.1238,0.0212,-0.0017,-0.0084,-0.006,-0.0229,0.01
1.789,-0.1212,0.984,-0.1233,0.0212,-0.0017,-0.0084,-0.006,-0.0229,0.01
1.794,-0.1209,0.9864,-0.1247,0.0212,-0.0017,-0.0084,-0.006,-0.0229,0.01
1.795,-0.1217,0.9855,-0.1255,0.0212,-0.0017,-0.0084,-0.006,-0.0229,0.01
1.798,-0.1204,0.9847,-0.1282,0.0212,-0.0017,-0.0084,-0.006,-0.0229,0.01
1.798,-0.1226,0.9864,-0.1267,0.0212,-0.0017,-0.0084,-0.006,-0.0229,0.01
1.802,-0.1256,0.9867,-0.123,0.0212,-0.0017,-0.0084,-0.006,-0.0229,0.01
1.802,-0.1273,0.9872,-0.1203,0.0212,-0.0017,-0.0084,-0.006,-0.0229,0.01
1.808,-0.1273,0.9872,-0.1203,0.0212,-0.0017,-0.0084,-0.0043,-0.0087,0.0089
1.808,-0.1305,0.9864,-0.1189,0.0212,-0.0017,-0.0084,-0.0043,-0.0087,0.0089
1.809,-0.1319,0.9833,-0.115,0.0212,-0.0017,-0.0084,-0.0043,-0.0087,0.0089
1.813,-0.1366,0.9835,-0.1157,0.0212,-0.0017,-0.0084,-0.0043,-0.0087,0.0089
1.813,-0.1363,0.9791,-0.1157,0.0212,-0.0017,-0.0084,-0.0043,-0.0087,0.0089
1.817,-0.1366,0.9801,-0.115,0.0212,-0.0017,-0.0084,-0.0043,-0.0087,0.0089
1.818,-0.1366,0.9801,-0.115,-0.1565,-0.0097,0.0427,-0.0043,-0.0087,0.0089
1.818,-0.1351,0.9806,-0.1162,-0.1565,-0.0097,0.0427,-0.0043,-0.0087,0.0089
1.823,-0.1363,0.9825,-0.1157,-0.1565,-0.0097,0.0427,-0.0043,-0.0087,0.0089
1.824,-0.1346,0.9833,-0.1147,-0.1565,-0.0097,0.0427,-0.0043,-0.0087,0.0089
1.829,-0.1358,0.9828,-0.115,-0.1565,-0.0097,0.0427,-0.0043,-0.0087,0.0089
1.83,-0.1317,0.9828,-0.1111,-0.1565,-0.0097,0.0427,-0.0043,-0.0087,0.0089
1.832,-0.1287,0.9803,-0.1125,-0.1565,-0.0097,0.0427,-0.0043,-0.0087,0.0089
1.832,-0.1263,0.9811,-0.1147,-0.1565,-0.0097,0.0427,-0.0043,-0.0087,0.0089
1.838,-0.1236,0.984,-0.1162,-0.1565,-0.0097,0.0427,-0.0043,-0.0087,0.0089
1.839,-0.1192,0.9835,-0.1182,-0.1565,-0.0097,0.0427,-0.0043,-0.0087,0.0089
1.842,-0.1173,0.985,-0.1182,-0.1565,-0.0097,0.0427,-0.0043,-0.0087,0.0089
1.843,-0.1143,0.9872,-0.1162,-0.1565,-0.0097,0.0427,-0.0043,-0.0087,0.0089
1.846,-0.1129,0.986,-0.1174,-0.1565,-0.0097,0.0427,-0.0043,-0.0087,0.0089
1.846,-0.1126,0.9869,-0.1167,-0.1565,-0.0097,0.0427,-0.0043,-0.0087,0.0089
1.852,-0.1092,0.9874,-0.115,-0.1565,-0.0097,0.0427,-0.0043,-0.0087,0.0089
1.853,-0.1126,0.9845,-0.1138,-0.1565,-0.0097,0.0427,-0.0043,-0.0087,0.0089
1.856,-0.1146,0.9828,-0.1135,-0.1565,-0.0097,0.0427,-0.0043,-0.0087,0.0089
1.856,-0.1136,0.9823,-0.114,-0.1565,-0.0097,0.0427,-0.0043,-0.0087,0.0089
1.861,-0.116,0.9821,-0.1182,-0.1565,-0.0097,0.0427,-0.0043,-0.0087,0.0089
1.861,-0.1168,0.9816,-0.1177,-0.1565,-0.0097,0.0427,-0.0043,-0.0087,0.0089
1.867,-0.1165,0.9811,-0.1186,-0.1565,-0.0097,0.0427,-0.0043,-0.0087,0.0089
1.867,-0.1168,0.9808,-0.1177,-0.1565,-0.0097,0.0427,-0.0043,-0.0087,0.0089
1.87,-0.1175,0.9791,-0.1172,-0.1565,-0.0097,0.0427,-0.0043,-0.0087,0.0089
1.871,-0.1158,0.9784,-0.1179,-0.1565,-0.0097,0.0427,-0.0043,-0.0087,0.0089
1.876,-0.1153,0.9777,-0.1162,-0.1565,-0.0097,0.0427,-0.0043,-0.0087,0.0089
1.877,-0.1153,0.9777,-0.1162,-0.1565,-0.0097,0.0427,-0.0087,-0.0094,-0.0012
1.877,-0.1148,0.9745,-0.1196,-0.1565,-0.0097,0.0427,-0.0087,-0.0094,-0.0012
1.881,-0.1146,0.9735,-0.1196,-0.1565,-0.0097,0.0427,-0.0087,-0.0094,-0.0012
1.882,-0.1165,0.973,-0.1203,-0.1565,-0.0097,0.0427,-0.0087,-0.0094,-0.0012
1.885,-0.1175,0.973,-0.1186,-0.1565,-0.0097,0.0427,-0.0087,-0.0094,-0.0012
1.886,-0.1175,0.973,-0.1186,0.0319,-0.0203,-0.0896,-0.0087,-0.0094,-0.0012
1.886,-0.1219,0.9698,-0.1203,0.0319,-0.0203,-0.0896,-0.0087,-0.0094,-0.0012
1.89,-0.1231,0.9684,-0.1238,0.0319,-0.0203,-0.0896,-0.0087,-0.0094,-0.0012
1.89,-0.1243,0.9686,-0.124,0.0319,-0.0203,-0.0896,-0.0087,-0.0094,-0.0012
1.896,-0.128,0.9693,-0.1294,0.0319,-0.0203,-0.0896,-0.0087,-0.0094,-0.0012
1.897,-0.1329,0.9698,-0.1326,0.0319,-0.0203,-0.0896,-0.0087,-0.0094,-0.0012
1.901,-0.1344,0.9703,-0.1309,0.0319,-0.0203,-0.0896,-0.0087,-0.0094,-0.0012
1.901,-0.1366,0.9689,-0.1306,0.0319,-0.0203,-0.0896,-0.0087,-0.0094,-0.0012
1.905,-0.1385,0.9696,-0.1277,0.0319,-0.0203,-0.0896,-0.0087,-0.0094,-0.0012
1.905,-0.1407,0.9681,-0.1257,0.0319,-0.0203,-0.0896,-0.0087,-0.0094,-0.0012
1.91,-0.14,0.9664,-0.1245,0.0319,-0.0203,-0.0896,-0.0087,-0.0094,-0.0012
1.91,-0.1434,0.9674,-0.1245,0.0319,-0.0203,-0.0896,-0.0087,-0.0094,-0.0012
1.915,-0.1405,0.9696,-0.1265,0.0319,-0.0203,-0.0896,-0.0087,-0.0094,-0.0012
1.916,-0.1412,0.973,-0.1309,0.0319,-0.0203,-0.0896,-0.0087,-0.0094,-0.0012
1.92,-0.1407,0.9762,-0.1272,0.0319,-0.0203,-0.0896,-0.0087,-0.0094,-0.0012
1.92,-0.139,0.9764,-0.1265,0.0319,-0.0203,-0.0896,-0.0087,-0.0094,-0.0012
1.926,-0.1358,0.9762,-0.1233,0.0319,-0.0203,-0.0896,-0.0087,-0.0094,-0.0012
1.927,-0.1331,0.9764,-0.1199,0.0319,-0.0203,-0.0896,-0.0087,-0.0094,-0.0012
1.93,-0.1322,0.9779,-0.1164,0.0319,-0.0203,-0.0896,-0.0087,-0.0094,-0.0012
1.93,-0.1285,0.9755,-0.1155,0.0319,-0.0203,-0.0896,-0.0087,-0.0094,-0.0012
1.935,-0.1292,0.9745,-0.1169,0.0319,-0.0203,-0.0896,-0.0087,-0.0094,-0.0012
1.936,-0.1302,0.9769,-0.1191,0.0319,-0.0203,-0.0896,-0.0087,-0.0094,-0.0012
1.939,-0.1268,0.9777,-0.1235,0.0319,-0.0203,-0.0896,-0.0087,-0.0094,-0.0012
1.94,-0.1246,0.9781,-0.1252,0.0319,-0.0203,-0.0896,-0.0087,-0.0094,-0.0012
1.944,-0.1204,0.9769,-0.1311,0.0319,-0.0203,-0.0896,-0.0087,-0.0094,-0.0012
1.944,-0.1204,0.9769,-0.1311,0.0319,-0.0203,-0.0896,0.0163,0.0349,-0.0402
1.945,-0.1202,0.9767,-0.1345,0.0319,-0.0203,-0.0896,0.0163,0.0349,-0.0402
1.95,-0.1217,0.9737,-0.136,0.0319,-0.0203,-0.0896,0.0163,0.0349,-0.0402
1.951,-0.1258,0.9723,-0.1348,0.0319,-0.0203,-0.0896,0.0163,0.0349,-0.0402
1.955,-0.1258,0.9723,-0.1348,0.0645,-0.0356,-0.0308,0.0163,0.0349,-0.0402
1.956,-0.1287,0.9698,-0.1296,0.0645,-0.0356,-0.0308,0.0163,0.0349,-0.0402
1.956,-0.1268,0.9664,-0.1216,0.0645,-0.0356,-0.0308,0.0163,0.0349,-0.0402
1.96,-0.1197,0.9618,-0.1111,0.0645,-0.0356,-0.0308,0.0163,0.0349,-0.0402
1.961,-0.1141,0.9584,-0.1023,0.0645,-0.0356,-0.0308,0.0163,0.0349,-0.0402
1.963,-0.1097,0.9544,-0.0981,0.0645,-0.0356,-0.0308,0.0163,0.0349,-0.0402
1.963,-0.1156,0.9505,-0.0979,0.0645,-0.0356,-0.0308,0.0163,0.0349,-0.0402
1.968,-0.1219,0.9518,-0.0957,0.0645,-0.0356,-0.0308,0.0163,0.0349,-0.0402
1.969,-0.129,0.9505,-0.0923,0.0645,-0.0356,-0.0308,0.0163,0.0349,-0.0402
1.974,-0.1295,0.9522,-0.0893,0.0645,-0.0356,-0.0308,0.0163,0.0349,-0.0402
1.974,-0.1292,0.9581,-0.081,0.0645,-0.0356,-0.0308,0.0163,0.0349,-0.0402
1.979,-0.1265,0.9659,-0.0832,0.0645,-0.0356,-0.0308,0.0163,0.0349,-0.0402
1.979,-0.1261,0.9757,-0.0952,0.0645,-0.0356,-0.0308,0.0163,0.0349,-0.0402
1.984,-0.1229,0.9828,-0.1108,0.0645,-0.0356,-0.0308,0.0163,0.0349,-0.0402
1.984,-0.1224,0.9928,-0.1257,0.0645,-0.0356,-0.0308,0.0163,0.0349,-0.0402
1.989,-0.1134,0.9984,-0.1328,0.0645,-0.0356,-0.0308,0.0163,0.0349,-0.0402
1.989,-0.1048,1.0018,-0.1311,0.0645,-0.0356,-0.0308,0.0163,0.0349,-0.0402
1.994,-0.0945,1.0055,-0.1194,0.0645,-0.0356,-0.0308,0.0163,0.0349,-0.0402
1.994,-0.0845,1.0104,-0.1079,0.0645,-0.0356,-0.0308,0.0163,0.0349,-0.0402
1.998,-0.0738,1.0133,-0.1015,0.0645,-0.0356,-0.0308,0.0163,0.0349,-0.0402
1.999,-0.0618,1.0123,-0.1086,0.0645,-0.0356,-0.0308,0.0163,0.0349,-0.0402
2.003,-0.0513,1.0084,-0.125,0.0645,-0.0356,-0.0308,0.0163,0.0349,-0.0402
2.004,-0.0332,1.0043,-0.1389,0.0645,-0.0356,-0.0308,0.0163,0.0349,-0.0402
2.008,-0.0213,1.004,-0.1502,0.0645,-0.0356,-0.0308,0.0163,0.0349,-0.0402
2.008,-0.0108,1.0067,-0.1428,0.0645,-0.0356,-0.0308,0.0163,0.0349,-0.0402
2.013,0.0002,1.0065,-0.1409,0.0645,-0.0356,-0.0308,0.0163,0.0349,-0.0402
2.013,0.0002,1.0065,-0.1409,0.0645,-0.0356,-0.0308,0.0535,0.1986,-0.0949
2.014,0.0066,1.0062,-0.1436,0.0645,-0.0356,-0.0308,0.0535,0.1986,-0.0949
2.017,0.0076,1.0097,-0.1458,0.0645,-0.0356,-0.0308,0.0535,0.1986,-0.0949
2.018,0.0056,1.0089,-0.147,0.0645,-0.0356,-0.0308,0.0535,0.1986,-0.0949
2.022,0.001,1.0055,-0.1426,0.0645,-0.0356,-0.0308,0.0535,0.1986,-0.0949
2.023,0.001,1.0055,-0.1426,0.0043,-0.0957,-0.0671,0.0535,0.1986,-0.0949
2.023,-0.0027,1.0031,-0.1375,0.0043,-0.0957,-0.0671,0.0535,0.1986,-0.0949
2.029,-0.0076,1.0006,-0.1311,0.0043,-0.0957,-0.0671,0.0535,0.1986,-0.0949
2.029,-0.0142,0.996,-0.1301,0.0043,-0.0957,-0.0671,0.0535,0.1986,-0.0949
2.032,-0.023,0.9918,-0.1348,0.0043,-0.0957,-0.0671,0.0535,0.1986,-0.0949
2.033,-0.0359,0.9862,-0.1335,0.0043,-0.0957,-0.0671,0.0535,0.1986,-0.0949
2.04,-0.043,0.9806,-0.1265,0.0043,-0.0957,-0.0671,0.0535,0.1986,-0.0949
2.04,-0.0581,0.9777,-0.1257,0.0043,-0.0957,-0.0671,0.0535,0.1986,-0.0949
2.042,-0.0718,0.9762,-0.1282,0.0043,-0.0957,-0.0671,0.0535,0.1986,-0.0949
2.042,-0.084,0.9767,-0.134,0.0043,-0.0957,-0.0671,0.0535,0.1986,-0.0949
2.046,-0.0953,0.9806,-0.1433,0.0043,-0.0957,-0.0671,0.0535,0.1986,-0.0949
2.047,-0.108,0.9864,-0.1445,0.0043,-0.0957,-0.0671,0.0535,0.1986,-0.0949
2.052,-0.1192,0.9906,-0.1445,0.0043,-0.0957,-0.0671,0.0535,0.1986,-0.0949
2.053,-0.1285,0.993,-0.145,0.0043,-0.0957,-0.0671,0.0535,0.1986,-0.0949
2.057,-0.1353,0.9965,-0.1406,0.0043,-0.0957,-0.0671,0.0535,0.1986,-0.0949
2.058,-0.1378,0.9933,-0.1394,0.0043,-0.0957,-0.0671,0.0535,0.1986,-0.0949
2.061,-0.1414,0.9904,-0.1411,0.0043,-0.0957,-0.0671,0.0535,0.1986,-0.0949
2.062,-0.1427,0.9904,-0.1438,0.0043,-0.0957,-0.0671,0.0535,0.1986,-0.0949
2.067,-0.1436,0.9877,-0.1433,0.0043,-0.0957,-0.0671,0.0535,0.1986,-0.0949
2.067,-0.1419,0.9882,-0.1416,0.0043,-0.0957,-0.0671,0.0535,0.1986,-0.0949
2.072,-0.1402,0.9877,-0.144,0.0043,-0.0957,-0.0671,0.0535,0.1986,-0.0949
2.072,-0.1368,0.9886,-0.1482,0.0043,-0.0957,-0.0671,0.0535,0.1986,-0.0949
2.077,-0.1388,0.9896,-0.1516,0.0043,-0.0957,-0.0671,0.0535,0.1986,-0.0949
2.077,-0.138,0.9896,-0.1506,0.0043,-0.0957,-0.0671,0.0535,0.1986,-0.0949
2.081,-0.138,0.9906,-0.1477,0.0043,-0.0957,-0.0671,0.0535,0.1986,-0.0949
2.082,-0.138,0.9906,-0.1477,0.0043,-0.0957,-0.0671,-0.01,0.174,-0.1789
2.083,-0.1363,0.986,-0.1421,0.0043,-0.0957,-0.0671,-0.01,0.174,-0.1789
2.085,-0.13,0.9869,-0.1357,0.0043,-0.0957,-0.0671,-0.01,0.174,-0.1789
2.087,-0.1273,0.9833,-0.1272,0.0043,-0.0957,-0.0671,-0.01,0.174,-0.1789
2.091,-0.1273,0.9833,-0.1272,0.5517,0.0497,0.0229,-0.01,0.174,-0.1789
2.092,-0.1219,0.9823,-0.1218,0.5517,0.0497,0.0229,-0.01,0.174,-0.1789
2.092,-0.1195,0.9821,-0.1162,0.5517,0.0497,0.0229,-0.01,0.174,-0.1789
2.096,-0.1222,0.9864,-0.1162,0.5517,0.0497,0.0229,-0.01,0.174,-0.1789
2.096,-0.1248,0.9874,-0.1108,0.5517,0.0497,0.0229,-0.01,0.174,-0.1789
2.101,-0.1302,0.9921,-0.1067,0.5517,0.0497,0.0229,-0.01,0.174,-0.1789
2.101,-0.1336,0.9926,-0.1006,0.5517,0.0497,0.0229,-0.01,0.174,-0.1789
2.106,-0.1339,0.9894,-0.0937,0.5517,0.0497,0.0229,-0.01,0.174,-0.1789
2.107,-0.1351,0.9899,-0.0861,0.5517,0.0497,0.0229,-0.01,0.174,-0.1789
2.112,-0.1312,0.9874,-0.0857,0.5517,0.0497,0.0229,-0.01,0.174,-0.1789
2.112,-0.128,0.9884,-0.083,0.5517,0.0497,0.0229,-0.01,0.174,-0.1789
2.116,-0.1261,0.9916,-0.0857,0.5517,0.0497,0.0229,-0.01,0.174,-0.1789
2.117,-0.1226,0.9992,-0.0962,0.5517,0.0497,0.0229,-0.01,0.174,-0.1789
2.121,-0.1265,1.0087,-0.1052,0.5517,0.0497,0.0229,-0.01,0.174,-0.1789
2.121,-0.1314,1.016,-0.1103,0.5517,0.0497,0.0229,-0.01,0.174,-0.1789
2.125,-0.1368,1.0211,-0.105,0.5517,0.0497,0.0229,-0.01,0.174,-0.1789
2.126,-0.1358,1.0209,-0.0976,0.5517,0.0497,0.0229,-0.01,0.174,-0.1789
2.13,-0.1305,1.0165,-0.0869,0.5517,0.0497,0.0229,-0.01,0.174,-0.1789
2.13,-0.1197,1.0097,-0.0835,0.5517,0.0497,0.0229,-0.01,0.174,-0.1789
2.134,-0.1107,1.0018,-0.0818,0.5517,0.0497,0.0229,-0.01,0.174,-0.1789
2.135,-0.1046,0.997,-0.0837,0.5517,0.0497,0.0229,-0.01,0.174,-0.1789
2.14,-0.1094,0.9938,-0.0881,0.5517,0.0497,0.0229,-0.01,0.174,-0.1789
2.14,-0.1187,0.9948,-0.0976,0.5517,0.0497,0.0229,-0.01,0.174,-0.1789
2.145,-0.1414,1.0004,-0.1062,0.5517,0.0497,0.0229,-0.01,0.174,-0.1789
2.146,-0.1671,1.0097,-0.1091,0.5517,0.0497,0.0229,-0.01,0.174,-0.1789
2.149,-0.1671,1.0097,-0.1091,0.5517,0.0497,0.0229,-0.0608,0.0993,-0.1644
2.15,-0.1891,1.0131,-0.1054,0.5517,0.0497,0.0229,-0.0608,0.0993,-0.1644
2.15,-0.2035,1.0128,-0.1013,0.5517,0.0497,0.0229,-0.0608,0.0993,-0.1644
2.154,-0.2099,1.0101,-0.0984,0.5517,0.0497,0.0229,-0.0608,0.0993,-0.1644
2.155,-0.215,1.0062,-0.0923,0.5517,0.0497,0.0229,-0.0608,0.0993,-0.1644
2.16,-0.215,1.0062,-0.0923,0.3813,0.067,-0.1956,-0.0608,0.0993,-0.1644
2.161,-0.2182,1.0026,-0.0839,0.3813,0.067,-0.1956,-0.0608,0.0993,-0.1644
2.161,-0.2282,1.0001,-0.071,0.3813,0.067,-0.1956,-0.0608,0.0993,-0.1644
2.164,-0.2416,0.9952,-0.0576,0.3813,0.067,-0.1956,-0.0608,0.0993,-0.1644
2.165,-0.2531,0.9896,-0.0519,0.3813,0.067,-0.1956,-0.0608,0.0993,-0.1644
2.169,-0.2702,0.9867,-0.0534,0.3813,0.067,-0.1956,-0.0608,0.0993,-0.1644
2.169,-0.2841,0.9867,-0.0661,0.3813,0.067,-0.1956,-0.0608,0.0993,-0.1644
2.173,-0.2978,0.9886,-0.0835,0.3813,0.067,-0.1956,-0.0608,0.0993,-0.1644
2.174,-0.3083,0.9952,-0.1013,0.3813,0.067,-0.1956,-0.0608,0.0993,-0.1644
2.178,-0.3095,1.0023,-0.1113,0.3813,0.067,-0.1956,-0.0608,0.0993,-0.1644
2.179,-0.3083,1.0097,-0.1147,0.3813,0.067,-0.1956,-0.0608,0.0993,-0.1644
2.184,-0.2963,1.0106,-0.114,0.3813,0.067,-0.1956,-0.0608,0.0993,-0.1644
2.185,-0.2831,1.0048,-0.1052,0.3813,0.067,-0.1956,-0.0608,0.0993,-0.1644
2.188,-0.2668,0.9984,-0.0886,0.3813,0.067,-0.1956,-0.0608,0.0993,-0.1644
2.189,-0.245,0.9906,-0.0771,0.3813,0.067,-0.1956,-0.0608,0.0993,-0.1644
2.194,-0.2274,0.9794,-0.0756,0.3813,0.067,-0.1956,-0.0608,0.0993,-0.1644
2.194,-0.2116,0.9706,-0.0864,0.3813,0.067,-0.1956,-0.0608,0.0993,-0.1644
2.198,-0.1959,0.9654,-0.1032,0.3813,0.067,-0.1956,-0.0608,0.0993,-0.1644
2.199,-0.1783,0.9679,-0.1199,0.3813,0.067,-0.1956,-0.0608,0.0993,-0.1644
2.203,-0.1649,0.9718,-0.1362,0.3813,0.067,-0.1956,-0.0608,0.0993,-0.1644
2.204,-0.1537,0.9767,-0.1384,0.3813,0.067,-0.1956,-0.0608,0.0993,-0.1644
2.209,-0.1432,0.9808,-0.1343,0.3813,0.067,-0.1956,-0.0608,0.0993,-0.1644
2.209,-0.14,0.9828,-0.1282,0.3813,0.067,-0.1956,-0.0608,0.0993,-0.1644
2.213,-0.1334,0.9774,-0.1211,0.3813,0.067,-0.1956,-0.0608,0.0993,-0.1644
2.213,-0.1283,0.9752,-0.1125,0.3813,0.067,-0.1956,-0.0608,0.0993,-0.1644
2.218,-0.1283,0.9752,-0.1125,0.3813,0.067,-0.1956,-0.0791,-0.0445,-0.0619
2.218,-0.1241,0.9679,-0.1074,0.3813,0.067,-0.1956,-0.0791,-0.0445,-0.0619
2.219,-0.119,0.963,-0.104,0.3813,0.067,-0.1956,-0.0791,-0.0445,-0.0619
2.224,-0.1156,0.9608,-0.103,0.3813,0.067,-0.1956,-0.0791,-0.0445,-0.0619
2.224,-0.1148,0.9593,-0.1062,0.3813,0.067,-0.1956,-0.0791,-0.0445,-0.0619
2.228,-0.1148,0.9593,-0.1062,0.0235,0.1684,0.1374,-0.0791,-0.0445,-0.0619
2.228,-0.1185,0.9615,-0.1133,0.0235,0.1684,0.1374,-0.0791,-0.0445,-0.0619
2.228,-0.1241,0.9676,-0.1189,0.0235,0.1684,0.1374,-0.0791,-0.0445,-0.0619
2.232,-0.1336,0.973,-0.1245,0.0235,0.1684,0.1374,-0.0791,-0.0445,-0.0619
2.232,-0.1414,0.9803,-0.125,0.0235,0.1684,0.1374,-0.0791,-0.0445,-0.0619
2.237,-0.1458,0.9845,-0.1203,0.0235,0.1684,0.1374,-0.0791,-0.0445,-0.0619
2.237,-0.1434,0.9874,-0.115,0.0235,0.1684,0.1374,-0.0791,-0.0445,-0.0619
2.242,-0.1393,0.984,-0.112,0.0235,0.1684,0.1374,-0.0791,-0.0445,-0.0619
2.243,-0.1346,0.9806,-0.1128,0.0235,0.1684,0.1374,-0.0791,-0.0445,-0.0619
2.247,-0.13,0.9769,-0.1174,0.0235,0.1684,0.1374,-0.0791,-0.0445,-0.0619
2.25,-0.1292,0.9759,-0.1203,0.0235,0.1684,0.1374,-0.0791,-0.0445,-0.0619
2.251,-0.1309,0.9745,-0.1179,0.0235,0.1684,0.1374,-0.0791,-0.0445,-0.0619
2.252,-0.1334,0.9737,-0.1147,0.0235,0.1684,0.1374,-0.0791,-0.0445,-0.0619
2.257,-0.1322,0.9735,-0.1147,0.0235,0.1684,0.1374,-0.0791,-0.0445,-0.0619
2.258,-0.1317,0.972,-0.1128,0.0235,0.1684,0.1374,-0.0791,-0.0445,-0.0619
2.261,-0.1317,0.9728,-0.1079,0.0235,0.1684,0.1374,-0.0791,-0.0445,-0.0619
2.261,-0.1351,0.9708,-0.1059,0.0235,0.1684,0.1374,-0.0791,-0.0445,-0.0619
2.267,-0.1375,0.9693,-0.1042,0.0235,0.1684,0.1374,-0.0791,-0.0445,-0.0619
2.268,-0.1446,0.9684,-0.1067,0.0235,0.1684,0.1374,-0.0791,-0.0445,-0.0619
2.273,-0.152,0.9681,-0.1074,0.0235,0.1684,0.1374,-0.0791,-0.0445,-0.0619
2.273,-0.1632,0.9667,-0.1072,0.0235,0.1684,0.1374,-0.0791,-0.0445,-0.0619
2.276,-0.1715,0.9676,-0.1057,0.0235,0.1684,0.1374,-0.0791,-0.0445,-0.0619
2.277,-0.1854,0.9698,-0.1003,0.0235,0.1684,0.1374,-0.0791,-0.0445,-0.0619
2.281,-0.1984,0.9713,-0.0984,0.0235,0.1684,0.1374,-0.0791,-0.0445,-0.0619
2.282,-0.2123,0.9745,-0.0952,0.0235,0.1684,0.1374,-0.0791,-0.0445,-0.0619
2.286,-0.2235,0.9774,-0.0918,0.0235,0.1684,0.1374,-0.0791,-0.0445,-0.0619
2.287,-0.2235,0.9774,-0.0918,0.0235,0.1684,0.1374,-0.0606,-0.0281,-0.068
2.287,-0.2367,0.9759,-0.0871,0.0235,0.1684,0.1374,-0.0606,-0.0281,-0.068
2.291,-0.248,0.9784,-0.0847,0.0235,0.1684,0.1374,-0.0606,-0.0281,-0.068
2.292,-0.2555,0.9821,-0.0837,0.0235,0.1684,0.1374,-0.0606,-0.0281,-0.068
2.296,-0.2663,0.986,-0.0793,0.0235,0.1684,0.1374,-0.0606,-0.0281,-0.068
2.297,-0.2717,0.9918,-0.0754,0.0235,0.1684,0.1374,-0.0606,-0.0281,-0.068
2.297,-0.2717,0.9918,-0.0754,-0.5221,-0.0042,0.0637,-0.0606,-0.0281,-0.068
2.301,-0.279,0.9974,-0.073,-0.5221,-0.0042,0.0637,-0.0606,-0.0281,-0.068
2.302,-0.2814,1.0018,-0.0637,-0.5221,-0.0042,0.0637,-0.0606,-0.0281,-0.068
2.305,-0.2792,1.0038,-0.0598,-0.5221,-0.0042,0.0637,-0.0606,-0.0281,-0.068
2.306,-0.2695,1.0031,-0.0539,-0.5221,-0.0042,0.0637,-0.0606,-0.0281,-0.068
2.311,-0.259,1.0009,-0.0539,-0.5221,-0.0042,0.0637,-0.0606,-0.0281,-0.068
2.312,-0.2477,0.9962,-0.0559,-0.5221,-0.0042,0.0637,-0.0606,-0.0281,-0.068
2.316,-0.2377,0.9926,-0.0588,-0.5221,-0.0042,0.0637,-0.0606,-0.0281,-0.068
2.317,-0.225,0.9896,-0.0612,-0.5221,-0.0042,0.0637,-0.0606,-0.0281,-0.068
2.32,-0.215,0.9896,-0.061,-0.5221,-0.0042,0.0637,-0.0606,-0.0281,-0.068
2.321,-0.2052,0.9894,-0.0644,-0.5221,-0.0042,0.0637,-0.0606,-0.0281,-0.068
2.325,-0.1959,0.9862,-0.0717,-0.5221,-0.0042,0.0637,-0.0606,-0.0281,-0.068
2.326,-0.1879,0.986,-0.0783,-0.5221,-0.0042,0.0637,-0.0606,-0.0281,-0.068
2.33,-0.1783,0.9855,-0.0776,-0.5221,-0.0042,0.0637,-0.0606,-0.0281,-0.068
2.33,-0.1649,0.9796,-0.0749,-0.5221,-0.0042,0.0637,-0.0606,-0.0281,-0.068
2.335,-0.1556,0.9737,-0.0703,-0.5221,-0.0042,0.0637,-0.0606,-0.0281,-0.068
2.336,-0.1446,0.9698,-0.0661,-0.5221,-0.0042,0.0637,-0.0606,-0.0281,-0.068
2.34,-0.1331,0.9664,-0.0632,-0.5221,-0.0042,0.0637,-0.0606,-0.0281,-0.068
2.341,-0.1256,0.9625,-0.0671,-0.5221,-0.0042,0.0637,-0.0606,-0.0281,-0.068
2.345,-0.1224,0.9618,-0.0708,-0.5221,-0.0042,0.0637,-0.0606,-0.0281,-0.068
2.346,-0.119,0.964,-0.0734,-0.5221,-0.0042,0.0637,-0.0606,-0.0281,-0.068
2.349,-0.1182,0.9657,-0.0744,-0.5221,-0.0042,0.0637,-0.0606,-0.0281,-0.068
2.35,-0.1202,0.972,-0.0764,-0.5221,-0.0042,0.0637,-0.0606,-0.0281,-0.068
2.354,-0.1226,0.9762,-0.0774,-0.5221,-0.0042,0.0637,-0.0606,-0.0281,-0.068
2.354,-0.1226,0.9762,-0.0774,-0.5221,-0.0042,0.0637,-0.0341,-0.1506,-0.046
2.355,-0.1265,0.9791,-0.08,-0.5221,-0.0042,0.0637,-0.0341,-0.1506,-0.046
2.359,-0.1297,0.9821,-0.0813,-0.5221,-0.0042,0.0637,-0.0341,-0.1506,-0.046
2.36,-0.1353,0.9838,-0.0839,-0.5221,-0.0042,0.0637,-0.0341,-0.1506,-0.046
2.364,-0.1353,0.9838,-0.0839,-0.0411,-0.0687,-0.0385,-0.0341,-0.1506,-0.046
2.365,-0.1407,0.985,-0.0835,-0.0411,-0.0687,-0.0385,-0.0341,-0.1506,-0.046
2.366,-0.1458,0.985,-0.083,-0.0411,-0.0687,-0.0385,-0.0341,-0.1506,-0.046
2.369,-0.1463,0.9808,-0.0857,-0.0411,-0.0687,-0.0385,-0.0341,-0.1506,-0.046
2.369,-0.1454,0.9784,-0.0893,-0.0411,-0.0687,-0.0385,-0.0341,-0.1506,-0.046
2.373,-0.1436,0.9777,-0.0945,-0.0411,-0.0687,-0.0385,-0.0341,-0.1506,-0.046
2.374,-0.1446,0.9728,-0.1008,-0.0411,-0.0687,-0.0385,-0.0341,-0.1506,-0.046
2.379,-0.1502,0.9735,-0.1042,-0.0411,-0.0687,-0.0385,-0.0341,-0.1506,-0.046
2.379,-0.1549,0.9764,-0.1089,-0.0411,-0.0687,-0.0385,-0.0341,-0.1506,-0.046
2.384,-0.1678,0.9803,-0.1142,-0.0411,-0.0687,-0.0385,-0.0341,-0.1506,-0.046
2.385,-0.1781,0.985,-0.1182,-0.0411,-0.0687,-0.0385,-0.0341,-0.1506,-0.046
2.389,-0.1854,0.9879,-0.1157,-0.0411,-0.0687,-0.0385,-0.0341,-0.1506,-0.046
2.389,-0.1884,0.9891,-0.1094,-0.0411,-0.0687,-0.0385,-0.0341,-0.1506,-0.046
2.394,-0.1815,0.9855,-0.1013,-0.0411,-0.0687,-0.0385,-0.0341,-0.1506,-0.046
2.394,-0.1761,0.9838,-0.1006,-0.0411,-0.0687,-0.0385,-0.0341,-0.1506,-0.046
2.398,-0.1717,0.9838,-0.1062,-0.0411,-0.0687,-0.0385,-0.0341,-0.1506,-0.046
2.398,-0.1732,0.9852,-0.1142,-0.0411,-0.0687,-0.0385,-0.0341,-0.1506,-0.046
2.404,-0.1764,0.9877,-0.1196,-0.0411,-0.0687,-0.0385,-0.0341,-0.1506,-0.046
2.405,-0.1778,0.9906,-0.1152,-0.0411,-0.0687,-0.0385,-0.0341,-0.1506,-0.046
2.408,-0.1754,0.9913,-0.1047,-0.0411,-0.0687,-0.0385,-0.0341,-0.1506,-0.046
2.408,-0.1744,0.9913,-0.0913,-0.0411,-0.0687,-0.0385,-0.0341,-0.1506,-0.046
2.413,-0.1757,0.9935,-0.0905,-0.0411,-0.0687,-0.0385,-0.0341,-0.1506,-0.046
2.413,-0.1774,0.9982,-0.0905,-0.0411,-0.0687,-0.0385,-0.0341,-0.1506,-0.046
2.417,-0.1752,1.0011,-0.0954,-0.0411,-0.0687,-0.0385,-0.0341,-0.1506,-0.046
2.418,-0.1705,0.9996,-0.1013,-0.0411,-0.0687,-0.0385,-0.0341,-0.1506,-0.046
2.422,-0.1705,0.9996,-0.1013,-0.0411,-0.0687,-0.0385,-0.0066,-0.0217,-0.0335
2.423,-0.1649,0.9989,-0.1072,-0.0411,-0.0687,-0.0385,-0.0066,-0.0217,-0.0335
2.423,-0.1632,0.9943,-0.1062,-0.0411,-0.0687,-0.0385,-0.0066,-0.0217,-0.0335
2.428,-0.1676,0.9901,-0.1045,-0.0411,-0.0687,-0.0385,-0.0066,-0.0217,-0.0335
2.429,-0.1737,0.9879,-0.0979,-0.0411,-0.0687,-0.0385,-0.0066,-0.0217,-0.0335
2.432,-0.1827,0.9874,-0.0915,-0.0411,-0.0687,-0.0385,-0.0066,-0.0217,-0.0335
2.433,-0.192,0.9891,-0.0908,-0.0411,-0.0687,-0.0385,-0.0066,-0.0217,-0.0335
2.434,-0.192,0.9891,-0.0908,-0.2161,0.0149,0.309,-0.0066,-0.0217,-0.0335
2.438,-0.203,0.9923,-0.0866,-0.2161,0.0149,0.309,-0.0066,-0.0217,-0.0335
2.439,-0.2128,0.9891,-0.0844,-0.2161,0.0149,0.309,-0.0066,-0.0217,-0.0335
2.442,-0.2138,0.9918,-0.0842,-0.2161,0.0149,0.309,-0.0066,-0.0217,-0.0335
2.443,-0.2084,0.9874,-0.0839,-0.2161,0.0149,0.309,-0.0066,-0.0217,-0.0335
2.448,-0.1986,0.9899,-0.0881,-0.2161,0.0149,0.309,-0.0066,-0.0217,-0.0335
2.448,-0.1849,0.9923,-0.0957,-0.2161,0.0149,0.309,-0.0066,-0.0217,-0.0335
2.452,-0.1717,1.0004,-0.1045,-0.2161,0.0149,0.309,-0.0066,-0.0217,-0.0335
2.452,-0.1573,1.004,-0.1072,-0.2161,0.0149,0.309,-0.0066,-0.0217,-0.0335
2.457,-0.1458,1.0057,-0.1057,-0.2161,0.0149,0.309,-0.0066,-0.0217,-0.0335
2.457,-0.1366,1.0045,-0.0998,-0.2161,0.0149,0.309,-0.0066,-0.0217,-0.0335
2.463,-0.1305,0.9999,-0.0923,-0.2161,0.0149,0.309,-0.0066,-0.0217,-0.0335
2.463,-0.1319,0.9957,-0.0915,-0.2161,0.0149,0.309,-0.0066,-0.0217,-0.0335
2.468,-0.1307,0.9918,-0.0959,-0.2161,0.0149,0.309,-0.0066,-0.0217,-0.0335
2.468,-0.1327,0.9896,-0.1035,-0.2161,0.0149,0.309,-0.0066,-0.0217,-0.0335
2.472,-0.1324,0.9879,-0.1138,-0.2161,0.0149,0.309,-0.0066,-0.0217,-0.0335
2.472,-0.1253,0.983,-0.1213,-0.2161,0.0149,0.309,-0.0066,-0.0217,-0.0335
2.477,-0.1207,0.9857,-0.1311,-0.2161,0.0149,0.309,-0.0066,-0.0217,-0.0335
2.477,-0.117,0.9889,-0.134,-0.2161,0.0149,0.309,-0.0066,-0.0217,-0.0335
2.483,-0.1168,0.9867,-0.1304,-0.2161,0.0149,0.309,-0.0066,-0.0217,-0.0335
2.483,-0.1116,0.9889,-0.1252,-0.2161,0.0149,0.309,-0.0066,-0.0217,-0.0335
2.486,-0.1085,0.9896,-0.1274,-0.2161,0.0149,0.309,-0.0066,-0.0217,-0.0335
2.487,-0.1048,0.9894,-0.1331,-0.2161,0.0149,0.309,-0.0066,-0.0217,-0.0335
2.491,-0.1041,0.9891,-0.1377,-0.2161,0.0149,0.309,-0.0066,-0.0217,-0.0335
2.492,-0.1041,0.9891,-0.1377,-0.2161,0.0149,0.309,-0.0068,-0.1278,-0.0259
2.492,-0.1002,0.9884,-0.1416,-0.2161,0.0149,0.309,-0.0068,-0.1278,-0.0259
2.496,-0.0948,0.986,-0.1462,-0.2161,0.0149,0.309,-0.0068,-0.1278,-0.0259
2.496,-0.0897,0.9833,-0.1521,-0.2161,0.0149,0.309,-0.0068,-0.1278,-0.0259
2.501,-0.085,0.986,-0.1626,-0.2161,0.0149,0.309,-0.0068,-0.1278,-0.0259
2.501,-0.085,0.986,-0.1626,-0.0168,0.0517,-0.0311,-0.0068,-0.1278,-0.0259
2.502,-0.0867,0.9896,-0.1619,-0.0168,0.0517,-0.0311,-0.0068,-0.1278,-0.0259
2.505,-0.0901,0.995,-0.1565,-0.0168,0.0517,-0.0311,-0.0068,-0.1278,-0.0259
2.506,-0.0977,0.9987,-0.1406,-0.0168,0.0517,-0.0311,-0.0068,-0.1278,-0.0259
2.511,-0.105,1.0028,-0.1306,-0.0168,0.0517,-0.0311,-0.0068,-0.1278,-0.0259
2.511,-0.1077,1.0057,-0.1223,-0.0168,0.0517,-0.0311,-0.0068,-0.1278,-0.0259
2.516,-0.1082,1.0092,-0.1223,-0.0168,0.0517,-0.0311,-0.0068,-0.1278,-0.0259
2.517,-0.1097,1.0104,-0.1208,-0.0168,0.0517,-0.0311,-0.0068,-0.1278,-0.0259
2.52,-0.1107,1.0097,-0.1184,-0.0168,0.0517,-0.0311,-0.0068,-0.1278,-0.0259
2.521,-0.1087,1.0131,-0.112,-0.0168,0.0517,-0.0311,-0.0068,-0.1278,-0.0259
2.525,-0.1063,1.0163,-0.1084,-0.0168,0.0517,-0.0311,-0.0068,-0.1278,-0.0259
2.526,-0.1009,1.0158,-0.105,-0.0168,0.0517,-0.0311,-0.0068,-0.1278,-0.0259
2.53,-0.0931,1.0211,-0.103,-0.0168,0.0517,-0.0311,-0.0068,-0.1278,-0.0259
2.531,-0.0916,1.0248,-0.1011,-0.0168,0.0517,-0.0311,-0.0068,-0.1278,-0.0259
2.535,-0.0941,1.0299,-0.0989,-0.0168,0.0517,-0.0311,-0.0068,-0.1278,-0.0259
2.536,-0.0931,1.0316,-0.0971,-0.0168,0.0517,-0.0311,-0.0068,-0.1278,-0.0259
2.54,-0.0916,1.0336,-0.1025,-0.0168,0.0517,-0.0311,-0.0068,-0.1278,-0.0259
2.54,-0.0879,1.0334,-0.1098,-0.0168,0.0517,-0.0311,-0.0068,-0.1278,-0.0259
2.545,-0.0828,1.0353,-0.1182,-0.0168,0.0517,-0.0311,-0.0068,-0.1278,-0.0259
2.545,-0.0738,1.0353,-0.116,-0.0168,0.0517,-0.0311,-0.0068,-0.1278,-0.0259
2.552,-0.064,1.0348,-0.1128,-0.0168,0.0517,-0.0311,-0.0068,-0.1278,-0.0259
2.552,-0.0559,1.0297,-0.1169,-0.0168,0.0517,-0.0311,-0.0068,-0.1278,-0.0259
2.555,-0.0523,1.0263,-0.1169,-0.0168,0.0517,-0.0311,-0.0068,-0.1278,-0.0259
2.555,-0.0464,1.0211,-0.1216,-0.0168,0.0517,-0.0311,-0.0068,-0.1278,-0.0259
2.562,-0.0398,1.017,-0.1265,-0.0168,0.0517,-0.0311,-0.0068,-0.1278,-0.0259
2.563,-0.0398,1.017,-0.1265,-0.0168,0.0517,-0.0311,-0.0581,-0.1683,-0.1038
2.563,-0.0359,1.0126,-0.1318,-0.0168,0.0517,-0.0311,-0.0581,-0.1683,-0.1038
2.564,-0.0396,1.0067,-0.1345,-0.0168,0.0517,-0.0311,-0.0581,-0.1683,-0.1038
2.565,-0.0462,1.0031,-0.1316,-0.0168,0.0517,-0.0311,-0.0581,-0.1683,-0.1038
2.569,-0.0462,1.0031,-0.1316,0.3226,0.0997,-0.1961,-0.0581,-0.1683,-0.1038
2.57,-0.0603,1.0031,-0.1238,0.3226,0.0997,-0.1961,-0.0581,-0.1683,-0.1038
2.57,-0.0801,1.0006,-0.1155,0.3226,0.0997,-0.1961,-0.0581,-0.1683,-0.1038
2.574,-0.1031,0.997,-0.1096,0.3226,0.0997,-0.1961,-0.0581,-0.1683,-0.1038
2.575,-0.1248,1.0004,-0.1074,0.3226,0.0997,-0.1961,-0.0581,-0.1683,-0.1038
2.579,-0.148,1.0065,-0.1091,0.3226,0.0997,-0.1961,-0.0581,-0.1683,-0.1038
2.58,-0.1693,1.0109,-0.1103,0.3226,0.0997,-0.1961,-0.0581,-0.1683,-0.1038
2.584,-0.1871,1.0233,-0.1081,0.3226,0.0997,-0.1961,-0.0581,-0.1683,-0.1038
2.585,-0.2013,1.0314,-0.1035,0.3226,0.0997,-0.1961,-0.0581,-0.1683,-0.1038
2.588,-0.2128,1.0356,-0.0949,0.3226,0.0997,-0.1961,-0.0581,-0.1683,-0.1038
2.589,-0.224,1.0368,-0.0893,0.3226,0.0997,-0.1961,-0.0581,-0.1683,-0.1038
2.593,-0.234,1.0404,-0.0925,0.3226,0.0997,-0.1961,-0.0581,-0.1683,-0.1038
2.595,-0.2375,1.0409,-0.1003,0.3226,0.0997,-0.1961,-0.0581,-0.1683,-0.1038
2.599,-0.2318,1.039,-0.1059,0.3226,0.0997,-0.1961,-0.0581,-0.1683,-0.1038
2.599,-0.2206,1.0302,-0.113,0.3226,0.0997,-0.1961,-0.0581,-0.1683,-0.1038
2.603,-0.2099,1.0236,-0.1279,0.3226,0.0997,-0.1961,-0.0581,-0.1683,-0.1038
2.603,-0.1954,1.0172,-0.144,0.3226,0.0997,-0.1961,-0.0581,-0.1683,-0.1038
2.608,-0.182,1.0136,-0.1631,0.3226,0.0997,-0.1961,-0.0581,-0.1683,-0.1038
2.609,-0.1713,1.0087,-0.1712,0.3226,0.0997,-0.1961,-0.0581,-0.1683,-0.1038
2.614,-0.1615,1.0021,-0.1668,0.3226,0.0997,-0.1961,-0.0581,-0.1683,-0.1038
2.614,-0.1564,0.9992,-0.1511,0.3226,0.0997,-0.1961,-0.0581,-0.1683,-0.1038
2.618,-0.1542,0.9933,-0.144,0.3226,0.0997,-0.1961,-0.0581,-0.1683,-0.1038
2.619,-0.1603,0.9911,-0.1455,0.3226,0.0997,-0.1961,-0.0581,-0.1683,-0.1038
2.624,-0.1681,0.9928,-0.1538,0.3226,0.0997,-0.1961,-0.0581,-0.1683,-0.1038
2.625,-0.1759,0.9952,-0.1604,0.3226,0.0997,-0.1961,-0.0581,-0.1683,-0.1038
2.63,-0.1857,0.9989,-0.1589,0.3226,0.0997,-0.1961,-0.0581,-0.1683,-0.1038
2.631,-0.1857,0.9989,-0.1589,0.3226,0.0997,-0.1961,-0.1313,-0.2298,-0.2118
2.631,-0.1942,0.9996,-0.1521,0.3226,0.0997,-0.1961,-0.1313,-0.2298,-0.2118
2.633,-0.1964,1.0011,-0.147,0.3226,0.0997,-0.1961,-0.1313,-0.2298,-0.2118
2.633,-0.2011,1.0028,-0.1453,0.3226,0.0997,-0.1961,-0.1313,-0.2298,-0.2118
2.639,-0.2072,1.0065,-0.1462,0.3226,0.0997,-0.1961,-0.1313,-0.2298,-0.2118
2.64,-0.2072,1.0065,-0.1462,1.0405,0.3567,-0.3731,-0.1313,-0.2298,-0.2118
2.64,-0.2103,1.0072,-0.1421,1.0405,0.3567,-0.3731,-0.1313,-0.2298,-0.2118
2.643,-0.2135,1.0082,-0.1316,1.0405,0.3567,-0.3731,-0.1313,-0.2298,-0.2118
2.643,-0.2184,1.0053,-0.1221,1.0405,0.3567,-0.3731,-0.1313,-0.2298,-0.2118
2.647,-0.2235,0.9977,-0.1174,1.0405,0.3567,-0.3731,-0.1313,-0.2298,-0.2118
2.647,-0.2304,0.9906,-0.1167,1.0405,0.3567,-0.3731,-0.1313,-0.2298,-0.2118
2.652,-0.2379,0.984,-0.1142,1.0405,0.3567,-0.3731,-0.1313,-0.2298,-0.2118
2.653,-0.245,0.9779,-0.1103,1.0405,0.3567,-0.3731,-0.1313,-0.2298,-0.2118
2.657,-0.2492,0.9735,-0.1047,1.0405,0.3567,-0.3731,-0.1313,-0.2298,-0.2118
2.658,-0.2526,0.9703,-0.0947,1.0405,0.3567,-0.3731,-0.1313,-0.2298,-0.2118
2.663,-0.2568,0.9664,-0.0803,1.0405,0.3567,-0.3731,-0.1313,-0.2298,-0.2118
2.664,-0.2577,0.965,-0.0698,1.0405,0.3567,-0.3731,-0.1313,-0.2298,-0.2118
2.667,-0.2626,0.961,-0.0629,1.0405,0.3567,-0.3731,-0.1313,-0.2298,-0.2118
2.668,-0.2695,0.9603,-0.0634,1.0405,0.3567,-0.3731,-0.1313,-0.2298,-0.2118
2.673,-0.2761,0.9613,-0.069,1.0405,0.3567,-0.3731,-0.1313,-0.2298,-0.2118
2.673,-0.2824,0.9576,-0.0725,1.0405,0.3567,-0.3731,-0.1313,-0.2298,-0.2118
2.678,-0.2797,0.9588,-0.0695,1.0405,0.3567,-0.3731,-0.1313,-0.2298,-0.2118
2.679,-0.279,0.9588,-0.0703,1.0405,0.3567,-0.3731,-0.1313,-0.2298,-0.2118
2.682,-0.2761,0.961,-0.0739,1.0405,0.3567,-0.3731,-0.1313,-0.2298,-0.2118
2.683,-0.2751,0.9681,-0.0722,1.0405,0.3567,-0.3731,-0.1313,-0.2298,-0.2118
2.686,-0.2756,0.974,-0.0656,1.0405,0.3567,-0.3731,-0.1313,-0.2298,-0.2118
2.687,-0.2797,0.9784,-0.0651,1.0405,0.3567,-0.3731,-0.1313,-0.2298,-0.2118
2.691,-0.2846,0.9835,-0.071,1.0405,0.3567,-0.3731,-0.1313,-0.2298,-0.2118
2.692,-0.2895,0.9879,-0.0756,1.0405,0.3567,-0.3731,-0.1313,-0.2298,-0.2118
2.696,-0.2985,0.9938,-0.0715,1.0405,0.3567,-0.3731,-0.1313,-0.2298,-0.2118
2.697,-0.2985,0.9938,-0.0715,1.0405,0.3567,-0.3731,-0.2058,-0.3153,-0.2227
2.698,-0.3122,1.0006,-0.0752,1.0405,0.3567,-0.3731,-0.2058,-0.3153,-0.2227
2.702,-0.3217,1.0053,-0.0764,1.0405,0.3567,-0.3731,-0.2058,-0.3153,-0.2227
2.703,-0.3278,1.0092,-0.0627,1.0405,0.3567,-0.3731,-0.2058,-0.3153,-0.2227
2.706,-0.3242,1.0077,-0.0522,1.0405,0.3567,-0.3731,-0.2058,-0.3153,-0.2227
2.707,-0.3242,1.0077,-0.0522,0.1871,0.2932,-0.5765,-0.2058,-0.3153,-0.2227
2.708,-0.3191,1.005,-0.0561,0.1871,0.2932,-0.5765,-0.2058,-0.3153,-0.2227
2.711,-0.3105,1.0045,-0.062,0.1871,0.2932,-0.5765,-0.2058,-0.3153,-0.2227
2.712,-0.3,1.0053,-0.0588,0.1871,0.2932,-0.5765,-0.2058,-0.3153,-0.2227
2.717,-0.2917,1.0067,-0.0429,0.1871,0.2932,-0.5765,-0.2058,-0.3153,-0.2227
2.717,-0.2849,1.0057,-0.0319,0.1871,0.2932,-0.5765,-0.2058,-0.3153,-0.2227
2.72,-0.2802,1.006,-0.0287,0.1871,0.2932,-0.5765,-0.2058,-0.3153,-0.2227
2.721,-0.2724,1.0101,-0.0273,0.1871,0.2932,-0.5765,-0.2058,-0.3153,-0.2227
2.725,-0.2587,1.0136,-0.0148,0.1871,0.2932,-0.5765,-0.2058,-0.3153,-0.2227
2.726,-0.2448,1.0097,-0.0058,0.1871,0.2932,-0.5765,-0.2058,-0.3153,-0.2227
2.73,-0.2248,1.0053,-0.0021,0.1871,0.2932,-0.5765,-0.2058,-0.3153,-0.2227
2.731,-0.2035,1.0004,-0.0143,0.1871,0.2932,-0.5765,-0.2058,-0.3153,-0.2227
2.737,-0.1906,1.005,-0.03,0.1871,0.2932,-0.5765,-0.2058,-0.3153,-0.2227
2.737,-0.1849,1.0082,-0.0432,0.1871,0.2932,-0.5765,-0.2058,-0.3153,-0.2227
2.74,-0.1842,1.0099,-0.0444,0.1871,0.2932,-0.5765,-0.2058,-0.3153,-0.2227
2.741,-0.1837,1.0087,-0.0392,0.1871,0.2932,-0.5765,-0.2058,-0.3153,-0.2227
2.745,-0.1837,1.0057,-0.0344,0.1871,0.2932,-0.5765,-0.2058,-0.3153,-0.2227
2.746,-0.1947,1.0001,-0.0297,0.1871,0.2932,-0.5765,-0.2058,-0.3153,-0.2227
2.75,-0.2069,0.995,-0.0344,0.1871,0.2932,-0.5765,-0.2058,-0.3153,-0.2227
2.751,-0.2211,0.9857,-0.0449,0.1871,0.2932,-0.5765,-0.2058,-0.3153,-0.2227
2.755,-0.2301,0.9838,-0.0571,0.1871,0.2932,-0.5765,-0.2058,-0.3153,-0.2227
2.756,-0.2331,0.9808,-0.0752,0.1871,0.2932,-0.5765,-0.2058,-0.3153,-0.2227
2.759,-0.235,0.9828,-0.0876,0.1871,0.2932,-0.5765,-0.2058,-0.3153,-0.2227
2.76,-0.2409,0.9847,-0.0952,0.1871,0.2932,-0.5765,-0.2058,-0.3153,-0.2227
2.765,-0.2463,0.9874,-0.0945,0.1871,0.2932,-0.5765,-0.2058,-0.3153,-0.2227
2.765,-0.2463,0.9874,-0.0945,0.1871,0.2932,-0.5765,-0.2134,-0.2547,-0.1072
2.766,-0.2516,0.9869,-0.1023,0.1871,0.2932,-0.5765,-0.2134,-0.2547,-0.1072
2.77,-0.2612,0.9864,-0.1133,0.1871,0.2932,-0.5765,-0.2134,-0.2547,-0.1072
2.772,-0.2636,0.9896,-0.1257,0.1871,0.2932,-0.5765,-0.2134,-0.2547,-0.1072
2.775,-0.2656,0.9965,-0.1345,0.1871,0.2932,-0.5765,-0.2134,-0.2547,-0.1072
2.775,-0.2656,0.9965,-0.1345,-0.5678,-0.0048,-0.3025,-0.2134,-0.2547,-0.1072
2.776,-0.2616,0.995,-0.1394,-0.5678,-0.0048,-0.3025,-0.2134,-0.2547,-0.1072
2.779,-0.2482,0.9962,-0.146,-0.5678,-0.0048,-0.3025,-0.2134,-0.2547,-0.1072
2.78,-0.2289,1.0001,-0.1536,-0.5678,-0.0048,-0.3025,-0.2134,-0.2547,-0.1072
2.784,-0.2155,1.0092,-0.1736,-0.5678,-0.0048,-0.3025,-0.2134,-0.2547,-0.1072
2.784,-0.2025,1.017,-0.1958,-0.5678,-0.0048,-0.3025,-0.2134,-0.2547,-0.1072
2.79,-0.1852,1.0216,-0.2105,-0.5678,-0.0048,-0.3025,-0.2134,-0.2547,-0.1072
2.791,-0.1649,1.0241,-0.2037,-0.5678,-0.0048,-0.3025,-0.2134,-0.2547,-0.1072
2.794,-0.1388,1.0224,-0.1983,-0.5678,-0.0048,-0.3025,-0.2134,-0.2547,-0.1072
2.795,-0.1097,1.0233,-0.2095,-0.5678,-0.0048,-0.3025,-0.2134,-0.2547,-0.1072
2.799,-0.0818,1.036,-0.2247,-0.5678,-0.0048,-0.3025,-0.2134,-0.2547,-0.1072
2.799,-0.0618,1.0461,-0.2254,-0.5678,-0.0048,-0.3025,-0.2134,-0.2547,-0.1072
2.804,-0.0406,1.0563,-0.2183,-0.5678,-0.0048,-0.3025,-0.2134,-0.2547,-0.1072
2.804,-0.0208,1.0656,-0.2186,-0.5678,-0.0048,-0.3025,-0.2134,-0.2547,-0.1072
2.808,-0.0034,1.0788,-0.2142,-0.5678,-0.0048,-0.3025,-0.2134,-0.2547,-0.1072
2.809,0.0015,1.1003,-0.1885,-0.5678,-0.0048,-0.3025,-0.2134,-0.2547,-0.1072
2.814,-0.0095,1.0998,-0.1553,-0.5678,-0.0048,-0.3025,-0.2134,-0.2547,-0.1072
2.815,-0.0242,1.0815,-0.1526,-0.5678,-0.0048,-0.3025,-0.2134,-0.2547,-0.1072
2.818,-0.0327,1.0619,-0.1541,-0.5678,-0.0048,-0.3025,-0.2134,-0.2547,-0.1072
2.819,-0.0283,1.0605,-0.1509,-0.5678,-0.0048,-0.3025,-0.2134,-0.2547,-0.1072
2.824,-0.0173,1.0671,-0.1499,-0.5678,-0.0048,-0.3025,-0.2134,-0.2547,-0.1072
2.824,-0.0176,1.0771,-0.1585,-0.5678,-0.0048,-0.3025,-0.2134,-0.2547,-0.1072
2.828,-0.0344,1.0876,-0.169,-0.5678,-0.0048,-0.3025,-0.2134,-0.2547,-0.1072
2.829,-0.0567,1.1064,-0.1663,-0.5678,-0.0048,-0.3025,-0.2134,-0.2547,-0.1072
2.834,-0.0777,1.1257,-0.1448,-0.5678,-0.0048,-0.3025,-0.2134,-0.2547,-0.1072
2.835,-0.0777,1.1257,-0.1448,-0.5678,-0.0048,-0.3025,-0.3297,-0.0601,-0.1279
2.835,-0.0948,1.1389,-0.1052,-0.5678,-0.0048,-0.3025,-0.3297,-0.0601,-0.1279
2.839,-0.1055,1.1355,-0.0756,-0.5678,-0.0048,-0.3025,-0.3297,-0.0601,-0.1279
2.84,-0.1163,1.1233,-0.0654,-0.5678,-0.0048,-0.3025,-0.3297,-0.0601,-0.1279
2.843,-0.1239,1.1137,-0.0805,-0.5678,-0.0048,-0.3025,-0.3297,-0.0601,-0.1279
2.843,-0.1212,1.1103,-0.1035,-0.5678,-0.0048,-0.3025,-0.3297,-0.0601,-0.1279
2.844,-0.1212,1.1103,-0.1035,-0.205,0.1759,-0.2323,-0.3297,-0.0601,-0.1279
2.848,-0.1075,1.1191,-0.1133,-0.205,0.1759,-0.2323,-0.3297,-0.0601,-0.1279
2.848,-0.0845,1.1328,-0.0996,-0.205,0.1759,-0.2323,-0.3297,-0.0601,-0.1279
2.852,-0.053,1.146,-0.0825,-0.205,0.1759,-0.2323,-0.3297,-0.0601,-0.1279
2.853,-0.0181,1.1621,-0.0835,-0.205,0.1759,-0.2323,-0.3297,-0.0601,-0.1279
2.859,0.012,1.1753,-0.0989,-0.205,0.1759,-0.2323,-0.3297,-0.0601,-0.1279
2.86,0.041,1.1821,-0.1103,-0.205,0.1759,-0.2323,-0.3297,-0.0601,-0.1279
2.864,0.066,1.1856,-0.1084,-0.205,0.1759,-0.2323,-0.3297,-0.0601,-0.1279
2.864,0.0804,1.1885,-0.1032,-0.205,0.1759,-0.2323,-0.3297,-0.0601,-0.1279
2.867,0.0826,1.1904,-0.1006,-0.205,0.1759,-0.2323,-0.3297,-0.0601,-0.1279
2.868,0.0755,1.1961,-0.1015,-0.205,0.1759,-0.2323,-0.3297,-0.0601,-0.1279
2.873,0.0655,1.2061,-0.1008,-0.205,0.1759,-0.2323,-0.3297,-0.0601,-0.1279
2.874,0.0535,1.2178,-0.1001,-0.205,0.1759,-0.2323,-0.3297,-0.0601,-0.1279
2.877,0.0423,1.2237,-0.0898,-0.205,0.1759,-0.2323,-0.3297,-0.0601,-0.1279
2.878,0.0403,1.2224,-0.0778,-0.205,0.1759,-0.2323,-0.3297,-0.0601,-0.1279
2.882,0.0454,1.2141,-0.0761,-0.205,0.1759,-0.2323,-0.3297,-0.0601,-0.1279
2.884,0.0432,1.2112,-0.0774,-0.205,0.1759,-0.2323,-0.3297,-0.0601,-0.1279
2.887,0.0156,1.2151,-0.0588,-0.205,0.1759,-0.2323,-0.3297,-0.0601,-0.1279
2.887,-0.0293,1.2161,-0.0307,-0.205,0.1759,-0.2323,-0.3297,-0.0601,-0.1279
2.892,-0.0699,1.2134,-0.0429,-0.205,0.1759,-0.2323,-0.3297,-0.0601,-0.1279
2.893,-0.0941,1.2149,-0.0774,-0.205,0.1759,-0.2323,-0.3297,-0.0601,-0.1279
2.897,-0.1082,1.2168,-0.083,-0.205,0.1759,-0.2323,-0.3297,-0.0601,-0.1279
2.898,-0.1019,1.2227,-0.0532,-0.205,0.1759,-0.2323,-0.3297,-0.0601,-0.1279
2.901,-0.0858,1.22,-0.0292,-0.205,0.1759,-0.2323,-0.3297,-0.0601,-0.1279
2.902,-0.0858,1.22,-0.0292,-0.205,0.1759,-0.2323,-0.4544,0.0796,-0.3538
2.903,-0.0718,1.2224,-0.0556,-0.205,0.1759,-0.2323,-0.4544,0.0796,-0.3538
2.907,-0.065,1.2322,-0.1032,-0.205,0.1759,-0.2323,-0.4544,0.0796,-0.3538
2.908,-0.0599,1.2515,-0.1108,-0.205,0.1759,-0.2323,-0.4544,0.0796,-0.3538
2.913,-0.0599,1.2515,-0.1108,1.4283,0.8392,-1.5783,-0.4544,0.0796,-0.3538
2.914,-0.0567,1.2779,-0.0866,1.4283,0.8392,-1.5783,-0.4544,0.0796,-0.3538
2.914,-0.055,1.3021,-0.0727,1.4283,0.8392,-1.5783,-0.4544,0.0796,-0.3538
2.917,-0.0611,1.325,-0.0715,1.4283,0.8392,-1.5783,-0.4544,0.0796,-0.3538
2.918,-0.0684,1.3426,-0.0712,1.4283,0.8392,-1.5783,-0.4544,0.0796,-0.3538
2.922,-0.0723,1.3492,-0.0759,1.4283,0.8392,-1.5783,-0.4544,0.0796,-0.3538
2.922,-0.0777,1.3563,-0.0908,1.4283,0.8392,-1.5783,-0.4544,0.0796,-0.3538
2.926,-0.0757,1.3561,-0.0905,1.4283,0.8392,-1.5783,-0.4544,0.0796,-0.3538
2.928,-0.064,1.3507,-0.0798,1.4283,0.8392,-1.5783,-0.4544,0.0796,-0.3538
2.931,-0.0484,1.347,-0.0632,1.4283,0.8392,-1.5783,-0.4544,0.0796,-0.3538
2.932,-0.0291,1.3483,-0.0615,1.4283,0.8392,-1.5783,-0.4544,0.0796,-0.3538
2.936,-0.0166,1.3553,-0.0639,1.4283,0.8392,-1.5783,-0.4544,0.0796,-0.3538
2.936,-0.0093,1.3661,-0.0632,1.4283,0.8392,-1.5783,-0.4544,0.0796,-0.3538
2.941,-0.0042,1.3785,-0.0497,1.4283,0.8392,-1.5783,-0.4544,0.0796,-0.3538
2.941,-0.0029,1.3903,-0.0375,1.4283,0.8392,-1.5783,-0.4544,0.0796,-0.3538
2.946,-0.0024,1.4005,-0.0285,1.4283,0.8392,-1.5783,-0.4544,0.0796,-0.3538
2.947,0,1.4083,-0.0199,1.4283,0.8392,-1.5783,-0.4544,0.0796,-0.3538
2.953,0.0093,1.4135,-0.0075,1.4283,0.8392,-1.5783,-0.4544,0.0796,-0.3538
2.953,0.0205,1.4169,0.0111,1.4283,0.8392,-1.5783,-0.4544,0.0796,-0.3538
2.955,0.0396,1.4179,0.0177,1.4283,0.8392,-1.5783,-0.4544,0.0796,-0.3538
2.956,0.052,1.4215,0.0218,1.4283,0.8392,-1.5783,-0.4544,0.0796,-0.3538
2.96,0.0669,1.4252,0.0284,1.4283,0.8392,-1.5783,-0.4544,0.0796,-0.3538
2.96,0.0794,1.4284,0.046,1.4283,0.8392,-1.5783,-0.4544,0.0796,-0.3538
2.965,0.0948,1.4286,0.0641,1.4283,0.8392,-1.5783,-0.4544,0.0796,-0.3538
2.966,0.1021,1.4303,0.0851,1.4283,0.8392,-1.5783,-0.4544,0.0796,-0.3538
2.971,0.105,1.433,0.1183,1.4283,0.8392,-1.5783,-0.4544,0.0796,-0.3538
2.972,0.105,1.433,0.1183,1.4283,0.8392,-1.5783,-0.5641,0.0161,-0.6283
2.973,0.1055,1.4372,0.1428,1.4283,0.8392,-1.5783,-0.5641,0.0161,-0.6283
2.975,0.0955,1.445,0.1569,1.4283,0.8392,-1.5783,-0.5641,0.0161,-0.6283
2.976,0.0835,1.4482,0.1547,1.4283,0.8392,-1.5783,-0.5641,0.0161,-0.6283
2.979,0.0835,1.4482,0.1547,2.583,2.2436,-1.122,-0.5641,0.0161,-0.6283
2.98,0.066,1.4452,0.1413,2.583,2.2436,-1.122,-0.5641,0.0161,-0.6283
2.981,0.0577,1.4421,0.1318,2.583,2.2436,-1.122,-0.5641,0.0161,-0.6283
2.984,0.052,1.4352,0.1296,2.583,2.2436,-1.122,-0.5641,0.0161,-0.6283
2.985,0.053,1.4301,0.1293,2.583,2.2436,-1.122,-0.5641,0.0161,-0.6283
2.99,0.0533,1.4262,0.1293,2.583,2.2436,-1.122,-0.5641,0.0161,-0.6283
2.991,0.0513,1.4242,0.123,2.583,2.2436,-1.122,-0.5641,0.0161,-0.6283
2.996,0.0489,1.4286,0.1142,2.583,2.2436,-1.122,-0.5641,0.0161,-0.6283
2.996,0.0486,1.435,0.1054,2.583,2.2436,-1.122,-0.5641,0.0161,-0.6283
2.999,0.0523,1.4401,0.0985,2.583,2.2436,-1.122,-0.5641,0.0161,-0.6283
3,0.0623,1.444,0.0922,2.583,2.2436,-1.122,-0.5641,0.0161,-0.6283
3.005,0.0816,1.4445,0.0849,2.583,2.2436,-1.122,-0.5641,0.0161,-0.6283
3.007,0.1031,1.4413,0.0814,2.583,2.2436,-1.122,-0.5641,0.0161,-0.6283
3.009,0.1327,1.4367,0.0773,2.583,2.2436,-1.122,-0.5641,0.0161,-0.6283
3.01,0.1627,1.4313,0.0646,2.583,2.2436,-1.122,-0.5641,0.0161,-0.6283
3.014,0.1947,1.4272,0.0477,2.583,2.2436,-1.122,-0.5641,0.0161,-0.6283
3.015,0.2216,1.424,0.0309,2.583,2.2436,-1.122,-0.5641,0.0161,-0.6283
3.019,0.2397,1.425,0.0138,2.583,2.2436,-1.122,-0.5641,0.0161,-0.6283
3.02,0.246,1.4291,-0.006,2.583,2.2436,-1.122,-0.5641,0.0161,-0.6283
3.024,0.2426,1.4338,-0.0207,2.583,2.2436,-1.122,-0.5641,0.0161,-0.6283
3.024,0.234,1.4416,-0.0351,2.583,2.2436,-1.122,-0.5641,0.0161,-0.6283
3.029,0.2208,1.4501,-0.0534,2.583,2.2436,-1.122,-0.5641,0.0161,-0.6283
3.03,0.2074,1.4538,-0.0734,2.583,2.2436,-1.122,-0.5641,0.0161,-0.6283
3.034,0.1932,1.4589,-0.0903,2.583,2.2436,-1.122,-0.5641,0.0161,-0.6283
3.035,0.1844,1.4655,-0.1113,2.583,2.2436,-1.122,-0.5641,0.0161,-0.6283
3.041,0.172,1.4675,-0.1309,2.583,2.2436,-1.122,-0.5641,0.0161,-0.6283
3.042,0.172,1.4675,-0.1309,2.583,2.2436,-1.122,-0.3483,-0.9124,-1.0549
3.042,0.1559,1.4662,-0.1448,2.583,2.2436,-1.122,-0.3483,-0.9124,-1.0549
3.043,0.1392,1.4638,-0.1506,2.583,2.2436,-1.122,-0.3483,-0.9124,-1.0549
3.044,0.1165,1.454,-0.1524,2.583,2.2436,-1.122,-0.3483,-0.9124,-1.0549
3.047,0.0887,1.4421,-0.1494,2.583,2.2436,-1.122,-0.3483,-0.9124,-1.0549
3.048,0.0887,1.4421,-0.1494,3.4554,4.2684,-0.6671,-0.3483,-0.9124,-1.0549
3.049,0.0567,1.4272,-0.1375,3.4554,4.2684,-0.6671,-0.3483,-0.9124,-1.0549
3.053,0.0242,1.4088,-0.1184,3.4554,4.2684,-0.6671,-0.3483,-0.9124,-1.0549
3.053,-0.0154,1.3871,-0.1006,3.4554,4.2684,-0.6671,-0.3483,-0.9124,-1.0549
3.058,-0.0596,1.3654,-0.0759,3.4554,4.2684,-0.6671,-0.3483,-0.9124,-1.0549
3.058,-0.1055,1.3443,-0.0412,3.4554,4.2684,-0.6671,-0.3483,-0.9124,-1.0549
3.064,-0.1603,1.3268,-0.0033,3.4554,4.2684,-0.6671,-0.3483,-0.9124,-1.0549
3.064,-0.2245,1.315,0.0253,3.4554,4.2684,-0.6671,-0.3483,-0.9124,-1.0549
3.068,-0.2929,1.3101,0.0436,3.4554,4.2684,-0.6671,-0.3483,-0.9124,-1.0549
3.069,-0.3704,1.3089,0.0531,3.4554,4.2684,-0.6671,-0.3483,-0.9124,-1.0549
3.074,-0.4534,1.3177,0.0663,3.4554,4.2684,-0.6671,-0.3483,-0.9124,-1.0549
3.075,-0.5294,1.3351,0.0858,3.4554,4.2684,-0.6671,-0.3483,-0.9124,-1.0549
3.077,-0.6061,1.3566,0.1049,3.4554,4.2684,-0.6671,-0.3483,-0.9124,-1.0549
3.078,-0.6765,1.3832,0.1203,3.4554,4.2684,-0.6671,-0.3483,-0.9124,-1.0549
3.082,-0.7485,1.4057,0.1217,3.4554,4.2684,-0.6671,-0.3483,-0.9124,-1.0549
3.084,-0.8174,1.4259,0.1122,3.4554,4.2684,-0.6671,-0.3483,-0.9124,-1.0549
3.087,-0.8795,1.4396,0.1022,3.4554,4.2684,-0.6671,-0.3483,-0.9124,-1.0549
3.088,-0.9269,1.4577,0.0959,3.4554,4.2684,-0.6671,-0.3483,-0.9124,-1.0549
3.092,-0.9616,1.4697,0.0885,3.4554,4.2684,-0.6671,-0.3483,-0.9124,-1.0549
3.092,-0.9789,1.4738,0.0871,3.4554,4.2684,-0.6671,-0.3483,-0.9124,-1.0549
3.096,-0.9782,1.4706,0.0924,3.4554,4.2684,-0.6671,-0.3483,-0.9124,-1.0549
3.097,-0.9711,1.4606,0.1083,3.4554,4.2684,-0.6671,-0.3483,-0.9124,-1.0549
3.102,-0.9611,1.4452,0.1257,3.4554,4.2684,-0.6671,-0.3483,-0.9124,-1.0549
3.103,-0.9408,1.4335,0.1415,3.4554,4.2684,-0.6671,-0.3483,-0.9124,-1.0549
3.106,-0.9208,1.4298,0.154,3.4554,4.2684,-0.6671,-0.3483,-0.9124,-1.0549
3.107,-0.9208,1.4298,0.154,3.4554,4.2684,-0.6671,-0.1037,-0.857,-1.9349
3.108,-0.8941,1.4372,0.1584,3.4554,4.2684,-0.6671,-0.1037,-0.857,-1.9349
3.111,-0.8631,1.4435,0.1579,3.4554,4.2684,-0.6671,-0.1037,-0.857,-1.9349
3.112,-0.8257,1.4338,0.1555,3.4554,4.2684,-0.6671,-0.1037,-0.857,-1.9349
3.118,-0.7761,1.4103,0.1442,3.4554,4.2684,-0.6671,-0.1037,-0.857,-1.9349
3.119,-0.7761,1.4103,0.1442,5.7471,5.1915,-0.8916,-0.1037,-0.857,-1.9349
3.12,-0.7219,1.3705,0.1291,5.7471,5.1915,-0.8916,-0.1037,-0.857,-1.9349
3.122,-0.6708,1.3226,0.1139,5.7471,5.1915,-0.8916,-0.1037,-0.857,-1.9349
3.123,-0.6227,1.2755,0.1103,5.7471,5.1915,-0.8916,-0.1037,-0.857,-1.9349
3.127,-0.58,1.2364,0.123,5.7471,5.1915,-0.8916,-0.1037,-0.857,-1.9349
3.127,-0.5533,1.207,0.1481,5.7471,5.1915,-0.8916,-0.1037,-0.857,-1.9349
3.13,-0.5333,1.1934,0.1794,5.7471,5.1915,-0.8916,-0.1037,-0.857,-1.9349
3.131,-0.5221,1.1912,0.2004,5.7471,5.1915,-0.8916,-0.1037,-0.857,-1.9349
3.136,-0.5186,1.1941,0.1953,5.7471,5.1915,-0.8916,-0.1037,-0.857,-1.9349
3.137,-0.5189,1.1995,0.1726,5.7471,5.1915,-0.8916,-0.1037,-0.857,-1.9349
3.141,-0.5196,1.2005,0.134,5.7471,5.1915,-0.8916,-0.1037,-0.857,-1.9349
3.142,-0.5147,1.197,0.0951,5.7471,5.1915,-0.8916,-0.1037,-0.857,-1.9349
3.145,-0.504,1.1826,0.0621,5.7471,5.1915,-0.8916,-0.1037,-0.857,-1.9349
3.146,-0.4849,1.1631,0.0455,5.7471,5.1915,-0.8916,-0.1037,-0.857,-1.9349
3.15,-0.4593,1.1416,0.0487,5.7471,5.1915,-0.8916,-0.1037,-0.857,-1.9349
3.15,-0.4307,1.1118,0.0724,5.7471,5.1915,-0.8916,-0.1037,-0.857,-1.9349
3.155,-0.4038,1.0854,0.1073,5.7471,5.1915,-0.8916,-0.1037,-0.857,-1.9349
3.156,-0.3787,1.0573,0.1401,5.7471,5.1915,-0.8916,-0.1037,-0.857,-1.9349
3.16,-0.3586,1.0307,0.1657,5.7471,5.1915,-0.8916,-0.1037,-0.857,-1.9349
3.161,-0.3349,1.0036,0.1748,5.7471,5.1915,-0.8916,-0.1037,-0.857,-1.9349
3.165,-0.3139,0.9821,0.1755,5.7471,5.1915,-0.8916,-0.1037,-0.857,-1.9349
3.166,-0.2936,0.9596,0.1821,5.7471,5.1915,-0.8916,-0.1037,-0.857,-1.9349
3.17,-0.2704,0.9369,0.196,5.7471,5.1915,-0.8916,-0.1037,-0.857,-1.9349
3.17,-0.2514,0.9149,0.218,5.7471,5.1915,-0.8916,-0.1037,-0.857,-1.9349
3.174,-0.2348,0.8917,0.2424,5.7471,5.1915,-0.8916,-0.1037,-0.857,-1.9349
3.175,-0.2348,0.8917,0.2424,5.7471,5.1915,-0.8916,-0.2446,-1.9159,-2.2007
3.176,-0.2252,0.8704,0.2691,5.7471,5.1915,-0.8916,-0.2446,-1.9159,-2.2007
3.179,-0.225,0.8511,0.2908,5.7471,5.1915,-0.8916,-0.2446,-1.9159,-2.2007
3.18,-0.2338,0.8347,0.3052,5.7471,5.1915,-0.8916,-0.2446,-1.9159,-2.2007
3.184,-0.2338,0.8347,0.3052,-0.3735,5.426,-1.0481,-0.2446,-1.9159,-2.2007
3.185,-0.2502,0.8211,0.3072,-0.3735,5.426,-1.0481,-0.2446,-1.9159,-2.2007
3.186,-0.2741,0.8106,0.302,-0.3735,5.426,-1.0481,-0.2446,-1.9159,-2.2007
3.19,-0.3007,0.8013,0.2891,-0.3735,5.426,-1.0481,-0.2446,-1.9159,-2.2007
3.191,-0.3256,0.7939,0.2686,-0.3735,5.426,-1.0481,-0.2446,-1.9159,-2.2007
3.197,-0.3474,0.7854,0.2549,-0.3735,5.426,-1.0481,-0.2446,-1.9159,-2.2007
3.198,-0.3655,0.7768,0.2483,-0.3735,5.426,-1.0481,-0.2446,-1.9159,-2.2007
3.2,-0.3804,0.7632,0.2505,-0.3735,5.426,-1.0481,-0.2446,-1.9159,-2.2007
3.2,-0.3916,0.747,0.2608,-0.3735,5.426,-1.0481,-0.2446,-1.9159,-2.2007
3.204,-0.4002,0.7299,0.273,-0.3735,5.426,-1.0481,-0.2446,-1.9159,-2.2007
3.205,-0.405,0.7082,0.2864,-0.3735,5.426,-1.0481,-0.2446,-1.9159,-2.2007
3.209,-0.4072,0.683,0.2935,-0.3735,5.426,-1.0481,-0.2446,-1.9159,-2.2007
3.21,-0.4112,0.6586,0.2996,-0.3735,5.426,-1.0481,-0.2446,-1.9159,-2.2007
3.213,-0.4126,0.6325,0.2954,-0.3735,5.426,-1.0481,-0.2446,-1.9159,-2.2007
3.214,-0.4141,0.6078,0.2849,-0.3735,5.426,-1.0481,-0.2446,-1.9159,-2.2007
3.219,-0.4119,0.5875,0.2715,-0.3735,5.426,-1.0481,-0.2446,-1.9159,-2.2007
3.22,-0.4099,0.566,0.2554,-0.3735,5.426,-1.0481,-0.2446,-1.9159,-2.2007
3.223,-0.405,0.5479,0.248,-0.3735,5.426,-1.0481,-0.2446,-1.9159,-2.2007
3.224,-0.4024,0.5328,0.2393,-0.3735,5.426,-1.0481,-0.2446,-1.9159,-2.2007
3.229,-0.4026,0.5191,0.2375,-0.3735,5.426,-1.0481,-0.2446,-1.9159,-2.2007
3.229,-0.4058,0.5084,0.2336,-0.3735,5.426,-1.0481,-0.2446,-1.9159,-2.2007
3.233,-0.4099,0.501,0.2217,-0.3735,5.426,-1.0481,-0.2446,-1.9159,-2.2007
3.234,-0.4175,0.4983,0.2075,-0.3735,5.426,-1.0481,-0.2446,-1.9159,-2.2007
3.239,-0.4309,0.4922,0.1931,-0.3735,5.426,-1.0481,-0.2446,-1.9159,-2.2007
3.24,-0.439,0.4869,0.1738,-0.3735,5.426,-1.0481,-0.2446,-1.9159,-2.2007
3.243,-0.439,0.4869,0.1738,-0.3735,5.426,-1.0481,0.1848,1.0049,-1.2733
3.244,-0.4478,0.4878,0.1557,-0.3735,5.426,-1.0481,0.1848,1.0049,-1.2733
3.244,-0.4556,0.4864,0.1371,-0.3735,5.426,-1.0481,0.1848,1.0049,-1.2733
3.248,-0.4712,0.4849,0.1249,-0.3735,5.426,-1.0481,0.1848,1.0049,-1.2733
3.249,-0.4847,0.4825,0.1174,-0.3735,5.426,-1.0481,0.1848,1.0049,-1.2733
3.253,-0.5006,0.479,0.1127,-0.3735,5.426,-1.0481,0.1848,1.0049,-1.2733
3.253,-0.5006,0.479,0.1127,2.0418,2.7123,0.5485,0.1848,1.0049,-1.2733
3.254,-0.5152,0.4764,0.1076,2.0418,2.7123,0.5485,0.1848,1.0049,-1.2733
3.258,-0.5299,0.4685,0.1027,2.0418,2.7123,0.5485,0.1848,1.0049,-1.2733
3.259,-0.547,0.4622,0.1024,2.0418,2.7123,0.5485,0.1848,1.0049,-1.2733
3.263,-0.5665,0.4544,0.102,2.0418,2.7123,0.5485,0.1848,1.0049,-1.2733
3.264,-0.5822,0.4463,0.089,2.0418,2.7123,0.5485,0.1848,1.0049,-1.2733
3.268,-0.5929,0.4397,0.0719,2.0418,2.7123,0.5485,0.1848,1.0049,-1.2733
3.269,-0.599,0.4341,0.0575,2.0418,2.7123,0.5485,0.1848,1.0049,-1.2733
3.274,-0.6073,0.4277,0.0551,2.0418,2.7123,0.5485,0.1848,1.0049,-1.2733
3.275,-0.6132,0.4204,0.0587,2.0418,2.7123,0.5485,0.1848,1.0049,-1.2733
3.278,-0.6222,0.4172,0.059,2.0418,2.7123,0.5485,0.1848,1.0049,-1.2733
3.278,-0.6266,0.4133,0.0538,2.0418,2.7123,0.5485,0.1848,1.0049,-1.2733
3.283,-0.6335,0.4053,0.0446,2.0418,2.7123,0.5485,0.1848,1.0049,-1.2733
3.284,-0.641,0.3965,0.0387,2.0418,2.7123,0.5485,0.1848,1.0049,-1.2733
3.287,-0.6493,0.3899,0.0304,2.0418,2.7123,0.5485,0.1848,1.0049,-1.2733
3.288,-0.6557,0.3855,0.0216,2.0418,2.7123,0.5485,0.1848,1.0049,-1.2733
3.291,-0.6603,0.3796,0.0118,2.0418,2.7123,0.5485,0.1848,1.0049,-1.2733
3.292,-0.6625,0.374,0.0011,2.0418,2.7123,0.5485,0.1848,1.0049,-1.2733
3.297,-0.6572,0.3679,-0.0031,2.0418,2.7123,0.5485,0.1848,1.0049,-1.2733
3.298,-0.6528,0.365,-0.0063,2.0418,2.7123,0.5485,0.1848,1.0049,-1.2733
3.302,-0.6435,0.3596,-0.0024,2.0418,2.7123,0.5485,0.1848,1.0049,-1.2733
3.302,-0.6347,0.3535,0.0008,2.0418,2.7123,0.5485,0.1848,1.0049,-1.2733
3.307,-0.6225,0.3427,0.0018,2.0418,2.7123,0.5485,0.1848,1.0049,-1.2733
3.308,-0.6095,0.3281,0.0057,2.0418,2.7123,0.5485,0.1848,1.0049,-1.2733
3.312,-0.6095,0.3281,0.0057,2.0418,2.7123,0.5485,0.4162,1.7011,0.4341
3.313,-0.6005,0.3137,0.0184,2.0418,2.7123,0.5485,0.4162,1.7011,0.4341
3.313,-0.5924,0.3005,0.0328,2.0418,2.7123,0.5485,0.4162,1.7011,0.4341
3.316,-0.589,0.2902,0.0419,2.0418,2.7123,0.5485,0.4162,1.7011,0.4341
3.317,-0.5812,0.2804,0.0441,2.0418,2.7123,0.5485,0.4162,1.7011,0.4341
3.322,-0.5812,0.2804,0.0441,1.9303,-2.1621,2.0667,0.4162,1.7011,0.4341
3.323,-0.5724,0.2741,0.0431,1.9303,-2.1621,2.0667,0.4162,1.7011,0.4341
3.323,-0.5611,0.2646,0.0446,1.9303,-2.1621,2.0667,0.4162,1.7011,0.4341
3.326,-0.5499,0.2575,0.0533,1.9303,-2.1621,2.0667,0.4162,1.7011,0.4341
3.327,-0.536,0.2516,0.0599,1.9303,-2.1621,2.0667,0.4162,1.7011,0.4341
3.331,-0.5243,0.2455,0.0607,1.9303,-2.1621,2.0667,0.4162,1.7011,0.4341
3.332,-0.5079,0.2372,0.0614,1.9303,-2.1621,2.0667,0.4162,1.7011,0.4341
3.337,-0.4898,0.2316,0.0631,1.9303,-2.1621,2.0667,0.4162,1.7011,0.4341
3.337,-0.472,0.2255,0.0648,1.9303,-2.1621,2.0667,0.4162,1.7011,0.4341
3.341,-0.4561,0.2203,0.066,1.9303,-2.1621,2.0667,0.4162,1.7011,0.4341
3.342,-0.441,0.212,0.0744,1.9303,-2.1621,2.0667,0.4162,1.7011,0.4341
3.346,-0.4283,0.2054,0.0858,1.9303,-2.1621,2.0667,0.4162,1.7011,0.4341
3.347,-0.4195,0.2057,0.0927,1.9303,-2.1621,2.0667,0.4162,1.7011,0.4341
3.354,-0.4124,0.2027,0.0973,1.9303,-2.1621,2.0667,0.4162,1.7011,0.4341
3.354,-0.4031,0.2005,0.101,1.9303,-2.1621,2.0667,0.4162,1.7011,0.4341
3.355,-0.396,0.1984,0.1068,1.9303,-2.1621,2.0667,0.4162,1.7011,0.4341
3.356,-0.3904,0.1993,0.1095,1.9303,-2.1621,2.0667,0.4162,1.7011,0.4341
3.361,-0.3857,0.2018,0.1122,1.9303,-2.1621,2.0667,0.4162,1.7011,0.4341
3.361,-0.3843,0.2052,0.1051,1.9303,-2.1621,2.0667,0.4162,1.7011,0.4341
3.365,-0.3799,0.2108,0.1017,1.9303,-2.1621,2.0667,0.4162,1.7011,0.4341
3.366,-0.3777,0.2169,0.0993,1.9303,-2.1621,2.0667,0.4162,1.7011,0.4341
3.37,-0.3708,0.2233,0.0983,1.9303,-2.1621,2.0667,0.4162,1.7011,0.4341
3.371,-0.3655,0.2313,0.099,1.9303,-2.1621,2.0667,0.4162,1.7011,0.4341
3.375,-0.3562,0.2394,0.0976,1.9303,-2.1621,2.0667,0.4162,1.7011,0.4341
3.377,-0.3511,0.2494,0.0941,1.9303,-2.1621,2.0667,0.4162,1.7011,0.4341
3.38,-0.3511,0.2611,0.0951,1.9303,-2.1621,2.0667,0.4162,1.7011,0.4341
3.381,-0.3491,0.2702,0.0961,1.9303,-2.1621,2.0667,0.4162,1.7011,0.4341
3.381,-0.3491,0.2702,0.0961,1.9303,-2.1621,2.0667,0.2285,0.7539,2.0063
3.387,-0.3528,0.2795,0.0927,1.9303,-2.1621,2.0667,0.2285,0.7539,2.0063
3.387,-0.3599,0.2883,0.0846,1.9303,-2.1621,2.0667,0.2285,0.7539,2.0063
3.39,-0.3599,0.2883,0.0846,-1.2963,-5.0623,0.5894,0.2285,0.7539,2.0063
3.391,-0.3694,0.2992,0.0736,-1.2963,-5.0623,0.5894,0.2285,0.7539,2.0063
3.391,-0.3762,0.309,0.0638,-1.2963,-5.0623,0.5894,0.2285,0.7539,2.0063
3.396,-0.3843,0.3195,0.0621,-1.2963,-5.0623,0.5894,0.2285,0.7539,2.0063
3.397,-0.3923,0.3295,0.0573,-1.2963,-5.0623,0.5894,0.2285,0.7539,2.0063
3.401,-0.4036,0.3403,0.0551,-1.2963,-5.0623,0.5894,0.2285,0.7539,2.0063
3.402,-0.4099,0.3515,0.0487,-1.2963,-5.0623,0.5894,0.2285,0.7539,2.0063
3.405,-0.4148,0.3601,0.0402,-1.2963,-5.0623,0.5894,0.2285,0.7539,2.0063
3.407,-0.4175,0.3681,0.0333,-1.2963,-5.0623,0.5894,0.2285,0.7539,2.0063
3.409,-0.416,0.3747,0.034,-1.2963,-5.0623,0.5894,0.2285,0.7539,2.0063
3.41,-0.4155,0.3794,0.035,-1.2963,-5.0623,0.5894,0.2285,0.7539,2.0063
3.415,-0.4158,0.3774,0.0355,-1.2963,-5.0623,0.5894,0.2285,0.7539,2.0063
3.416,-0.4165,0.376,0.036,-1.2963,-5.0623,0.5894,0.2285,0.7539,2.0063
3.42,-0.4209,0.3747,0.0389,-1.2963,-5.0623,0.5894,0.2285,0.7539,2.0063
3.42,-0.4275,0.3755,0.0424,-1.2963,-5.0623,0.5894,0.2285,0.7539,2.0063
3.424,-0.438,0.3747,0.0431,-1.2963,-5.0623,0.5894,0.2285,0.7539,2.0063
3.425,-0.4495,0.3769,0.0421,-1.2963,-5.0623,0.5894,0.2285,0.7539,2.0063
3.431,-0.4576,0.3818,0.038,-1.2963,-5.0623,0.5894,0.2285,0.7539,2.0063
3.432,-0.4654,0.3891,0.0338,-1.2963,-5.0623,0.5894,0.2285,0.7539,2.0063
3.433,-0.4771,0.4023,0.0284,-1.2963,-5.0623,0.5894,0.2285,0.7539,2.0063
3.434,-0.4866,0.4131,0.0233,-1.2963,-5.0623,0.5894,0.2285,0.7539,2.0063
3.439,-0.4898,0.4214,0.0179,-1.2963,-5.0623,0.5894,0.2285,0.7539,2.0063
3.44,-0.4962,0.429,0.0113,-1.2963,-5.0623,0.5894,0.2285,0.7539,2.0063
3.443,-0.4996,0.437,0.0072,-1.2963,-5.0623,0.5894,0.2285,0.7539,2.0063
3.444,-0.5003,0.4441,0.0016,-1.2963,-5.0623,0.5894,0.2285,0.7539,2.0063
3.449,-0.5003,0.4441,0.0016,-1.2963,-5.0623,0.5894,-0.3061,1.3641,2.7612
3.451,-0.4974,0.4507,0.002,-1.2963,-5.0623,0.5894,-0.3061,1.3641,2.7612
3.451,-0.4905,0.4571,0.0028,-1.2963,-5.0623,0.5894,-0.3061,1.3641,2.7612
3.454,-0.4842,0.4571,0.005,-1.2963,-5.0623,0.5894,-0.3061,1.3641,2.7612
3.455,-0.4805,0.4607,0.0106,-1.2963,-5.0623,0.5894,-0.3061,1.3641,2.7612
3.458,-0.4805,0.4607,0.0106,-1.1874,-7.1245,1.0921,-0.3061,1.3641,2.7612
3.459,-0.4808,0.4659,0.0116,-1.1874,-7.1245,1.0921,-0.3061,1.3641,2.7612
3.459,-0.4862,0.4693,0.0155,-1.1874,-7.1245,1.0921,-0.3061,1.3641,2.7612
3.463,-0.4971,0.4764,0.0125,-1.1874,-7.1245,1.0921,-0.3061,1.3641,2.7612
3.463,-0.5081,0.4817,0.006,-1.1874,-7.1245,1.0921,-0.3061,1.3641,2.7612
3.467,-0.5157,0.4856,0.0028,-1.1874,-7.1245,1.0921,-0.3061,1.3641,2.7612
3.468,-0.5238,0.491,0.0055,-1.1874,-7.1245,1.0921,-0.3061,1.3641,2.7612
3.473,-0.5272,0.4959,0.0103,-1.1874,-7.1245,1.0921,-0.3061,1.3641,2.7612
3.474,-0.5257,0.5013,0.0213,-1.1874,-7.1245,1.0921,-0.3061,1.3641,2.7612
3.477,-0.5191,0.5093,0.0331,-1.1874,-7.1245,1.0921,-0.3061,1.3641,2.7612
3.478,-0.5125,0.5147,0.0397,-1.1874,-7.1245,1.0921,-0.3061,1.3641,2.7612
3.484,-0.5072,0.5225,0.0467,-1.1874,-7.1245,1.0921,-0.3061,1.3641,2.7612
3.485,-0.5003,0.5247,0.0494,-1.1874,-7.1245,1.0921,-0.3061,1.3641,2.7612
3.487,-0.4927,0.5321,0.0475,-1.1874,-7.1245,1.0921,-0.3061,1.3641,2.7612
3.488,-0.4837,0.5372,0.045,-1.1874,-7.1245,1.0921,-0.3061,1.3641,2.7612
3.492,-0.4727,0.5445,0.0455,-1.1874,-7.1245,1.0921,-0.3061,1.3641,2.7612
3.493,-0.4622,0.5528,0.0465,-1.1874,-7.1245,1.0921,-0.3061,1.3641,2.7612
3.497,-0.4466,0.5638,0.0465,-1.1874,-7.1245,1.0921,-0.3061,1.3641,2.7612
3.498,-0.4329,0.5755,0.0485,-1.1874,-7.1245,1.0921,-0.3061,1.3641,2.7612
3.502,-0.4209,0.59,0.0529,-1.1874,-7.1245,1.0921,-0.3061,1.3641,2.7612
3.502,-0.4112,0.6029,0.0558,-1.1874,-7.1245,1.0921,-0.3061,1.3641,2.7612
3.507,-0.4016,0.6171,0.0575,-1.1874,-7.1245,1.0921,-0.3061,1.3641,2.7612
3.508,-0.395,0.6312,0.0587,-1.1874,-7.1245,1.0921,-0.3061,1.3641,2.7612
3.512,-0.3914,0.6449,0.0565,-1.1874,-7.1245,1.0921,-0.3061,1.3641,2.7612
3.513,-0.3882,0.6571,0.0507,-1.1874,-7.1245,1.0921,-0.3061,1.3641,2.7612
3.517,-0.3882,0.6679,0.0404,-1.1874,-7.1245,1.0921,-0.3061,1.3641,2.7612
3.518,-0.3867,0.6789,0.0318,-1.1874,-7.1245,1.0921,-0.3061,1.3641,2.7612
3.519,-0.3867,0.6789,0.0318,-1.1874,-7.1245,1.0921,-0.9864,1.2377,2.4259
3.522,-0.3892,0.6869,0.0262,-1.1874,-7.1245,1.0921,-0.9864,1.2377,2.4259
3.523,-0.3941,0.6933,0.015,-1.1874,-7.1245,1.0921,-0.9864,1.2377,2.4259
3.527,-0.3989,0.6977,0.0103,-1.1874,-7.1245,1.0921,-0.9864,1.2377,2.4259
3.528,-0.4011,0.6962,0.0062,-1.1874,-7.1245,1.0921,-0.9864,1.2377,2.4259
3.529,-0.4011,0.6962,0.0062,-2.9217,-5.7891,0.0726,-0.9864,1.2377,2.4259
3.531,-0.4065,0.694,-0.0004,-2.9217,-5.7891,0.0726,-0.9864,1.2377,2.4259
3.532,-0.4131,0.6896,-0.0031,-2.9217,-5.7891,0.0726,-0.9864,1.2377,2.4259
3.537,-0.4231,0.6828,-0.0043,-2.9217,-5.7891,0.0726,-0.9864,1.2377,2.4259
3.537,-0.4358,0.6764,-0.0068,-2.9217,-5.7891,0.0726,-0.9864,1.2377,2.4259
3.541,-0.4519,0.6694,-0.009,-2.9217,-5.7891,0.0726,-0.9864,1.2377,2.4259
3.542,-0.4654,0.6608,-0.0126,-2.9217,-5.7891,0.0726,-0.9864,1.2377,2.4259
3.548,-0.4803,0.6564,-0.0197,-2.9217,-5.7891,0.0726,-0.9864,1.2377,2.4259
3.549,-0.4935,0.6479,-0.0217,-2.9217,-5.7891,0.0726,-0.9864,1.2377,2.4259
3.552,-0.5045,0.6403,-0.0268,-2.9217,-5.7891,0.0726,-0.9864,1.2377,2.4259
3.553,-0.5123,0.6325,-0.028,-2.9217,-5.7891,0.0726,-0.9864,1.2377,2.4259
3.557,-0.5177,0.6181,-0.0278,-2.9217,-5.7891,0.0726,-0.9864,1.2377,2.4259
3.558,-0.5267,0.6002,-0.0141,-2.9217,-5.7891,0.0726,-0.9864,1.2377,2.4259
3.561,-0.5414,0.5892,0.0128,-2.9217,-5.7891,0.0726,-0.9864,1.2377,2.4259
3.561,-0.5572,0.5777,0.0318,-2.9217,-5.7891,0.0726,-0.9864,1.2377,2.4259
3.565,-0.5704,0.5738,0.0255,-2.9217,-5.7891,0.0726,-0.9864,1.2377,2.4259
3.567,-0.5807,0.576,0.0028,-2.9217,-5.7891,0.0726,-0.9864,1.2377,2.4259
3.57,-0.5822,0.5841,-0.0241,-2.9217,-5.7891,0.0726,-0.9864,1.2377,2.4259
3.57,-0.5802,0.6075,-0.0517,-2.9217,-5.7891,0.0726,-0.9864,1.2377,2.4259
3.575,-0.5651,0.6366,-0.0573,-2.9217,-5.7891,0.0726,-0.9864,1.2377,2.4259
3.577,-0.5401,0.6672,-0.0287,-2.9217,-5.7891,0.0726,-0.9864,1.2377,2.4259
3.58,-0.5059,0.705,0.0057,-2.9217,-5.7891,0.0726,-0.9864,1.2377,2.4259
3.581,-0.45,0.7431,0.0177,-2.9217,-5.7891,0.0726,-0.9864,1.2377,2.4259
3.585,-0.3914,0.7886,0.0218,-2.9217,-5.7891,0.0726,-0.9864,1.2377,2.4259
3.586,-0.3914,0.7886,0.0218,-2.9217,-5.7891,0.0726,-0.8707,1.5443,0.9787
3.587,-0.3706,0.8623,0.0563,-2.9217,-5.7891,0.0726,-0.8707,1.5443,0.9787
3.59,-0.4231,0.9833,0.1198,-2.9217,-5.7891,0.0726,-0.8707,1.5443,0.9787
3.591,-0.5565,1.1575,0.2104,-2.9217,-5.7891,0.0726,-0.8707,1.5443,0.9787
3.595,-0.7791,1.347,0.2769,-2.9217,-5.7891,0.0726,-0.8707,1.5443,0.9787
3.596,-1.0087,1.5039,0.2561,-2.9217,-5.7891,0.0726,-0.8707,1.5443,0.9787
3.597,-1.0087,1.5039,0.2561,-3.3781,-4.0148,-0.2631,-0.8707,1.5443,0.9787
3.6,-1.2239,1.6387,0.1315,-3.3781,-4.0148,-0.2631,-0.8707,1.5443,0.9787
3.601,-1.391,1.7618,-0.1445,-3.3781,-4.0148,-0.2631,-0.8707,1.5443,0.9787
3.604,-1.5256,1.8488,-0.5645,-3.3781,-4.0148,-0.2631,-0.8707,1.5443,0.9787
3.605,-1.6268,1.8747,-1.0111,-3.3781,-4.0148,-0.2631,-0.8707,1.5443,0.9787
3.61,-1.6749,1.8386,-1.3482,-3.3781,-4.0148,-0.2631,-0.8707,1.5443,0.9787
3.611,-1.6705,1.7565,-1.4151,-3.3781,-4.0148,-0.2631,-0.8707,1.5443,0.9787
3.614,-1.6373,1.6519,-1.2143,-3.3781,-4.0148,-0.2631,-0.8707,1.5443,0.9787
3.615,-1.5562,1.5266,-0.8261,-3.3781,-4.0148,-0.2631,-0.8707,1.5443,0.9787
3.619,-1.4006,1.3697,-0.3177,-3.3781,-4.0148,-0.2631,-0.8707,1.5443,0.9787
3.62,-1.165,1.186,0.2229,-3.3781,-4.0148,-0.2631,-0.8707,1.5443,0.9787
3.625,-0.8663,0.986,0.6912,-3.3781,-4.0148,-0.2631,-0.8707,1.5443,0.9787
3.625,-0.5409,0.792,1.012,-3.3781,-4.0148,-0.2631,-0.8707,1.5443,0.9787
3.63,-0.1937,0.6271,1.1678,-3.3781,-4.0148,-0.2631,-0.8707,1.5443,0.9787
3.631,0.1688,0.5162,1.1788,-3.3781,-4.0148,-0.2631,-0.8707,1.5443,0.9787
3.635,0.5238,0.4849,1.0642,-3.3781,-4.0148,-0.2631,-0.8707,1.5443,0.9787
3.636,0.8436,0.5365,0.8744,-3.3781,-4.0148,-0.2631,-0.8707,1.5443,0.9787
3.638,1.1035,0.6703,0.669,-3.3781,-4.0148,-0.2631,-0.8707,1.5443,0.9787
3.64,1.2701,0.8687,0.4975,-3.3781,-4.0148,-0.2631,-0.8707,1.5443,0.9787
3.643,1.3287,1.104,0.3551,-3.3781,-4.0148,-0.2631,-0.8707,1.5443,0.9787
3.644,1.3058,1.3348,0.2278,-3.3781,-4.0148,-0.2631,-0.8707,1.5443,0.9787
3.649,1.2354,1.5166,0.112,-3.3781,-4.0148,-0.2631,-0.8707,1.5443,0.9787
3.65,1.1455,1.6182,0.0221,-3.3781,-4.0148,-0.2631,-0.8707,1.5443,0.9787
3.653,1.1455,1.6182,0.0221,-3.3781,-4.0148,-0.2631,-0.0565,-0.667,-1.2241
3.655,1.0456,1.6221,-0.0375,-3.3781,-4.0148,-0.2631,-0.0565,-0.667,-1.2241
3.655,0.9251,1.5259,-0.0424,-3.3781,-4.0148,-0.2631,-0.0565,-0.667,-1.2241
3.658,0.769,1.3583,0.0226,-3.3781,-4.0148,-0.2631,-0.0565,-0.667,-1.2241
3.659,0.5702,1.1682,0.1393,-3.3781,-4.0148,-0.2631,-0.0565,-0.667,-1.2241
3.663,0.3691,0.9874,0.2676,-3.3781,-4.0148,-0.2631,-0.0565,-0.667,-1.2241
3.664,0.3691,0.9874,0.2676,-2.9515,-2.4268,-0.5502,-0.0565,-0.667,-1.2241
3.665,0.1627,0.8284,0.3836,-2.9515,-2.4268,-0.5502,-0.0565,-0.667,-1.2241
3.669,-0.0535,0.7065,0.4601,-2.9515,-2.4268,-0.5502,-0.0565,-0.667,-1.2241
3.67,-0.2714,0.619,0.4848,-2.9515,-2.4268,-0.5502,-0.0565,-0.667,-1.2241
3.674,-0.4681,0.5606,0.4545,-2.9515,-2.4268,-0.5502,-0.0565,-0.667,-1.2241
3.675,-0.6242,0.5296,0.3915,-2.9515,-2.4268,-0.5502,-0.0565,-0.667,-1.2241
3.678,-0.7368,0.5269,0.3165,-2.9515,-2.4268,-0.5502,-0.0565,-0.667,-1.2241
3.679,-0.8074,0.5467,0.2532,-2.9515,-2.4268,-0.5502,-0.0565,-0.667,-1.2241
3.683,-0.8443,0.5904,0.2148,-2.9515,-2.4268,-0.5502,-0.0565,-0.667,-1.2241
3.684,-0.8646,0.6554,0.2121,-2.9515,-2.4268,-0.5502,-0.0565,-0.667,-1.2241
3.687,-0.8751,0.726,0.2402,-2.9515,-2.4268,-0.5502,-0.0565,-0.667,-1.2241
3.688,-0.8792,0.7883,0.2891,-2.9515,-2.4268,-0.5502,-0.0565,-0.667,-1.2241
3.693,-0.8885,0.8408,0.3387,-2.9515,-2.4268,-0.5502,-0.0565,-0.667,-1.2241
3.693,-0.8902,0.8643,0.368,-2.9515,-2.4268,-0.5502,-0.0565,-0.667,-1.2241
3.697,-0.8863,0.8621,0.3695,-2.9515,-2.4268,-0.5502,-0.0565,-0.667,-1.2241
3.699,-0.8814,0.8404,0.335,-2.9515,-2.4268,-0.5502,-0.0565,-0.667,-1.2241
3.702,-0.8714,0.801,0.2815,-2.9515,-2.4268,-0.5502,-0.0565,-0.667,-1.2241
3.703,-0.8587,0.7509,0.2182,-2.9515,-2.4268,-0.5502,-0.0565,-0.667,-1.2241
3.71,-0.8543,0.6945,0.153,-2.9515,-2.4268,-0.5502,-0.0565,-0.667,-1.2241
3.711,-0.8516,0.6374,0.1046,-2.9515,-2.4268,-0.5502,-0.0565,-0.667,-1.2241
3.712,-0.8472,0.5868,0.0807,-2.9515,-2.4268,-0.5502,-0.0565,-0.667,-1.2241
3.713,-0.8392,0.5418,0.0731,-2.9515,-2.4268,-0.5502,-0.0565,-0.667,-1.2241
3.716,-0.8316,0.5132,0.0795,-2.9515,-2.4268,-0.5502,-0.0565,-0.667,-1.2241
3.719,-0.8304,0.5054,0.0856,-2.9515,-2.4268,-0.5502,-0.0565,-0.667,-1.2241
3.721,-0.844,0.5303,0.0932,-2.9515,-2.4268,-0.5502,-0.0565,-0.667,-1.2241
3.725,-0.844,0.5303,0.0932,-2.9515,-2.4268,-0.5502,0.2876,1.2489,-0.9616
3.726,-0.8648,0.5963,0.102,-2.9515,-2.4268,-0.5502,0.2876,1.2489,-0.9616
3.727,-0.8888,0.6967,0.1022,-2.9515,-2.4268,-0.5502,0.2876,1.2489,-0.9616
3.729,-0.9039,0.8306,0.0927,-2.9515,-2.4268,-0.5502,0.2876,1.2489,-0.9616
3.73,-0.908,0.9772,0.0629,-2.9515,-2.4268,-0.5502,0.2876,1.2489,-0.9616
3.731,-0.908,0.9772,0.0629,0.8375,3.1367,0.3488,0.2876,1.2489,-0.9616
3.735,-0.8985,1.1264,0.0243,0.8375,3.1367,0.3488,0.2876,1.2489,-0.9616
3.735,-0.8716,1.2593,-0.0072,0.8375,3.1367,0.3488,0.2876,1.2489,-0.9616
3.74,-0.8196,1.3641,-0.0373,0.8375,3.1367,0.3488,0.2876,1.2489,-0.9616
3.741,-0.7449,1.4279,-0.0666,0.8375,3.1367,0.3488,0.2876,1.2489,-0.9616
3.744,-0.6564,1.4579,-0.082,0.8375,3.1367,0.3488,0.2876,1.2489,-0.9616
3.745,-0.5585,1.4521,-0.0827,0.8375,3.1367,0.3488,0.2876,1.2489,-0.9616
3.748,-0.4632,1.4208,-0.0798,0.8375,3.1367,0.3488,0.2876,1.2489,-0.9616
3.749,-0.3816,1.3744,-0.0673,0.8375,3.1367,0.3488,0.2876,1.2489,-0.9616
3.754,-0.3127,1.316,-0.0292,0.8375,3.1367,0.3488,0.2876,1.2489,-0.9616
3.755,-0.2658,1.2486,0.0174,0.8375,3.1367,0.3488,0.2876,1.2489,-0.9616
3.759,-0.2375,1.1782,0.0609,0.8375,3.1367,0.3488,0.2876,1.2489,-0.9616
3.76,-0.2121,1.1003,0.1002,0.8375,3.1367,0.3488,0.2876,1.2489,-0.9616
3.763,-0.1918,1.0209,0.1242,0.8375,3.1367,0.3488,0.2876,1.2489,-0.9616
3.764,-0.1752,0.9359,0.1403,0.8375,3.1367,0.3488,0.2876,1.2489,-0.9616
3.768,-0.1705,0.8572,0.1506,0.8375,3.1367,0.3488,0.2876,1.2489,-0.9616
3.769,-0.1844,0.7991,0.153,0.8375,3.1367,0.3488,0.2876,1.2489,-0.9616
3.774,-0.2277,0.7668,0.1574,0.8375,3.1367,0.3488,0.2876,1.2489,-0.9616
3.775,-0.2961,0.7617,0.1667,0.8375,3.1367,0.3488,0.2876,1.2489,-0.9616
3.779,-0.384,0.7805,0.1752,0.8375,3.1367,0.3488,0.2876,1.2489,-0.9616
3.78,-0.4764,0.814,0.1718,0.8375,3.1367,0.3488,0.2876,1.2489,-0.9616
3.782,-0.5717,0.8611,0.1552,0.8375,3.1367,0.3488,0.2876,1.2489,-0.9616
3.783,-0.6547,0.9083,0.1288,0.8375,3.1367,0.3488,0.2876,1.2489,-0.9616
3.787,-0.7256,0.9547,0.1,0.8375,3.1367,0.3488,0.2876,1.2489,-0.9616
3.789,-0.7808,0.995,0.07,0.8375,3.1367,0.3488,0.2876,1.2489,-0.9616
3.792,-0.825,1.0285,0.047,0.8375,3.1367,0.3488,0.2876,1.2489,-0.9616
3.793,-0.825,1.0285,0.047,0.8375,3.1367,0.3488,0.1818,0.0526,-0.2238
3.794,-0.8543,1.0505,0.0243,0.8375,3.1367,0.3488,0.1818,0.0526,-0.2238
3.798,-0.8543,1.0505,0.0243,-4.6102,-2.5731,2.0952,0.1818,0.0526,-0.2238
3.799,-0.8707,1.0636,0.0099,-4.6102,-2.5731,2.0952,0.1818,0.0526,-0.2238
3.8,-0.8707,1.0663,0.0023,-4.6102,-2.5731,2.0952,0.1818,0.0526,-0.2238
3.803,-0.8548,1.0592,-0.0031,-4.6102,-2.5731,2.0952,0.1818,0.0526,-0.2238
3.804,-0.8257,1.0485,-0.0109,-4.6102,-2.5731,2.0952,0.1818,0.0526,-0.2238
3.807,-0.7837,1.0378,-0.0185,-4.6102,-2.5731,2.0952,0.1818,0.0526,-0.2238
3.809,-0.7375,1.027,-0.028,-4.6102,-2.5731,2.0952,0.1818,0.0526,-0.2238
3.812,-0.6877,1.0231,-0.0324,-4.6102,-2.5731,2.0952,0.1818,0.0526,-0.2238
3.812,-0.6479,1.026,-0.0353,-4.6102,-2.5731,2.0952,0.1818,0.0526,-0.2238
3.818,-0.609,1.036,-0.0385,-4.6102,-2.5731,2.0952,0.1818,0.0526,-0.2238
3.818,-0.5763,1.0507,-0.0449,-4.6102,-2.5731,2.0952,0.1818,0.0526,-0.2238
3.821,-0.5419,1.0688,-0.0541,-4.6102,-2.5731,2.0952,0.1818,0.0526,-0.2238
3.822,-0.5098,1.0829,-0.0629,-4.6102,-2.5731,2.0952,0.1818,0.0526,-0.2238
3.829,-0.4752,1.0944,-0.071,-4.6102,-2.5731,2.0952,0.1818,0.0526,-0.2238
3.83,-0.4383,1.0954,-0.0759,-4.6102,-2.5731,2.0952,0.1818,0.0526,-0.2238
3.833,-0.4065,1.0893,-0.0791,-4.6102,-2.5731,2.0952,0.1818,0.0526,-0.2238
3.834,-0.3804,1.0768,-0.0815,-4.6102,-2.5731,2.0952,0.1818,0.0526,-0.2238
3.836,-0.3613,1.0573,-0.083,-4.6102,-2.5731,2.0952,0.1818,0.0526,-0.2238
3.837,-0.3476,1.0312,-0.0869,-4.6102,-2.5731,2.0952,0.1818,0.0526,-0.2238
3.843,-0.3357,1.0092,-0.0905,-4.6102,-2.5731,2.0952,0.1818,0.0526,-0.2238
3.844,-0.3327,0.9891,-0.0957,-4.6102,-2.5731,2.0952,0.1818,0.0526,-0.2238
3.846,-0.3325,0.973,-0.1011,-4.6102,-2.5731,2.0952,0.1818,0.0526,-0.2238
3.847,-0.3327,0.9635,-0.1125,-4.6102,-2.5731,2.0952,0.1818,0.0526,-0.2238
3.852,-0.3391,0.9566,-0.1218,-4.6102,-2.5731,2.0952,0.1818,0.0526,-0.2238
3.852,-0.3432,0.9554,-0.135,-4.6102,-2.5731,2.0952,0.1818,0.0526,-0.2238
